time,acc_x,acc_y,acc_z,mag_x,mag_y,mag_z,gyr_x,gyr_y,gyr_z
1589985347.003073,-3.72,-0.49,8.84,0.3022222222222222,-0.3566666666666667,-0.6055555555555555,-0.007635815477475192,0.0,-0.003272492347489368
1589985347.013073,-3.70373356602676,-0.5387993019197208,8.896932518906342,0.3022222222222222,-0.3566666666666667,-0.6055555555555555,-0.004087030097583871,0.0017743926899456606,-0.005046885037435028
1589985347.023073,-3.739414562751555,-0.5992682034394439,8.939560922063666,0.30879131601414805,-0.3380542342562101,-0.6197885921047283,0.0021018349435149427,3.193064859118803e-05,-0.004379288454281418
1589985347.033073,-3.759559864138126,-0.6097799320690631,8.96933979620719,0.3088888888888889,-0.3377777777777778,-0.62,-0.0010188137205045804,-0.0010668250951658305,-0.008630623510649145
1589985347.043073,-3.76,-0.61,8.928000491581663,0.3088888888888889,-0.3377777777777778,-0.62,-0.00017454364984765712,-0.00017454364984765712,-0.00689407199467405
1589985347.053073,-3.769911453284617,-0.599911453284617,8.970265640146149,0.3088888888888889,-0.3377777777777778,-0.62,-0.0010715128859307332,-0.0032628333992065065,-0.006535325746695874
1589985347.063073,-3.7620926851092387,-0.5920926851092386,8.993721944672284,0.3088888888888889,-0.3377777777777778,-0.62,0.0006342777154505529,-0.0024099380985158634,-0.0056824304460052315
1589985347.073073,-3.7398639902756337,-0.6193199513781662,9.029319951378165,0.3088888888888889,-0.3422222222222222,-0.5911111111111111,0.001046321704279018,-0.0022410070026161627,-2.96727188116254e-05
1589985347.083073,-3.732974309274286,-0.5848715463714314,8.994871546371431,0.3088888888888889,-0.3422222222222222,-0.5911111111111111,-0.0012083211310760626,-0.005247197449756269,-0.0015327679423816785
1589985347.093073,-3.739805018510901,-0.5994150555327026,8.87214479638009,0.3088888888888889,-0.3422222222222222,-0.5911111111111111,-0.003251223166456735,-0.0033362998905872685,0.0010270232393985554
1589985347.103073,-3.74,-0.6298059368935528,8.909741249191404,0.3088888888888889,-0.3422222222222222,-0.5911111111111111,-0.0021887178986682286,-0.004356266796310507,0.003258379680138735
1589985347.1130729,-3.724889041989992,-0.652666437015012,8.955332874030024,0.3088888888888889,-0.3422222222222222,-0.5911111111111111,-0.003005836472509317,0.0005817263151126038,0.004096667255005773
1589985347.1230729,-3.72,-0.66579692433038,8.97,0.3005155537450068,-0.3422222222222222,-0.6039931651786219,-0.0007431069461369586,0.002181661564992912,0.004363323129985824
1589985347.1330729,-3.727729251305862,-0.6622707486941382,9.016375507835171,0.29444444444444445,-0.3422222222222222,-0.6133333333333333,0.0027770918325134676,0.0055541836650269336,0.002677062079968813
1589985347.1430728,-3.7472857627282856,-0.6254284745434288,8.934928304994429,0.29444444444444445,-0.3422222222222222,-0.6133333333333333,0.005158076555783755,0.006544984694978735,0.0002960773566985245
1589985347.1530728,-3.75,-0.6298036041868997,8.9886252293083,0.29444444444444445,-0.3422222222222222,-0.6133333333333333,0.006523561235130418,0.002267355404386181,-0.0010694073226481388
1589985347.1630728,-3.75,-0.6223805738371663,8.982380573837167,0.29444444444444445,-0.3422222222222222,-0.6133333333333333,0.006544984694978735,0.0005193606443173431,-0.001090830782496456
1589985347.1730728,-3.7413150267427615,-0.6113150267427615,8.98868497325724,0.3011994236445188,-0.3422222222222222,-0.5988583779046025,0.0046502174601478884,-0.004736918087077119,-0.00014344716508103207
1589985347.1830728,-3.74,-0.61,8.951384488788316,0.3022222222222222,-0.3422222222222222,-0.5966666666666667,-0.0015338952336301738,-0.007139073444943994,0.0008424597662308568
1589985347.1930728,-3.74,-0.6027696595007259,8.874926935506533,0.3022222222222222,-0.3422222222222222,-0.5966666666666667,-0.0024837845490354765,-0.0036922764852057336,-0.0004865848144113272
1589985347.2030728,-3.74,-0.6,8.874390033204655,0.3022222222222222,-0.3422222222222222,-0.5966666666666667,-0.0012948149314680013,0.00047887833558182043,0.0006828624845533655
1589985347.2130728,-3.7333463811351586,-0.6066536188648413,8.946536188648412,0.3022222222222222,-0.3422222222222222,-0.5966666666666667,-0.003268222464326842,-0.0018123581266107252,0.001090830782496456
1589985347.2230728,-3.7472042706639326,-0.61,8.988602135331966,0.3022222222222222,-0.3489127719248627,-0.5966666666666667,-0.0015482809253930464,-0.0004574501428965907,0.0001524833809655302
1589985347.2330728,-3.743943852824895,-0.6039438528248947,9.00211229435021,0.3022222222222222,-0.35,-0.5966666666666667,0.0008910387460836615,-0.0026424927047734898,0.0019818695285801174
1589985347.2430727,-3.7330598249223446,-0.6069401750776554,8.968358949534068,0.3022222222222222,-0.35,-0.5966666666666667,0.0036957728871171627,-0.0036062674689236983,0.0010013253643029914
1589985347.2530727,-3.7476262665127615,-0.61,8.958813133256381,0.3022222222222222,-0.35,-0.5966666666666667,0.008208777948507126,0.002495689880292584,0.0009613637046303254
1589985347.2630727,-3.7290151273736107,-0.61,8.97398991508426,0.3022222222222222,-0.35,-0.5966666666666667,0.004911488755366164,0.0017464293456471742,0.0018538622834175528
1589985347.2730727,-3.7309365635419747,-0.61,8.969063436458026,0.3022222222222222,-0.34331654450212673,-0.6015273615742108,0.0026759953391736592,-0.0006986602424506698,0.0015851645566772035
1589985347.2830727,-3.7476468170950388,-0.5947063658099223,8.914119097429767,0.3022222222222222,-0.3377777777777778,-0.6055555555555555,0.001347523217454061,-0.003015799912531763,0.0002566924349576052
1589985347.2930727,-3.7566226937440774,-0.5966226937440776,8.873509225023689,0.3022222222222222,-0.3377777777777778,-0.6055555555555555,-0.0010764406772295068,0.0010620505719625573,-0.0007224238199086541
1589985347.3030727,-3.7426645756592145,-0.5913322878296072,8.929341697363142,0.3022222222222222,-0.3377777777777778,-0.6055555555555555,-0.0012361608400645494,-0.0005095105522240819,-0.0020363315074248185
1589985347.3130727,-3.754065570759482,-0.597032785379741,8.968131141518965,0.3022222222222222,-0.3377777777777778,-0.6055555555555555,-0.003392304416170217,-0.0018579886603877094,0.0008869699465721024
1589985347.3230727,-3.7434357837942,-0.6082821081029001,9.0214105405145,0.3243078438299558,-0.3377777777777778,-0.6055555555555555,-0.0016530095912038016,-0.00037478587247156405,-0.0005286519737891103
1589985347.3330727,-3.731101762917933,-0.6011017629179332,9.021101762917933,0.3288888888888889,-0.3377777777777778,-0.6055555555555555,0.0008504634013175407,0.0019412941838139967,-0.002061477874403454
1589985347.3430727,-3.73,-0.6091302225693088,8.93782799687622,0.3288888888888889,-0.3377777777777778,-0.6055555555555555,0.004078689131390253,0.002181661564992912,-0.001185708782028313
1589985347.3530726,-3.7463897251937737,-0.5936102748062263,8.97916917558132,0.3288888888888889,-0.3377777777777778,-0.6055555555555555,0.004363323129985824,0.002181661564992912,-0.00019690994459515805
1589985347.3630726,-3.739910520607375,-0.6000894793926247,8.99,0.3288888888888889,-0.3377777777777778,-0.6055555555555555,0.004363323129985824,0.003282253035076782,0.000550295735041935
1589985347.3730726,-3.7414599341383092,-0.6023600439077936,8.974720087815587,0.32124893279668254,-0.3424466398341261,-0.5949445054274911,0.0031132382376408184,0.004363323129985824,0.00025744085426645223
1589985347.3830726,-3.7491191296897726,-0.5954404351551137,8.96632130546534,0.3088888888888889,-0.35,-0.5777777777777777,0.0004973713687590687,0.005550241957460598,9.608804497831863e-05
1589985347.3930726,-3.74767177877068,-0.59232822122932,8.903282212293202,0.3088888888888889,-0.35,-0.5777777777777777,0.0025105837318681267,0.004034400963110609,0.001090830782496456
1589985347.4030726,-3.7664947654129506,-0.5982473827064754,8.921236913532377,0.3088888888888889,-0.35,-0.5777777777777777,0.0005735426681136853,0.0023728424543641405,0.001090830782496456
1589985347.4130726,-3.7429161808012332,-0.5932290452003083,8.957083819198767,0.3088888888888889,-0.35,-0.5777777777777777,-0.000738596592239581,0.002181661564992912,0.001090830782496456
1589985347.4230726,-3.746498067010309,-0.6009987113402062,8.997496778350515,0.3052226517754868,-0.34572272336769755,-0.6009972794959908,-0.0016907174273809438,-0.0008177716594295276,0.0022906040722654323
1589985347.4330726,-3.7306738393824013,-0.6246630803087994,8.9686792189192,0.3022222222222222,-0.3422222222222222,-0.62,0.00021757934006548952,-0.0016729984107837668,0.0008732514424309667
1589985347.4430726,-3.736287925549594,-0.613712074450406,8.892992260576422,0.3022222222222222,-0.3422222222222222,-0.62,0.0028675678397472246,-0.00197919931112184,0.001776737057250768
1589985347.4530725,-3.7224351451513282,-0.618782427424336,8.915129709697345,0.3022222222222222,-0.3422222222222222,-0.62,0.003272492347489368,0.0016503953068098018,0.002181661564992912
1589985347.4630725,-3.739982100665855,-0.6066785995560965,8.993267702441468,0.3022222222222222,-0.3422222222222222,-0.62,0.004725631714506556,0.0029082312485015057,0.0014550918814843182
1589985347.4730725,-3.75,-0.592475928917609,9.045048142164783,0.30723826961048284,-0.3388781906300485,-0.6041158499371747,0.004633405077845931,0.0040932411821257165,-0.0013714157214125878
1589985347.4830725,-3.7330820481184452,-0.5730820481184453,9.05,0.3088888888888889,-0.3377777777777778,-0.5988888888888889,0.0034405919955261444,-0.001173063676772253,-0.00033619929607355296
1589985347.4930725,-3.73,-0.5861248503737831,8.94518847257041,0.3088888888888889,-0.3377777777777778,-0.5988888888888889,-0.0002454042826850779,-0.0013021874074493004,0.0008794741575436115
1589985347.5030725,-3.7143460717385692,-0.5978269641307152,8.92,0.3088888888888889,-0.3377777777777778,-0.5988888888888889,-0.00450598814540839,-0.003652198804680407,0.0027984094639524233
1589985347.5130725,-3.726366185897436,-0.6054553952991453,8.90908920940171,0.3088888888888889,-0.3377777777777778,-0.5988888888888889,-0.007834519161679942,-0.004363323129985824,-0.0002980555263071244
1589985347.5230725,-3.74,-0.6157424313358302,8.91148486267166,0.3120791285199057,-0.3377777777777778,-0.602717176446109,-0.006685466608720185,-0.002484116869737072,-0.003272492347489368
1589985347.5330725,-3.731612380051358,-0.6032247601027165,8.91161238005136,0.3144444444444445,-0.3377777777777778,-0.6055555555555555,-0.0016184809204279078,-0.00017588337931048411,-0.002357544944303396
1589985347.5430725,-3.73,-0.6218808790139474,8.88082549464807,0.3144444444444445,-0.3377777777777778,-0.6055555555555555,-0.0018864419950462754,-0.0007956112125498193,-0.0005904391398932733
1589985347.5530725,-3.737517747278751,-0.6074467581637482,8.945177472787506,0.3144444444444445,-0.3377777777777778,-0.6055555555555555,0.0019186335083521432,0.002189405276179588,-0.0008200590146690111
1589985347.5630724,-3.7458362363081346,-0.6058362363081343,9.005017417848805,0.3144444444444445,-0.3377777777777778,-0.6055555555555555,0.006455665456907559,0.005819030835023921,0.0001824384612708204
1589985347.5730724,-3.745563466906373,-0.6055634669063727,9.065492264749018,0.3144444444444445,-0.3377777777777778,-0.6025978668264707,0.00824269557336236,0.008119766164084479,0.0006068800958871682
1589985347.5830724,-3.74,-0.5805722319859402,9.097048154657292,0.3144444444444445,-0.3377777777777778,-0.5988888888888889,0.004103747579985788,0.008020232680473768,-0.0014128271589957614
1589985347.5930724,-3.734686433482611,-0.5859406995521668,9.020923635273945,0.3144444444444445,-0.3377777777777778,-0.5988888888888889,0.0010224211805908482,0.008795055861877257,-0.0010224211805908482
1589985347.6030724,-3.73,-0.5942584190151105,8.919808933105774,0.3144444444444445,-0.3377777777777778,-0.5988888888888889,0.0006263093278513765,0.007938549058913974,-0.0018789279835541295
1589985347.6130724,-3.635978200209278,-0.5568158353679805,8.895530694105338,0.3144444444444445,-0.3377777777777778,-0.5988888888888889,-0.0031323051825745372,0.005941679557111451,-0.0020658820717547985
1589985347.6230724,-3.407810852461676,-0.503532322167248,8.873532322167248,0.3188557240832365,-0.3407186308703058,-0.5937423959769649,-0.007988572581036987,0.006175947855511405,-0.004699800497642083
1589985347.6330724,-3.176902836313931,-0.45172570907848275,8.791106276341269,0.3211111111111111,-0.3422222222222222,-0.5911111111111111,-0.002881537799813454,0.018235201615295123,-0.02491532556976163
1589985347.6430724,-3.0190537596714826,-0.4875483887122217,8.651129028219446,0.3211111111111111,-0.3422222222222222,-0.5911111111111111,-0.015786550501026037,0.06590377480551785,-0.07203705876221958
1589985347.6530724,-2.639045611171563,-0.33978169205658326,8.558964454116794,0.3211111111111111,-0.3422222222222222,-0.5911111111111111,-0.046266734995286746,0.15567984198140308,-0.1336699718300864
1589985347.6630723,-2.505013094198873,-0.2712598206491548,8.858583048964368,0.3211111111111111,-0.3422222222222222,-0.5911111111111111,-0.0886121466338334,0.26311936143390113,-0.20191255276589082
1589985347.6730723,-2.8424926398429835,-0.4407654563297351,9.488356231599608,0.31809835350561555,-0.3402137171518918,-0.5911111111111111,-0.14309740867009077,0.36532233348325377,-0.2847057637401299
1589985347.6830723,-2.705781847454216,-0.7446327228818675,9.357043670758703,0.3144444444444445,-0.3377777777777778,-0.5911111111111111,-0.10331397594460515,0.24097920622483943,-0.3899668458526885
1589985347.6930723,-1.8965898445595855,-0.8887716062176166,8.783410155440414,0.3144444444444445,-0.3377777777777778,-0.5911111111111111,0.06307418706469907,0.02295001709280777,-0.4461986456953712
1589985347.7030723,-1.8014973556990364,-0.8913769832257228,8.736884916128615,0.3144444444444445,-0.3377777777777778,-0.5911111111111111,0.06263742109402998,0.16140147585499365,-0.4372466770122677
1589985347.7130723,-1.855758735440932,-0.8120428452579035,8.797431780366058,0.3144444444444445,-0.3377777777777778,-0.5911111111111111,-0.005042415205312029,0.06475600778609547,-0.3472110750633699
1589985347.7230723,-2.0555255112439705,-0.8081099259460561,9.081147496433182,0.3144444444444445,-0.3346544526726604,-0.6073524016577213,-0.026587027134304036,0.010203518047021673,-0.26291126593148145
1589985347.7330723,-2.126990636099451,-0.7682228459303048,8.926730334566951,0.3144444444444445,-0.3322222222222222,-0.62,0.007917511601406923,0.025867192953374203,-0.19558963595488163
1589985347.7430723,-2.1318782794749445,-0.72,8.685874781368337,0.3144444444444445,-0.3322222222222222,-0.62,0.01773861009271228,0.016949045622201467,-0.14934743939696887
1589985347.7530723,-2.217006112469438,-0.72,8.71892053789731,0.3144444444444445,-0.3322222222222222,-0.62,-0.006551652364798398,0.01158814343977714,-0.11129141049391712
1589985347.7630723,-2.2558001141147623,-0.7276333523524604,8.863433466467223,0.3144444444444445,-0.3322222222222222,-0.62,0.004421509070378676,-0.006212253298340804,-0.0649007560372972
1589985347.7730722,-2.3277108134920637,-0.74,8.951526124338624,0.3153770759847149,-0.3311200213109935,-0.6194912918871253,0.010233662894090223,0.011333241244865625,-0.03727221608208625
1589985347.7830722,-2.338765852693584,-0.7486146339319076,9.000151218761676,0.32666666666666666,-0.31777777777777777,-0.6133333333333333,0.009163510837589248,0.001862926166559875,-0.0060421384853100064
1589985347.7930722,-2.39,-0.76,8.985296143485524,0.32666666666666666,-0.31777777777777777,-0.6133333333333333,0.002881010300714205,0.001193453012145166,0.014610295962868447
1589985347.8030722,-2.370269191049914,-0.76,8.887384509466436,0.32666666666666666,-0.31777777777777777,-0.6133333333333333,0.00651562050661687,0.005768823859377988,0.031172601803692183
1589985347.8130722,-2.3754243156352843,-0.7651414385450949,8.86,0.32666666666666666,-0.31777777777777777,-0.6133333333333333,0.0003448442167809868,0.006514127591214545,0.03771080475553821
1589985347.8230722,-2.373015800699952,-0.7598094804199714,8.849809480419971,0.3289312265733397,-0.3200423376844508,-0.6084267868688751,-0.006544984694978735,0.0043425406677294765,0.04184288994537261
1589985347.8330722,-2.3325031680954154,-0.7362515840477077,8.807509504286246,0.3333333333333333,-0.3244444444444444,-0.5988888888888889,-0.006953873445614846,0.00013721781181235673,0.043906284581082464
1589985347.8430722,-2.3000265836094194,-0.73,8.78997341639058,0.3333333333333333,-0.3244444444444444,-0.5988888888888889,-0.011993338963568122,-0.004906563654774217,0.04036363877431532
1589985347.8530722,-2.2852216040507596,-0.73,8.82566481215228,0.3333333333333333,-0.3244444444444444,-0.5988888888888889,-0.007818632088581835,-0.005405807408463402,0.03362236824131463
1589985347.8630722,-2.2949516997956527,-0.7399033995913059,8.869710198773918,0.3333333333333333,-0.3244444444444444,-0.5988888888888889,0.00324087993766781,-0.0011224431923180138,0.0245911112209026
1589985347.8730721,-2.3135935198821795,-0.7432032400589101,8.927187039764359,0.3261589756177385,-0.3304860088365243,-0.6011544755359188,0.006174278946729755,0.00032813282374801324,0.014445073609450493
1589985347.8830721,-2.387366070099163,-0.7457886900330544,9.007630207557845,0.31222222222222223,-0.3422222222222222,-0.6055555555555555,0.007607002550401121,-0.001550213437154295,-0.001664653056186933
1589985347.8930721,-2.4750311163647742,-0.7737577790911936,8.993633313632097,0.31222222222222223,-0.3422222222222222,-0.6055555555555555,0.010088487603665463,0.003550291446393743,-0.01828668981665642
1589985347.903072,-2.5,-0.7845489841305742,8.915921444457009,0.31222222222222223,-0.3422222222222222,-0.6055555555555555,0.005997451704676696,0.006891489689667478,-0.03550543382861886
1589985347.913072,-2.4902402621041135,-0.7902402621041136,8.963493508069408,0.31222222222222223,-0.3422222222222222,-0.6055555555555555,-0.003272492347489368,0.005427945382578834,-0.06052198149637629
1589985347.923072,-2.4711544412085913,-0.7711544412085912,8.950769627472393,0.31222222222222223,-0.3422222222222222,-0.6055555555555555,-0.003272492347489368,0.007509885476783823,-0.07648352221861454
1589985347.933072,-2.5042343310012485,-0.8047847417772229,8.896196185444307,0.3333333333333333,-0.3322222222222222,-0.6133333333333333,-0.001920694384148331,0.009449507300760296,-0.11483208295946362
1589985347.943072,-2.5328180834498957,-0.7854363833100209,8.81932701696973,0.3333333333333333,-0.3322222222222222,-0.6133333333333333,0.0014716470605272052,0.012994765320449783,-0.15146489567063184
1589985347.953072,-2.51,-0.7941808283301109,8.76,0.3333333333333333,-0.3322222222222222,-0.6133333333333333,0.004542038664718631,0.012911253855224663,-0.18149095368617613
1589985347.963072,-2.514370883683638,-0.7934436744745433,8.788410743943645,0.3333333333333333,-0.3322222222222222,-0.6133333333333333,0.004226071241254095,0.013227221278689198,-0.21229306259325634
1589985347.973072,-2.5211242352656127,-0.7744378823671937,8.898875764734388,0.3451676863125164,-0.3322222222222222,-0.6162919215781291,0.009572206955568423,0.014658455737701179,-0.27061645758119063
1589985347.983072,-2.5433950238421223,-0.7911316746140409,8.960092535763184,0.36,-0.3322222222222222,-0.62,0.014427693273407045,0.022547200866892186,-0.32281293549795587
1589985347.993072,-2.581320542588293,-0.8169808138824391,8.977358914823414,0.36,-0.3322222222222222,-0.62,0.02191942008588919,0.025850596664402814,-0.3726313678615826
1589985348.003072,-2.59,-0.8186283175439009,8.96,0.36,-0.3322222222222222,-0.62,0.017496731889593477,0.032232602071166516,-0.4289933417614086
1589985348.013072,-2.5808405808355332,-0.7871014520888338,8.96,0.36,-0.3322222222222222,-0.62,0.007910894912648141,0.03100172763518901,-0.48285229014930875
1589985348.023072,-2.543405405405405,-0.7777297297297298,8.96,0.35704504504504503,-0.33468468468468465,-0.622954954954955,0.0009787995129427658,0.027506624866734955,-0.5415886389355782
1589985348.033072,-2.5211413852318256,-0.777717229536348,8.876439610761306,0.3533333333333333,-0.3377777777777778,-0.6266666666666667,0.005234863831879673,0.03661994489516437,-0.6041604065194538
1589985348.043072,-2.5579190153351967,-0.7565101230831004,8.785570861581704,0.3533333333333333,-0.3377777777777778,-0.6266666666666667,0.014283257708307762,0.04487774838613545,-0.6492562891423872
1589985348.053072,-2.6097380816332834,-0.7500327397958396,8.740229178570877,0.3533333333333333,-0.3377777777777778,-0.6266666666666667,0.018522695156171075,0.051236904557930424,-0.6881177990811342
1589985348.063072,-2.6621289888819653,-0.77,8.842773933291792,0.3533333333333333,-0.3377777777777778,-0.6266666666666667,0.017988118363075064,0.04674383950806728,-0.7596895131719663
1589985348.073072,-2.669006920074776,-0.77,8.884041520448658,0.3533333333333333,-0.3377777777777778,-0.6266666666666667,0.023239979708582624,0.049744903134071594,-0.7964525425905192
1589985348.083072,-2.745868378338498,-0.7958683783384979,8.933802567507746,0.3855555555555555,-0.3244444444444444,-0.6577777777777778,0.024674312228421383,0.05002465947034212,-0.8679842102537042
1589985348.093072,-2.7330552992120394,-0.7845829488180592,8.897778803151843,0.3855555555555555,-0.3244444444444444,-0.6577777777777778,0.0272707695624114,0.057980672193823656,-0.9163275150090766
1589985348.103072,-2.7206055732253867,-0.8361283793552119,8.87572466387162,0.3855555555555555,-0.3244444444444444,-0.6577777777777778,0.02762704006862902,0.057836050736155754,-0.972734807556872
1589985348.113072,-2.66829076736839,-0.894145383684195,8.975527178245594,0.3855555555555555,-0.3244444444444444,-0.6577777777777778,0.028060139536375952,0.057441134758510634,-1.0062060312682568
1589985348.123072,-2.72,-0.9350120647376166,8.994987935262383,0.393895591520898,-0.3177724156721704,-0.6588897825731568,0.026998719896146023,0.06844941225853303,-1.044477054533944
1589985348.133072,-2.7230368798955618,-0.9860737597911227,8.95,0.4188888888888889,-0.2977777777777777,-0.6622222222222223,0.02763043398735169,0.06763150851478028,-1.0743145221630437
1589985348.143072,-2.6714092702347285,-1.02,8.850924501450162,0.4188888888888889,-0.2977777777777777,-0.6622222222222223,0.019947321834005105,0.06680016541009301,-1.113481197590317
1589985348.1530719,-2.5326675620782284,-1.037393369586582,8.74714964292734,0.4188888888888889,-0.2977777777777777,-0.6622222222222223,0.01966154053917775,0.06382357069638325,-1.1355149648974483
1589985348.1630719,-2.515412684270209,-1.1092390247853556,8.996956099141421,0.4188888888888889,-0.2977777777777777,-0.6622222222222223,0.017877705743960928,0.06771920084846145,-1.1581279115282979
1589985348.1730719,-2.627504949852316,-1.128742575221526,8.981158427732156,0.4234752471319708,-0.2977777777777777,-0.6705610553914622,0.04827736130238063,0.0961389117472314,-1.1652816032372215
1589985348.1830719,-2.658898719683564,-1.1855948787342563,8.830319558655146,0.4311111111111111,-0.2977777777777777,-0.6844444444444444,0.05119932989376386,0.09679916774643137,-1.183285929833108
1589985348.1930718,-2.6752864524188054,-1.335989666136725,8.93885419032478,0.4311111111111111,-0.2977777777777777,-0.6844444444444444,0.030091587853498573,0.07347484226043405,-1.2121914052340599
1589985348.2030718,-2.67,-1.427083628372604,8.840414601391771,0.4311111111111111,-0.2977777777777777,-0.6844444444444444,0.044512235023065366,0.08878171991179616,-1.2420929084729662
1589985348.2130718,-2.6764982624966587,-1.4627439187383053,8.808484362469928,0.4311111111111111,-0.2977777777777777,-0.6844444444444444,0.05034354640212793,0.0942760928044274,-1.270731405760467
1589985348.2230718,-2.687709970596097,-1.5019848970863405,8.909389735364876,0.4311111111111111,-0.2977777777777777,-0.6844444444444444,0.03933647771481867,0.08754955082884952,-1.3006950927425864
1589985348.2330718,-2.667953812936133,-1.4949422661701661,8.946872985574366,0.4455555555555555,-0.24444444444444444,-0.7,0.02825629593698466,0.08869839774149219,-1.379963917696791
1589985348.2430718,-2.6243526830241373,-1.4560881707560343,8.834793536804309,0.4455555555555555,-0.24444444444444444,-0.7,0.02840969003230696,0.09793736839322209,-1.4394157360213309
1589985348.2530718,-2.578541103095882,-1.45,8.782145889690412,0.4455555555555555,-0.24444444444444444,-0.7,0.026259509262489968,0.10020192221923467,-1.4829210875028445
1589985348.2630718,-2.500082075153891,-1.4500410375769455,8.790246225461672,0.4455555555555555,-0.24444444444444444,-0.7,0.030556691425552118,0.10366025987368314,-1.5207747884826588
1589985348.2730718,-2.533237814299761,-1.478911163285373,8.853782232657075,0.450598532431655,-0.23856097142232835,-0.707144217241141,0.03546606458095028,0.1135339165095337,-1.5647795631103412
1589985348.2830718,-2.5881057051123735,-1.565051453033671,8.86368568370791,0.4722222222222222,-0.21333333333333332,-0.7377777777777778,0.04323118557554469,0.12360827095119098,-1.5924287575485634
1589985348.2930717,-2.5470253635441327,-1.6875736670048471,8.782974636455867,0.4722222222222222,-0.21333333333333332,-0.7377777777777778,0.051091852869366176,0.12918980342917383,-1.6343314220316227
1589985348.3030717,-2.5383806811083627,-1.75,8.787428978337456,0.4722222222222222,-0.21333333333333332,-0.7377777777777778,0.050739125909230624,0.13300852984302924,-1.6604830693415553
1589985348.3130717,-2.5260351312077955,-1.781953158389606,8.7779882895974,0.4722222222222222,-0.21333333333333332,-0.7377777777777778,0.052798764686354444,0.1357019041560851,-1.6827034297147847
1589985348.3230717,-2.5103931855694412,-1.8748650082527707,8.822629096911106,0.4794731326469124,-0.20291014959784115,-0.7536391443317876,0.04706384395471372,0.13397117604745998,-1.7049390624113085
1589985348.3330717,-2.5164250884612067,-1.9352850176922411,8.82756515923017,0.49,-0.18777777777777774,-0.7766666666666666,0.03945645181322416,0.14349221357392752,-1.7356077063031488
1589985348.3430717,-2.4312892371292603,-1.9216127481613228,8.817742633274046,0.49,-0.18777777777777774,-0.7766666666666666,0.033252694076529345,0.1504290414279591,-1.7673220533592608
1589985348.3530717,-2.333310263929619,-1.9141724340175952,8.786551319648094,0.49,-0.18777777777777774,-0.7766666666666666,0.0321832828060013,0.1522687170477827,-1.7975236815539521
1589985348.3630717,-2.303381063875075,-1.966332552874475,8.729570425124326,0.49,-0.18777777777777774,-0.7766666666666666,0.03310936011340463,0.15529021764463724,-1.8212717305640524
1589985348.3730717,-2.2884627743927886,-2.0615372256072115,8.833090518320674,0.48914598577377144,-0.1937558773613777,-0.7812783434883008,0.027941510767206607,0.14877132334781076,-1.8383834864595177
1589985348.3830717,-2.2770726555899743,-2.070487890735004,8.738536327794987,0.4844444444444445,-0.22666666666666666,-0.8066666666666666,0.03174053393884471,0.1566538676936997,-1.853135419273786
1589985348.3930717,-2.0006883236591015,-1.9796370294711143,8.453516853092848,0.4844444444444445,-0.22666666666666666,-0.8066666666666666,0.027733586608740517,0.1520022870087078,-1.8788843488462883
1589985348.4030716,-1.8138862202673764,-1.9616254798695911,8.491006809807667,0.4844444444444445,-0.22666666666666666,-0.8066666666666666,0.00196924869544955,0.1465574305936158,-1.898573879108996
1589985348.4130716,-2.20550799838688,-2.281835999462293,9.358824035488642,0.4844444444444445,-0.22666666666666666,-0.8066666666666666,-0.018126120583178508,0.12477664178875451,-1.9089324897306625
1589985348.4230716,-2.250082107028246,-2.293347017838041,8.803264910809794,0.5022952062473298,-0.22629477579577323,-0.804435321441306,0.04110437970090934,0.14548142303030662,-1.8973108772826797
1589985348.4330716,-2.317878947257695,-2.3836368417730838,8.945239097048367,0.5377777777777778,-0.2255555555555556,-0.8,0.02997176507661633,0.15450125321878186,-1.896288913886901
1589985348.4430716,-2.3246418064721315,-2.502928361294426,9.001386658185577,0.5377777777777778,-0.2255555555555556,-0.8,0.008419093906092946,0.13647449229153957,-1.8959845444583232
1589985348.4530716,-2.2277017909715404,-2.450524411187439,8.627177379784102,0.5377777777777778,-0.2255555555555556,-0.8,0.028862991775478786,0.13224122039735664,-1.8803987776951991
1589985348.4630716,-2.1791168680147295,-2.407350604044189,8.671909038051554,0.5377777777777778,-0.2255555555555556,-0.8,0.038468081653737995,0.1355520212959226,-1.862184860736506
1589985348.4730716,-2.202173242513816,-2.5117401362292764,8.803480272458552,0.5149497351097403,-0.2255555555555556,-0.7826072055862572,0.02686750844612158,0.12074982259090702,-1.8418909779538515
1589985348.4830716,-2.150217772800963,-2.551521902628984,8.80391489646182,0.4211111111111111,-0.2255555555555556,-0.7111111111111111,0.02442505270315527,0.10576307524718011,-1.8043766462140667
1589985348.4930716,-2.101147694416125,-2.530491869035482,8.565574515735465,0.4211111111111111,-0.2255555555555556,-0.7111111111111111,0.03360113590344585,0.11646850564751911,-1.7722603550130493
1589985348.5030715,-2.1478228160524004,-2.7705975745781615,8.65643543678952,0.4211111111111111,-0.2255555555555556,-0.7111111111111111,0.030694601510595505,0.1071284260856948,-1.7164589320987456
1589985348.5130715,-2.18,-2.8864403466475532,8.691862253209097,0.4211111111111111,-0.2255555555555556,-0.7111111111111111,0.03841924922643607,0.11309513496097647,-1.6662540777700623
1589985348.5230715,-2.2130888290713324,-2.921056527590848,8.78300807537012,0.43481456557499626,-0.19280095708090328,-0.6873807387468223,0.04515863262289164,0.11432435132301348,-1.6182078259531056
1589985348.5330715,-2.29,-2.9539336828680742,8.769917103585092,0.4666666666666667,-0.11666666666666667,-0.6322222222222222,0.04100438630653002,0.11364286530545725,-1.568113226224885
1589985348.5430715,-2.274911762701856,-2.918683822026392,8.732455881350928,0.4666666666666667,-0.11666666666666667,-0.6322222222222222,0.0317391646528907,0.09799269689540337,-1.530215013528858
1589985348.5530715,-2.142836707663198,-2.7845933774834437,8.588106717123937,0.4666666666666667,-0.11666666666666667,-0.6322222222222222,0.01841140727724671,0.0808884978232233,-1.495946552598855
1589985348.5630715,-1.8741307534447378,-2.5117941952506597,8.348630167106421,0.4666666666666667,-0.11666666666666667,-0.6322222222222222,0.002787758615865503,0.06489987443785587,-1.4647900245518175
1589985348.5730715,-2.02,-2.84,9.330890458951302,0.4726692358597065,-0.10391120713145705,-0.6302713872344843,-0.022148845788986772,0.02714541892712277,-1.4169076575944157
1589985348.5830715,-2.0124700440169545,-2.8550599119660904,8.475139794587545,0.5111111111111111,-0.022222222222222227,-0.6177777777777778,0.06243372384370921,0.10524556436585251,-1.3247551669067792
1589985348.5930715,-2.0184791401825954,-2.9494637697908237,8.63246157402057,0.5111111111111111,-0.022222222222222227,-0.6177777777777778,0.042656992587313154,0.08301773153968202,-1.2749126686668535
1589985348.6030715,-2.1651863684771033,-3.220124245651402,8.878152289669861,0.5111111111111111,-0.022222222222222227,-0.6177777777777778,0.011580735107110494,0.05194147405947937,-1.223334582365676
1589985348.6130714,-2.111431613099463,-3.1842877420663083,8.737136773801076,0.5111111111111111,-0.022222222222222227,-0.6177777777777778,0.04617876118832406,0.0860202412413904,-1.1596069831534688
1589985348.6230714,-2.0050278157167125,-3.09670375428895,8.887513907858356,0.5166604853962861,-0.01436060865155772,-0.6193963452776204,0.03518384407151483,0.06872840774528223,-1.0992039325756047
1589985348.6330714,-1.91352643223102,-2.98410572892408,8.75536562645552,0.5377777777777778,0.015555555555555557,-0.6255555555555555,0.0246357171639158,0.041072420935872316,-1.0454171395666194
1589985348.6430714,-1.937907085875176,-3.039099014547161,8.669389957766306,0.5377777777777778,0.015555555555555557,-0.6255555555555555,0.023560613996229177,0.023722370226763607,-0.9991216543119029
1589985348.6530714,-1.9780346507850568,-3.1260220504995817,8.880047251070533,0.5377777777777778,0.015555555555555557,-0.6255555555555555,-0.004375349811842358,0.009596218310634275,-0.9477347446212995
1589985348.6630714,-1.9023389279913372,-3.0778520450853963,8.776825810897279,0.5377777777777778,0.015555555555555557,-0.6255555555555555,0.0218973125375647,0.01635204577191038,-0.9019452473837615
1589985348.6730714,-1.878768490307767,-3.0443102839228153,8.62724113569126,0.5391461218802589,0.018839581401510135,-0.6246661318889428,0.04413568201331308,0.044656893648293165,-0.819950145345502
1589985348.6830714,-1.8602481564887183,-3.1091314522894864,8.886525809157947,0.559724270568091,0.06822713825230714,-0.6112903352418521,0.018882494223402244,0.043646766136696734,-0.7654032597192946
1589985348.6930714,-1.8156974508160348,-3.105697450816035,8.771277057344312,0.56,0.06888888888888889,-0.6111111111111112,0.02571060347060751,0.030708276891445025,-0.6933876276500303
1589985348.7030714,-1.78818844498789,-3.0833851435558586,8.443147177087496,0.56,0.06888888888888889,-0.6111111111111112,0.014773630163872509,0.04202744487061033,-0.6355252164898075
1589985348.7130713,-1.8363261724234767,-3.1536738275765233,8.768171861836562,0.56,0.06888888888888889,-0.6111111111111112,-0.0071910668275630765,0.001469106452964109,-0.5932106121953998
1589985348.7230713,-1.8216031311429375,-3.1683968688570627,9.121524852569504,0.56,0.06888888888888889,-0.6111111111111112,-0.027266500128535792,-0.005758049535386067,-0.5530597455934544
1589985348.7330713,-1.7576217530925191,-3.0218912345374047,8.741834419594504,0.5666666666666667,0.11333333333333333,-0.6111111111111112,0.044511562848460424,0.03652246635825661,-0.45016602970716985
1589985348.7430713,-1.7419537822223723,-3.0476212034190344,8.893579512821379,0.5666666666666667,0.11333333333333333,-0.6111111111111112,0.05673377768344983,0.016472285573787236,-0.40063669160431725
1589985348.7530713,-1.4920443334242952,-2.6933600621339657,8.18702428682382,0.5666666666666667,0.11333333333333333,-0.6111111111111112,0.01569114250569909,-0.017159558871506837,-0.3361348378991053
1589985348.7630713,-1.2671888230313293,-2.4202709568162573,8.399000846740051,0.5666666666666667,0.11333333333333333,-0.6111111111111112,-0.043129841988714654,0.04075051929971307,-0.28154517989754846
1589985348.7730713,-1.5993719911122084,-2.9434782742871253,9.327310825823973,0.570486668312554,0.11366076204583796,-0.6117659685361204,-0.040350202289150705,-0.019341610687865655,-0.23477102881767736
1589985348.7830713,-1.4465630010588413,-2.746184843442747,8.66,0.6055555555555555,0.11666666666666667,-0.6177777777777778,0.021362859084830762,0.0511416319338538,-0.1553517276795951
1589985348.7930713,-1.5671070942368779,-2.898451066404477,8.66,0.6055555555555555,0.11666666666666667,-0.6177777777777778,0.05942668230467174,0.043528867289885614,-0.11728790445975412
1589985348.8030713,-1.52,-2.8466354229419895,8.84115276941068,0.6055555555555555,0.11666666666666667,-0.6177777777777778,-0.008761745815253791,0.020057521032696934,-0.07701176802418816
1589985348.8130713,-1.52,-2.913520677557674,8.751972429923102,0.6055555555555555,0.11666666666666667,-0.6177777777777778,-0.02011115609101629,-0.019665414932471814,-0.06160899693565334
1589985348.8230712,-1.7191960046199255,-3.1024119861402233,8.82053599692005,0.6088013146825226,0.11687510991335263,-0.6179862210244638,0.005951133561238686,0.001626213722265164,-0.018845633466323095
1589985348.8330712,-1.6922830132181204,-3.183150960345639,8.83847799118792,0.7174500577490696,0.12385255212863547,-0.6249636632397465,0.02258706126099123,-0.016966881942164152,0.007576134056813306
1589985348.8430712,-1.3335569571865442,-2.7335569571865443,8.998559824159022,0.7266666666666667,0.12444444444444445,-0.6255555555555555,0.010314001031098707,0.008180918130540367,0.04393606610711667
1589985348.8530712,-1.1975398435953275,-2.5644164521876855,8.5318303306276,0.7266666666666667,0.12444444444444445,-0.6255555555555555,0.057955082522563206,0.04931452464522325,0.06809952804745055
1589985348.8630712,-1.3385119890608976,-2.5987263759339747,8.78575035405577,0.7266666666666667,0.12444444444444445,-0.6255555555555555,0.040591828659575474,0.04574334987804191,0.07614906600094234
1589985348.8730712,-1.3726502905699076,-2.6738306392537967,8.929131220393613,0.7266666666666667,0.12444444444444445,-0.6255555555555555,0.015269233758817537,-0.0026674933145835605,0.07093559058019806
1589985348.8830712,-1.1147348193697155,-2.4100307455803227,8.64939789905201,1.1677777777777778,0.20555555555555555,-0.8866666666666667,0.0023753448169196462,-0.0012845140344231905,0.0870104541455103
1589985348.8930712,-1.5276275020064694,-2.866857504195345,8.549740010214753,1.1677777777777778,0.20555555555555555,-0.8866666666666667,0.0059581163013798805,-0.030039299521003163,0.09651752581806561
1589985348.9030712,-1.615641738994142,-3.0687165220117163,9.011283477988284,1.1677777777777778,0.20555555555555555,-0.8866666666666667,-0.06031263472152801,-0.09504228380701933,0.10433666815474432
1589985348.9130712,-1.5909892047569603,-3.1180215904860797,8.961978409513922,1.1677777777777778,0.20555555555555555,-0.8866666666666667,-0.062105417602359055,-0.08966393516452618,0.13302119424804115
1589985348.9230711,-1.5985997036643889,-3.200197925650722,8.699497777482918,1.1533080489764627,0.14650972673728596,-0.9084490541095066,0.011824799633465529,-0.0034252409822395297,0.224297692228543
1589985348.9330711,-1.5800486521152615,-3.0703405648068287,8.56036489086446,0.9616138496354778,-0.6357262802509269,-1.1970209670959355,0.023966434479945686,-0.0054488467899862225,0.2910766838841839
1589985348.9430711,-1.5993052680009203,-3.12069473199908,8.886475730388774,0.9611111111111112,-0.6377777777777778,-1.1977777777777778,-0.011338667795514689,-0.043733355864435206,0.351631950141633
1589985348.953071,-1.6405065219939383,-3.0729086920848614,8.412793489727232,0.9611111111111112,-0.6377777777777778,-1.1977777777777778,0.0007593129126967093,-0.025365372888918273,0.40766765235088015
1589985348.963071,-1.6475296796771655,-2.974584484519683,8.728835585472448,0.9611111111111112,-0.6377777777777778,-1.1977777777777778,-0.003837333042017597,-0.02919591118451353,0.4337153127609279
1589985348.973071,-1.65,-2.8490239903637034,8.712633586509185,0.9611111111111112,-0.6377777777777778,-1.1977777777777778,-0.012400914137079945,-0.057337908490491765,0.4557784238249568
1589985348.983071,-1.6820530489195145,-2.9599617460035974,8.844562612418615,0.6022222222222222,-0.057777777777777775,-0.7333333333333333,-0.0025466627803860465,-0.03808782708352768,0.4734205596034618
1589985348.993071,-1.5014749199191137,-2.736637139636012,8.727374599595569,0.6022222222222222,-0.057777777777777775,-0.7333333333333333,-0.011390974239810524,-0.035675638212485726,0.4728574487861415
1589985349.003071,-1.5164864623038241,-2.804189080367209,8.802432311519121,0.6022222222222222,-0.057777777777777775,-0.7333333333333333,-0.016303489997608223,-0.03240062770728727,0.4671261804020443
1589985349.013071,-1.5722603594608089,-2.5348402396405394,8.923660758861708,0.6022222222222222,-0.057777777777777775,-0.7333333333333333,-0.011095922005978054,-0.034847632252964354,0.44754614057840486
1589985349.023071,-1.4937350224663006,-2.4824900149775337,8.757885047428857,0.6022222222222222,-0.057777777777777775,-0.7333333333333333,-0.012999429890411772,-0.045316925617349804,0.42851106173406767
1589985349.033071,-1.66,-2.79,8.73,0.5844444444444444,0.08333333333333333,-0.72,-0.002181661564992912,-0.01963495408493621,0.4145156973486533
1589985349.043071,-1.678840158811852,-2.799420079405926,8.758260238217778,0.5844444444444444,0.08333333333333333,-0.72,-0.00834708911871994,-0.023745239120754227,0.4100628885598504
1589985349.053071,-1.72,-2.834826531115827,8.794908947342448,0.5844444444444444,0.08333333333333333,-0.72,-0.020074882484213758,-0.033098152010404114,0.3999616686406889
1589985349.063071,-3.2338237656800346,-1.706102082432182,9.174680837916332,0.5844444444444444,0.08333333333333333,-0.72,-0.004781037914582656,-0.0092668376886886,0.3692463209840026
1589985349.073071,-13.747867515293828,6.933210776741025,13.166043378854354,0.5844444444444444,0.08333333333333333,-0.72,0.007470199013742028,0.17638652191746237,0.1760537386527287
1589985349.083071,-1.6137450331913676,-3.6117354683670806,9.990961003116894,0.596476771329849,0.09536566021873787,-0.7331261747840776,0.16764433231179035,0.5364991752141633,-1.7713594088511488
1589985349.093071,-1.0800549828178694,-3.383150847256784,8.919507524588221,0.5966666666666667,0.09555555555555556,-0.7333333333333333,0.06774494767756245,-0.3109136333784295,-2.537233544329769
1589985349.103071,-1.2985449039951176,-3.453017463968828,9.586904135956058,0.5966666666666667,0.09555555555555556,-0.7333333333333333,-0.06752709069563985,-0.14786180274502786,-2.5006730839027904
1589985349.113071,-1.1847753361757953,-2.8122466382420463,8.70012545096753,0.5966666666666667,0.09555555555555556,-0.7333333333333333,0.0718614740933802,0.40142000369089653,-2.3442443656279153
1589985349.123071,-1.1503845523122334,-3.156154476877665,9.293366472613972,0.5966666666666667,0.09555555555555556,-0.7333333333333333,0.11406531547500529,0.15007268168477378,-2.351747270762426
1589985349.133071,-1.07,-2.96,9.46,0.5044444444444445,0.03555555555555556,-0.6466666666666666,-0.05235987755982988,0.06544984694978735,-2.378011105842274
1589985349.143071,-3.3732380795520047,-5.407610145762991,7.321278926130281,0.5044444444444445,0.03555555555555556,-0.6466666666666666,-0.007311701381844185,0.11049802312777306,-2.3629950471162786
1589985349.153071,-1.0908280067092795,-7.365729860827781,0.19402896776825784,0.5044444444444445,0.03555555555555556,-0.6466666666666666,-1.4000526032609772,0.9577854765191924,-6.145802540736068
1589985349.163071,0.5202193116052394,-6.849896436186414,4.637560158391715,0.5044444444444445,0.03555555555555556,-0.6466666666666666,-2.1781893805040027,-2.0984060569441874,-13.899678493307075
1589985349.173071,-0.20993234160767096,-6.491525226274756,3.8009994175105293,0.5044444444444445,0.03555555555555556,-0.6466666666666666,-2.2535331784101182,-1.258577907369341,-14.06529645190157
1589985349.183071,-0.13,-4.79,-0.86,0.54,0.26666666666666666,-0.64,-1.3417218624706408,0.7504915783575618,-13.220869083857044
1589985349.193071,-0.1827944572748268,-4.781200923787529,0.3300750577367205,0.54,0.26666666666666666,-0.64,-1.0758488641049861,1.1471414576882724,-12.90388512100413
1589985349.2030709,-0.3714026896726719,-4.705815275310835,4.460929205785334,0.54,0.26666666666666666,-0.64,-0.08618388016974943,2.611090006924381,-11.727934824542714
1589985349.2130709,-0.9786023535959927,-3.813589830238938,3.9244090168170795,0.54,0.26666666666666666,-0.64,0.6200197730563848,3.4649662363473426,-10.963055556390712
1589985349.2230709,-5.6393062457758525,-1.3873557826104244,9.027004333479109,0.54,0.26666666666666666,-0.64,1.2884936310461454,4.194375806562022,-10.360064851836684
1589985349.2330709,4.702986390149061,2.048646791963707,8.686121192482178,0.2861764239936631,0.5111584935551235,-0.615737452293512,3.4096724837126895,3.175808544090147,-9.534517304874754
1589985349.2430708,-0.5754232085940266,-1.39754361940739,-1.7169066225947351,0.23777777777777775,0.5577777777777778,-0.6111111111111112,2.890388862781915,0.3006176397434843,-8.25432175930908
1589985349.2530708,-0.36,-0.51,-0.95,0.23777777777777775,0.5577777777777778,-0.6111111111111112,0.7952156404399163,0.38615409700374537,-7.6630862470376035
1589985349.2630708,1.5710296268212103,-4.7538260304392566,6.889536370037371,0.23777777777777775,0.5577777777777778,-0.6111111111111112,0.23156494745129752,0.4428097078969313,-7.407893880022997
1589985349.2730708,1.743887800944592,-5.244067503743808,11.61453403985716,0.23777777777777775,0.5577777777777778,-0.6111111111111112,-0.8893997872048205,0.552049969578493,-6.585125408046973
1589985349.2830708,0.9047085069387484,-0.17399396345264284,8.801162035366293,0.054428150140889225,0.5814357942470537,-0.6456123851288053,-0.33036995342270914,-0.056781855971877015,-4.99680332552518
1589985349.2930708,1.7426682991370286,0.6916967159699047,11.188095539011433,0.031111111111111114,0.5844444444444444,-0.65,0.5030283036308405,0.3867983331895335,-4.572659543479058
1589985349.3030708,7.27790246460409,-4.624467750393288,9.956402726796014,0.031111111111111114,0.5844444444444444,-0.65,0.4785418013421566,0.5530512067257032,-4.151717402560708
1589985349.3130708,0.8659396119998064,0.1336590168716878,6.086166431662372,0.031111111111111114,0.5844444444444444,-0.65,0.04976003855988814,0.22652792842814096,-3.8346471409316583
1589985349.3230708,1.2544614199512132,0.24207953524200793,8.350027923995379,0.031111111111111114,0.5844444444444444,-0.65,-0.08815142340528781,0.1379447885861178,-3.6487915047167494
1589985349.3330708,1.9634703110273326,0.1553195098963242,9.72385862393968,-0.03998219708870039,0.5949213530212587,-0.65,-0.05649413650664868,0.11135439150571644,-3.3993301617890483
1589985349.3430707,3.963033399209486,-0.6971841897233202,9.405825296442687,-0.07444444444444444,0.6,-0.65,0.12039643784481423,0.2053170968720689,-3.29474583440031
1589985349.3530707,3.351365405573719,-0.9024474544605325,7.948917951113186,-0.07444444444444444,0.6,-0.65,0.09147566321139067,0.2059768060785971,-3.173389445315295
1589985349.3630707,3.1362187829757295,-0.6251398633763445,9.80456041616528,-0.07444444444444444,0.6,-0.65,0.025355550438580676,0.19985796218276153,-3.127589481711447
1589985349.3730707,2.5734074270089087,-0.34521919379024435,9.217440239922379,-0.07444444444444444,0.6,-0.65,0.09783367532686416,0.2742824099741481,-3.0385706764675886
1589985349.3830707,3.9785139860139855,-1.0260387026766336,9.169782372799615,-0.13349918280952763,0.583595906009699,-0.6557414328966054,0.06139178283187946,0.1849093642416129,-2.98139111950156
1589985349.3930707,3.0957004148447136,-0.7010144635048772,8.226259446126248,-0.15444444444444444,0.5777777777777777,-0.6577777777777778,0.04965575709398841,0.1373189499204413,-2.9068389467812303
1589985349.4030707,3.5565608252046195,-0.8985260679448369,8.517824195537615,-0.15444444444444444,0.5777777777777777,-0.6577777777777778,0.07940861615435879,0.19374678606941959,-2.883241851664385
1589985349.4130707,2.950294199278379,-0.6682747016375243,9.379493130724397,-0.15444444444444444,0.5777777777777777,-0.6577777777777778,0.060741343845920386,0.22533103462395668,-2.8642861661592884
1589985349.4230707,3.765173466555648,-0.8356159797391063,8.964777789342214,-0.15444444444444444,0.5777777777777777,-0.6577777777777778,0.07582081919102739,0.21580715545862594,-2.859524226576623
1589985349.4330707,2.96,-0.63,8.62,-0.23222222222222225,0.5522222222222222,-0.6344444444444445,0.06326818538479445,0.17016960206944715,-2.827433388230814
1589985349.4430707,2.994443718702373,-0.6353579117981469,8.64411060309166,-0.23222222222222225,0.5522222222222222,-0.6344444444444445,0.06330993234993244,0.1707540595813791,-2.825053811217948
1589985349.4530706,3.8342138603026283,-0.7603301976134857,9.222371993181389,-0.23222222222222225,0.5522222222222222,-0.6344444444444445,0.0643590161672909,0.18584306609502102,-2.7649546588255487
1589985349.4630706,3.339904876149588,-0.5749643285560957,8.692755224445989,-0.23222222222222225,0.5522222222222222,-0.6344444444444445,0.0643590161672909,0.19354602975185944,-2.7591774360829193
1589985349.4730706,3.554110281195079,-0.5656468951376684,9.113045401288812,-0.23222222222222225,0.5522222222222222,-0.6344444444444445,0.05881518982976244,0.20217562843857692,-2.7525512418918385
1589985349.4830706,3.5232742989668986,-0.48755429053341764,8.846504322158971,-0.2534061892379413,0.535618572399091,-0.6533382528638696,0.06016243398550451,0.19485853179118695,-2.744430204192163
1589985349.4930706,5.905284864686852,-0.9113618488599602,10.135683152205498,-0.2733333333333333,0.52,-0.6711111111111111,0.06673667268603625,0.1641531803694236,-2.7367538663367226
1589985349.5030706,2.0135084594835257,0.08644345503116635,8.3920071237756,-0.2733333333333333,0.52,-0.6711111111111111,-0.039699635274214745,-0.35597820125763824,-1.5400673419592494
1589985349.5130706,4.196576966932725,0.7355378183200304,6.205334853667807,-0.2733333333333333,0.52,-0.6711111111111111,0.17147768687323894,-0.18026528034910833,0.0985000710069488
1589985349.5230706,3.548338344357587,-0.23194227300060122,9.571395069152135,-0.2733333333333333,0.52,-0.6711111111111111,0.1637870722294283,0.2487164151189614,-0.013888031598037642
1589985349.5330706,3.24104500225216,-0.9295499774783997,10.289019286679498,-0.315294759974339,0.48270095409688385,-0.6617863496353321,-0.15254277539488284,0.3107938194527342,-0.055539416348563464
1589985349.5430706,3.838635871652526,-0.5594340281414755,8.84286128277644,-0.3333333333333333,0.4666666666666667,-0.6577777777777778,-0.08433510957413698,0.17243832900117959,-0.01581249502890842
1589985349.5530705,3.8919236798010917,-0.43499738752860206,8.799231573068123,-0.3333333333333333,0.4666666666666667,-0.6577777777777778,0.017497768495310206,0.011952952773562564,-0.0022232877761405503
1589985349.5630705,3.9278852264724575,-0.45929507549081916,8.781233617891067,-0.3333333333333333,0.4666666666666667,-0.6577777777777778,0.00526191557399461,0.006602656196525036,0.003234044679791834
1589985349.5730705,3.8414330373245846,-0.4304776791081949,8.831664061560659,-0.3333333333333333,0.4666666666666667,-0.6577777777777778,-0.0025968101873975217,0.008960273924942678,0.0016622995275134076
1589985349.5830705,3.892552833235971,-0.3833098518951239,8.840827462973781,-0.35371674894715344,0.47380086213150374,-0.6618544609005418,-0.004453585338303458,0.016821457061719856,0.005093105079211744
1589985349.5930705,3.87,-0.46,8.99,-0.3555555555555556,0.4744444444444445,-0.6622222222222223,0.002181661564992912,-0.01308996938995747,0.003272492347489368
1589985349.6030705,3.8814212061596907,-0.43144698460077335,8.852945526083712,-0.3555555555555556,0.4744444444444445,-0.6622222222222223,0.0015587314023814767,-0.014958759877791775,0.0020266320222664972
1589985349.6130705,4.001480213089803,-0.4020371276364427,8.598705425092412,-0.3555555555555556,0.4744444444444445,-0.6622222222222223,0.0036966746698740387,-0.012019388591817535,-0.0023836277340069873
1589985349.6230705,3.978879589232185,-0.36932775353931085,8.677576944765974,-0.3555555555555556,0.4744444444444445,-0.6622222222222223,0.0032480487763979,0.00024443571091467726,-0.00048430646351955856
1589985349.6330705,3.8653811194386862,-0.39743900494339024,8.933597512358475,-0.35037008983149953,0.47165227059302967,-0.6606266943071281,0.0037480674326983154,0.007775496089553752,0.002181661564992912
1589985349.6430705,3.815757325367063,-0.45068200597470287,9.042046017924108,-0.3411111111111111,0.4666666666666667,-0.6577777777777778,0.000268599660038853,0.003974914432118593,0.0012850351314300716
1589985349.6530704,3.8584174926201786,-0.4755218657752234,8.910538775829375,-0.3411111111111111,0.4666666666666667,-0.6577777777777778,-0.001090830782496456,-0.007261180261810464,-0.001234069895862802
1589985349.6630704,3.9221220188270163,-0.3932019650355408,8.735971951587672,-0.3411111111111111,0.4666666666666667,-0.6577777777777778,-0.002715296570564154,-0.005501275455190226,0.0002550371171086345
1589985349.6730704,3.8725681818181816,-0.4072022727272727,8.858579545454544,-0.3411111111111111,0.4666666666666667,-0.6577777777777778,-0.003272492347489368,-0.002536925317565053,0.0003552637525721412
1589985349.6830704,3.8239596438199492,-0.4513871415734009,8.998814639326852,-0.3381406747814721,0.4743898011237281,-0.6678772612985504,-0.0009395171097018331,0.0013178012916883913,0.0
1589985349.6930704,3.850061475409836,-0.4619877049180328,8.977889344262296,-0.33555555555555555,0.4811111111111111,-0.6766666666666666,0.00021682497111097582,-0.0035027291724834967,0.0
1589985349.7030704,3.853844753392916,-0.46,8.843050314465408,-0.33555555555555555,0.4811111111111111,-0.6766666666666666,0.0,-0.011497053138059717,0.002014299741859146
1589985349.7130704,3.9317548330724144,-0.38505806968362033,8.77,-0.33555555555555555,0.4811111111111111,-0.6766666666666666,-0.0014863448088874782,-0.004867217292738037,0.0017861475386018897
1589985349.7230704,3.9042716155331476,-0.3992962883501394,8.852160480583565,-0.33555555555555555,0.4811111111111111,-0.6766666666666666,-0.0009866858139894997,0.004779903004013649,0.001688318657998162
1589985349.7330704,3.85,-0.41372549019607846,8.979117647058823,-0.3260675381263617,0.4687037037037037,-0.6627995642701525,0.0,0.010159698464427776,3.208325830871906e-05
1589985349.7430704,3.8259164212592904,-0.45619501706165566,8.969860702098819,-0.3211111111111111,0.4622222222222222,-0.6555555555555556,0.0,0.0012755678425153717,-0.00021512714772834796
1589985349.7530704,3.8122166469208074,-0.4310832346040374,8.936649940762422,-0.3211111111111111,0.4622222222222222,-0.6555555555555556,-0.0016980642259643533,-0.006185023460389516,0.0008490321129821767
1589985349.7630703,3.878233380911154,-0.45032594707162416,8.816277698481409,-0.3211111111111111,0.4622222222222222,-0.6555555555555556,-0.001354649650640766,-0.006808803563123045,0.001090830782496456
1589985349.7730703,3.875734520747764,-0.429668150934705,8.858862807569766,-0.3211111111111111,0.4622222222222222,-0.6555555555555556,-0.0017525690755056588,0.0020576131141409005,0.0017525690755056588
1589985349.7830703,3.8784828834263307,-0.4331036042829136,8.886896395717086,-0.33086596625278575,0.4765977982204796,-0.6694177181253037,-0.002685704019761294,0.00713177302270681,0.0011735766554561479
1589985349.7930703,3.8092396535129933,-0.4721013795316009,9.01731793391081,-0.3422222222222222,0.4933333333333334,-0.6855555555555556,-0.0019524366171150874,0.004564901099417315,0.0019800835955614206
1589985349.8030703,3.8177801513306315,-0.45535267224340675,8.916659546008106,-0.3422222222222222,0.4933333333333334,-0.6855555555555556,0.00025347240866210635,-0.004793326799462007,0.0019281891563308054
1589985349.8130703,3.86,-0.42568809651305634,8.86871546917819,-0.3422222222222222,0.4933333333333334,-0.6855555555555556,0.001090830782496456,-0.008256290554500455,0.0034326105144479304
1589985349.8230703,3.9197643128211648,-0.3901178435894177,8.804377099486137,-0.3422222222222222,0.4933333333333334,-0.6855555555555556,0.001742758303697196,-0.0037242503502707518,0.0011036855239821243
1589985349.8330703,3.912704743311353,-0.3818238141721617,8.842473056158735,-0.3374051127446749,0.488516223855786,-0.6737317413833939,0.00046195750292467004,0.00320842937267415,0.0010587992950888464
1589985349.8430703,3.857307764476301,-0.4043269411190753,8.956730588809247,-0.33,0.4811111111111111,-0.6555555555555556,-0.003125653678340316,0.008873484929120701,0.002003342846617314
1589985349.8530703,3.8431264067627704,-0.4468735932372296,8.923045995773268,-0.33,0.4811111111111111,-0.6555555555555556,-0.0048661087620411134,0.004619101685143453,-0.0005880451504411661
1589985349.8630702,3.819199186105661,-0.4669609766732069,8.907761790567546,-0.33,0.4811111111111111,-0.6555555555555556,-0.004197570120306289,-0.0014223368018555268,-0.00041886126405866385
1589985349.8730702,3.8589141369100703,-0.43891413691007025,8.871199479185245,-0.33,0.4811111111111111,-0.6555555555555556,-0.0016954708179482871,-0.0025370094302145305,-0.0006046400354518312
1589985349.8830702,3.8790106974044285,-0.43197860519114356,8.896483953893359,-0.33550653730270613,0.4726010080069289,-0.6525519897540795,-0.0005993734774708945,0.003548117307624263,0.0014743719150766843
1589985349.8930702,3.8506424472438785,-0.42967877637806073,8.958715105512244,-0.3422222222222222,0.4622222222222222,-0.6488888888888888,-0.0014310810023368534,0.007260525196147162,0.003272492347489368
1589985349.9030702,3.837320757798465,-0.4107169688061408,8.897509390821492,-0.3422222222222222,0.4622222222222222,-0.6488888888888888,-0.0013830907692162723,0.0012472491112620757,0.0024739215517127285
1589985349.9130702,3.84,-0.43751490077834654,8.890011920622678,-0.3422222222222222,0.4622222222222222,-0.6488888888888888,-0.0027277271253492827,-0.005183071639628521,-0.0019105792921391544
1589985349.9230702,3.8607442308011346,-0.4240697114985816,8.874069711498581,-0.3422222222222222,0.4622222222222222,-0.6488888888888888,-0.002706781209562145,-0.007676406970833181,-0.0015753589337076993
1589985349.9330702,3.902385914273344,-0.39626901428777606,8.835076057151104,-0.3422222222222222,0.4638804380943218,-0.6434996873045653,-0.0013676867522032345,-0.005063759602418099,0.0008139748127896775
1589985349.9430702,3.8805137590692205,-0.4362670762794954,8.876095823256422,-0.3422222222222222,0.4666666666666667,-0.6344444444444445,-0.0007209935860255025,0.004695798712623968,0.002181661564992912
1589985349.9530702,3.8425354677007473,-0.4525354677007472,8.880141870802989,-0.3422222222222222,0.4666666666666667,-0.6344444444444445,0.0005376775392963475,0.0041022222122895306,0.0005531532432001085
1589985349.9630702,3.825210800568451,-0.43521080056845096,8.892183799147324,-0.3422222222222222,0.4666666666666667,-0.6344444444444445,-0.002135672015186098,4.598954980681398e-05,0.0008066256994206385
1589985349.9730701,3.842937306573266,-0.4242656733566835,8.88279702007005,-0.3422222222222222,0.4666666666666667,-0.6344444444444445,-0.000770420339721696,-0.0029673847883222105,0.001716348784438374
1589985349.9830701,3.869600263785319,-0.41519986810734033,8.898800791355958,-0.3422222222222222,0.47040010258317977,-0.6547116679912297,0.001090830782496456,-0.0006980309899965276,0.003752501053559753
1589985349.9930701,3.87028300817982,-0.41,8.92028300817982,-0.3422222222222222,0.4744444444444445,-0.6766666666666666,3.087140342460451e-05,0.004862431416097145,0.0038642148438745028
1589985350.00307,3.8529897132453343,-0.41701028675466545,8.888969139736004,-0.3422222222222222,0.4744444444444445,-0.6766666666666666,-0.0003261271238848302,0.006162632865672923,0.0017993097356870992
1589985350.01307,3.844379715004191,-0.42781014249790444,8.858759430008382,-0.3422222222222222,0.4744444444444445,-0.6766666666666666,0.00013532519346980338,0.0040208955289423014,0.0008519543852397928
1589985350.02307,3.863387130254281,-0.42677426050856254,8.893387130254283,-0.3422222222222222,0.4744444444444445,-0.6766666666666666,-0.0029030137529198626,-0.004785616728191509,-0.0007389571891390107
1589985350.03307,3.8729008826056393,-0.4370991173943607,8.9,-0.3422222222222222,0.4744444444444445,-0.675860865942878,-0.002181661564992912,-0.010891608392537057,-0.0018652243607289241
1589985350.04307,3.906616391812381,-0.40753770614071433,8.879229510234524,-0.3422222222222222,0.4744444444444445,-0.6711111111111111,-0.002181661564992912,-0.0011913305854665758,0.00045314179207417833
1589985350.05307,3.8803620364045486,-0.412061317153534,8.85,-0.3422222222222222,0.4744444444444445,-0.6711111111111111,-0.002783290661330211,0.006280637829175862,0.002294088975171054
1589985350.06307,3.844996266839799,-0.42000746632040253,8.879977601038792,-0.3422222222222222,0.4744444444444445,-0.6711111111111111,-0.0016374678475637435,0.0065466135934041485,0.0016374678475637435
1589985350.07307,3.85,-0.4268022130850163,8.936883540936027,-0.3422222222222222,0.4744444444444445,-0.6711111111111111,-0.000366567424944011,0.00289705343020978,0.0
1589985350.08307,3.8616794607021783,-0.444427385730429,8.94717531075868,-0.3422222222222222,0.47703988015603965,-0.6767345551529006,-0.0006661536072666663,-0.00042467717522978965,0.0
1589985350.09307,3.88,-0.42785460204535347,8.88,-0.3422222222222222,0.4811111111111111,-0.6855555555555556,-0.0004284020847665606,-0.00023402661296333474,0.0008568041695331212
1589985350.10307,3.8735577068522162,-0.420673120556648,8.822019361669943,-0.3422222222222222,0.4811111111111111,-0.6855555555555556,-0.0003880856149495786,0.0046045566202308425,0.002181661564992912
1589985350.11307,3.8363543605986603,-0.4369165115210716,8.864020406682947,-0.3422222222222222,0.4811111111111111,-0.6855555555555556,0.00146806796623027,0.005810950711863601,0.0007135935987626419
1589985350.12307,3.8418917929852268,-0.4226352587684663,8.927364741231534,-0.3422222222222222,0.4811111111111111,-0.6855555555555556,0.0027786676068010515,8.109953620902364e-05,-0.0005970060418081395
1589985350.13307,3.86,-0.42150571495218103,8.941397714019127,-0.3422222222222222,0.48445644454811704,-0.6755195552445378,0.0018649465953233671,-0.004363323129985824,-0.000152466947719122
1589985350.14307,3.8721251846381093,-0.4338330871491876,8.909791358936484,-0.3422222222222222,0.4888888888888889,-0.6622222222222223,-0.0004408841548900927,-0.004363323129985824,0.0015317149373865486
1589985350.15307,3.884940866455438,-0.4201182670891238,8.84964519873263,-0.3422222222222222,0.4888888888888889,-0.6622222222222223,1.290093813725141e-05,-0.0005002621077678476,0.0005260639840423507
1589985350.16307,3.864444730382453,-0.43518508987251564,8.861480718980125,-0.3422222222222222,0.4888888888888889,-0.6622222222222223,-0.0011715914746838172,0.0049693090403745725,-0.0005252252182013877
1589985350.17307,3.8471796718687474,-0.4371796718687475,8.908460984393757,-0.3422222222222222,0.4888888888888889,-0.6622222222222223,-0.002349542124796088,0.005006734323823269,0.0
1589985350.18307,3.8404661064425767,-0.43046610644257705,8.92860168067227,-0.3422222222222222,0.4888888888888889,-0.6622222222222223,-0.00015253297664488252,0.0013450524102379263,0.0
1589985350.19307,3.8629195198358794,-0.4286130132239195,8.896934933880402,-0.3422222222222222,0.4744444444444445,-0.67,-0.001090830782496456,-0.003272492347489368,0.0
1589985350.20307,3.8681440044309054,-0.44,8.828144004430905,-0.3422222222222222,0.4744444444444445,-0.67,0.00020245770989452344,0.0006073731296835708,0.0006466442461954897
1589985350.21307,3.86,-0.4353978069508507,8.847613158294896,-0.3422222222222222,0.4744444444444445,-0.67,-0.0014192761400051883,0.003774513731989697,0.0005888093979961271
1589985350.22307,3.8546991593964623,-0.4326504203017687,8.893252101508844,-0.3422222222222222,0.4744444444444445,-0.67,-0.0032068591092966796,0.0037850911196412517,-0.000578232010344572
1589985350.23307,3.8459357072824747,-0.4429678536412375,8.932967853641237,-0.34090317615945,0.4764230135386028,-0.6742868997040097,-0.0003237426109806012,0.0015341763430317095,-0.0012104337320511082
1589985350.24307,3.866557285651706,-0.4467213571741468,8.93016407152244,-0.3377777777777778,0.4811111111111111,-0.6844444444444444,-0.001448475234421641,-0.0025035111634762954,0.00037554187864608586
1589985350.2530699,3.884768019174799,-0.43523198082520115,8.848015750727615,-0.3377777777777778,0.4811111111111111,-0.6844444444444444,-0.0006213309387717359,-0.005035264433773232,-0.000570720573756064
1589985350.2630699,3.876266446846961,-0.4391557021020259,8.844089914714182,-0.3377777777777778,0.4811111111111111,-0.6844444444444444,0.0005914646980835861,-0.00018419722734143266,0.0004993660844128698
1589985350.2730699,3.855232328272844,-0.44046465654568834,8.924767671727155,-0.3377777777777778,0.4811111111111111,-0.6844444444444444,0.0,0.002701733873074874,0.000570758474414494
1589985350.2830698,3.8455262676743054,-0.43,8.938947464651388,-0.34324567284251584,0.4781286228939813,-0.6784794680101847,0.00048800849335173306,0.002296475360785902,0.0
1589985350.2930698,3.850724082790928,-0.4353620413954641,8.955362041395464,-0.35,0.4744444444444445,-0.6711111111111111,-0.0006638931608612809,-0.0018337091230997721,-0.0005849079811192456
1589985350.3030698,3.864902861342029,-0.4498057226840583,8.881554218527535,-0.35,0.4744444444444445,-0.6711111111111111,-0.002181661564992912,-0.0032936847151463743,-2.1192367657006357e-05
1589985350.3130698,3.874099439485157,-0.4477016815445298,8.824596636910941,-0.35,0.4744444444444445,-0.6711111111111111,-0.0008401231305757944,0.0009485947819803625,-0.0002507076519206615
1589985350.3230698,3.88,-0.427852127220157,8.870739363899215,-0.35,0.4744444444444445,-0.6711111111111111,0.001325127357010358,0.005219857337968378,-0.0019473649904790098
1589985350.3330698,3.88,-0.42118879674641757,8.904056016267912,-0.35,0.4744444444444445,-0.6711111111111111,0.0020519839564805205,0.004493000738498215,-0.0012205083910088472
1589985350.3430698,3.85535208661053,-0.4346479133894698,8.95859165355788,-0.35,0.4744444444444445,-0.6577777777777778,-0.0013827418237641297,0.002104848182418673,0.0015978394824575643
1589985350.3530698,3.874304468150531,-0.42860893630106206,8.848346382193627,-0.35,0.4744444444444445,-0.6577777777777778,-0.002181661564992912,-0.001090830782496456,0.0
1589985350.3630698,3.887239276234474,-0.42914108564828884,8.787239276234473,-0.35,0.4744444444444445,-0.6577777777777778,-0.002181661564992912,-0.0014856720504744247,0.0007896825359559374
1589985350.3730698,3.88424851209161,-0.41525049596946334,8.834128223801512,-0.35,0.4744444444444445,-0.6577777777777778,-0.0016089213023064927,0.0006820397484391841,0.001322551170963283
1589985350.3830698,3.847016160526658,-0.4323387201755528,8.934677440351106,-0.3471415642298799,0.4744444444444445,-0.6572580621832105,-0.0007653443877415486,0.00770618707631625,-0.0003254863947549074
1589985350.3930697,3.8692035020286144,-0.43973450067620473,8.950265499323795,-0.3377777777777778,0.4744444444444445,-0.6555555555555556,-0.0031566464134382107,0.004276438679447455,0.0021527000814801226
1589985350.4030697,3.855123655133813,-0.4269752689732374,8.908579572545037,-0.3377777777777778,0.4744444444444445,-0.6555555555555556,-0.0002289571026094367,0.0007608838112199829,0.001090830782496456
1589985350.4130697,3.883952097991324,-0.42,8.80511975502169,-0.3377777777777778,0.4744444444444445,-0.6555555555555556,-0.002612768579430741,-0.000989585652087941,0.0007609688984671424
1589985350.4230697,3.8659962432413453,-0.43201127027596375,8.876033810827892,-0.3377777777777778,0.4744444444444445,-0.6555555555555556,-0.001964315006090188,-0.0006520396767081722,0.0
1589985350.4330697,3.8571586015619297,-0.44147580468578934,8.93568279687614,-0.3412505980909747,0.4744444444444445,-0.6574498211809358,-0.0020326983948556324,0.003582440835647802,-0.0003099484881584339
1589985350.4430697,3.8547699111263034,-0.42,8.92138053324218,-0.35,0.4744444444444445,-0.6622222222222223,0.0016111473711308427,0.0028023733640826637,-0.001090830782496456
1589985350.4530697,3.8689415740693325,-0.43341236110399917,8.85423370372267,-0.35,0.4744444444444445,-0.6622222222222223,0.0012062871411128815,0.00011545635861642551,-0.001090830782496456
1589985350.4630697,3.88,-0.44180828149848017,8.81819171850152,-0.35,0.4744444444444445,-0.6622222222222223,0.0008935778703003559,-0.0037715643933975236,0.0006963249581042558
1589985350.4730697,3.874520494384951,-0.4245204943849512,8.835479505615048,-0.35,0.4744444444444445,-0.6622222222222223,0.0012850795553293066,-0.004946069448484376,0.0020770496679378943
1589985350.4830697,3.854475834342037,-0.41552416565796296,8.868413885526543,-0.3450896305262551,0.4756720368128807,-0.6665187955117491,-0.001090830782496456,0.0025833902281473,-0.0008899664509192618
1589985350.4930696,3.83,-0.43693599007371725,8.945403985110575,-0.3233333333333333,0.4811111111111111,-0.6855555555555556,-0.0014250624170428485,0.004363323129985824,0.0
1589985350.5030696,3.8436085693536675,-0.42453618978455576,8.883710481723554,-0.3233333333333333,0.4811111111111111,-0.6855555555555556,-0.002777670802265425,0.0033736800395379376,-0.000989643090447886
1589985350.5130696,3.869253256058338,-0.4269155813138872,8.855422093430564,-0.3233333333333333,0.4811111111111111,-0.6855555555555556,-0.0018452036801010012,0.00016291425564144736,-0.0011722879103171796
1589985350.5230696,3.88928780689743,-0.4202373977008566,8.888813011495717,-0.3233333333333333,0.4811111111111111,-0.6855555555555556,-0.001116726854475283,-0.0042079466981128615,0.001013142566559975
1589985350.5330696,3.88,-0.4250361940298507,8.913357462686568,-0.32650427031509116,0.4786862769485904,-0.6868612354892206,-0.0005493635474386069,0.0014570731474555273,-0.0009077096000169203
1589985350.5430696,3.88,-0.4485117537313433,8.929007835820896,-0.3412851782752902,0.4673832296849088,-0.6929474917081261,-0.003110149863310744,0.0031642640247036193,-5.4114161392874614e-05
1589985350.5530696,3.8626115033418054,-0.42261150334180553,8.933438953214724,-0.3422222222222222,0.4666666666666667,-0.6933333333333334,-0.00028487082338338215,0.0010421782714593833,0.0008059599591130739
1589985350.5630696,3.87,-0.4320345243479572,8.831017262173978,-0.3422222222222222,0.4666666666666667,-0.6933333333333334,-0.0008688986038474333,-0.002181661564992912,-0.00011096608932451134
1589985350.5730696,3.866468133239722,-0.43940439971916684,8.857659333801388,-0.3422222222222222,0.4666666666666667,-0.6933333333333334,-0.0004502368102183283,-0.0010258608704568238,-0.0007055638843177598
1589985350.5830696,3.8626033695200808,-0.4173966304799193,8.897810108560243,-0.3422222222222222,0.4666666666666667,-0.6834983818130286,-0.0029885087864176653,0.001374814343568159,0.000567967122143406
1589985350.5930696,3.863642141468521,-0.41317892926573946,8.926357858531478,-0.3422222222222222,0.4666666666666667,-0.6555555555555556,-0.0014881267853034126,0.0025284289548376617,0.002181661564992912
1589985350.6030695,3.85,-0.4219376043776427,8.922561560601215,-0.3422222222222222,0.4666666666666667,-0.6555555555555556,-0.00021135984994326027,0.003061132497546108,0.0017589418651063914
1589985350.6130695,3.85,-0.4336121273522073,8.860836382056622,-0.3422222222222222,0.4666666666666667,-0.6555555555555556,-0.00030278684127943315,0.0002115517119503545,0.0003940219706085114
1589985350.6230695,3.8556270936779833,-0.4362486042146777,8.881875697892662,-0.3422222222222222,0.4666666666666667,-0.6555555555555556,0.0002724031825050545,-0.0030678854474915176,0.0012954376824943063
1589985350.6330695,3.876568479801559,-0.41828423990077956,8.895147280297662,-0.3422222222222222,0.47047946688715647,-0.6566993956217025,-0.002523850774845849,-0.0016201803855102725,0.002181661564992912
1589985350.6430695,3.86,-0.411627223178428,8.926508892713713,-0.3422222222222222,0.4888888888888889,-0.6622222222222223,0.001090830782496456,0.0009133282691943577,0.0016491540250866171
1589985350.6530695,3.8643154230010444,-0.42,8.916845769989555,-0.3422222222222222,0.4888888888888889,-0.6622222222222223,0.001090830782496456,-0.00047073962490325183,0.0007921277171165514
1589985350.6630695,3.8666538196042337,-0.4133076392084676,8.863346180395766,-0.3422222222222222,0.4888888888888889,-0.6622222222222223,0.0007258191245476591,-0.0003608074665988623,0.0025424690315917742
1589985350.6730695,3.863329655172414,-0.4049944827586207,8.876659310344827,-0.3422222222222222,0.4888888888888889,-0.6622222222222223,-0.000363209035716751,0.000727621746779705,0.0005460172289213295
1589985350.6830695,3.88,-0.43,8.908074317458167,-0.34650151675962937,0.48460959435148176,-0.6682132345745923,-0.002181661564992912,-0.0006707120237069192,-0.0015514834268086069
1589985350.6930695,3.8728414976475705,-0.42284149764757045,8.892841497647572,-0.3644444444444445,0.4666666666666667,-0.6933333333333334,-0.0017912258288627408,0.001090830782496456,0.001481266518626627
1589985350.7030694,3.8542592817277357,-0.41287035913613196,8.859907486047076,-0.3644444444444445,0.4666666666666667,-0.6933333333333334,-0.0020301536132502746,0.0023432612235015473,0.0009292311239878206
1589985350.7130694,3.8513892148990054,-0.41620359503366483,8.844167644697016,-0.3644444444444445,0.4666666666666667,-0.6933333333333334,-0.0031209525099555775,0.005040030372472198,-0.002181661564992912
1589985350.7230694,3.87,-0.41491707073439743,8.902458535367199,-0.3644444444444445,0.4666666666666667,-0.6933333333333334,-0.0008226461766567971,0.004095138524146165,-0.001913476959153253
1589985350.7330694,3.87,-0.43,8.908184884645983,-0.3618226111553081,0.46807842305312475,-0.6919215769468753,-0.00039599674038884867,0.0024804988667116706,-0.0004968356719131829
1589985350.7430694,3.864389957117167,-0.43,8.911220085765667,-0.35,0.4744444444444445,-0.6855555555555556,-0.0012637204448349973,-0.0004788700357245128,0.0012637204448349973
1589985350.7530694,3.8501333440115326,-0.43013334401153247,8.938799903896207,-0.35,0.4744444444444445,-0.6855555555555556,0.0010471940567641066,0.0011053763577405723,-0.001090830782496456
1589985350.7630694,3.8569487012185446,-0.43694870121854446,8.868307792688734,-0.35,0.4744444444444445,-0.6855555555555556,-0.0025145066287334764,0.0018488165012523477,-0.0004251406550153274
1589985350.7730694,3.85,-0.4287734299516908,8.909386714975845,-0.35,0.4744444444444445,-0.6855555555555556,-0.0031386943109309863,0.0009570327459380742,0.0009570327459380742
1589985350.7830694,3.852155094049367,-0.41143672936624476,8.902155094049368,-0.349441271913127,0.47492335423319276,-0.6845179176799343,-0.0010124693515556342,-0.001090830782496456,-0.0010124693515556342
1589985350.7930694,3.8807693423247045,-0.4307693423247045,8.92846131535059,-0.3422222222222222,0.4811111111111111,-0.6711111111111111,-0.00016784445801301426,-0.0007551418664704275,8.392222900650713e-05
1589985350.8030694,3.881361111111111,-0.4428796296296296,8.889842592592593,-0.3422222222222222,0.4811111111111111,-0.6711111111111111,-0.001867542700774025,0.0026442546190515942,0.0017190685109342296
1589985350.8130693,3.86,-0.44864250286150326,8.842262495230829,-0.3422222222222222,0.4811111111111111,-0.6711111111111111,-0.001090830782496456,0.0011401907713572265,0.003173772369767827
1589985350.8230693,3.86,-0.42651959462063116,8.899779391930947,-0.3422222222222222,0.4811111111111111,-0.6711111111111111,-0.0003796533323381754,0.0018260728399137715,0.0014464195075755961
1589985350.8330693,3.8641474242469385,-0.44,8.92,-0.3396876851824264,0.4781157491549888,-0.6722631734019274,0.001317037684328096,0.00018600317516989596,0.001955454663161272
1589985350.8430693,3.88,-0.4369889096084012,8.913977819216802,-0.33,0.4666666666666667,-0.6766666666666666,0.0015247435473858598,-0.0026155743298823158,0.001090830782496456
1589985350.8530693,3.8782334578293103,-0.43176654217068955,8.887634204805174,-0.33,0.4666666666666667,-0.6766666666666666,0.0,-0.001476230498169712,0.001476230498169712
1589985350.8630693,3.862568307102341,-0.44,8.839908923863545,-0.33,0.4666666666666667,-0.6766666666666666,0.0005404479585884614,-0.002461820409606676,0.002461820409606676
1589985350.8730693,3.8430452010914697,-0.44,8.874060268121958,-0.33,0.4666666666666667,-0.6766666666666666,0.001960208292361765,0.00011072663631557335,0.0
1589985350.8830693,3.87247435196989,-0.4375256480301099,8.912474351969891,-0.3332991359598535,0.46845369864492065,-0.6748796346884127,-0.00013495496477434452,0.0005510109233990779,0.0
1589985350.8930693,3.8803634085213035,-0.42,8.93,-0.3566666666666667,0.4811111111111111,-0.6622222222222223,-0.00039003807427609287,-0.003973285055709731,0.00035039635411018155
1589985350.9030693,3.866039056898224,-0.42,8.899804715508878,-0.3566666666666667,0.4811111111111111,-0.6622222222222223,0.001090830782496456,-0.004136636080116152,0.001090830782496456
1589985350.9130692,3.8767922372358754,-0.42,8.842831051056498,-0.3566666666666667,0.4811111111111111,-0.6622222222222223,0.0007409181458911722,-0.0005659618275885303,0.0007409181458911722
1589985350.9230692,3.8615775822979956,-0.42,8.903689670808017,-0.3566666666666667,0.4811111111111111,-0.6622222222222223,-0.000918743249238921,0.0019235302651066102,-0.000918743249238921
1589985350.9330692,3.8513797459937495,-0.42954008466875016,8.9209198306625,-0.35636005644583346,0.4811111111111111,-0.6628865443673609,0.00010033796013388063,0.0010406618024295156,0.002131492584925972
1589985350.9430692,3.879269233326684,-0.42024358889110536,8.93951282221779,-0.3501623925940702,0.4811111111111111,-0.6763148160461812,0.002128518712854534,2.6571426069189018e-05,0.001117402208565645
1589985350.9530692,3.8774860029066303,-0.4424580087198914,8.854916017439782,-0.35,0.4811111111111111,-0.6766666666666666,0.0005484690833108237,-0.0013650653241518678,0.0008165962408410441
1589985350.9630692,3.87,-0.42,8.823666709962334,-0.35,0.4811111111111111,-0.6766666666666666,0.0018835002065456406,-0.0015853388480983692,0.0
1589985350.9730692,3.8676785150472774,-0.4246429699054456,8.86928593981089,-0.35,0.4811111111111111,-0.6766666666666666,0.0018505349567561643,0.0005064694495064723,0.0005064694495064723
1589985350.9830692,3.8607085763663855,-0.43858284726722835,8.897165694534458,-0.35,0.4811111111111111,-0.6766666666666666,0.00413144205632488,0.002027074182552282,0.002027074182552282
1589985350.9930692,3.8720135325742553,-0.4179864674257446,8.924027065148511,-0.3422222222222222,0.4666666666666667,-0.6488888888888888,0.0006515461197850313,0.00021964233135571233,0.0028332076847779435
1589985351.0030692,3.879165916939954,-0.4108340830600458,8.929991003279449,-0.3422222222222222,0.4666666666666667,-0.6488888888888888,-0.0009998464347907702,0.0009998464347907702,0.0009998464347907702
1589985351.0130692,3.8658870935725913,-0.4241129064274088,8.834395172495931,-0.3422222222222222,0.4666666666666667,-0.6488888888888888,0.0004486484936545033,-0.00022432424682725165,-0.00022432424682725165
1589985351.0230691,3.85,-0.43935417854866304,8.891937464354012,-0.3422222222222222,0.4666666666666667,-0.6488888888888888,0.002181661564992912,-0.0011260548784521993,-0.0009851584946292263
1589985351.0330691,3.85,-0.4252826517261046,8.934152044821685,-0.3422222222222222,0.4666666666666667,-0.6488888888888888,0.002181661564992912,-0.001893537609190765,0.0013172896975864707
1589985351.0430691,3.8689318879855468,-0.4483978319783198,8.95,-0.3422222222222222,0.4666666666666667,-0.6573030613269096,-0.000916061362818433,0.0019486356720888813,-0.0029812099813593305
1589985351.053069,3.853497145187602,-0.4252457177814029,8.95,-0.3422222222222222,0.4666666666666667,-0.6577777777777778,-0.00019073968107477795,-0.0014187028406938001,-0.0014723101446460116
1589985351.063069,3.87,-0.4313350396301189,8.842670079260238,-0.3422222222222222,0.4666666666666667,-0.6577777777777778,0.001090830782496456,-0.0009452005500578192,0.0029812318826120945
1589985351.073069,3.87,-0.4382608982826949,8.856521796565389,-0.3422222222222222,0.4666666666666667,-0.6577777777777778,0.001090830782496456,-0.0001897065687128909,0.0014702439199222375
1589985351.083069,3.8403638147406287,-0.4497271389445285,8.900454768425787,-0.3422222222222222,0.466868785967016,-0.6577777777777778,0.002161818549082724,-0.00325264933157918,0.0010610662586311743
1589985351.093069,3.87465478477701,-0.42400891141724234,8.943318480971262,-0.3422222222222222,0.4859193248761168,-0.6577777777777778,0.00029153626521529765,-0.0013823670477117536,-0.0017443571671699654
1589985351.103069,3.86,-0.41234460878502166,8.888898520934806,-0.3422222222222222,0.4888888888888889,-0.6577777777777778,-0.0013465879260577815,-0.0019259044214315864,0.0008350736389351305
1589985351.113069,3.8619786137593404,-0.42197861375934037,8.823957227518681,-0.3422222222222222,0.4888888888888889,-0.6577777777777778,-0.0017499950059210085,-0.0015224973415683594,-0.0002158332795359517
1589985351.123069,3.8678874560375145,-0.43211254396248533,8.859012895662367,-0.3422222222222222,0.4888888888888889,-0.6577777777777778,0.0004608855967312107,-0.0023507211540269466,-0.00039950238739963975
1589985351.133069,3.8595075970737196,-0.4395075970737198,8.93098480585256,-0.3429334708935159,0.48779466016382167,-0.6579966235227912,0.0020742359111173463,0.0009834051286208905,0.001966810257241781
1589985351.143069,3.8521745361291297,-0.43,8.95,-0.3566666666666667,0.4666666666666667,-0.6622222222222223,-0.0007116152841915711,-0.0008536256877659323,-0.001470046280801341
1589985351.153069,3.860137675979737,-0.43013767597973707,8.948623240202629,-0.3566666666666667,0.4666666666666667,-0.6622222222222223,-0.003242456108147855,-3.0036239341512882e-05,0.001090830782496456
1589985351.163069,3.87,-0.4336696223724189,8.85633037762758,-0.3566666666666667,0.4666666666666667,-0.6622222222222223,-0.0006304727304303011,-0.0019514825389598345,0.0008606517564633785
1589985351.173069,3.87,-0.4124266409266409,8.884044401544402,-0.3566666666666667,0.4666666666666667,-0.6622222222222223,0.0009143604744400795,-0.001090830782496456,0.00026470546208456474
1589985351.183069,3.87,-0.4394169884169884,8.929028314028313,-0.3566666666666667,0.4666666666666667,-0.6622222222222223,-0.0010484329837430544,-0.001090830782496456,0.003208895649359266
1589985351.193069,3.8611725606608154,-0.43117256066081566,8.965309757356739,-0.35078170710721046,0.47941741237882174,-0.6749729679343773,-0.00012790652631621447,-0.001090830782496456,-0.0005792046772315979
1589985351.203069,3.8526690505845957,-0.43,8.911352404676766,-0.35,0.4811111111111111,-0.6766666666666666,0.0015993650574495026,-0.0002911482537717047,-0.0034898783686707104
1589985351.213069,3.8589131701146746,-0.43054341494266263,8.813260489655976,-0.35,0.4811111111111111,-0.6766666666666666,0.0009722760330714629,-0.0010315534077839595,0.002063106815567919
1589985351.223069,3.8449514837807697,-0.43752425810961504,8.85514554865769,-0.35,0.4811111111111111,-0.6766666666666666,-0.0005507076897868783,-0.0002700615463547888,0.0005401230927095776
1589985351.233069,3.8582682054396975,-0.42173179456030235,8.897402308159547,-0.35,0.4811111111111111,-0.6766666666666666,-0.001090830782496456,-0.0029891281251887094,0.0029891281251887094
1589985351.243069,3.86,-0.41221275165130716,8.923361745046078,-0.34394325128435005,0.48716785982676103,-0.6723404175840595,-0.001090830782496456,-0.0007241212845797282,0.002423035326519488
1589985351.253069,3.869533357771261,-0.42,8.92580021994135,-0.3422222222222222,0.4888888888888889,-0.6711111111111111,-0.0008363169287358275,-0.0020798560234886604,0.0021307587942407864
1589985351.263069,3.861845857771261,-0.42,8.85661271994135,-0.3422222222222222,0.4888888888888889,-0.6711111111111111,0.003356563891484925,-0.0004027036954003596,0.0012921826301966358
1589985351.273069,3.87,-0.4379405366207397,8.901029731689631,-0.3422222222222222,0.4888888888888889,-0.6711111111111111,0.0027108608351090317,0.001090830782496456,-0.00011232630247606726
1589985351.283069,3.87,-0.4252674039158811,8.90736629804206,-0.3422222222222222,0.4888888888888889,-0.6711111111111111,-0.0007451999811715505,0.001090830782496456,-0.0008035384657321835
1589985351.293069,3.8609473684210527,-0.4381052631578947,8.946210526315788,-0.34926315789473683,0.48184795321637425,-0.6630643274853801,-0.00020668372720985487,0.0030658086202795132,-0.00010334186360492744
1589985351.3030689,3.851408936207348,-0.44,8.958591063792653,-0.35,0.4811111111111111,-0.6622222222222223,-0.0009371396839415623,0.003272492347489368,0.0
1589985351.3130689,3.8589564052897147,-0.42,8.841043594710285,-0.35,0.4811111111111111,-0.6622222222222223,0.0009769922590534895,-0.001090830782496456,0.001953984518106979
1589985351.3230689,3.852539449126181,-0.4208464830420602,8.856771864336482,-0.35,0.4811111111111111,-0.6622222222222223,9.233697591405251e-05,-0.0008138198547542984,9.233697591405251e-05
1589985351.3330688,3.8762615236694757,-0.42875384122315857,8.920030729785267,-0.35,0.4811111111111111,-0.6622222222222223,0.0009548959471307796,0.001773857058895883,0.0009548959471307796
1589985351.3430688,3.872642637014826,-0.4152852740296518,8.922642637014826,-0.35,0.47048380902141523,-0.674484493864179,0.001090830782496456,0.002181661564992912,0.001090830782496456
