time,acc_x,acc_y,acc_z,mag_x,mag_y,mag_z,gyr_x,gyr_y,gyr_z
1589985550.4704564,-3.7,-0.41,9.02,0.2766666666666667,-0.4122222222222222,-0.5877777777777777,-0.004363323129985824,0.001090830782496456,-0.01090830782496456
1589985550.4804564,-3.6949380930466984,-0.4124690465233493,8.940123813906602,0.2766666666666667,-0.4122222222222222,-0.5877777777777777,-0.001090830782496456,-0.00041074979369396273,-0.010086808237576635
1589985550.4904563,-3.6785808769754205,-0.4,9.01145219243855,0.2766666666666667,-0.4122222222222222,-0.5877777777777777,0.0003132119293441128,-0.0020268592570568352,-0.00685458931085089
1589985550.5004563,-3.69,-0.40949247116088566,9.035253764419556,0.2708657120683477,-0.4085307056596556,-0.5977976084476015,0.0026993955522056088,-0.002237024373063974,-0.003845589142773127
1589985550.5104563,-3.6775869021695295,-0.4137934510847649,9.023793451084764,0.2644444444444444,-0.4044444444444445,-0.6088888888888889,0.001918433425527681,-0.0004138013215156126,-0.003949521808470211
1589985550.5204563,-3.6761321572618644,-0.40386784273813564,8.977074899166949,0.2644444444444444,-0.4044444444444445,-0.6088888888888889,0.00042191619206137184,0.0006689145904350841,-0.0036944085395507397
1589985550.5304563,-3.6730570771075746,-0.4138858457848507,8.95,0.2644444444444444,-0.4044444444444445,-0.6088888888888889,-0.0007573554011556926,-0.00042388001981492917,-0.0025151369463336753
1589985550.5404563,-3.682196046066699,-0.4017059308999512,8.980490115166747,0.2644444444444444,-0.4044444444444445,-0.6088888888888889,-0.0004256396587814415,0.00023955146493357293,-0.0041772349361379555
1589985550.5504563,-3.69,-0.39,9.013506692649267,0.2599422135613555,-0.4014429571890518,-0.5946318244257739,-0.002946703222307776,-0.0003825208286574321,-0.003980802301328391
1589985550.5604563,-3.711833421118923,-0.39727780703964094,9.03455561407928,0.2577777777777778,-0.4,-0.5877777777777777,-0.003569437535194852,-0.001884716377287428,-0.0008908355631164519
1589985550.5704563,-3.6828176262463814,-0.3925635252492763,8.958198777742039,0.2577777777777778,-0.4,-0.5877777777777777,-0.003272492347489368,-0.003804048679262327,-0.0008111935571347076
1589985550.5804563,-3.693937242616407,-0.3979790808721356,8.953937242616407,0.2577777777777778,-0.4,-0.5877777777777777,-0.004142875050624788,-0.002622557723714983,0.0015203173269098052
1589985550.5904562,-3.6888161839807587,-0.41118381601924153,8.982367632038484,0.2577777777777778,-0.4,-0.5877777777777777,-0.003143358052029259,-0.000961696487036347,0.000961696487036347
1589985550.6004562,-3.685079444723198,-0.4098411105536043,9.005079444723197,0.2713229637063054,-0.4,-0.5985010499711955,-0.0005194171663768872,0.0,-0.001108162932410683
1589985550.6104562,-3.6822497011782116,-0.3922497011782116,8.994499402356423,0.28444444444444444,-0.4,-0.6088888888888889,0.001090830782496456,0.0,-0.002181661564992912
1589985550.6204562,-3.6951051744031242,-0.39,8.937131889589065,0.28444444444444444,-0.4,-0.6088888888888889,0.00026697132180118733,-0.0032954378427810745,-0.0005339426436023747
1589985550.6304562,-3.7,-0.41430076251866993,8.932150381259335,0.28444444444444444,-0.4,-0.6088888888888889,0.0,-0.0017125211506356986,0.0
1589985550.6404562,-3.7,-0.419554055338975,8.976560806313588,0.28444444444444444,-0.4,-0.6088888888888889,-0.0022789515977001172,0.0005697378994250293,0.0
1589985550.6504562,-3.7040478396205443,-0.414047839620544,9.01,0.27859756499254756,-0.4,-0.6003434496899627,-0.003921772323916009,0.001090830782496456,0.0
1589985550.6604562,-3.7061558339859046,-0.41615583398590444,9.013844166014096,0.27,-0.4,-0.5877777777777777,-0.002853158885369156,0.0006714973203762444,-0.001258000386360635
1589985550.6704562,-3.694515238354216,-0.39354571506264774,8.970637145187943,0.27,-0.4,-0.5877777777777777,-0.000386777513629749,-0.0011965893675754417,-0.0014776082961262052
1589985550.6804562,-3.696344313896594,-0.3926886277931873,8.974410197276155,0.27,-0.4,-0.5877777777777777,0.00039877349327401836,-0.002181661564992912,-0.0006920572892224376
1589985550.6904562,-3.711070074196208,-0.4110700741962077,9.0,0.27,-0.4,-0.5877777777777777,-0.0006037788848871562,-0.0009741037952185996,-0.001694609667383612
1589985550.7004561,-3.7083631908341337,-0.42,9.0,0.26288861662085944,-0.4025859575924148,-0.5923032035645036,0.0001785481823199438,0.0006346894824081999,-0.001546972082584712
1589985550.7104561,-3.6941565172324435,-0.42,9.035060896605339,0.2577777777777778,-0.4044444444444445,-0.5955555555555555,-0.0027337197454063815,-0.0008214444814549629,0.0008214444814549629
1589985550.7204561,-3.695844648894308,-0.41415535110569196,8.978174915479688,0.2577777777777778,-0.4044444444444445,-0.5955555555555555,-0.004816601619802771,-0.0009065569796338944,0.0009065569796338944
1589985550.730456,-3.6933090006207325,-0.3832360024829298,8.953454996896339,0.2577777777777778,-0.4044444444444445,-0.5955555555555555,-0.004363323129985824,-0.0007298748088569707,0.0007298748088569707
1589985550.740456,-3.69,-0.37443198537952826,8.983295956138585,0.2577777777777778,-0.4044444444444445,-0.5955555555555555,-0.0038798685220294594,-0.0025411946063655494,0.001090830782496456
1589985550.750456,-3.6938751818916735,-0.3858127728375101,9.003875181891674,0.26014594448935596,-0.4059514596245397,-0.59684728285278,-0.004117925886531407,-0.004786039899506843,0.001090830782496456
1589985550.760456,-3.6989462910615067,-0.42658056340773953,8.997892582123013,0.27,-0.4122222222222222,-0.6022222222222222,-0.004018497686215865,-0.006544984694978735,0.00048794448395323483
1589985550.770456,-3.6845503075316235,-0.43455030753162355,8.952751537658118,0.27,-0.4122222222222222,-0.6022222222222222,0.0006925769073967867,-0.002383700085227836,-0.0011889384599288284
1589985550.780456,-3.68,-0.4248870072182121,8.965790949472515,0.27,-0.4122222222222222,-0.6022222222222222,0.002739402556698554,-2.4651200914828277e-05,-0.0005084385898759855
1589985550.790456,-3.68,-0.4004470507902717,9.009776474604864,0.27,-0.4122222222222222,-0.6022222222222222,0.003272492347489368,0.0005088411339956459,0.0005576068103324221
1589985550.800456,-3.686643300298123,-0.38,9.023321650149061,0.26335669970187736,-0.403364488491392,-0.6044366556549298,0.0025478207012333627,0.0010946540956089043,0.0
1589985550.810456,-3.696760293412953,-0.3832397065870471,9.036479413174094,0.25,-0.3855555555555555,-0.6088888888888889,0.001444227949637204,-0.001444227949637204,0.000706794334281496
1589985550.820456,-3.685833686365883,-0.39,9.000004236390595,0.25,-0.3855555555555555,-0.6088888888888889,0.0017271872488299547,-0.0012727129326669975,0.0008182386165040403
1589985550.830456,-3.6871905570377557,-0.4079763925943892,8.944381114075512,0.25,-0.3855555555555555,-0.6088888888888889,-0.0004779054095196294,0.00039218404800402134,-0.0014830148305004774
1589985550.840456,-3.695517330218818,-0.4355173302188176,8.978965339562365,0.25,-0.3855555555555555,-0.6088888888888889,-0.00278350892898133,-0.000865102891535697,-0.00022572789096075895
1589985550.850456,-3.6970055288032815,-0.43,9.000508293204922,0.25700552880328165,-0.3828311832431682,-0.5964346154608328,-0.002181661564992912,-0.003272492347489368,0.002181661564992912
1589985550.860456,-3.7053748391875563,-0.41149935675022414,9.02,0.27,-0.37777777777777777,-0.5733333333333334,-0.0011726080073508741,-0.0022634387898473303,0.002181661564992912
1589985550.870456,-3.6904812692524263,-0.3804812692524262,8.996203173131066,0.27,-0.37777777777777777,-0.5733333333333334,0.0005191662254874491,0.00046666789396589137,0.002181661564992912
1589985550.880456,-3.6862983145661032,-0.38889494369830974,8.98889494369831,0.27,-0.37777777777777777,-0.5733333333333334,0.0024649098638067028,0.00012054294302754186,0.0035557406463031585
1589985550.890456,-3.697482202650609,-0.39251779734939085,9.018705506626523,0.27,-0.37777777777777777,-0.5733333333333334,0.003680583196097422,-0.00149892163110451,0.003547141432769716
1589985550.900456,-3.709284166690115,-0.3807158333098849,9.048210416725288,0.27,-0.37777777777777777,-0.5733333333333334,0.004324280479507885,-0.002142618914514972,0.002259746865948791
1589985550.910456,-3.704020122312093,-0.42195975537581376,9.023919510751627,0.2644444444444444,-0.3922222222222223,-0.6088888888888889,0.0028339650307461686,0.00043852731674319946,0.001304606931506513
1589985550.920456,-3.7034432368923484,-0.41,8.927875605815832,0.2644444444444444,-0.3922222222222223,-0.6088888888888889,3.596585558385311e-05,-0.00033963302377625006,0.002145695709409059
1589985550.930456,-3.705601864876814,-0.40439813512318634,8.929213054137696,0.2644444444444444,-0.3922222222222223,-0.6088888888888889,-0.0029240367766006645,-0.001090830782496456,0.0014392863533851596
1589985550.940456,-3.70158982745246,-0.39579491372623016,8.97261525882131,0.2644444444444444,-0.3922222222222223,-0.6088888888888889,-0.003904619374937678,0.0002852804826479821,0.00045870375504814594
1589985550.950456,-3.694825247958977,-0.39482524795897717,9.014126239794885,0.27034196972763874,-0.39811974750541657,-0.602455224943586,-0.0022197865461232786,0.0016553086643098674,0.0005644778818134113
1589985550.960456,-3.7,-0.4,9.055703604596253,0.2766666666666667,-0.4044444444444445,-0.5955555555555555,0.000622166746478185,0.001090830782496456,0.0005709991763248802
1589985550.970456,-3.694989823033867,-0.41002035393226666,9.019898230338667,0.2766666666666667,-0.4044444444444445,-0.5955555555555555,0.0043677636691580824,0.002730407360620334,-2.2202695861295047e-06
1589985550.9804559,-3.7000346992729676,-0.4049479510905486,9.010138797091871,0.2766666666666667,-0.4044444444444445,-0.5955555555555555,0.006544984694978735,0.004910631072988218,-0.000543522839494062
1589985550.9904559,-3.71,-0.39,9.061905326629809,0.2766666666666667,-0.4044444444444445,-0.5955555555555555,0.007518986952238972,0.0038308168170485537,0.0003246674190867452
1589985551.0004559,-3.71,-0.39,9.089928510581435,0.2766666666666667,-0.4044444444444445,-0.5955555555555555,0.009811628328088687,9.747857299029564e-06,0.00108888121103665
1589985551.0104558,-3.6820051094482915,-0.3820306566897476,8.99791824882734,0.27,-0.4,-0.6022222222222222,0.006539411151501048,0.0006533837608023361,0.0
1589985551.0204558,-3.687860453428635,-0.4171627205718115,8.904232745141835,0.27,-0.4,-0.6022222222222222,0.0001522216956365112,-0.0006240541303705715,0.0
1589985551.0304558,-3.69,-0.4211159693596569,8.892210076600858,0.27,-0.4,-0.6022222222222222,-0.0012125641554801144,-0.001090830782496456,0.00048454870475639876
1589985551.0404558,-3.6876797464614723,-0.41232025353852764,8.943202535385277,0.27,-0.4,-0.6022222222222222,0.0,-0.001090830782496456,0.0015970315791009135
1589985551.0504558,-3.688252689279974,-0.4172491035733421,9.028252689279974,0.27,-0.4012226206340702,-0.6022222222222222,0.0009002287504973741,0.00010947421816670955,0.0029724160973235766
1589985551.0604558,-3.705089985486212,-0.41,9.047544992743106,0.27,-0.4044444444444445,-0.6022222222222222,0.0038080918449038105,0.0035402920961965893,0.001646062067578469
1589985551.0704558,-3.6943085604856782,-0.3970743185429654,9.014148637085931,0.27,-0.4044444444444445,-0.6022222222222222,0.0063941359936874114,0.003423341048780692,0.00046999104060256586
1589985551.0804558,-3.6876122527197146,-0.3841292490934285,8.984129249093428,0.27,-0.4044444444444445,-0.6022222222222222,0.007635815477475192,0.0003799367571099717,0.001090830782496456
1589985551.0904558,-3.682108387380455,-0.39807225825363673,9.002108387380455,0.27,-0.4044444444444445,-0.6022222222222222,0.007635815477475192,-0.002181661564992912,0.00021028400376365305
1589985551.1004558,-3.693049881586738,-0.4169501184132623,9.02,0.27,-0.4044444444444445,-0.6022222222222222,0.006119534856038807,-0.001044451098915623,-0.00033269047177826344
1589985551.1104558,-3.6910804712960643,-0.4189195287039358,9.003379293055904,0.27,-0.4044444444444445,-0.6022222222222222,-0.00035358340480519347,-0.00011786113493506456,0.0016951767412122162
1589985551.1204557,-3.7112817668414686,-0.42128176684146834,8.944872932634127,0.27,-0.4044444444444445,-0.6022222222222222,-0.003272492347489368,-0.001090830782496456,0.002181661564992912
1589985551.1304557,-3.7150780626098068,-0.410312250439227,8.93953162434116,0.27,-0.4044444444444445,-0.6022222222222222,-0.004346292510437983,-0.0005539307010221481,0.0027185616464672196
1589985551.1404557,-3.6997662885128015,-0.38488314425640074,8.980233711487198,0.27,-0.4044444444444445,-0.6022222222222222,-0.004616910349275497,0.0002790811877355944,0.0029934111597537737
1589985551.1504557,-3.673764800694315,-0.37188240034715764,9.006235199305685,0.27,-0.4044444444444445,-0.6022222222222222,-0.0024896686015421486,0.000988161770313377,0.002284330577175991
1589985551.1604557,-3.68,-0.3934451002553477,9.02138724936163,0.2577777777777778,-0.4044444444444445,-0.6022222222222222,-0.0014666329232284178,0.006581560334678165,0.002181661564992912
1589985551.1704557,-3.68,-0.4082725043277553,8.967907530294287,0.2577777777777778,-0.4044444444444445,-0.6022222222222222,-0.003555153165876451,0.012187579153052403,0.002464322383379995
1589985551.1804557,-3.6734304981509682,-0.38014574722645206,8.846569501849032,0.2577777777777778,-0.4044444444444445,-0.6022222222222222,-0.010486402858404041,0.01812221833587923,0.005812464654611853
1589985551.1904557,-3.657893598501833,-0.34314878801466514,8.921085643446839,0.2577777777777778,-0.4044444444444445,-0.6022222222222222,-0.020382305378037396,0.028477666374412,0.011829758162321971
1589985551.2004557,-3.65,-0.46152988488626934,9.242043321914165,0.2577777777777778,-0.40131951684859324,-0.6022222222222222,-0.023087282526278,0.029836869075581612,0.044184553800797416
1589985551.2104557,-3.770038706499173,-0.8430138287765228,9.385061754460045,0.2577777777777778,-0.3922222222222223,-0.6022222222222222,0.00485816779193537,-0.011315483761511322,0.07404076789757674
1589985551.2204556,-3.8104245178675566,-0.4765135640597663,9.032957548213245,0.2577777777777778,-0.3922222222222223,-0.6022222222222222,0.0363739319916828,-0.087016716818577,0.036823320843015525
1589985551.2304556,-3.1930646022423916,-0.5020430681615946,8.940599750845346,0.2577777777777778,-0.3922222222222223,-0.6022222222222222,0.010766202800442864,-0.05717300580158725,0.0065143117525273304
1589985551.2404556,-2.9067606295072115,-0.3793085186298077,8.804340444711539,0.2577777777777778,-0.3922222222222223,-0.6022222222222222,0.004009962625041387,0.035808843531350894,-0.03437858262499657
1589985551.2504556,-2.853756833041552,-0.46407445782271606,8.960317624781164,0.2600705832847031,-0.39489716198030184,-0.5972544769572173,-0.003647651771274101,0.05348535583118408,-0.12649092760647512
1589985551.2604556,-2.769002647837599,-0.45912621359223305,8.9245013239188,0.2644444444444444,-0.4,-0.5877777777777777,-0.004867820332128933,0.060172844726607236,-0.2713155144136198
1589985551.2704556,-2.5194598756292566,-0.3784749777909387,8.80403494225644,0.2644444444444444,-0.4,-0.5877777777777777,-0.01108939154917762,0.08705159122378617,-0.3973275377592024
1589985551.2804556,-2.03667338948867,-0.436220429469688,8.794665322102267,0.2644444444444444,-0.4,-0.5877777777777777,-0.03147625935245978,0.17205920207198447,-0.559073281127675
1589985551.2904556,-1.7858216279603334,-0.38949906951844393,8.956155581614704,0.2644444444444444,-0.4,-0.5877777777777777,-0.04066459874180825,0.2697965981538603,-0.6761933688214207
1589985551.3004556,-1.833937339077676,-0.16495908430417822,9.153964616208224,0.2644444444444444,-0.4,-0.5877777777777777,-0.037165525487907955,0.36193886050656787,-0.7613374846663277
1589985551.3104556,-1.7357876117578954,-0.09842477648420918,8.67434660491842,0.27,-0.4,-0.5877777777777777,-0.03646423648271686,0.38886460369756937,-0.9935543378014052
1589985551.3204556,-1.5199620505563773,-0.5300758988872452,9.195925044488755,0.27,-0.4,-0.5877777777777777,-0.07668338564161575,0.13185443102363015,-1.139716611573989
1589985551.3304555,-1.6240384680390765,-0.745684176723118,9.17751478889903,0.27,-0.4,-0.5877777777777777,-0.03700675601807907,0.051902811239158055,-1.1725515156758537
1589985551.3404555,-1.9926684244329511,-1.0363347192644425,8.950665584964337,0.27,-0.4,-0.5877777777777777,0.02021700336667595,0.13464527413333086,-1.1392998717090366
1589985551.3504555,-1.9710004512344486,-0.8230000644620641,8.463000709082705,0.27400008594941877,-0.3988333082647529,-0.5889444695130249,0.09321121964308754,0.10346522588672485,-1.032961973922386
1589985551.3604555,-2.0909569857956822,-0.8409569857956825,8.680623545461842,0.2966666666666667,-0.3922222222222223,-0.5955555555555555,0.01764097739255965,0.07867003147408103,-0.9644715480793573
1589985551.3704555,-2.1344689165186503,-0.8543086145648312,8.978617229129663,0.2966666666666667,-0.3922222222222223,-0.5955555555555555,-0.01382666767463725,0.03165157892296921,-0.8713989329089484
1589985551.3804555,-2.2059614772365492,-0.8513461742544837,8.929423219781386,0.2966666666666667,-0.3922222222222223,-0.5955555555555555,0.012775268818778801,0.0444932893809956,-0.7963170345577523
1589985551.3904555,-2.2639654971441896,-0.83657635755083,8.85,0.2966666666666667,-0.3922222222222223,-0.5955555555555555,0.031574985514300484,0.05637929282168247,-0.7358083671712855
1589985551.4004555,-2.3032485631052673,-0.8377159278796945,8.874112274624045,0.2998816366165394,-0.39082906857727745,-0.5961985495455301,0.025692624878656388,0.05560462891505515,-0.6942776782377958
1589985551.4104555,-2.2358777946602997,-0.9264888213588018,9.0958777946603,0.33,-0.37777777777777777,-0.6022222222222222,0.012257296367859513,0.0367052364304132,-0.6268193309642072
1589985551.4204555,-2.2575093693610326,-0.9465613288298709,8.990278536066256,0.33,-0.37777777777777777,-0.6022222222222222,0.020182413553669794,0.03814460566089444,-0.5813053037361957
1589985551.4304554,-2.3040064873452635,-0.9429967563273681,8.811987025309474,0.33,-0.37777777777777777,-0.6022222222222222,0.022154125948747834,0.03011329853322135,-0.5395383505549765
1589985551.4404554,-2.29,-0.9528940502523963,8.848682150757188,0.33,-0.37777777777777777,-0.6022222222222222,0.00015784595507027866,0.017467383422938788,-0.5040371220504599
1589985551.4504554,-2.29,-0.9647887244058759,8.884366173217629,0.33,-0.37777777777777777,-0.6022222222222222,0.0008065997907893084,0.022008660272972,-0.47743821478597975
1589985551.4604554,-2.241821489901055,-0.9507285959604219,8.861457191920843,0.33,-0.37349524354676045,-0.6022222222222222,0.013703935231475426,0.036611381663901,-0.4205877865171454
1589985551.4704554,-2.3167264820684776,-0.9561210803447463,8.852847562413224,0.33,-0.37333333333333335,-0.6022222222222222,0.0098407093120348,0.019235061858224777,-0.38450806355776634
1589985551.4804554,-2.3975763421634593,-0.9651526843269185,8.925763421634592,0.33,-0.37333333333333335,-0.6022222222222222,0.0026438005743373853,0.013816488456735682,-0.3655948649001202
1589985551.4904554,-2.3909979767562226,-0.9519959535124453,8.859979767562226,0.33,-0.37333333333333335,-0.6022222222222222,0.00981968405906093,0.021709960289931586,-0.35124309793067315
1589985551.5004554,-2.4006321243523314,-0.961474956822107,8.902107081174439,0.33042141623488774,-0.3727714450201497,-0.6023626943005181,0.018245322331621204,0.026019045949474188,-0.3403851735190202
1589985551.5104554,-2.4247789291882555,-1.0178175014392632,8.982596430627519,0.3465192861255037,-0.35130761849932834,-0.6077286509307235,0.006831288525571787,0.01987302774621681,-0.34214117871995087
1589985551.5204554,-2.3935918199798487,-1.0617959099899243,8.930244990110833,0.35,-0.3466666666666667,-0.6088888888888889,0.011580607552110146,0.022097108597154247,-0.3426054552611521
1589985551.5304554,-2.4092439452177485,-1.0696219726088743,8.844158301302384,0.35,-0.3466666666666667,-0.6088888888888889,0.019263826561555973,0.028072945604501,-0.3477276012674493
1589985551.5404553,-2.4726742728184554,-1.1575248961169222,8.91009958446769,0.35,-0.3466666666666667,-0.6088888888888889,0.010346597963294315,0.022637454481871797,-0.3591315934313251
1589985551.5504553,-2.4200877632898696,-1.1500125376128385,8.880050150451355,0.35,-0.3466666666666667,-0.6088888888888889,0.01526342510653642,0.021817983291331448,-0.3665068341461883
1589985551.5604553,-2.437530109011282,-1.1502408720902555,8.880120436045129,0.3566666666666667,-0.3466666666666667,-0.6088888888888889,0.01226856191945144,0.027822753720927,-0.38880891752004537
1589985551.5704553,-2.443307336724944,-1.0979844020349663,8.842015597965034,0.3566666666666667,-0.3466666666666667,-0.6088888888888889,0.012509327288652899,0.025308975627958082,-0.41326694498552835
1589985551.5804553,-2.490324599736656,-1.12,8.83806804953915,0.3566666666666667,-0.3466666666666667,-0.6088888888888889,0.011471427385449534,0.024033685553395526,-0.43904339271313225
1589985551.5904553,-2.516186567164179,-1.1219067164179106,8.893813432835822,0.3566666666666667,-0.3466666666666667,-0.6088888888888889,0.013159299555362406,0.0272707695624114,-0.4648001472368602
1589985551.6004553,-2.464018656716418,-1.147990671641791,8.94598134328358,0.3566666666666667,-0.3466666666666667,-0.6088888888888889,0.014107738931611345,0.0272707695624114,-0.4960986466530751
1589985551.6104553,-2.513898084836484,-1.1440113239070573,8.944011323907057,0.35999370894052374,-0.3466666666666667,-0.6142121565270602,0.01352753694959568,0.03380340179099387,-0.5488109357609654
1589985551.6204553,-2.55,-1.1216638039619833,8.903327607923966,0.3622222222222222,-0.3466666666666667,-0.6177777777777778,0.01709030680438911,0.04084596899699706,-0.5941712886451997
1589985551.6304553,-2.5444069033183223,-1.0827965483408388,8.831186193363356,0.3622222222222222,-0.3466666666666667,-0.6177777777777778,0.02526477047543705,0.046753195596601294,-0.626783837270336
1589985551.6404552,-2.5130087911661394,-1.1045131867492093,8.913539560247628,0.3622222222222222,-0.3466666666666667,-0.6177777777777778,0.01865032947829771,0.04499437235931907,-0.6708801105845983
1589985551.6504552,-2.5292881678278247,-1.1289322517417375,8.986796755225214,0.3622222222222222,-0.3466666666666667,-0.6177777777777778,0.013322915923571377,0.040554861063713796,-0.7063962009494406
1589985551.6604552,-2.524391685931139,-1.1318516396964056,8.89560831406886,0.3955555555555556,-0.3333333333333333,-0.6322222222222222,0.01902318192251404,0.04997623343694381,-0.7555242936880296
1589985551.6704552,-2.4961432262827614,-1.1759045158114925,8.903379352774701,0.3955555555555556,-0.3333333333333333,-0.6322222222222222,0.016388501010463245,0.04539418411566241,-0.7868425645561293
1589985551.6804552,-2.5378133382665804,-1.1666800018499675,8.802226667283323,0.3955555555555556,-0.3333333333333333,-0.6322222222222222,0.021940243474945654,0.050911255087875244,-0.8159545170929404
1589985551.6904552,-2.5869339086095313,-1.19,8.831232398509512,0.3955555555555556,-0.3333333333333333,-0.6322222222222222,0.02564545522882862,0.059483073166542576,-0.8441937072506378
1589985551.7004552,-2.5211280643263385,-1.19,8.9381668954697,0.3955555555555556,-0.3333333333333333,-0.6322222222222222,0.022953591205868307,0.05140748109766163,-0.871112347480241
1589985551.7104552,-2.5492437923250564,-1.2430812641083522,8.976162528216705,0.4033333333333333,-0.3144444444444445,-0.6466666666666666,0.02456431497141497,0.0525485568119942,-0.9042337736288658
1589985551.7204552,-2.465703093878635,-1.2152343646262116,8.920468729252423,0.4033333333333333,-0.3144444444444445,-0.6466666666666666,0.026842534107830232,0.05330796319079927,-0.9171436820685525
1589985551.7304552,-2.5976690888764673,-1.3168098698394954,8.870859219036973,0.4033333333333333,-0.3144444444444445,-0.6466666666666666,0.02791988486953937,0.055886632867800524,-0.937846752080546
1589985551.7404552,-2.480444382336501,-1.3000634831909288,8.770380899145572,0.4033333333333333,-0.3144444444444445,-0.6466666666666666,0.03705362189546144,0.06867386470409144,-0.9478938628090603
1589985551.7504551,-2.190505769644265,-1.3,8.86982559667439,0.4033333333333333,-0.3144444444444445,-0.6466666666666666,0.025110034894194284,0.04585484421324132,-0.9642658750494457
1589985551.7604551,-2.477414826034861,-1.4,9.066795831166777,0.4222222222222222,-0.30666666666666664,-0.6677777777777778,0.022483597526433065,0.06861595166822851,-0.9731966690917189
1589985551.7704551,-2.552999665055744,-1.4164981578065936,8.736498157806594,0.4222222222222222,-0.30666666666666664,-0.6677777777777778,0.04488803379885848,0.08050345789524027,-0.9806020944363111
1589985551.780455,-2.5776543033080337,-1.5054074180151797,8.83918516396964,0.4222222222222222,-0.30666666666666664,-0.6677777777777778,0.025934841615696563,0.07141575249386901,-0.9954948589585438
1589985551.790455,-2.6104664206642068,-1.4868096995255666,8.892723879810227,0.4222222222222222,-0.30666666666666664,-0.6677777777777778,0.020624027663810853,0.06336587138022433,-1.0131314751383451
1589985551.800455,-2.55,-1.529686698306824,8.910626603386351,0.4230576934040249,-0.3054134598939627,-0.6680214568724703,0.0338499301705026,0.07107488042783196,-1.026166981548255
1589985551.810455,-2.5305924875974486,-1.5338625088589652,8.921682494684621,0.4488888888888889,-0.26666666666666666,-0.6755555555555556,0.03460415201216681,0.07605572174703214,-1.058938168320241
1589985551.820455,-2.50704308645452,-1.5847507744297382,8.890166150380175,0.4488888888888889,-0.26666666666666666,-0.6755555555555556,0.032474871022921806,0.07660820722672379,-1.09066766474216
1589985551.830455,-2.5882585436157997,-1.6421901946894006,8.868707281921,0.4488888888888889,-0.26666666666666666,-0.6755555555555556,0.02874152719095994,0.08091144132776379,-1.1273118602758239
1589985551.840455,-2.578408116940297,-1.698408116940297,8.902040584701485,0.4488888888888889,-0.26666666666666666,-0.6755555555555556,0.030716909414266632,0.08250689870469766,-1.1670689102377658
1589985551.850455,-2.5702005753086903,-1.6902005753086902,8.86100287654345,0.4488888888888889,-0.26666666666666666,-0.6755555555555556,0.031612213320304415,0.08608811432884879,-1.200195154761164
1589985551.860455,-2.530451983920912,-1.742033927644106,8.828644048237262,0.4622222222222222,-0.22333333333333333,-0.7177777777777777,0.03919595247375371,0.09604241265710059,-1.240120541066811
1589985551.870455,-2.5465860788952357,-1.8146373550285615,8.780241763314292,0.4622222222222222,-0.22333333333333333,-0.7177777777777777,0.03655601735689669,0.09780236940167193,-1.2735597192136663
1589985551.880455,-2.4953280374494646,-1.8653280374494645,8.744652102986027,0.4622222222222222,-0.22333333333333333,-0.7177777777777777,0.03825281039934271,0.10064703135268242,-1.3220088426888794
1589985551.890455,-2.5250769558124686,-1.895076955812469,8.826461628484289,0.4622222222222222,-0.22333333333333333,-0.7177777777777777,0.03257387911748332,0.10226958314749941,-1.3520260508929933
1589985551.900455,-2.53,-1.9479321866783523,8.820827125328659,0.4622222222222222,-0.22333333333333333,-0.7177777777777777,0.032679810786419496,0.10776668402477821,-1.3915021905283258
1589985551.910455,-2.5345786764364884,-1.960842647127023,8.852710661781755,0.49,-0.2088888888888889,-0.7555555555555555,0.03664471560800812,0.11795756817524104,-1.4309462861428306
1589985551.920455,-2.500834900338473,-2.031669800676946,8.860816096276794,0.49,-0.2088888888888889,-0.7555555555555555,0.03381575425739013,0.11899162879106599,-1.4598999833859299
1589985551.930455,-2.5083463170902056,-2.0466926341804115,8.778190512007736,0.49,-0.2088888888888889,-0.7555555555555555,0.03381575425739013,0.11981099725236097,-1.4828423003021887
1589985551.940455,-2.3664665812643606,-2.048066654466337,8.785800036600987,0.49,-0.2088888888888889,-0.7555555555555555,0.03033236662776863,0.12523464470496032,-1.517694700273163
1589985551.950455,-2.247065617438338,-2.0310093739197623,8.836971878240712,0.49,-0.2088888888888889,-0.7555555555555555,0.028471705959180454,0.12337398403637213,-1.5400226282962206
1589985551.960455,-2.2556884428819366,-2.0856884428819367,8.892036179965288,0.4977777777777778,-0.2288888888888889,-0.7911111111111111,0.020255466944945153,0.13578551968308733,-1.5612531472619517
1589985551.970455,-2.2932487515967948,-2.133068749274184,8.825703751016142,0.4977777777777778,-0.2288888888888889,-0.7911111111111111,0.024955208550536734,0.147817388631991,-1.5731592023227698
1589985551.980455,-2.048896450493728,-2.0810442639826148,8.565753555225132,0.4977777777777778,-0.2288888888888889,-0.7911111111111111,0.020108899244771872,0.13802717033802997,-1.5958112820878585
1589985551.990455,-1.433239925273552,-1.649285142399634,7.718226390636319,0.4977777777777778,-0.2288888888888889,-0.7911111111111111,0.007898406714681437,0.13104974603512112,-1.609766130693676
1589985552.000455,-2.027620216196483,-2.1976788285638955,9.506213519378587,0.4977777777777778,-0.2288888888888889,-0.7911111111111111,-0.038670147030207075,0.08459373139189245,-1.6336731962431952
1589985552.010455,-2.0284525271610767,-2.1599278853723822,8.901868997008345,0.5155555555555555,-0.25555555555555554,-0.7977777777777778,0.010979106195070847,0.1547055685570172,-1.6241096979787149
1589985552.020455,-1.8105153519130845,-2.107094630766808,8.439578019209574,0.5155555555555555,-0.25555555555555554,-0.7977777777777778,0.06284803261198027,0.11364266847696392,-1.6233892962229244
1589985552.0304549,-2.191408411732153,-2.404023242944106,9.192816823464307,0.5155555555555555,-0.25555555555555554,-0.7977777777777778,0.00791003234684376,0.13782242478279205,-1.6338607737241886
1589985552.0404549,-1.9361149125207906,-2.2973975198433587,8.627360254331853,0.5155555555555555,-0.25555555555555554,-0.7977777777777778,0.01157940634266734,0.11561993287120907,-1.6464752529785305
1589985552.0504549,-2.1885036551360315,-2.4893878589192857,8.88945587459492,0.514814940420864,-0.2558200609608025,-0.7975359442644091,0.031545060381187366,0.13078840351056237,-1.6417300050942363
1589985552.0604548,-2.014649935940915,-2.4182658828849197,8.82623634034215,0.42876612991014984,-0.28655177900034334,-0.7694383734854005,0.021200788278485833,0.11785806338218548,-1.6451780957951365
1589985552.0704548,-2.074349718239134,-2.443479049266306,8.949132957652179,0.4066666666666667,-0.29444444444444445,-0.7622222222222222,0.014749860475770437,0.11643436357546251,-1.6384751251338132
1589985552.0804548,-2.105135442472485,-2.5256772123624254,8.629452544369085,0.4066666666666667,-0.29444444444444445,-0.7622222222222222,0.03151651705592946,0.11424236274376712,-1.6282563909215504
1589985552.0904548,-2.0862791652411907,-2.6352494013000345,8.795514881970579,0.4066666666666667,-0.29444444444444445,-0.7622222222222222,0.026263309151728045,0.10699926678084515,-1.6128639565556753
1589985552.1004548,-2.1365017105713306,-2.7572184399589466,8.759641635306192,0.4066666666666667,-0.29444444444444445,-0.7622222222222222,0.03565490316683216,0.10778189961543717,-1.600341831202203
1589985552.1104548,-2.196649699969647,-2.805583833383922,8.877715566555372,0.4388888888888889,-0.17,-0.6466666666666666,0.03054881424851676,0.10665777599107214,-1.574661263860489
1589985552.1204548,-2.161093250038092,-2.85,8.778020722230687,0.4388888888888889,-0.17,-0.6466666666666666,0.039377861025766285,0.10385613227250882,-1.551831694292439
1589985552.1304548,-2.051122609779618,-2.828721922995508,8.747841098854575,0.4388888888888889,-0.17,-0.6466666666666666,0.03920019988292736,0.09483256979024661,-1.5345897861116786
1589985552.1404548,-1.8835309736133745,-2.70568731574225,8.704797934482064,0.4388888888888889,-0.17,-0.6466666666666666,0.033430584786424966,0.08988622622386404,-1.511635650329921
1589985552.1504548,-1.8374490487264472,-2.674966032484298,8.881445313215286,0.4388888888888889,-0.17,-0.6466666666666666,0.038457343004759975,0.10077753569692323,-1.4865018592382457
1589985552.1604548,-1.8829176162015737,-2.8136335296899855,9.07631250806209,0.4724873753660785,-0.11540245947456679,-0.6197878774849149,0.060710312197218924,0.08522084414796392,-1.4609986293853372
1589985552.1704547,-1.8710916238282431,-2.8368732990625944,9.008584820078621,0.4833333333333333,-0.09777777777777777,-0.6111111111111112,0.028529166730607347,0.0789999641902385,-1.4465092378837423
1589985552.1804547,-1.85,-2.8483528391850887,8.57267771998266,0.4833333333333333,-0.09777777777777777,-0.6111111111111112,0.036340575961263326,0.07853981633974483,-1.413925332642835
1589985552.1904547,-1.8919490121611247,-2.9807195668861866,8.747331420952689,0.4833333333333333,-0.09777777777777777,-0.6111111111111112,0.02399827721492203,0.09333555578366952,-1.3774559910280797
1589985552.2004547,-1.9088949941416509,-3.0739224677790795,8.637182538079271,0.4833333333333333,-0.09777777777777777,-0.6111111111111112,0.02399827721492203,0.07022905730368445,-1.3561980124264934
1589985552.2104547,-1.8755617039964867,-3.0713904259991214,8.750534036012297,0.5168150100034158,-0.03464090177133655,-0.6091978724442493,0.0333898655592613,0.09220131015812491,-1.3228804314898448
1589985552.2204547,-1.8669325153374234,-3.100920245398773,8.975092024539878,0.5222222222222223,-0.024444444444444446,-0.6088888888888889,0.02129462300554431,0.05682358389065893,-1.2968840327606637
1589985552.2304547,-1.79719836400818,-3.121840490797546,8.863517382413088,0.5222222222222223,-0.024444444444444446,-0.6088888888888889,0.03422621001194913,0.05910562865649508,-1.26949949557063
1589985552.2404547,-1.760112463768116,-3.0904498550724635,8.572811594202898,0.5222222222222223,-0.024444444444444446,-0.6088888888888889,0.05760547727401226,0.06323138170274152,-1.2113619559078423
1589985552.2504547,-1.8141870016912298,-3.190633003140855,8.748043005556898,0.5222222222222223,-0.024444444444444446,-0.6088888888888889,0.05950285574248305,0.06749024606022165,-1.1787345074378193
1589985552.2604547,-1.864953791441473,-3.255584567511289,8.79873844786037,0.5244444444444445,0.027777777777777776,-0.6022222222222222,0.042611207512743506,0.05992688604192335,-1.1310094228167593
1589985552.2704546,-1.7093356525100256,-3.12026573899599,8.759069913514036,0.5244444444444445,0.027777777777777776,-0.6022222222222222,0.04456463013004026,0.05774156240307833,-1.0914143297943155
1589985552.2804546,-1.6629300155520994,-3.1446391912908243,8.692441679626748,0.5244444444444445,0.027777777777777776,-0.6022222222222222,0.03269828888191515,0.05235987755982988,-1.0526505175794567
1589985552.2904546,-1.7747531659631193,-3.321692512774939,8.785627638302598,0.5244444444444445,0.027777777777777776,-0.6022222222222222,0.03168178775971456,0.05235987755982988,-1.0109739715692323
1589985552.3004546,-1.6954000808049714,-3.2838545895299847,8.889981722685034,0.5244444444444445,0.027777777777777776,-0.6022222222222222,0.03582882887669949,0.05739356098099262,-0.9729437426242225
1589985552.3104546,-1.5698902702209794,-3.1152849630687864,8.728881424967325,0.5497246792371264,0.0753046191880199,-0.5971661752636859,0.027160721616665152,0.05096284226423714,-0.9233954027078383
1589985552.3204546,-1.5087709121992918,-3.0905250946391503,8.757601457239387,0.5522222222222222,0.08,-0.5966666666666667,0.02759619386350296,0.03907205161568167,-0.8784572140784177
1589985552.3304546,-1.6368176822566858,-3.2441812187080226,8.868575324622462,0.5522222222222222,0.08,-0.5966666666666667,0.016422005193274893,0.05210860506428107,-0.8356228241758767
1589985552.3404546,-1.562436646669425,-3.191895169631775,8.74379033926355,0.5522222222222222,0.08,-0.5966666666666667,0.03755888457565819,0.051328112759401794,-0.7845159534379593
1589985552.3504546,-1.5920495288101724,-3.2781362042279736,8.804099057620345,0.5522222222222222,0.08,-0.5966666666666667,0.040801123331674176,0.033788740482012,-0.7578700577042393
1589985552.3604546,-1.5163812562502976,-3.1851040525739323,8.941485308824229,0.5788888888888889,0.08444444444444445,-0.6022222222222222,0.020169019101120126,0.037320448785829026,-0.7136582346837603
1589985552.3704545,-1.348348831488315,-2.9606879868798686,8.553715129151293,0.5788888888888889,0.08444444444444445,-0.6022222222222222,0.04437884253975798,0.04781643988588056,-0.674743948914737
1589985552.3804545,-1.2658041820418204,-2.995081590815908,8.739440590405904,0.5788888888888889,0.08444444444444445,-0.6022222222222222,0.027120745668323405,0.038812215431219044,-0.6507326837023062
1589985552.3904545,-1.3353597354412003,-3.134516050975964,8.417717373769964,0.5788888888888889,0.08444444444444445,-0.6022222222222222,0.009186804752668573,0.038041029839566885,-0.6068835914621632
1589985552.4004545,-1.425142419138104,-3.2793239585896248,8.810231655847229,0.5788888888888889,0.08444444444444445,-0.6022222222222222,0.020547224475324637,0.026358499172022973,-0.5843029089009741
1589985552.4104545,-1.47,-3.37,8.78,0.6933333333333334,0.11666666666666667,-0.6377777777777778,0.004363323129985824,0.030543261909900768,-0.5486878835957173
1589985552.4204545,-1.47,-3.37,8.78,0.6933333333333334,0.11666666666666667,-0.6377777777777778,0.004363323129985824,0.030543261909900768,-0.5486878835957173
1589985552.4304545,-1.4638966717230302,-3.304710448826626,8.683661996966181,0.6933333333333334,0.11666666666666667,-0.6377777777777778,0.016717538983324152,0.02181661564992912,-0.5017189896817649
1589985552.4404545,-1.3235502364593559,-3.1830768715981086,8.767869858124387,0.6933333333333334,0.11666666666666667,-0.6377777777777778,0.02488256361261814,0.02181661564992912,-0.4751826596365594
1589985552.4504545,-1.2384657782612638,-3.06140476838002,8.792236605928746,0.6933333333333334,0.11666666666666667,-0.6377777777777778,0.025089107997418484,0.018582432417219838,-0.4494464703324614
1589985552.4604545,-1.298612864854973,-3.1719077683228107,8.844306432427487,0.9936324864529641,0.1806648468397027,-0.7939052063317779,0.005756779855617903,0.007096688158264412,-0.424125069149882
1589985552.4704545,-1.3411208256188714,-3.26,8.8078457793321,1.1677777777777778,0.21777777777777774,-0.8844444444444445,-0.0025484508910555443,0.005933669151541014,-0.37771012574391455
1589985552.4804544,-1.4169087654948405,-3.413817530989681,8.620546213845373,1.1677777777777778,0.21777777777777774,-0.8844444444444445,0.005275622776835832,0.0112057874086217,-0.33391338481918703
1589985552.4904544,-1.447135103702268,-3.465702655553402,8.752783485171545,1.1677777777777778,0.21777777777777774,-0.8844444444444445,0.010283284410919294,0.010129988749490738,-0.28706251280257583
1589985552.5004544,-1.3351662594284501,-3.32454392860937,8.63454392860937,1.1677777777777778,0.21777777777777774,-0.8844444444444445,0.004227551607116085,0.01232276062416128,-0.2435993519034226
1589985552.5104544,-1.3520543408089372,-3.3494057877452494,8.858947427512842,1.0414978028523931,-0.4348294208824144,-1.0589228830818076,0.009752658540586243,0.001733473926567473,-0.18029635246454098
1589985552.5204544,-1.379547865357349,-3.3893217980360237,8.66542561571181,1.022222222222222,-0.5344444444444445,-1.0855555555555556,0.009842137161769933,0.0021323413263892544,-0.0966531465476215
1589985552.5304544,-1.3502920035289183,-3.318700808469404,8.72535759223638,1.022222222222222,-0.5344444444444445,-1.0855555555555556,0.011113732923946183,-0.00041085019796324555,-0.04564455458102468
1589985552.5404544,-1.3351536976536977,-3.27,8.72361672111672,1.022222222222222,-0.5344444444444445,-1.0855555555555556,0.009750413789727751,-0.008927836018192706,0.031288814133904316
1589985552.5504544,-1.3542542063452905,-3.3032598148056773,8.737016825381161,1.022222222222222,-0.5344444444444445,-1.0855555555555556,0.005044327633892017,-0.015271630954950384,0.11449523227953015
1589985552.5604544,-1.345440300334612,-3.2908806006692237,8.79181343344487,0.8466658505400037,-0.3156811937212656,-0.922733842959094,0.002181661564992912,-0.01750417065527315,0.19537755925438155
1589985552.5704544,-1.2940555706048529,-3.1349630432258815,8.822518478387058,0.5933333333333334,0.0,-0.6877777777777778,-0.0024563849399585453,-0.03000187787733558,0.27739217662698523
1589985552.5804543,-1.3114846386077075,-3.0977815663292487,8.746655301012254,0.5933333333333334,0.0,-0.6877777777777778,-0.007918761213741276,-0.03474463609046961,0.34498919240685527
1589985552.5904543,-1.3119992003959944,-3.1380007996040056,8.818006130297377,0.5933333333333334,0.0,-0.6877777777777778,-0.013962866611331478,-0.04057925400193343,0.3911729652824249
1589985552.6004543,-1.2389999417215456,-2.9974998543038636,8.69649979602541,0.5933333333333334,0.0,-0.6877777777777778,-0.00880299615039523,-0.03649918908226093,0.4614432897406351
1589985552.6104543,-1.342277111314814,-3.0252038579570364,8.78195229365111,0.5712013382399178,0.07271941244979384,-0.6928365195134156,-0.017550915592841772,-0.04544248616592066,0.5149520363559124
1589985552.6204543,-1.458316961362148,-3.095049115913556,8.941683038637851,0.5544444444444444,0.12777777777777774,-0.6966666666666667,-0.010216805403578461,-0.04583632372501807,0.5598990809110411
1589985552.6304543,-1.4459002646192836,-3.1181994707614327,8.890650926167492,0.5544444444444444,0.12777777777777774,-0.6966666666666667,-0.01346617611523163,-0.04901638018227716,0.5815216014940003
1589985552.6404543,-1.44,-3.1003592712412735,8.677335263068278,0.5544444444444444,0.12777777777777774,-0.6966666666666667,-0.013129159802882168,-0.047227419359127595,0.6130158817584659
1589985552.6504543,-1.4943305326766276,-3.1986610653532552,8.752617648276148,0.5544444444444444,0.12777777777777774,-0.6966666666666667,-0.011258320889047328,-0.05322307004898802,0.640293988983322
1589985552.6604543,-1.4953813204208959,-3.233587546947264,8.795381320420896,0.576327715181426,0.12777777777777774,-0.7304033757195132,-0.01090830782496456,-0.050457077537644834,0.6758991290946951
1589985552.6704543,-1.49,-3.154680998773517,8.806737555828107,0.5811111111111111,0.12777777777777774,-0.7377777777777778,-0.014559876049175037,-0.053651845492603614,0.7045915404616004
1589985552.6804543,-1.4670622843056695,-3.099858997534922,8.735452423993426,0.5811111111111111,0.12777777777777774,-0.7377777777777778,-0.011518456001021245,-0.0539160099658346,0.724678237597401
1589985552.6904542,-1.45,-3.0382835376740864,8.730746339721462,0.5811111111111111,0.12777777777777774,-0.7377777777777778,-0.00526691691827208,-0.04999097900062677,0.749457749683566
1589985552.7004542,-1.4787554000029288,-3.1254364666774057,8.812718233338702,0.5811111111111111,0.12777777777777774,-0.7377777777777778,-0.007454795745648492,-0.050087706128923624,0.7648783819240889
1589985552.7104542,-1.489107237838059,-3.2243304283785443,8.836049261486846,0.5610888807059177,0.10398324309334495,-0.7154341293545908,-0.010574734351359612,-0.05150523500616904,0.7762478333021902
1589985552.7204542,-14.595142387732748,-12.597962760131434,0.8840032858707554,0.5044444444444445,0.03666666666666667,-0.6522222222222223,-1.253789909459259,1.4499566495312692,-1.0924353670976528
1589985552.7304542,-2.2485216730378035,-3.0167026579929814,-1.9443580801645317,0.5044444444444445,0.03666666666666667,-0.6522222222222223,-1.0422135716144156,-0.990069528969657,-4.76539455817231
1589985552.7404542,1.369548727477851,-0.3989743504662042,-0.6785758370109831,0.5044444444444445,0.03666666666666667,-0.6522222222222223,-0.7804596176907151,-1.7704875662317896,-5.5593219879414555
1589985552.7504542,0.10692352259559679,-0.8135863267670915,0.24331402085747394,0.5044444444444445,0.03666666666666667,-0.6522222222222223,-0.6325567179876117,-1.4128186231177664,-5.269336462761662
1589985552.7604542,-0.4052163208935059,-0.5481469360795028,-0.16491428228300356,0.573841267935002,0.16554648172055925,-0.6581705213785557,-0.6079596202740863,-1.0676927049543434,-4.81682557211691
1589985552.7704542,0.05743572648860368,-0.6239259969165382,0.08369473728072002,0.5822222222222222,0.1811111111111111,-0.6588888888888889,-0.6485656027306368,-0.9739936196041176,-4.549908464915561
1589985552.7804542,0.18,-0.49055338601913717,0.054354167052247784,0.5822222222222222,0.1811111111111111,-0.6588888888888889,-0.6388605296884209,-0.8453535188525612,-4.301193926101009
1589985552.7904541,4.301070029651865,-2.750181937987334,6.5970296884723805,0.5822222222222222,0.1811111111111111,-0.6588888888888889,0.7765539564308227,0.874641634497755,-4.060528518836199
1589985552.8004541,2.1155674434811127,-1.6092664330074402,4.671498288548649,0.5822222222222222,0.1811111111111111,-0.6588888888888889,2.1070339518032712,2.458066848081603,-3.92577766487799
1589985552.8104541,2.383050733728156,-1.448791026052455,14.46789304781632,0.43704680495181414,0.26186493696777563,-0.6588888888888889,1.4981378059133545,4.207025539948603,-3.461034796166346
1589985552.8204541,-0.16407390783961695,-0.45447529281012233,4.4296717106950485,0.4044444444444445,0.28,-0.6588888888888889,0.9161525390900618,2.673942110415725,-2.853120462114987
1589985552.830454,-0.5295134956846792,0.3065131108790061,-0.9836100269363972,0.4044444444444445,0.28,-0.6588888888888889,0.7978983130096785,0.2107898113530713,-2.4521423251671015
1589985552.840454,1.4191782518671894,0.08413147970124973,5.1246217555276194,0.4044444444444445,0.28,-0.6588888888888889,-0.05346926125809759,-0.453642183413129,-2.2090408287801595
1589985552.850454,1.76225830435304,-1.5240719510732703,14.864802254466962,0.4044444444444445,0.28,-0.6588888888888889,-1.2500162326723823,-0.11590501544884557,-1.8925702424531994
1589985552.860454,0.719268508821397,-2.1709175864013535,13.134253605091436,0.412658950741606,0.31450092644807864,-0.6424598762945657,-1.1866278353281292,0.07709395805694341,-1.6467859208428466
1589985552.870454,0.17421901362751463,-1.7608780012978587,7.5449951330305,0.4211111111111111,0.35,-0.6255555555555555,0.1264137319421602,0.09407403242043631,-1.4278687900774583
1589985552.880454,0.5225957797220793,-1.6494429233144623,7.142390530108081,0.4211111111111111,0.35,-0.6255555555555555,0.9090688661212606,0.39696325880905536,-1.2046797414181776
1589985552.890454,0.5228589565074945,-1.4250843639937751,5.162069375051192,0.4211111111111111,0.35,-0.6255555555555555,0.6524223707610826,0.3233696779611434,-1.0593748466211854
1589985552.900454,0.422663664359747,-2.205846551210305,7.4656134309083075,0.4211111111111111,0.35,-0.6255555555555555,-0.26825410506390013,-0.05907149036831093,-0.9054929650994067
1589985552.910454,0.2469451705252676,-2.7644794000497885,10.152766990291262,0.3967412455397892,0.37888280364008514,-0.6237503803280502,-0.5103399338177851,-0.13596233541955904,-0.6424006890478081
1589985552.920454,0.10164393122263816,-2.984185225133769,10.99926781295603,0.3911111111111111,0.3855555555555555,-0.6233333333333333,0.1600772891004963,0.08709184385317509,-0.4096645075740498
1589985552.930454,0.1643259779338014,-2.154748244734203,6.86772517552658,0.3911111111111111,0.3855555555555555,-0.6233333333333333,0.5497985178257195,0.1491167867898899,-0.17931102661391668
1589985552.940454,0.13738836047073996,-2.34350475576334,6.612360378618641,0.3911111111111111,0.3855555555555555,-0.6233333333333333,0.018111393512050267,0.09260231610099737,0.023227553427441122
1589985552.950454,0.07463736766571684,-2.8823421868175294,9.293494249048441,0.3911111111111111,0.3855555555555555,-0.6233333333333333,-0.2721460013775143,-0.14496231071659227,0.17487917134789027
1589985552.960454,0.011494305940289322,-2.9975863342566944,9.810690674053555,0.3808429260285216,0.4035248794500872,-0.6361685646865702,0.02885010720502862,0.004839407478887059,0.4553024277127892
1589985552.970454,-0.017009078350108547,-2.550442734030656,7.8153861588053415,0.37777777777777777,0.4088888888888889,-0.64,0.08222091275772526,0.04612134591771946,0.6282658944190992
1589985552.980454,-0.035624482149933356,-2.5280975539464676,7.629892287186138,0.37777777777777777,0.4088888888888889,-0.64,-0.06053161833042393,-0.10818531103696093,0.7820507719732113
1589985552.990454,-0.08070469536708169,-2.928633737949338,9.034271300885992,0.37777777777777777,0.4088888888888889,-0.64,-0.04810742142791677,-0.10422036400833343,0.9561968420145234
1589985553.000454,-0.12110130249939072,-2.8890311137588345,8.574054266294782,0.37777777777777777,0.4088888888888889,-0.64,0.02217701605008182,-0.04132180668610942,1.1229981354481726
1589985553.010454,-0.12396165680473373,-2.850575147928994,8.415144142011835,0.39186724523339905,0.40955981591058516,-0.6567731755424063,-0.04604844683546566,-0.09124297326145703,1.2640951941336258
1589985553.020454,-0.1466677246997831,-2.9300007935248376,8.35998492302809,0.4011111111111111,0.41,-0.6677777777777778,-0.040358661509202705,-0.09344682716565728,1.4035391846308929
1589985553.030454,-0.18514848939361475,-3.103465181058496,8.64782129847868,0.4011111111111111,0.41,-0.6677777777777778,-0.023782261399798138,-0.09923858170033013,1.5185767823830871
1589985553.040454,5.825831607316646,-10.644758316073167,1.4606715244678465,0.4011111111111111,0.41,-0.6677777777777778,-0.37787695262063253,-0.20398051097262657,0.25262601621360825
1589985553.050454,1.429598095196102,-8.967196807689763,2.7140750457461578,0.4011111111111111,0.41,-0.6677777777777778,-0.6501868272989397,0.023729723954309223,-3.08611979955761
1589985553.060454,-3.182619288377678,-8.296253870947355,6.454300069519054,0.4100207503844614,0.40271029513998613,-0.6677777777777778,0.03450752835123827,0.34567078349969366,-3.7655297300714143
1589985553.070454,1.0302554470323062,-1.55328766517877,11.320539178857118,0.4133333333333333,0.4,-0.6677777777777778,0.754449220618024,0.12321157138188171,-0.6430383103462978
1589985553.0804539,1.3375631123919307,0.895749855907781,9.25355850144092,0.4133333333333333,0.4,-0.6677777777777778,0.9711397992736479,0.33221260911743256,0.5878536755825458
1589985553.0904539,0.37852079891875656,-1.0150292836762276,8.836681934224357,0.4133333333333333,0.4,-0.6677777777777778,0.11208601630180559,-0.018417250132137408,0.749529832220899
1589985553.1004539,0.35634738743227257,-2.0522270660771005,10.64162545930124,0.4133333333333333,0.4,-0.6677777777777778,-0.5175104493401352,-0.19597297766648994,0.8386010452034013
1589985553.1104538,0.4164933577645442,-2.507217132386624,11.243702244617499,0.4086711966203491,0.4093242734259684,-0.66523479411615,-0.5413075613748113,-0.15002825865103317,0.9814672762875173
1589985553.1204538,3.2334284521158128,-6.746840200445435,8.054416759465479,0.4011111111111111,0.4244444444444445,-0.6611111111111111,0.06987071808458471,-0.03991037646616557,0.8214157741661108
1589985553.1304538,2.8310560396514513,-6.371508913582222,7.966560876169158,0.4011111111111111,0.4244444444444445,-0.6611111111111111,0.11831485180257516,0.052180499598394506,-0.160162936651999
1589985553.1404538,-1.899350847827669,-5.078980423549959,8.079513863619823,0.4011111111111111,0.4244444444444445,-0.6611111111111111,0.09611361545512001,0.06719584303669712,-0.7112902589218482
1589985553.1504538,-1.6473487261146496,-6.511476011916992,8.061499383603863,0.4011111111111111,0.4244444444444445,-0.6611111111111111,0.035191115485413454,0.0294000412166978,-0.2649121609589715
1589985553.1604538,-0.03788975058540467,-4.499194826956541,9.225128359363252,0.4134128910753543,0.41403524601316183,-0.6639499834105519,-0.04868153120211352,-0.026518888627130314,0.19400606728941464
1589985553.1704538,-0.4494580489763147,-4.085600160578081,8.612890405459654,0.43,0.4,-0.6677777777777778,0.029971790945967455,-0.004031826180026038,0.074210212186175
1589985553.1804538,0.11978588731734002,-4.759327186059233,8.613746190513401,0.43,0.4,-0.6677777777777778,-0.037504393817519,-0.02532011146858871,-0.06036180370471325
1589985553.1904538,0.29322582964800636,-4.846113328299716,8.548859166576781,0.43,0.4,-0.6677777777777778,-0.04451980340061444,-0.0448639604536618,-0.06203145554391211
1589985553.2004538,0.016485412885065623,-4.299929497803383,8.649244732065345,0.43,0.4,-0.6677777777777778,0.0158659304184366,0.005431082122591267,-0.009606559560255466
1589985553.2104537,0.08905712620227339,-4.320451471874089,8.804754299038182,0.4210609475695457,0.4075638135949998,-0.6725911137018686,0.00784587432270848,-0.004729837185964231,0.0024409683519949843
1589985553.2204537,-0.00481953474307191,-4.382469922457179,8.72024062034257,0.4155555555555556,0.4122222222222222,-0.6755555555555556,-0.0014884089975826433,0.001090830782496456,0.0005519772931625046
1589985553.2304537,-0.011456089315197732,-4.454239851141337,8.53794428283146,0.4155555555555556,0.4122222222222222,-0.6755555555555556,-0.005764819271745035,0.0003900827116168499,0.00031066535926275616
1589985553.2404537,0.015620928015255046,-4.433790719847449,8.54869299221357,0.4155555555555556,0.4122222222222222,-0.6755555555555556,0.0014259410018292494,0.0,0.00047768265197276473
1589985553.2504537,0.04116541296254084,-4.377905478307119,8.643259934655422,0.4155555555555556,0.4122222222222222,-0.6755555555555556,0.010604257703962356,0.0006596538281082587,0.00032982691405412934
1589985553.2604537,0.08578223539244738,-4.352410151204316,8.713372084188132,0.4155555555555556,0.4122222222222222,-0.6755555555555556,0.01686175241701212,0.0020502082087859837,0.0010251041043929919
1589985553.2704537,-0.028708777686628384,-4.314114027891715,8.727417555373258,0.4155555555555556,0.3922222222222223,-0.6677777777777778,0.006597423319961748,-0.0009237609653577454,0.0
1589985553.2804537,0.011215330470440089,-4.3634583965645275,8.64756933905912,0.4155555555555556,0.3922222222222223,-0.6677777777777778,-0.006565448118330594,-0.0040065340102709585,-0.00024468055426053015
1589985553.2904537,0.05,-4.420301235987353,8.552831273354412,0.4155555555555556,0.3922222222222223,-0.6677777777777778,-0.013431673151602954,-0.0054212941637022775,-0.0003417037616454836
1589985553.3004537,0.05459356768885565,-4.4377032161555725,8.556748541510844,0.4155555555555556,0.3922222222222223,-0.6677777777777778,-0.007489414074624658,-0.003021952095665126,0.0008402905306722139
1589985553.3104537,0.05146388920682157,-4.383659723017054,8.712438193888062,0.4155555555555556,0.4014902776188115,-0.6646884259789148,0.010668779513619766,-0.00117067355294472,0.0005054940060240959
1589985553.3204536,0.06855270032774427,-4.324492471381751,8.783045171709496,0.4155555555555556,0.4122222222222222,-0.6611111111111111,0.008773796595414187,-0.0006007781752266378,-0.0007115037431834577
1589985553.3304536,0.047341581101786004,-4.367392577008393,8.667822268974822,0.4155555555555556,0.4122222222222222,-0.6611111111111111,-0.0013808192991906698,0.0006324119462564925,0.0006904096495953358
1589985553.3404536,0.02867615293228211,-4.438676152932282,8.574411383518738,0.4155555555555556,0.4122222222222222,-0.6611111111111111,-0.0046681348744521765,0.0015560449581507253,0.003272492347489368
1589985553.3504536,0.028355021356908712,-4.434026025628291,8.612986987185854,0.4155555555555556,0.4122222222222222,-0.6611111111111111,0.0009774892707758547,0.001090830782496456,0.0018558318080676272
1589985553.3604536,0.01843590153452685,-4.381564098465473,8.679162404092072,0.42170085606706453,0.4105151943023586,-0.6611111111111111,0.009226377881236808,0.001426004930778715,0.000670348296564518
1589985553.3704536,0.03983116138021474,-4.355126628964839,8.779915580690107,0.4355555555555555,0.4066666666666667,-0.6611111111111111,0.010321453201875736,-1.841743637359802e-05,0.0005316023139680295
1589985553.3804536,0.043169012245750545,-4.3978028146949,8.691225358364449,0.4355555555555555,0.4066666666666667,-0.6611111111111111,-0.00010600987421216772,-0.0011707226946848306,-0.0005853613473424153
1589985553.3904536,0.044255110023469005,-4.412836740015646,8.587127555011735,0.4355555555555555,0.4066666666666667,-0.6611111111111111,-0.009821371850790257,-0.0009361106159461493,0.0
1589985553.4004536,0.022380668120766847,-4.402380668120767,8.594761336241534,0.4355555555555555,0.4066666666666667,-0.6611111111111111,-0.011817387741003046,-0.0028569222596931633,0.00033763034735012566
1589985553.4104536,0.04731421976828386,-4.405827977914554,8.679543582548877,0.43018399509212324,0.40487614651218923,-0.6649905714458122,-0.0024433602424917215,-0.003777376779630536,0.0007978576073188121
1589985553.4204535,0.04370920167338205,-4.3381453991633085,8.756290798326617,0.4155555555555556,0.4,-0.6755555555555556,0.009131257396352897,-0.0013724392922304122,0.00020230556819062493
1589985553.4304535,0.05988124385494785,-4.3300593780725265,8.740118756145053,0.4155555555555556,0.4,-0.6755555555555556,0.01089535353910121,0.0021557529932662123,0.001084353639564781
1589985553.4404535,0.04466434856656259,-4.350671302866875,8.621996522849845,0.4155555555555556,0.4,-0.6755555555555556,0.000144559075100208,0.0005820292828264869,-0.001090830782496456
1589985553.4504535,0.03,-4.380427014036432,8.601281042109296,0.4155555555555556,0.4,-0.6755555555555556,-0.0053842839041575614,0.0021583715622180057,-0.0010442507769466438
1589985553.4604535,0.0273996093309793,-4.3973996093309795,8.667801172007062,0.41728914933490274,0.4,-0.6772891493349027,0.0009385832421198522,0.0005235135448395899,0.001090830782496456
1589985553.4704535,0.021871164516958808,-4.386257670966082,8.698420240326314,0.4222222222222222,0.4,-0.6822222222222222,0.010123645620600173,-0.001090830782496456,0.000988774589785767
1589985553.4804535,0.03660128661643485,-4.35,8.729019299246522,0.4222222222222222,0.4,-0.6822222222222222,0.010124032446217034,-0.0007200886645289013,-0.0003707421179675547
1589985553.4904535,0.03538451662601104,-4.358076774939017,8.635384516626011,0.4222222222222222,0.4,-0.6822222222222222,0.0005454854150499025,-0.0008810394726775203,8.388851440690429e-05
1589985553.5004535,0.0380986862521982,-4.407769732078204,8.630164477086996,0.4222222222222222,0.4,-0.6822222222222222,-0.009384733062859755,-0.00240700438827267,0.00240700438827267
1589985553.5104535,0.034883856319497,-4.431395179600629,8.622325784479246,0.41974157950230606,0.4024806427199162,-0.6714727704359188,-0.006291280964637387,-0.0006849365666074126,0.0006849365666074126
1589985553.5204535,0.052599400599400596,-4.3851988011988015,8.6674005994006,0.4155555555555556,0.4066666666666667,-0.6533333333333333,0.0014510991708014793,0.0,0.0008072801635098648
1589985553.5304534,0.04,-4.354920057376763,8.674920057376763,0.4155555555555556,0.4066666666666667,-0.6533333333333333,0.007635815477475192,0.0,0.0016275257863185761
1589985553.5404534,0.04,-4.349773438240591,8.664886719120295,0.4155555555555556,0.4066666666666667,-0.6533333333333333,0.00443746529237562,0.001066116728366524,0.000533058364183262
1589985553.5504534,0.04357152877634763,-4.3671430575526955,8.666428471223652,0.4155555555555556,0.4066666666666667,-0.6533333333333333,-0.0008571359824094918,0.001012881506049343,0.001090830782496456
1589985553.5604534,0.04653750382246298,-4.3857708269625615,8.66,0.4172226833447401,0.40730786966250687,-0.6550004611225179,-0.0038597234746879975,-0.0009649308686719994,0.001090830782496456
1589985553.5704534,0.020550832920367478,-4.428347501238897,8.661652498761102,0.43,0.4122222222222222,-0.6677777777777778,0.0002703894774971679,-3.0043275277463097e-05,0.0010007009566640667
1589985553.5804534,0.036539473182632565,-4.380381580452102,8.709618419547898,0.43,0.4122222222222222,-0.6677777777777778,0.008118794913250602,-0.0009020883236945113,-0.0016154341885870778
1589985553.5904534,0.024168962889136426,-4.37,8.682779308592757,0.43,0.4122222222222222,-0.6677777777777778,0.007665531881508728,-0.0013940063192001474,0.0012424185508483018
1589985553.6004534,0.048758867327197045,-4.37,8.69917257821813,0.43,0.4122222222222222,-0.6677777777777778,0.001406732784916087,-0.0031822346325123306,0.002136532707504393
1589985553.6104534,0.05835866909683174,-4.404923992709505,8.665076007290494,0.42653496809331143,0.41532251392820674,-0.6654069664732014,-0.007277732622787462,-0.0014489136371841863,0.0001790414273438651
1589985553.6204534,0.05022608290999341,-4.429321751270019,8.64067824872998,0.40936617503220835,0.4306840656144569,-0.6536598975366571,-0.005503477552005717,-0.0032231687079659318,0.0010661689627347376
1589985553.6304533,0.05274640162961968,-4.39186600407405,8.664612405703668,0.4088888888888889,0.4311111111111111,-0.6533333333333333,0.004951018500189856,-0.002181661564992912,0.001786039145679063
1589985553.6404533,0.03217835578262889,-4.363910822108686,8.655197398978169,0.4088888888888889,0.4311111111111111,-0.6533333333333333,0.008537663500161533,-0.001328452536788531,0.001944039810700837
1589985553.6504533,0.02,-4.366265296307511,8.71,0.4088888888888889,0.4311111111111111,-0.6533333333333333,0.004508019819343888,0.0012221789253809084,0.002457706397235429
1589985553.6604533,0.03257165851544605,-4.38095276419241,8.707904723580759,0.4088888888888889,0.4229628139251739,-0.6563598437166814,0.00017659397611763958,0.003043933145894664,0.001090830782496456
1589985553.6704533,0.06175184917412825,-4.435669132232171,8.693917283058042,0.4088888888888889,0.3922222222222223,-0.6677777777777778,-0.0016136886271144485,0.002181661564992912,0.0007590700384214721
1589985553.6804533,0.026429535587902668,-4.38,8.66874831272117,0.4088888888888889,0.3922222222222223,-0.6677777777777778,0.003233691865459014,0.001830984798170878,0.0005260151502330508
1589985553.6904533,0.051521121085267844,-4.371521121085268,8.639676076201562,0.4088888888888889,0.3922222222222223,-0.6677777777777778,0.007339292941784151,-0.0009249022121249976,0.003272492347489368
1589985553.7004533,0.043214229060913704,-4.36,8.686428458121828,0.4088888888888889,0.3922222222222223,-0.6677777777777778,0.002999827911334737,-0.0018310435648289773,0.0018700203468336295
1589985553.7104533,0.04834859049493092,-4.369908457030415,8.69834859049493,0.41237519784403476,0.39644249095739886,-0.6701631470628776,-0.0030823657263112096,-0.0012709716147601155,-0.001090830782496456
1589985553.7204533,0.04,-4.418156536061575,8.687234804092363,0.43,0.4177777777777778,-0.6822222222222222,-0.007334179395906852,-0.002081116204470132,-0.000889740061450896
1589985553.7304533,0.046156770036619846,-4.4,8.63845130487183,0.43,0.4177777777777778,-0.6822222222222222,-0.0026843245608116333,-0.0014266304963312941,0.001090830782496456
1589985553.7404532,0.05378764111399696,-4.384469102784992,8.621061794430014,0.43,0.4177777777777778,-0.6822222222222222,0.0034626520891650817,-0.002520493180231287,0.00041316755201970586
1589985553.7504532,0.04,-4.35,8.701730057545872,0.43,0.4177777777777778,-0.6822222222222222,0.007447095474822446,-0.002312829258627467,-0.0007709430862091555
1589985553.7604532,0.04,-4.358776971487285,8.726489211405086,0.43,0.41680255872363503,-0.6759808202757085,0.0037888716894603817,0.0005744514405254423,-0.00019148381350848076
1589985553.7704532,0.04,-4.4,8.682019495412844,0.43,0.4122222222222222,-0.6466666666666666,-0.00026570236032367805,0.002594225776079301,-0.0007516974967914224
1589985553.7804532,0.03884651545422494,-4.4,8.616539546362674,0.43,0.4122222222222222,-0.6466666666666666,-0.00251753847769014,0.0005875282026303042,0.00012582564496653795
1589985553.7904532,0.030631096486073567,-4.4,8.59189328945822,0.43,0.4122222222222222,-0.6466666666666666,0.0028594406632487307,-0.00299712455799561,0.0010219888351230165
1589985553.8004532,0.04547018370964914,-4.373205275564474,8.676794724435526,0.43,0.4122222222222222,-0.6466666666666666,0.007244267345401061,-0.0008437676300680249,0.0
1589985553.8104532,0.031444057297715836,-4.352888114595431,8.7,0.42807459026971223,0.41133974276250695,-0.6471480190992386,0.0017878560269836417,-7.876110760185406e-05,7.876110760185406e-05
1589985553.8204532,0.052645147052923,-4.392645147052923,8.692064558841231,0.4033333333333333,0.4,-0.6533333333333333,-0.004715196262268465,-0.0008022899995406365,0.0008022899995406365
1589985553.8304532,0.053621158142624234,-4.4,8.65405289535656,0.4033333333333333,0.4,-0.6533333333333333,-0.00820477848086897,-0.0003479118527351175,0.0
1589985553.8404531,0.023121030384845198,-4.390636908845464,8.598089273463607,0.4033333333333333,0.4,-0.6533333333333333,-0.0023900894972759667,-0.002181661564992912,0.0006809032033791807
1589985553.8504531,0.03228856245653228,-4.367711437543468,8.676019937195726,0.4033333333333333,0.4,-0.6533333333333333,0.00536189688008627,-0.002181661564992912,0.0014327312524175773
1589985553.8604531,0.04157826458708023,-4.36,8.73,0.4075420388988806,0.40105217639138685,-0.6568405879712894,0.00803799842216718,-0.0025259854838951454,-0.001090830782496456
1589985553.8704531,0.05,-4.357021063412897,8.72106319023869,0.43,0.4066666666666667,-0.6755555555555556,0.003388468411490538,-0.0037134199843223002,-0.001090830782496456
1589985553.880453,0.04787090440544852,-4.360645477972757,8.672321757270831,0.43,0.4066666666666667,-0.6755555555555556,0.0008585824811550213,-0.0019494132636514773,-0.001090830782496456
1589985553.890453,0.04,-4.397777420805758,8.577779027179849,0.43,0.4066666666666667,-0.6755555555555556,0.00012122289008080836,-0.001090830782496456,-0.0007271621122540309
1589985553.900453,0.042812395342881344,-4.371562813971356,8.65968676740017,0.43,0.4066666666666667,-0.6755555555555556,0.0029315392300352447,-0.001090830782496456,0.0018748768237364473
1589985553.910453,0.04842590990367422,-4.351574090096325,8.713148180192652,0.4277263143053072,0.4056172732691162,-0.6743312632584133,0.006777282511727707,-0.000919124189346959,0.001090830782496456
1589985553.920453,0.045038799588249266,-4.367558199382374,8.717403001029377,0.4155555555555556,0.4,-0.6677777777777778,0.0010823660254543582,-0.0005496477697692769,0.001090830782496456
1589985553.930453,0.056126926902038785,-4.392582048731974,8.667089756340129,0.4155555555555556,0.4,-0.6677777777777778,-0.002885806124678746,-0.002040832653055745,0.0012316596944336228
1589985553.940453,0.036588574944389225,-4.406705712527805,8.58,0.4155555555555556,0.4,-0.6677777777777778,-0.0051203583507315655,-0.0018095328187089205,0.0014629595287804474
1589985553.950453,0.04755801640432902,-4.395116032808659,8.611745786743723,0.4155555555555556,0.4,-0.6677777777777778,0.0013318954382546423,-0.0027397341721875114,0.0002663790876509284
1589985553.960453,0.04003015237719188,-4.380060304754384,8.709608019096507,0.4155555555555556,0.4,-0.6677777777777778,0.005437708341879106,-0.0010974090107377255,0.0010875416683758213
1589985553.970453,0.03384669978708304,-4.368076650106459,8.731923349893542,0.4155555555555556,0.4066666666666667,-0.6755555555555556,0.005705764987224187,-0.003733908349169913,0.0008810258555578189
1589985553.980453,0.04802190003041671,-4.360989049984792,8.739010950015208,0.4155555555555556,0.4066666666666667,-0.6755555555555556,0.0026132160325282637,-0.0014144966331479693,0.00010788861688383784
1589985553.990453,0.037579832323091575,-4.395159664646183,8.607260503030725,0.4155555555555556,0.4066666666666667,-0.6755555555555556,0.001354830122573921,-0.0005628321023415259,-0.00029883276226406075
1589985554.000453,0.03371620272375095,-4.38,8.641148608171253,0.4155555555555556,0.4066666666666667,-0.6755555555555556,0.0023843489812461474,0.001090830782496456,0.0019789741487396765
1589985554.010453,0.049477246833322164,-4.379477246833322,8.691045506333355,0.4157298066111149,0.40681187587963274,-0.6749747187036913,0.003358027634368321,0.0010623190202034716,0.0010338072579104875
1589985554.020453,0.030737216004289254,-4.360737216004289,8.728525567991422,0.4219764835541258,0.4120174399988085,-0.6541524622269881,0.006424358008354571,4.0208895541388135e-05,-0.0010104129914136797
1589985554.030453,0.05,-4.373593375502334,8.657423185741832,0.4222222222222222,0.4122222222222222,-0.6533333333333333,0.0012017204122393424,-0.001090830782496456,-0.000894842551945742
1589985554.040453,0.05,-4.388710421509794,8.604513524715719,0.4222222222222222,0.4122222222222222,-0.6533333333333333,-0.0029208143690989696,-0.001090830782496456,-7.033559567807971e-05
1589985554.050453,0.044692457136390216,-4.387653771431805,8.618769828545561,0.4222222222222222,0.4122222222222222,-0.6533333333333333,-0.0022487570095054447,-0.0007678015034879426,0.0
1589985554.060453,0.05957173783453079,-4.379571737834531,8.681713048661877,0.4216512060015966,0.4122222222222222,-0.6539519342390111,0.0013244115590326563,-0.003132343881567648,-4.6716155307240055e-05
1589985554.070453,0.05,-4.37,8.72210527284778,0.4088888888888889,0.4122222222222222,-0.6677777777777778,0.006315335052187533,-0.00022964964279120287,-0.0006315314969140502
1589985554.080453,0.05,-4.37,8.729827306870904,0.4088888888888889,0.4122222222222222,-0.6677777777777778,0.005472991810596678,-0.0010719928843820575,0.001053154986267659
1589985554.090453,0.03183152451996876,-4.39,8.637326098079877,0.4088888888888889,0.4122222222222222,-0.6677777777777778,0.0026731273499056773,0.00149040744755225,0.000891042449968559
1589985554.100453,0.04190910735132113,-4.391909107351321,8.67190910735132,0.4088888888888889,0.4122222222222222,-0.6677777777777778,0.0,0.002439487121124821,0.0
1589985554.110453,0.048805471974218584,-4.398805471974219,8.678805471974218,0.4088888888888889,0.4122222222222222,-0.6677777777777778,0.0,-0.0005696196060656199,0.0
1589985554.120453,0.03,-4.378190631838454,8.721809368161548,0.43,0.4122222222222222,-0.6377777777777778,0.005355468188108068,-0.000992145058122244,0.0029764351743667324
1589985554.1304529,0.03,-4.36762080073631,8.717137597791073,0.43,0.4122222222222222,-0.6377777777777778,0.0031163725254201554,-0.0008313004030437787,-0.00041565020152188934
1589985554.1404529,0.03097793984690495,-4.4,8.622933819540714,0.43,0.4122222222222222,-0.6377777777777778,-0.0023950149426796696,-0.004043293063455687,-0.0017549548096193962
1589985554.1504529,0.04444600799881499,-4.402223003999408,8.654446007998816,0.43,0.4122222222222222,-0.6377777777777778,-0.0038783388915525382,-0.0006058465440631701,0.001454185207342983
1589985554.1604528,0.05997815138498,-4.40998907569249,8.66997815138498,0.43,0.4122222222222222,-0.6377777777777778,-0.0021840448791747846,0.0010884474683145833,-0.0010872558112236474
1589985554.1704528,0.050140301318267425,-4.3804209039548025,8.739017890772129,0.4157582130152752,0.40674461184348193,-0.6607837413684872,-3.0608999358187026e-05,0.001090830782496456,-1.5304499679093513e-05
1589985554.1804528,0.03,-4.37,8.681309405983573,0.4155555555555556,0.4066666666666667,-0.6611111111111111,0.0028662080272909172,-0.0005491183555651882,0.00013542810673281694
1589985554.1904528,0.03,-4.37,8.630329044468754,0.4155555555555556,0.4066666666666667,-0.6611111111111111,0.00048288169972677403,0.002628650081187002,0.0009298702159208646
1589985554.2004528,0.03,-4.38,8.651187635065302,0.4155555555555556,0.4066666666666667,-0.6611111111111111,0.001090830782496456,0.0012651710212474164,-0.0007421503049945351
1589985554.2104528,0.03,-4.38,8.706360236775346,0.4155555555555556,0.4066666666666667,-0.6611111111111111,0.001090830782496456,0.002124942054043599,0.00097739176059783
1589985554.2204528,0.04,-4.38299891301834,8.721750271745416,0.3888888888888889,0.4122222222222222,-0.6755555555555556,-0.0001909250297632503,0.002181661564992912,0.001090830782496456
1589985554.2304528,0.041623818770226535,-4.35,8.715385631067962,0.3888888888888889,0.4122222222222222,-0.6755555555555556,-0.000559437332568862,0.0016502681150653178,0.000559437332568862
1589985554.2404528,0.05203665555248795,-4.352036655552488,8.642036655552488,0.3888888888888889,0.4122222222222222,-0.6755555555555556,0.0010708382799948218,-0.001312995439496074,-0.001515167593994058
1589985554.2504528,0.05940858784718527,-4.361774236458444,8.649408587847185,0.3888888888888889,0.4122222222222222,-0.6755555555555556,-0.0033370054056326487,-0.0020526354487063513,0.0010263177243531756
1589985554.2604527,0.05382928062147494,-4.3785121581355755,8.643829280621475,0.3888888888888889,0.4122222222222222,-0.6755555555555556,-0.003945613412313621,-0.0008354194353444044,0.0004177097176722022
1589985554.2704527,0.04417515274949084,-4.39,8.669124236252546,0.4128354831409821,0.4122222222222222,-0.6755555555555556,-0.0030925385931467753,0.0,0.0006353922684195243
1589985554.2804527,0.04730680313778182,-4.37,8.669227212551126,0.43,0.4122222222222222,-0.6755555555555556,0.001678395190622548,0.00079704857843341,-0.001887879360929866
1589985554.2904527,0.030731490446363294,-4.37,8.602925961785452,0.43,0.4122222222222222,-0.6755555555555556,0.005294567453283249,-0.0010110375528969405,-7.979322959951549e-05
1589985554.3004527,0.04640170501637921,-4.371199431661207,8.68,0.43,0.4122222222222222,-0.6755555555555556,0.002181661564992912,-0.0019199861694838359,0.0009599930847419179
1589985554.3104527,0.021570627935430402,-4.379476457354857,8.68,0.43,0.4122222222222222,-0.6755555555555556,0.002181661564992912,-0.00011421928665442246,5.710964332721123e-05
1589985554.3204527,0.027064259772016253,-4.38,8.687064259772017,0.42450557573287623,0.408297633459991,-0.6755555555555556,-0.0009007032409537787,-0.0030823648059466907,0.0007705912014866727
1589985554.3304527,0.04990525055584061,-4.37,8.709242004446725,0.4222222222222222,0.4066666666666667,-0.6755555555555556,0.001101166343527806,-3.100668309405011e-05,2.0671122062700072e-05
1589985554.3404527,0.04273182828801095,-4.37,8.651854626304088,0.4222222222222222,0.4066666666666667,-0.6755555555555556,0.0018836653260872185,-0.002378503630772288,0.001585669087181525
1589985554.3504527,0.04,-4.379910322457546,8.679551612287732,0.4222222222222222,0.4066666666666667,-0.6755555555555556,-0.001061483875354308,0.0010517015729735908,0.002181661564992912
1589985554.3604527,0.032881014559543925,-4.372881014559544,8.694237970880911,0.4222222222222222,0.4066666666666667,-0.6755555555555556,-0.0026439524742151712,0.001090830782496456,-0.0001480209725851613
1589985554.3704526,0.05969531219906783,-4.409390624398136,8.699847656099534,0.4222222222222222,0.4066666666666667,-0.6611111111111111,-0.007536106627782804,1.6618141615398034e-05,-0.001074212640881058
1589985554.3804526,0.04353915488617542,-4.377078309772351,8.691769577443088,0.4222222222222222,0.4066666666666667,-0.6611111111111111,-0.0022490165106553214,0.0008977998278033117,-0.00019303095469314427
1589985554.3904526,0.0528573006162069,-4.3871429202464824,8.61999977913731,0.4222222222222222,0.4066666666666667,-0.6611111111111111,0.004207493602826624,0.0015583434563561137,0.0009350012553372564
1589985554.4004526,0.012441237755837277,-4.37,8.68,0.4222222222222222,0.4066666666666667,-0.6611111111111111,0.003272492347489368,-0.0019819382681334216,-6.657443228649671e-05
1589985554.4104526,0.045112850772136864,-4.37,8.68,0.4222222222222222,0.4066666666666667,-0.6611111111111111,0.003272492347489368,0.000691001821265939,-0.0009575544620862835
1589985554.4204526,0.04840071877807727,-4.388400718778077,8.715202156334232,0.4088888888888889,0.4122222222222222,-0.6533333333333333,0.0,0.0003489090373483723,-0.0007419217451480836
1589985554.4304526,0.041302239338182854,-4.381302239338183,8.679582085294536,0.4088888888888889,0.4122222222222222,-0.6533333333333333,0.0001420522756267671,0.0016134524624858435,0.001090830782496456
1589985554.4404526,0.0487374749498998,-4.39,8.615050100200401,0.4088888888888889,0.4122222222222222,-0.6533333333333333,0.0008153905448320202,-0.0017685012084962582,0.001090830782496456
1589985554.4504526,0.039098927866250854,-4.390901072133749,8.655406432802495,0.4088888888888889,0.4122222222222222,-0.6533333333333333,-0.0008942473383477894,0.0007959556162734562,0.0009925390604221228
1589985554.4604526,0.031359081766344964,-4.398640918233656,8.701845509401931,0.4088888888888889,0.4122222222222222,-0.6533333333333333,0.0007943251371647071,-0.001736903096995289,0.00014825282266587442
1589985554.4704525,0.03626890025019036,-4.393731099749809,8.71,0.4130681557223492,0.4045602330275451,-0.6623884114724972,-0.0009606620270957587,-0.0008139996919314357,-0.0013676618730614762
1589985554.4804525,0.02567731554423251,-4.404322684455767,8.702838657772116,0.4155555555555556,0.4,-0.6677777777777778,-0.0037440240742263797,-0.0015623625092334678,-0.0006192990557594442
1589985554.4904525,0.033747433264887064,-4.396252566735113,8.645010266940451,0.4155555555555556,0.4,-0.6677777777777778,-0.001364098452854911,-0.0014318553957101837,0.0
1589985554.5004525,0.0401121981868773,-4.38,8.69,0.4155555555555556,0.4,-0.6677777777777778,0.0011030697060950608,0.0010785918588978511,2.4477847197209765e-05
1589985554.5104525,0.047641683870388654,-4.38,8.69,0.4155555555555556,0.4,-0.6677777777777778,0.0019244091820891161,0.0002572523829037957,0.0016671567991853205
1589985554.5204525,0.04001213550154294,-4.360024271003086,8.709975728996914,0.4155555555555556,0.41775620355281257,-0.6755461168321333,2.6475557288151153e-06,-0.0010895070046320484,0.002181661564992912
1589985554.5304525,0.022154997403333175,-4.389281667532222,8.69353500779,0.4155555555555556,0.4177777777777778,-0.6755555555555556,0.0020249457314091947,-0.0011691886992883146,0.0010124728657045974
1589985554.5404525,0.04918382581648523,-4.38,8.610816174183514,0.4155555555555556,0.4177777777777778,-0.6755555555555556,4.451539616284137e-05,-0.002092630772667229,4.451539616284137e-05
1589985554.5504525,0.036137791601866254,-4.38,8.623862208398133,0.4155555555555556,0.4177777777777778,-0.6755555555555556,0.000756066181703259,-0.0006695292015863939,0.000756066181703259
1589985554.5604525,0.03732181710292082,-4.372678182897079,8.681252719720446,0.4155555555555556,0.4177777777777778,-0.6755555555555556,0.001090830782496456,-0.0015973726959350094,-0.0005065419134385534
1589985554.5704525,0.03274908342445488,-4.37,8.7,0.42038949993925234,0.40488725942125314,-0.6650820093908792,-0.0004910738178872255,-0.002181661564992912,-0.00029987848230461525
1589985554.5804524,0.030581064803661767,-4.380290532401831,8.678692604191761,0.4222222222222222,0.4,-0.6611111111111111,-0.001090830782496456,-0.002149969396269936,1.5846084361487905e-05
1589985554.5904524,0.06974481501551802,-4.399489630031036,8.592296664860338,0.4222222222222222,0.4,-0.6611111111111111,-0.001007321691605304,-5.567272726076794e-05,0.0011186671461268399
1589985554.6004524,0.05864105930026825,-4.379094039533512,8.680905960466488,0.4222222222222222,0.4,-0.6611111111111111,0.002181661564992912,-0.0022804865214498897,0.002181661564992912
1589985554.6104524,0.034702357171394325,-4.36313490478093,8.696865095219069,0.4222222222222222,0.4,-0.6611111111111111,0.002181661564992912,-0.004021358066462498,0.002181661564992912
1589985554.6204524,0.059906502964840194,-4.37,8.73,0.4088888888888889,0.4122222222222222,-0.6677777777777778,0.001050035004886668,-0.00111122867130135,0.0021714626205904647
1589985554.6304524,0.04947546716205879,-4.370524532837941,8.726590536553383,0.4088888888888889,0.4122222222222222,-0.6677777777777778,-0.003272492347489368,-0.0032152746908837185,0.001090830782496456
1589985554.6404524,0.0363799428633873,-4.383620057136612,8.641469628612017,0.4088888888888889,0.4122222222222222,-0.6677777777777778,-0.003272492347489368,-0.0017867745890916002,0.001090830782496456
1589985554.6504524,0.04656577325939618,-4.373434226740604,8.633131546518793,0.4088888888888889,0.4122222222222222,-0.6677777777777778,0.001245121504312133,-0.00018730801213615587,0.001994353552856756
1589985554.6604524,0.04425206630579793,-4.3757479336942025,8.680235535859415,0.4088888888888889,0.4122222222222222,-0.6677777777777778,0.0009276569631160728,0.0,0.0015546592640544924
1589985554.6704524,0.04,-4.3853706642484696,8.71,0.4124693317212021,0.4152059245824832,-0.6641973349454646,0.0,-0.0017575457654051944,-8.086639444034038e-05
1589985554.6804523,0.04,-4.3815879986400725,8.701587998640072,0.4155555555555556,0.4177777777777778,-0.6611111111111111,0.0,-0.0005196713397460878,-0.0020084377850775495
1589985554.6904523,0.030542514000627755,-4.4,8.600813771000942,0.4155555555555556,0.4177777777777778,-0.6611111111111111,-2.9589548591002934e-05,-2.9589548591002934e-05,0.001061241233905453
1589985554.7004523,0.04440040969388598,-4.4,8.62160061454083,0.4155555555555556,0.4177777777777778,-0.6611111111111111,-0.0007854205087325597,-0.0007854205087325597,0.0003054102737638963
1589985554.7104523,0.05698535576546867,-4.386029288469063,8.678897490358281,0.4155555555555556,0.4177777777777778,-0.6611111111111111,0.0019571056557684723,-0.0026147990016289206,0.0007619841095662321
1589985554.7204523,0.04695664915328742,-4.373478324576643,8.706521675423357,0.41990333917112643,0.41053147175182636,-0.665458894726682,0.0025610879169646033,-0.0025610879169646033,0.0018022352130212206
1589985554.7304523,0.030233311480467394,-4.350466622960934,8.739300065558599,0.4222222222222222,0.4066666666666667,-0.6677777777777778,0.0011162811169768215,-0.0011162811169768215,-0.0010144797790553601
1589985554.7404523,0.049794574664208585,-4.389589149328417,8.631129839346853,0.4222222222222222,0.4066666666666667,-0.6677777777777778,-0.0010684223545178613,-1.120421398929732e-05,-1.120421398929732e-05
1589985554.7504523,0.05,-4.380059350462639,8.670237401850555,0.4222222222222222,0.4066666666666667,-0.6677777777777778,0.0010714083890159462,0.001097304913656626,-0.001084356651336286
1589985554.7604523,0.05,-4.387790209016846,8.701160836067388,0.4222222222222222,0.4066666666666667,-0.6677777777777778,-0.001458509156800889,0.0019406107622622374,-0.0002410508027306744
1589985554.7704523,0.04027309628186394,-4.370546192563728,8.71,0.403849181865743,0.4001820641879093,-0.6677777777777778,0.0010014602332437022,-0.0010014602332437022,-0.0010610405994122046
1589985554.7804523,0.05917652273310472,-4.379588261366552,8.67164695453379,0.4033333333333333,0.4,-0.6677777777777778,-0.001001003347354914,-4.491371757077097e-05,-0.0021367478474221407
1589985554.7904522,0.04027153764945619,-4.370135768824728,8.591086150597825,0.4033333333333333,0.4,-0.6677777777777778,-0.0032428721848260147,0.0,-0.002181661564992912
1589985554.8004522,0.030963079408746534,-4.388073841182507,8.635184602956269,0.4033333333333333,0.4,-0.6677777777777778,-0.0003151669995147617,0.0,-0.0011958864490013766
1589985554.8104522,0.040134744687170903,-4.379865255312829,8.655202117030756,0.4033333333333333,0.4,-0.6677777777777778,0.0005527645738754218,0.0011055291477508435,-0.0016435953563718776
1589985554.8204522,0.0451862234681618,-4.3748137765318384,8.682034441329595,0.4062750856583456,0.4016045921772794,-0.6677777777777778,0.0013533815635458633,0.0016565600028940974,-0.0019191107839435046
1589985554.8304522,0.02103427150527947,-4.372068543010559,8.728965728494721,0.4155555555555556,0.4066666666666667,-0.6677777777777778,0.0002256430390835582,-0.0009780092629546769,-0.001090830782496456
