time,acc_x,acc_y,acc_z,mag_x,mag_y,mag_z,gyr_x,gyr_y,gyr_z
1589988296.5117135,-3.9,-0.66,8.94,0.3022222222222222,-0.37777777777777777,-0.6088888888888889,-0.003272492347489368,-0.003272492347489368,0.002181661564992912
1589988296.5217135,-3.8926075998449012,-0.6673924001550989,8.880860798759208,0.3022222222222222,-0.37777777777777777,-0.6088888888888889,-0.000853335053775339,-0.000853335053775339,-0.0002374957287211172
1589988296.5317135,-3.9042318681030643,-0.6628840659484679,8.888463736206129,0.3022222222222222,-0.37777777777777777,-0.6088888888888889,0.0031049119638503616,-0.0007762279909625904,0.00046162519942872485
1589988296.5417135,-3.88877575286397,-0.6458505019093134,8.94244849427206,0.3022222222222222,-0.37777777777777777,-0.6088888888888889,0.005906793937405408,-0.002634301589916041,-0.0004526400249231287
1589988296.5517135,-3.886077981651376,-0.6460779816513762,8.96,0.3022222222222222,-0.3737257900101937,-0.6223955147808359,0.006544984694978735,-0.003272492347489368,0.00023517911365749278
1589988296.5617135,-3.880839141454142,-0.6408391414541422,8.941678282908285,0.3022222222222222,-0.3711111111111111,-0.6311111111111111,0.002547806096611793,-0.003272492347489368,-0.0009077585166870161
1589988296.5717134,-3.8859621229133916,-0.6459621229133917,8.928075754173216,0.3022222222222222,-0.3711111111111111,-0.6311111111111111,0.002832028285288426,-0.00197175890689834,-0.0023915642230874844
1589988296.5817134,-3.884562754212667,-0.65,8.914562754212668,0.3022222222222222,-0.3711111111111111,-0.6311111111111111,0.003272492347489368,-0.0016839422901786516,-0.0014931578244427811
1589988296.5917134,-3.89202185121532,-0.6560109256076603,8.928032776822981,0.3022222222222222,-0.3711111111111111,-0.6311111111111111,0.0026168020790761715,-0.002837351833406108,-0.0006556902684131963
1589988296.6017134,-3.882268741606762,-0.66,8.966596887589857,0.3140430611510475,-0.3583052022715503,-0.6114097128964022,0.0002474813182186445,-0.004239582470876501,-0.001090830782496456
1589988296.6117134,-3.88,-0.6329326798178008,8.9564663399089,0.31555555555555553,-0.3566666666666667,-0.6088888888888889,0.0022144399540822857,-0.0036251764786250622,-0.00256712408521798
1589988296.6217134,-3.888130720324181,-0.6443921609725425,8.85243135610983,0.31555555555555553,-0.3566666666666667,-0.6088888888888889,0.0014986443447921685,-0.0014986443447921685,-0.0014986443447921685
1589988296.6317134,-3.8977541852087305,-0.6422458147912693,8.907541852087306,0.31555555555555553,-0.3566666666666667,-0.6088888888888889,0.0019366811743826674,-0.00024498039061024456,-0.0019366811743826674
1589988296.6417134,-3.8947145217860517,-0.6347145217860516,8.935285478213949,0.31555555555555553,-0.3566666666666667,-0.6088888888888889,0.00045199286419609816,-0.0017296687007968138,-0.0039113302657897255
1589988296.6517134,-3.895174659561871,-0.6351746595618709,8.94517465956187,0.3057811986053549,-0.3641411749227025,-0.6088888888888889,-0.001090830782496456,-0.0015790889657808377,-0.004889686118579436
1589988296.6617134,-3.8914611953085765,-0.6485388046914237,8.967077609382848,0.2966666666666667,-0.3711111111111111,-0.6088888888888889,0.0007720474181295634,-0.0037257564012520387,-0.003431884029672814
1589988296.6717134,-3.89,-0.6590647816925566,8.89748174645955,0.2966666666666667,-0.3711111111111111,-0.6088888888888889,0.00010201649181136303,-0.002385694548615638,-0.005250120928859554
1589988296.6817133,-3.8824345669213214,-0.6524345669213216,8.94295803155075,0.2966666666666667,-0.3711111111111111,-0.6088888888888889,0.0,0.001944642077576776,-0.006279414640996217
1589988296.6917133,-3.8997769533245954,-0.65,8.97318463554973,0.2966666666666667,-0.3711111111111111,-0.6088888888888889,0.0007191103156821326,0.003991602663171501,-0.006544984694978735
1589988296.7017133,-3.8999512747875356,-0.6449756373937677,8.995073087818698,0.30280755429650613,-0.36385369845766447,-0.6267532892666038,-5.315096164005455e-06,0.0038152501906555934,-0.0043526929376578125
1589988296.7117133,-3.883558685058231,-0.6528826298835385,8.964910795407615,0.3088888888888889,-0.3566666666666667,-0.6444444444444445,0.0003144461411507915,0.001164576962018497,-0.001479023103169288
1589988296.7217133,-3.8642783347092817,-0.6442783347092818,8.837809175610332,0.3088888888888889,-0.3566666666666667,-0.6444444444444445,0.002805798427618612,-0.0025724514676832336,-0.004520766072740767
1589988296.7317133,-3.8668421928984724,-0.6468421928984723,8.837368771593889,0.3088888888888889,-0.3566666666666667,-0.6444444444444445,0.0010333899574596992,-0.0010333899574596992,-0.006946888839168726
1589988296.7417133,-3.8801651731470232,-0.6449174134264885,8.890660692588092,0.3088888888888889,-0.3566666666666667,-0.6444444444444445,0.0005544241889089577,0.0005544241889089577,-0.009853512233111022
1589988296.7517133,-3.883640688178863,-0.6527186236422738,8.93,0.31807456151942,-0.36161279808310653,-0.6267796893857308,0.0003971374734974808,0.0024782174004944063,-0.01130544529846204
1589988296.7617133,-3.8981423297027877,-0.6479051135314751,8.936047443234262,0.3233333333333333,-0.3644444444444445,-0.6166666666666667,-0.0013193474470666938,0.003932166071022715,-0.012227655272031252
1589988296.7717133,-3.903307037845943,-0.6333070378459432,8.906535189229716,0.3233333333333333,-0.3644444444444445,-0.6166666666666667,-0.0014515726506200192,0.00071287855812136,-0.009439524818093008
1589988296.7817132,-3.894250117536436,-0.6357498824635637,8.930249177244947,0.3233333333333333,-0.3644444444444445,-0.6166666666666667,-0.0017180456611956406,-0.0004636159037972713,-0.003872526205280084
1589988296.7917132,-3.8851780857740588,-0.6496438284518828,8.979287656903766,0.3233333333333333,-0.3644444444444445,-0.6166666666666667,-0.0016556723181714644,0.0015779677404643424,-0.001090830782496456
1589988296.8017132,-3.885464057448856,-0.6545359425511438,9.005464057448856,0.3087625134697168,-0.3644444444444445,-0.6166666666666667,-0.0004947945762423157,0.004464564759997649,-0.0016868669887505961
1589988296.8117132,-3.8829027982770565,-0.6570972017229435,8.953222386216453,0.2966666666666667,-0.3644444444444445,-0.6166666666666667,0.0007741846108973612,0.0039057846906875573,-0.0029558461758902735
1589988296.8217132,-3.9038814281842154,-0.6679604760614051,8.874276667570165,0.2966666666666667,-0.3644444444444445,-0.6166666666666667,0.00022247754938578145,0.0006674326481573446,-0.0006674326481573446
1589988296.8317132,-3.893124389082433,-0.6446865836236497,8.88531341637635,0.2966666666666667,-0.3644444444444445,-0.6166666666666667,-0.0009204217931157595,0.001840843586231519,-0.0009204217931157595
1589988296.8417132,-3.89,-0.646837721397798,8.896837721397798,0.2966666666666667,-0.3644444444444445,-0.6166666666666667,-0.001090830782496456,0.0006899021684223638,-0.0003449510842111819
1589988296.8517132,-3.898152090279559,-0.6581520902795589,8.957064631956912,0.2966666666666667,-0.3644444444444445,-0.6103261520047876,-0.001090830782496456,-0.0017785102037265888,-0.0017785102037265888
1589988296.8617132,-3.891774134873357,-0.66,8.953548269746713,0.2966666666666667,-0.3644444444444445,-0.6088888888888889,-0.0019881334717770545,-0.003976266943554109,-0.0030789642542735107
1589988296.8717132,-3.8980090083749737,-0.66,8.853891899500317,0.2966666666666667,-0.3644444444444445,-0.6088888888888889,0.0013129275840843401,-0.0017423812681778847,-0.0041461396347586815
1589988296.8817132,-3.89286211090013,-0.6385863327003904,8.908516780098568,0.2966666666666667,-0.3644444444444445,-0.6088888888888889,0.0045175303106481,0.0012450379631587319,-0.002027454384330636
1589988296.8917131,-3.8840121318976553,-0.6359878681023445,8.957963604307034,0.2966666666666667,-0.3644444444444445,-0.6088888888888889,0.00545415391248228,0.0002221363107230991,-0.001090830782496456
1589988296.9017131,-3.88,-0.6327502540650407,8.991749237804878,0.31599932249322493,-0.3588057531616983,-0.6249994354110208,0.00545415391248228,0.0028632922330696486,-0.00030000617938323517
1589988296.9117131,-3.8913630699373516,-0.6413630699373517,9.0,0.3233333333333333,-0.3566666666666667,-0.6311111111111111,0.004834394588916114,0.005602841777118155,-0.0018592779706984967
1589988296.921713,-3.906049207733682,-0.6560492077336822,8.89111426079372,0.3233333333333333,-0.3566666666666667,-0.6311111111111111,0.004363323129985824,0.0025857874916090217,-0.0019527599463661299
1589988296.931713,-3.888911003648087,-0.6389110036480868,8.841088996351912,0.3233333333333333,-0.3566666666666667,-0.6311111111111111,0.0037882099701702665,0.0005751131598155575,-0.002241057102127571
1589988296.941713,-3.873858802894102,-0.6354352115764087,8.87929401447051,0.3233333333333333,-0.3566666666666667,-0.6311111111111111,0.001167841857252838,0.00066990068444915,-0.002430632151394756
1589988296.951713,-3.88,-0.66,8.918734825281138,0.32575967368920483,-0.36297515159193267,-0.6301405749687625,-0.0002760183057142994,-0.0009528216296393063,-0.001090830782496456
1589988296.961713,-3.88,-0.66,8.93,0.3288888888888889,-0.3711111111111111,-0.6288888888888889,0.000804276456166108,-0.00011558390175270576,0.001663939435157152
1589988296.971713,-3.887118542782524,-0.652881457217476,8.865933114957283,0.3288888888888889,-0.3711111111111111,-0.6288888888888889,0.0007765125593695169,0.0026438559012354904,0.0024959797881198512
1589988296.981713,-3.882267137204577,-0.657732862795423,8.886397176772538,0.3288888888888889,-0.3711111111111111,-0.6288888888888889,0.001090830782496456,0.004959541302303158,0.0038687105198067016
1589988296.991713,-3.896545364647713,-0.6544848784507623,8.927575607746189,0.3288888888888889,-0.3711111111111111,-0.6288888888888889,0.002895650089031878,0.004852547476970472,0.0037617166944740165
1589988297.001713,-3.897920954450412,-0.656039522774794,8.968118568324382,0.32083619185583023,-0.37513745962764045,-0.6215072499419185,0.0017280841882523494,0.002386893923685718,0.003272492347489368
1589988297.011713,-3.8968592372251143,-0.66,8.973140762774886,0.31555555555555553,-0.37777777777777777,-0.6166666666666667,-0.002244680132880044,-0.003398529483263632,0.004020719058449382
1589988297.021713,-3.886349541399673,-0.6463495413996734,8.901747706998366,0.31555555555555553,-0.37777777777777777,-0.6166666666666667,-0.0062505604347753325,-0.00545415391248228,0.003618806108164333
1589988297.031713,-3.8916655057812095,-0.6283344942187904,8.899163764453023,0.31555555555555553,-0.37777777777777777,-0.6166666666666667,-0.006363306197521814,-0.0041816446325289025,0.0019999830675359906
1589988297.041713,-3.882744469776326,-0.6329416476677553,8.924313882555918,0.31555555555555553,-0.37777777777777777,-0.6166666666666667,-0.00686586867770337,-0.002331349170675308,0.0015614023709034858
1589988297.051713,-3.8802119139586804,-0.6550529784896701,8.94515893546901,0.3060110406306232,-0.36711037874402985,-0.6200353189931134,-0.00817545181198919,0.0011139470094333737,0.002181661564992912
1589988297.061713,-3.9,-0.66,8.910160042745916,0.2966666666666667,-0.3566666666666667,-0.6233333333333333,-0.006859144626460019,0.0024958214964741947,0.002181661564992912
1589988297.071713,-3.880850026055237,-0.6727666492965086,8.864466701406982,0.2966666666666667,-0.3566666666666667,-0.6233333333333333,-0.005152359290781905,-0.0006035892434007486,0.0028779742670913275
1589988297.081713,-3.8791100038896813,-0.6617799922206375,8.877330011669043,0.2966666666666667,-0.3566666666666667,-0.6233333333333333,-0.004363323129985824,-0.002678535198569249,0.003272492347489368
1589988297.091713,-3.8972236296637495,-0.6436118148318747,8.924447259327499,0.2966666666666667,-0.3566666666666667,-0.6233333333333333,-0.002787371610271345,-0.0024845165876321287,0.001696540827774889
1589988297.101713,-3.9015281351861386,-0.6415281351861383,8.95847186481386,0.3046678723242027,-0.35996128076094625,-0.6322758573035208,0.0,0.0012195119485307888,0.0007574434023253397
1589988297.111713,-3.89,-0.6461440360090023,8.948474618654664,0.31555555555555553,-0.3644444444444445,-0.6444444444444445,0.0005870137144116963,0.003189295701162431,0.0026854786330776717
1589988297.121713,-3.89,-0.66,8.904110361566191,0.31555555555555553,-0.3644444444444445,-0.6444444444444445,-0.0006036420905816133,-7.763559911118031e-05,0.0027464858560189353
1589988297.131713,-3.8956243168884033,-0.6431270493347907,8.902497267553613,0.31555555555555553,-0.3644444444444445,-0.6444444444444445,-0.002181661564992912,-0.0034086971634698735,0.003886010146727849
1589988297.141713,-3.894924111849261,-0.6452276644522165,8.940303552602956,0.31555555555555553,-0.3644444444444445,-0.6444444444444445,-0.0027353550693264015,-0.0027022426169853553,0.003255936121318845
1589988297.151713,-3.89,-0.6644542898829223,8.96,0.31555555555555553,-0.3644444444444445,-0.6385053912672147,-0.003272492347489368,-0.0006049431306510363,0.002667549216838332
1589988297.161713,-3.883747272037195,-0.6637472720371952,8.97250545592561,0.31555555555555553,-0.3644444444444445,-0.6311111111111111,-0.0025904255338489827,-0.002046200440921156,0.004636625974770139
1589988297.1717129,-3.9009134538473846,-0.6739423025649229,8.903317335892924,0.31555555555555553,-0.3644444444444445,-0.6311111111111111,-0.0014212269241580498,-0.0017516230658196435,0.003933284630812555
1589988297.1817129,-3.8843275062433107,-0.6671637531216554,8.908508740635034,0.31555555555555553,-0.3644444444444445,-0.6311111111111111,-0.0031911567664898105,0.0003093865401657804,0.0018722750248271315
1589988297.1917129,-3.879599428858102,-0.66,8.934799714429051,0.31555555555555553,-0.3644444444444445,-0.6311111111111111,-0.0022690526314253063,-0.0015270073407041907,0.0021379660317767148
1589988297.2017128,-3.8868114339189246,-0.6568114339189247,8.946377132162151,0.31555555555555553,-0.3665701551651614,-0.6311111111111111,0.0,-0.004363323129985824,0.003968129554141581
1589988297.2117128,-3.883924028093778,-0.65,8.950189929765557,0.31555555555555553,-0.3711111111111111,-0.6311111111111111,-0.00042804506360737376,-0.003507233002771076,0.004598063785267532
1589988297.2217128,-3.899523533461357,-0.65,8.906188267690858,0.31555555555555553,-0.3711111111111111,-0.6311111111111111,-0.002181661564992912,5.1974436718099916e-05,0.001090830782496456
1589988297.2317128,-3.89,-0.6394299503864457,8.856425124033887,0.31555555555555553,-0.3711111111111111,-0.6311111111111111,-0.0033346751140908904,-6.218276660152253e-05,0.0028203511061434244
1589988297.2417128,-3.9005468941464794,-0.6405468941464795,8.922187576585918,0.31555555555555553,-0.3711111111111111,-0.6311111111111111,-0.0049385669697213945,-0.001666074622232027,0.0037880792902502533
1589988297.2517128,-3.8938760751831794,-0.65,8.976123924816822,0.3083893667480797,-0.3633477399030123,-0.6233477399030123,-0.006040436363310496,-0.0015953791141646956,0.0020999274458329354
1589988297.2617128,-3.8911307736017533,-0.6666961604026301,8.984434613199124,0.3022222222222222,-0.3566666666666667,-0.6166666666666667,-0.005330805647199581,-0.0023050098302756106,0.001090830782496456
1589988297.2717128,-3.9,-0.6713213822894168,8.936606911447084,0.3022222222222222,-0.3566666666666667,-0.6166666666666667,-0.00294328762775237,-0.0023258020126670654,0.0020375211173187585
1589988297.2817128,-3.890335380835381,-0.66,8.899329238329239,0.3022222222222222,-0.3566666666666667,-0.6166666666666667,-3.6584373909279285e-05,-0.001090830782496456,0.003272492347489368
1589988297.2917128,-3.88,-0.6549269859223203,8.93014602815536,0.3022222222222222,-0.3566666666666667,-0.6166666666666667,0.0005374507908993668,-0.002750970757287724,0.003272492347489368
1589988297.3017128,-3.8914143549383717,-0.644292822530814,8.962828709876744,0.3060270072016795,-0.3611055824760336,-0.6166666666666667,-0.0006225564864558296,-0.0031182101570741646,0.004517605320401027
1589988297.3117127,-3.9,-0.6567129898825446,8.94657402023491,0.3088888888888889,-0.3644444444444445,-0.6166666666666667,-0.002913935165639591,-0.0009662586428974887,0.006061855373529991
1589988297.3217127,-3.888472058690336,-0.6584720586903361,8.873888234761344,0.3088888888888889,-0.3644444444444445,-0.6166666666666667,-0.002477068144076727,-0.0006287516619696989,0.006544984694978735
1589988297.3317127,-3.88,-0.6556848408317889,8.851369681663577,0.3088888888888889,-0.3644444444444445,-0.6166666666666667,-0.0023310706570780597,-0.0004707108452056542,0.005304744820397132
1589988297.3417127,-3.884356568645971,-0.6687131372919422,8.894852549167767,0.3088888888888889,-0.3644444444444445,-0.6166666666666667,-0.0037477202659977837,0.0,0.003412867292968993
1589988297.3517127,-3.8992188998877437,-0.6892188998877437,8.958437799775487,0.31093753330838747,-0.3644444444444445,-0.6166666666666667,-0.0040281144707090275,-0.0013408346371071858,0.0031872875428233015
1589988297.3617127,-3.913695486648988,-0.7015939821986504,8.997898495549663,0.31555555555555553,-0.3644444444444445,-0.6166666666666667,-0.0035017309218874997,-0.0039048459811895607,0.00545415391248228
1589988297.3717127,-3.89,-0.67,8.949207029173571,0.31555555555555553,-0.3644444444444445,-0.6166666666666667,-0.002745205737733178,-0.0033952496091823963,0.00545415391248228
1589988297.3817127,-3.879370677057964,-0.664685338528982,8.922517291768145,0.31555555555555553,-0.3644444444444445,-0.6166666666666667,0.0028986981655671775,-0.0031351953800285376,0.0048744142793688446
1589988297.3917127,-3.87,-0.6512079614319736,8.968792038568028,0.31555555555555553,-0.3644444444444445,-0.6166666666666667,0.004495091281392345,-0.0006112994669514884,0.004842854445530792
1589988297.4017127,-3.877978517722879,-0.6320214822771214,8.97601074113856,0.31023654374030313,-0.3613416875522139,-0.6224289294665235,0.003272492347489368,0.00043516063654047666,0.0045838326394013265
1589988297.4117126,-3.885547035273966,-0.6333588941781026,8.97,0.3022222222222222,-0.3566666666666667,-0.6311111111111111,0.0013295199488777588,-0.000366398516462251,0.0037582354471422702
1589988297.4217126,-3.8856988616834145,-0.6528494308417073,8.930107968216099,0.3022222222222222,-0.3566666666666667,-0.6311111111111111,-0.001712480157442272,-0.0012491875025741881,0.004052498442512916
1589988297.4317126,-3.895360795654934,-0.6553607956549341,8.839278408690133,0.3022222222222222,-0.3566666666666667,-0.6311111111111111,-0.0030194630021949057,7.871340131860595e-05,0.002766433656900443
1589988297.4417126,-3.88,-0.64,8.88599714421704,0.3022222222222222,-0.3566666666666667,-0.6311111111111111,-0.0017454071313933654,-0.005017510081887554,0.002835848516894642
1589988297.4517126,-3.88,-0.6442203922418464,8.922661176725539,0.3111319391772312,-0.3627627887937781,-0.6217324616847859,-0.002011577536819502,-0.006254695345990623,0.004993780535320757
1589988297.4617126,-3.883879840265626,-0.6538798402656257,8.943879840265625,0.3233333333333333,-0.3711111111111111,-0.6088888888888889,-0.0024260425089066198,-0.0022471985335289534,0.0018239736142375792
1589988297.4717126,-3.8896271322350198,-0.6603728677649804,8.946644190115176,0.3233333333333333,-0.3711111111111111,-0.6088888888888889,-0.001009483655328219,0.0011315043460805745,-0.002018967310656438
1589988297.4817126,-3.8868139437948357,-0.6734069718974179,8.87703485948709,0.3233333333333333,-0.3711111111111111,-0.6088888888888889,0.001462473764576836,0.002553304547073292,0.002924947529153672
1589988297.4917126,-3.894378915021865,-0.6743789150218651,8.93248433991254,0.3233333333333333,-0.3711111111111111,-0.6088888888888889,0.0024882441912518144,0.004192240226266075,0.004363323129985824
1589988297.5017126,-3.8824705327675626,-0.6575294672324375,8.987529467232438,0.31976478600240976,-0.3694640892660695,-0.6108104143747708,0.0035419856666916985,0.006005998056574075,0.003824336491581163
1589988297.5117126,-3.887296513936314,-0.6527034860636862,8.974593027872627,0.3088888888888889,-0.3644444444444445,-0.6166666666666667,0.0031837048026582024,0.003773513966322013,0.003066375310488628
1589988297.5217125,-3.8852766395736773,-0.6441700812789682,8.912510243836905,0.3088888888888889,-0.3644444444444445,-0.6166666666666667,0.0005755920875106129,0.00045488530246107326,0.0048785618249716665
1589988297.5317125,-3.8849256419617864,-0.640148716076427,8.890297432152854,0.3088888888888889,-0.3644444444444445,-0.6166666666666667,0.001090830782496456,-0.00219788397239477,0.004916849724934981
1589988297.5417125,-3.88,-0.65,8.91,0.3088888888888889,-0.3644444444444445,-0.6166666666666667,-0.0002904300368284814,-0.002351651801272743,0.004533313366265655
1589988297.5517125,-3.8759046438383704,-0.65,8.91,0.3170796012121483,-0.36717468188553093,-0.622582181122354,-0.0008414593950752498,-0.001090830782496456,0.0037192264041285886
1589988297.5617125,-3.8751109616677875,-0.6448890383322126,8.91,0.3288888888888889,-0.3711111111111111,-0.6311111111111111,0.001090830782496456,2.4208080579948268e-05,0.004363323129985824
1589988297.5717125,-3.88,-0.6484904545454546,8.884528636363637,0.3288888888888889,-0.3711111111111111,-0.6311111111111111,0.00016466586493957866,0.0006277483237180173,0.005289488047542701
1589988297.5817125,-3.893946190849088,-0.6553512697169706,8.896487302830293,0.3288888888888889,-0.3711111111111111,-0.6311111111111111,0.00043046264517913077,0.0005070978092251955,0.007559180313429127
1589988297.5917125,-3.897549445950618,-0.65,8.954150184683128,0.3288888888888889,-0.3711111111111111,-0.6311111111111111,0.0017289466444528427,0.0006381158619563868,0.009179361180511717
1589988297.6017125,-3.8766658722592946,-0.656668255481411,8.966668255481412,0.3288888888888889,-0.3711111111111111,-0.6237019383539879,0.0007271338652627711,-0.0003636969172336849,0.012363355463103898
1589988297.6117125,-3.8798267301354814,-0.67,8.973448846576346,0.3288888888888889,-0.3711111111111111,-0.6088888888888889,0.00035730999076896,-0.001090830782496456,0.017453292519943295
1589988297.6217124,-3.8982564628341265,-0.67,8.961162358110583,0.3288888888888889,-0.3711111111111111,-0.6088888888888889,0.0010274339821310817,-0.001090830782496456,0.017453292519943295
1589988297.6317124,-3.8978141856873902,-0.6678141856873903,8.87437162862522,0.3288888888888889,-0.3711111111111111,-0.6088888888888889,-0.002181661564992912,-0.0009894847964848966,0.02215639698964228
1589988297.6417124,-3.8928935801041065,-0.6556596298438404,8.901574320416426,0.3288888888888889,-0.3711111111111111,-0.6088888888888889,-0.0023394818774518412,0.003114672035030439,0.027744230499788188
1589988297.6517124,-3.91,-0.6370501710376283,8.97,0.3288888888888889,-0.3711111111111111,-0.6167224122640315,-0.0028879651680038727,0.0006435528470509308,0.030927789089386263
1589988297.6617124,-3.8965040707467713,-0.641002713831181,8.97,0.3288888888888889,-0.3711111111111111,-0.6311111111111111,-0.00021875822261743436,-0.0012002098938051731,0.03310627019917883
1589988297.6717124,-3.884465337178027,-0.6344653371780271,8.920881291041702,0.3288888888888889,-0.3711111111111111,-0.6311111111111111,0.001694568840191131,0.00048709272480178077,0.03539367776468837
1589988297.6817124,-3.89,-0.6446204828019931,8.878481931207972,0.3288888888888889,-0.3711111111111111,-0.6311111111111111,0.001090830782496456,8.279780841453921e-05,0.033981349874219205
1589988297.6917124,-3.8861597832654415,-0.65,8.923041300407352,0.3288888888888889,-0.3711111111111111,-0.6311111111111111,0.0019286361075993726,-0.0015097334450479144,0.02995848204219139
1589988297.7017124,-3.88,-0.65,8.963647170876254,0.31713689384318705,-0.3686796638602763,-0.6282744226518038,0.003272492347489368,-0.0017838169389088544,0.0272707695624114
1589988297.7117124,-3.88,-0.65,8.97,0.2966666666666667,-0.3644444444444445,-0.6233333333333333,0.003272492347489368,-0.001090830782496456,0.0272707695624114
1589988297.7217124,-3.8891301475445936,-0.6408698524554063,8.933479409821626,0.2966666666666667,-0.3644444444444445,-0.6233333333333333,0.002276547748451644,-9.488618345873147e-05,0.030756575659043436
1589988297.7317123,-3.8959402191806594,-0.6381195616386812,8.898119561638682,0.2966666666666667,-0.3644444444444445,-0.6233333333333333,0.001090830782496456,-0.0006805827726736979,0.035792291817471664
1589988297.7417123,-3.885006883342312,-0.6375172083557791,8.924979349973066,0.2966666666666667,-0.3644444444444445,-0.6233333333333333,0.000546166247416224,-0.002727827812409136,0.03654358206979927
1589988297.7517123,-3.872454360447717,-0.6061359011192913,8.962636918656852,0.2966666666666667,-0.3644444444444445,-0.6233333333333333,-0.000823101589725359,-0.001358559975267553,0.03517431423265769
1589988297.7617123,-3.8747308196812815,-0.6073654098406408,8.947365409840641,0.2888888888888889,-0.3566666666666667,-0.6233333333333333,-0.001665609191514711,-0.0019529983960238383,0.027499432731380467
1589988297.7717123,-3.8632926829268293,-0.6065853658536585,8.907073170731707,0.2888888888888889,-0.3566666666666667,-0.6233333333333333,-0.0025541403687721898,-0.002926619172551467,0.02149734810383259
1589988297.7817123,-3.8788311725562186,-0.62,8.86354979348325,0.2888888888888889,-0.3566666666666667,-0.6233333333333333,-0.0004486097911723894,-0.0003211104956620333,0.012896358189805793
1589988297.7917123,-3.8934380202815193,-0.6167190101407598,8.93312395943696,0.2888888888888889,-0.3566666666666667,-0.6233333333333333,0.00037502983539287123,-0.0007329303089446636,0.008743775621812727
1589988297.8017123,-3.88,-0.6113821347952273,8.961382134795228,0.2916531584793436,-0.3614273531835609,-0.6213369164068938,-0.00048776071041908603,0.00015076751801934248,0.006243449658940051
1589988297.8117123,-3.881307700433083,-0.62,8.968692299566918,0.3088888888888889,-0.3911111111111111,-0.6088888888888889,0.003272492347489368,0.0011621547768310189,0.004363323129985824
1589988297.8217123,-3.9,-0.622664325137983,8.936678374310086,0.3088888888888889,-0.3911111111111111,-0.6088888888888889,0.0038537579225075497,0.002181661564992912,0.004072690342476733
1589988297.8317122,-3.9,-0.6299212761908057,8.900393619045971,0.3088888888888889,-0.3911111111111111,-0.6088888888888889,0.005436979041605387,0.002181661564992912,0.0032810797829278147
1589988297.8417122,-3.882748363324151,-0.6354967266483025,8.935496726648303,0.3088888888888889,-0.3911111111111111,-0.6088888888888889,0.003763723266892129,-0.0002997999315468473,-0.0007910308509496086
1589988297.8517122,-3.889506997679162,-0.6490139953583234,8.950493002320838,0.3088888888888889,-0.39045377468332665,-0.6092723351384298,0.002127883354251649,-0.001090830782496456,-5.377821074126279e-05
1589988297.8617122,-3.8761426797081198,-0.6338573202918801,8.9407133985406,0.3088888888888889,-0.37777777777777777,-0.6166666666666667,0.001090830782496456,-0.0006700624112633486,-0.001090830782496456
1589988297.8717122,-3.8778684273086816,-0.6360657863456592,8.878526290765274,0.3088888888888889,-0.37777777777777777,-0.6166666666666667,0.0019491430543110044,0.0,-0.00151998691840373
1589988297.8817122,-3.89,-0.6332628682954359,8.83,0.3088888888888889,-0.37777777777777777,-0.6166666666666667,0.002560644912310737,-0.00035592371758931557,-0.0014698141298142807
1589988297.8917122,-3.89,-0.64,8.852980636237898,0.3088888888888889,-0.37777777777777777,-0.6166666666666667,0.0004641311472551483,-0.0008819309040826867,0.0
1589988297.9017122,-3.89,-0.64,8.925496196403872,0.3088888888888889,-0.37777777777777777,-0.6166666666666667,-0.0015134239837203383,-0.0002227458604241913,0.0
1589988297.9117122,-3.88,-0.6390813882946454,8.983674446821418,0.31555555555555553,-0.3711111111111111,-0.6311111111111111,-0.0009906257899602222,0.0,0.0008904207974239886
1589988297.9217122,-3.8826759028025526,-0.6353518056051056,8.987889166369365,0.31555555555555553,-0.3711111111111111,-0.6311111111111111,0.0,0.000875687144397946,-0.0013827264972957713
1589988297.9317122,-3.891585838683023,-0.6468283226339542,8.909515032098138,0.31555555555555553,-0.3711111111111111,-0.6311111111111111,0.00017298816515150687,0.0029265160171863544,-0.002181661564992912
1589988297.9417121,-3.9,-0.638653189862559,8.965768793241706,0.31555555555555553,-0.3711111111111111,-0.6311111111111111,0.00014691419560989509,0.0007761919202009357,-0.0015523838404018714
1589988297.9517121,-3.8984151827749995,-0.6584151827749996,8.9792075913875,0.31449901073888853,-0.3720796105263892,-0.6299665208930552,-0.0017494697115776163,-8.643837068305913e-05,0.0
1589988297.9617121,-3.880862505492666,-0.640862505492666,8.970431252746334,0.30279722588399954,-0.3828062466433708,-0.6172895873002588,0.003037280462121287,-0.0010437884054228398,0.0
1589988297.971712,-3.885021035024583,-0.6000420700491662,8.87242637741396,0.3022222222222222,-0.38333333333333336,-0.6166666666666667,-0.001090830782496456,-0.0008123866737908877,0.0
1589988297.981712,-3.899194079781033,-0.628388159562066,8.822820720766385,0.3022222222222222,-0.38333333333333336,-0.6166666666666667,-0.001090830782496456,0.0030527117017179954,0.0
1589988297.991712,-3.895187453960377,-0.6120313650990579,8.851656457178304,0.3022222222222222,-0.38333333333333336,-0.6166666666666667,-0.0008283471143863387,0.0007874510043303517,-0.0008283471143863387
1589988298.001712,-3.8817928802588995,-0.65,8.926275080906148,0.3017241999280834,-0.382237684286228,-0.6179615246314276,-9.778644878689914e-05,0.0030769194499155697,9.778644878689914e-05
1589988298.011712,-3.8948506989748366,-0.6474253494874185,8.995149301025164,0.2966666666666667,-0.3711111111111111,-0.6311111111111111,-0.001090830782496456,0.001371681585825879,0.000809979979167033
1589988298.021712,-3.881955250208894,-0.6393482499303687,9.004134249373317,0.2966666666666667,-0.3711111111111111,-0.6311111111111111,-0.00101973587865164,0.00203947175730328,0.0
1589988298.031712,-3.9072726005112712,-0.6218178015338136,8.936364396932373,0.2966666666666667,-0.3711111111111111,-0.6311111111111111,0.001487565659235232,0.0005950262636940928,0.0002975131318470464
1589988298.041712,-3.9,-0.6,8.977889699179581,0.2966666666666667,-0.3711111111111111,-0.6311111111111111,0.005223955802958187,0.0012608691268965416,0.0008606326729723634
1589988298.051712,-3.899483323226198,-0.6010333535476046,8.970516676773803,0.2966666666666667,-0.3711111111111111,-0.6311111111111111,0.0042506017440929215,-0.0020689401791000096,0.00011272138589290242
1589988298.061712,-3.89,-0.6209092940838415,8.970907059161584,0.2966666666666667,-0.3711111111111111,-0.6311111111111111,0.001983284369593665,9.918859769962348e-05,0.0020824729672932886
1589988298.071712,-3.89,-0.6331603397306556,8.854717282154757,0.2966666666666667,-0.3711111111111111,-0.6311111111111111,-0.0003447395861345611,0.0017803099547655783,0.001435570368631017
1589988298.081712,-3.887076142364048,-0.6341522847280956,8.814619288179761,0.2966666666666667,-0.3711111111111111,-0.6311111111111111,-0.001728717565083247,0.0035914357387827633,0.0018627181736995165
1589988298.091712,-3.88425827955739,-0.62,8.860645698893475,0.2966666666666667,-0.3711111111111111,-0.6311111111111111,-0.003272492347489368,0.003898816887818176,0.0017875901457479275
1589988298.101712,-3.9006280764861794,-0.6212561529723589,8.903140382430898,0.2966666666666667,-0.3713204699398376,-0.631529828768564,-0.0032382360892450287,0.0022159178232372513,0.004431835646474502
1589988298.111712,-3.9202563583961165,-0.66,9.0,0.2966666666666667,-0.37777777777777777,-0.6444444444444445,-0.00215369720200936,0.003272492347489368,0.006740735235863597
1589988298.121712,-3.9273264720901913,-0.6613367639549044,8.995989708135287,0.2966666666666667,-0.37777777777777777,-0.6444444444444445,-0.0011637399460435243,0.0031266740203952314,0.014909891807924609
1589988298.131712,-3.8943744353223084,-0.6778127823388459,8.946561652983462,0.2966666666666667,-0.37777777777777777,-0.6444444444444445,-0.002062367347352572,0.0013294192177771356,0.023896165821015086
1589988298.141712,-3.896152186280087,-0.6497463561998549,8.968202915040116,0.2966666666666667,-0.37777777777777777,-0.6444444444444445,0.003272492347489368,0.0015382303940945474,0.03538165289798345
1589988298.151712,-3.9195481736031565,-0.6104518263968436,9.0,0.2972188989294755,-0.3771753425819863,-0.6438420092486531,0.0030260592764786505,0.0031246325048829376,0.042092295719493196
1589988298.161712,-3.905875380149295,-0.62,8.99175076029859,0.3088888888888889,-0.3644444444444445,-0.6311111111111111,-0.002181661564992912,0.0,0.05563236990731925
1589988298.171712,-3.891380287531103,-0.62,8.962760575062207,0.3088888888888889,-0.3644444444444445,-0.6311111111111111,-0.002181661564992912,0.0,0.05563236990731925
1589988298.181712,-3.8580169104103326,-0.6279323583586693,8.831898537538004,0.3088888888888889,-0.3644444444444445,-0.6311111111111111,-0.0015326970143356919,-0.0039306800962143435,0.07482545776041623
1589988298.191712,-3.848765463534704,-0.6538273176735205,8.881234536465296,0.3088888888888889,-0.3644444444444445,-0.6311111111111111,0.0016294989338801113,-0.0017776604514551705,0.07825698778432386
1589988298.201712,-3.840289042376165,-0.6101445211880827,8.89043356356425,0.30871225188123225,-0.36433203907593575,-0.6309826478328153,0.005406859464277209,0.0009647122539496,0.08412008878077396
1589988298.211712,-3.8594109735804327,-0.6197054867902163,8.919116460370649,0.2970266272564023,-0.3568957324964984,-0.6224840117420299,0.0022780407875180723,-0.007378804217408098,0.09246360525213167
1589988298.2217119,-3.812287616573099,-0.6,8.983137150280704,0.2966666666666667,-0.3566666666666667,-0.6222222222222222,-0.00638811418923254,-0.016768872500841567,0.1082133187267392
1589988298.2317119,-3.8239613790590696,-0.598019310470465,8.97584551623628,0.2966666666666667,-0.3566666666666667,-0.6222222222222222,-0.0002371241665462306,-0.023112973915560237,0.12733741624651984
1589988298.2417119,-3.8299320091509697,-0.5497280366038785,9.04,0.2966666666666667,-0.3566666666666667,-0.6222222222222222,0.00810649294901869,-0.03149945015519784,0.16790521452499013
1589988298.2517118,-3.700723084198437,-0.31898034093723965,9.026315670952776,0.29690424182373654,-0.35728436207504827,-0.622507312410706,0.010441830094885795,-0.04863883948557705,0.23747821170261157
1589988298.2617118,-2.1706116152858783,-0.5173281239444232,8.724071430179928,0.3021515376704874,-0.37092733127660055,-0.6288040674268072,0.00013878879278278293,-0.014638803188637105,0.35081166602574465
1589988298.2717118,-2.1389871302283447,-1.0702158498110141,9.169871302283447,0.3022222222222222,-0.3711111111111111,-0.6288888888888889,0.0049651149785995075,0.09641875196466279,0.34820550034022557
1589988298.2817118,-2.0931306031924533,-0.8212804173304595,8.711306031924531,0.3022222222222222,-0.3711111111111111,-0.6288888888888889,0.03926571699171832,0.0028066923038593955,0.28103348806453454
1589988298.2917118,-1.7518134214789483,-0.8766753939552617,8.95697763086842,0.3022222222222222,-0.3711111111111111,-0.6288888888888889,-0.015933865610423512,0.023869257482044406,0.14836155441506052
1589988298.3017118,-1.792993896352539,-0.8011778566870121,8.888343506079101,0.3022222222222222,-0.3711111111111111,-0.6288888888888889,-0.006200997523937692,-0.0038319824564152435,0.0742420205256685
1589988298.3117118,-1.9206896939272469,-0.7054310118757726,9.007586258569662,0.29709769935522007,-0.3711111111111111,-0.6288888888888889,0.0008369315710308853,0.009883311845247926,-0.053967946764911214
1589988298.3217118,-2.0293529631629217,-0.6668823456123594,8.970323518418539,0.2966666666666667,-0.3711111111111111,-0.6288888888888889,0.015541133522543363,0.012902282528713947,-0.15339489064884412
1589988298.3317118,-2.1329481748389085,-0.6885259125805456,9.05,0.2966666666666667,-0.3711111111111111,-0.6288888888888889,0.009404593404029882,0.02011734806490567,-0.2971925452297547
1589988298.3417118,-2.146563600655727,-0.6817181996721365,9.05,0.2966666666666667,-0.3711111111111111,-0.6288888888888889,0.017573262482810253,0.02234516690457304,-0.3699679606588889
1589988298.3517118,-2.18627078453486,-0.7072030884011451,9.06813539226743,0.2966666666666667,-0.3711111111111111,-0.6288888888888889,0.021613218498732302,0.038733561742794326,-0.4803250538102567
1589988298.3617117,-2.2594250352498824,-0.7296166901665884,8.948083450832941,0.2966666666666667,-0.37777777777777777,-0.6222222222222222,0.02072578486743266,0.04591942440623091,-0.5919373958423145
1589988298.3717117,-2.2309359037380583,-0.7128077112141742,8.836897347667186,0.2966666666666667,-0.37777777777777777,-0.6222222222222222,0.020521602346047208,0.05188159434148979,-0.6925265665234669
1589988298.3817117,-2.239900190215649,-0.7397005706469469,8.711397336980916,0.2966666666666667,-0.37777777777777777,-0.6222222222222222,0.018565898419472635,0.05774870612121351,-0.7746661314395991
1589988298.3917117,-2.2619055680574767,-0.7807622272229907,8.753811136114953,0.2966666666666667,-0.37777777777777777,-0.6222222222222222,0.023073738616044583,0.05822976193135968,-0.8615186581757576
1589988298.4017117,-2.305202014988542,-0.7980808059954168,8.840404029977083,0.2966666666666667,-0.37777777777777777,-0.6222222222222222,0.026852066382854985,0.06767558134838568,-0.9304731399200473
1589988298.4117117,-2.33883877936808,-0.84116122063192,8.9758061031596,0.3088888888888889,-0.3711111111111111,-0.6433333333333333,0.02597579464481636,0.06813818659900764,-1.0255986303747173
1589988298.4217117,-2.3301258854566984,-0.8498741145433016,9.019370572716507,0.3088888888888889,-0.3711111111111111,-0.6433333333333333,0.03262879966302908,0.07193990375227201,-1.0845252462503159
1589988298.4317117,-2.370945290058441,-0.8704726450292205,8.951757849902599,0.3088888888888889,-0.3711111111111111,-0.6433333333333333,0.04016898727389259,0.08018330182366488,-1.1315298241377671
1589988298.4417117,-2.373510530137981,-0.8964894698620189,8.952978939724039,0.3088888888888889,-0.3711111111111111,-0.6433333333333333,0.044532592365485124,0.08669205344910777,-1.2060704399707405
1589988298.4517117,-2.381972189959995,-0.9239443799199897,8.995916569879984,0.3088888888888889,-0.3711111111111111,-0.6433333333333333,0.04211213541390321,0.08922540760105507,-1.2565460532928168
1589988298.4617116,-2.3581454925685263,-0.9527418029725894,9.00725819702741,0.32163069186147836,-0.36686384345358136,-0.6433333333333333,0.04105569649771914,0.09401374267395719,-1.3189547925740461
1589988298.4717116,-2.366981767944236,-1.0004726519163545,8.892072928223055,0.3288888888888889,-0.3644444444444445,-0.6433333333333333,0.04218738331085905,0.10187961746763793,-1.3726518118253657
1589988298.4817116,-2.3408876046528855,-1.02,8.732440912795436,0.3288888888888889,-0.3644444444444445,-0.6433333333333333,0.03827590003518146,0.10151987975802451,-1.4376923416630623
1589988298.4917116,-2.362749399314026,-1.0882481979420775,8.760332532418701,0.3288888888888889,-0.3644444444444445,-0.6433333333333333,0.03569750288187165,0.10392883727767471,-1.4710662706843813
1589988298.5017116,-2.438445208195638,-1.1252100462656973,8.861260277594184,0.3288888888888889,-0.3644444444444445,-0.6433333333333333,0.039884061040831954,0.10803807245362335,-1.513701796636332
1589988298.5117116,-2.5094013370389843,-1.1629342246926562,8.906467112346329,0.3618231135815452,-0.3580405674208724,-0.6488223707821094,0.04594227799641588,0.1090830782496456,-1.5526311360214726
1589988298.5217116,-2.570677324053432,-1.1740639443205916,8.983904083519112,0.3688888888888889,-0.3566666666666667,-0.65,0.05280318511615518,0.11337251678691052,-1.592130626512413
1589988298.5317116,-2.578279412031247,-1.219676472187483,8.915485291718776,0.3688888888888889,-0.3566666666666667,-0.65,0.05777874006262344,0.11254325762916582,-1.6112035871405415
1589988298.5417116,-2.59,-1.3108713561470215,8.92034854245881,0.3688888888888889,-0.3566666666666667,-0.65,0.05666617056335438,0.11455624220428164,-1.636683404714221
1589988298.5517116,-2.59,-1.3524023685044362,8.936960947401774,0.3688888888888889,-0.3566666666666667,-0.65,0.05394797216089187,0.1154623083384358,-1.6575229257997666
1589988298.5617115,-2.6,-1.3780759382713204,8.96910267352541,0.4011111111111111,-0.3322222222222222,-0.65,0.04908738521234052,0.11730619253138058,-1.6836271967542278
1589988298.5717115,-2.5988206037951027,-1.4607862641365983,8.951351094497419,0.4011111111111111,-0.3322222222222222,-0.65,0.04900161710000307,0.12313522625359336,-1.6999003156349968
1589988298.5817115,-2.578890138435708,-1.4740732410428612,8.805194348528527,0.4011111111111111,-0.3322222222222222,-0.65,0.04755223275843597,0.1209611497412427,-1.706422545172049
1589988298.5917115,-2.560714942253127,-1.5357103464812374,8.786425288734364,0.4011111111111111,-0.3322222222222222,-0.65,0.04488003828583838,0.11796570071310095,-1.7204731056602474
1589988298.6017115,-2.548109740750063,-1.5756707777498113,8.79,0.4011111111111111,-0.3322222222222222,-0.65,0.04731811424269361,0.11975526362987143,-1.7239250269397466
1589988298.6117115,-2.54,-1.6501045566025558,8.846367626177875,0.43381825222666837,-0.3155207033547036,-0.6367779642298811,0.05318655466374581,0.1183494372228364,-1.7270606877265287
1589988298.6217115,-2.530047793682716,-1.7101911747308647,8.899522063172839,0.4533333333333333,-0.3055555555555556,-0.6288888888888889,0.05674926809997355,0.11566977080087688,-1.7300524075573476
1589988298.6317115,-2.539971607713238,-1.7498864308529516,8.80028392286762,0.4533333333333333,-0.3055555555555556,-0.6288888888888889,0.06216186901210521,0.12432993226028749,-1.728969887374921
1589988298.6417115,-2.56038389680438,-1.7567946322681267,8.833973161340634,0.4533333333333333,-0.3055555555555556,-0.6288888888888889,0.062177354602297986,0.1250958886079776,-1.730449149063646
1589988298.6517115,-2.5352856785647306,-1.8294286428705382,8.898600050009376,0.4533333333333333,-0.3055555555555556,-0.6288888888888889,0.060662656585695265,0.12165879494558564,-1.7341778478550811
1589988298.6617115,-2.4774512397943758,-1.8417648170547325,8.956470365890535,0.4648147448173907,-0.27381282968786747,-0.6376687917884621,0.05866959311189492,0.11932833611190506,-1.7381639748026816
1589988298.6717114,-2.4133719322502594,-1.8757850846871758,8.870115796750778,0.4722222222222222,-0.2533333333333333,-0.6433333333333333,0.05781403147231216,0.1258926844579507,-1.740873973676967
1589988298.6817114,-2.446282150147426,-1.9979169879791334,8.796506237242005,0.4722222222222222,-0.2533333333333333,-0.6433333333333333,0.04396184128972255,0.11169473843110002,-1.7508603504233364
1589988298.6917114,-2.45,-2.0380125832716507,8.846025166543301,0.4722222222222222,-0.2533333333333333,-0.6433333333333333,0.04152383424636306,0.11526674038713568,-1.7590042005862991
1589988298.7017114,-2.4893098890535508,-2.0635859334321305,8.794966155325028,0.4722222222222222,-0.2533333333333333,-0.6433333333333333,0.056030918327150736,0.12677697657401907,-1.7620828783889515
1589988298.7117114,-2.42,-2.1528447834629416,8.74142239173147,0.5111111111111111,-0.2222222222222222,-0.6944444444444444,0.061086523819801536,0.1254765717608016,-1.7763069587361582
1589988298.7217114,-2.42,-2.222095365463041,8.77604768273152,0.5111111111111111,-0.2222222222222222,-0.6944444444444444,0.061086523819801536,0.12623197842631662,-1.7868826520533685
1589988298.7317114,-2.429454092419209,-2.2689081848384176,8.742729537903957,0.5111111111111111,-0.2222222222222222,-0.6944444444444444,0.06830549434180899,0.125505089266445,-1.8014569598906198
1589988298.7417114,-2.4387062237987744,-2.27,8.783531118993873,0.5111111111111111,-0.2222222222222222,-0.6944444444444444,0.06872233929727672,0.1301940484465957,-1.817247679754556
1589988298.7517114,-2.395796403010479,-2.3657744601439616,8.83420359698952,0.5111111111111111,-0.2222222222222222,-0.6944444444444444,0.06550776301106093,0.13170333797112865,-1.8339713384920597
1589988298.7617114,-2.38,-2.393998226584732,8.88000886707634,0.5271158402184921,-0.19021276400746026,-0.7017799452853274,0.05977617273363074,0.13133583276297686,-1.8496157699945335
1589988298.7717113,-2.345468881573911,-2.459062236852178,8.891367220393478,0.5377777777777778,-0.1688888888888889,-0.7066666666666667,0.0567232006898157,0.1290163135529143,-1.875427795275572
1589988298.7817113,-2.34,-2.5077054979609885,8.75803075713654,0.5377777777777778,-0.1688888888888889,-0.7066666666666667,0.05569494274368561,0.13591583795749243,-1.890749702812458
1589988298.7917113,-2.3322545319436023,-2.54098187222559,8.765490936112794,0.5377777777777778,-0.1688888888888889,-0.7066666666666667,0.051407872416938546,0.13635384781205698,-1.8957250743392353
1589988298.8017113,-2.3075961302362127,-2.5574679565879292,8.784935913175858,0.5377777777777778,-0.1688888888888889,-0.7066666666666667,0.052622099073375034,0.13472459242636495,-1.9010278692255669
1589988298.8117113,-2.3189044943820223,-2.5789044943820225,8.818356741573034,0.5451295255930088,-0.1268789013732834,-0.7024656679151061,0.05654394900224254,0.13932758734692444,-1.9003467242338752
1589988298.8217113,-2.2494303936661537,-2.606463602375192,8.793536397624807,0.5455555555555556,-0.12444444444444445,-0.7022222222222222,0.05864768816225613,0.13962634015954636,-1.8973404919001657
1589988298.8317113,-2.2003706340240488,-2.6383066899828225,8.75037063402405,0.5455555555555556,-0.12444444444444445,-0.7022222222222222,0.05828730607913169,0.1383912278081925,-1.8957196184099832
1589988298.8417113,-2.1650077179882974,-2.6999382560936214,8.734976846035108,0.5455555555555556,-0.12444444444444445,-0.7022222222222222,0.06217061938692701,0.139078399062534,-1.8915056282603828
1589988298.8517113,-2.1199289037337468,-2.7066074197781225,8.75,0.5455555555555556,-0.12444444444444445,-0.7022222222222222,0.06216959920272304,0.1450882494716036,-1.8838570059718045
1589988298.8617113,-2.0572563914820914,-2.766938495332235,8.852584660442979,0.5560039931932665,-0.0788512620253422,-0.7326176771682904,0.04787292161646392,0.1481946765155478,-1.8742229327781768
1589988298.8717113,-2.036836115191957,-2.8194916544241284,8.856836115191957,0.5577777777777778,-0.07111111111111111,-0.7377777777777778,0.04581489286485115,0.14045522249830014,-1.8636227325486119
1589988298.8817112,-2.014565758516043,-2.8477171207419785,8.741960309612303,0.5577777777777778,-0.07111111111111111,-0.7377777777777778,0.04834031472212872,0.14140469152661214,-1.8478321586590913
1589988298.8917112,-1.9769032863849765,-2.8334516431924883,8.701725821596243,0.5577777777777778,-0.07111111111111111,-0.7377777777777778,0.04908738521234052,0.13928854110596203,-1.8310562604474807
1589988298.9017112,-1.9558864090742176,-2.8582271818515648,8.742340772777347,0.5577777777777778,-0.07111111111111111,-0.7377777777777778,0.045238500353989006,0.13853550937704992,-1.812067075058984
1589988298.9117112,-1.9443585853408507,-2.8869242439774476,8.771282829318299,0.5728215502021755,-0.04478450936841506,-0.7496874309470927,0.04301784842315557,0.13915089225375257,-1.7887096073606628
1589988298.9217112,-1.918213608594902,-2.93631065234183,8.772737869531634,0.5844444444444444,-0.024444444444444446,-0.7588888888888888,0.04412675160964158,0.13962634015954636,-1.753691598612313
1589988298.9317112,-1.8934612869632608,-2.95,8.687306434816303,0.5844444444444444,-0.024444444444444446,-0.7588888888888888,0.04472406208235469,0.144136574480384,-1.7128555648842982
1589988298.9417112,-1.8762244655581948,-2.984438836104513,8.69755106888361,0.5844444444444444,-0.024444444444444446,-0.7588888888888888,0.038713351276570176,0.14432915522130554,-1.6797624840491496
1589988298.9517112,-1.8507087676272227,-3.0128608215818518,8.74215205395463,0.5844444444444444,-0.024444444444444446,-0.7588888888888888,0.03389306881193127,0.1425867652825643,-1.6440310003186276
1589988298.9617112,-1.8088418657565415,-2.9966313993174065,8.775579067121729,0.5896374668183542,-0.020116925799519656,-0.797836556693212,0.031875217175945644,0.13755947022979909,-1.594254648977436
1589988298.9717112,-1.77158809345639,-3.0184119065436104,8.744485116820487,0.5911111111111111,-0.01888888888888889,-0.8088888888888889,0.02466076168678116,0.13712866236823656,-1.552118899381492
1589988298.9817111,-1.7526115288220552,-3.0447769423558895,8.670892230576442,0.5911111111111111,-0.01888888888888889,-0.8088888888888889,0.013757043853439014,0.13260893551665937,-1.5093418184554859
1589988298.9917111,-1.7246100667551452,-3.062694966622427,8.662694966622427,0.5911111111111111,-0.01888888888888889,-0.8088888888888889,0.003984277637710151,0.12328326069359484,-1.4669509562887602
1589988299.0017111,-1.7157486670253876,-3.07,8.698743335126938,0.5911111111111111,-0.01888888888888889,-0.8088888888888889,0.0018812468848845596,0.11764639070219064,-1.417896246702179
1589988299.0117111,-1.7052019882512426,-3.1217930411206507,8.705201988251241,0.6042648993322288,-0.02957634181854697,-0.8097110006527087,0.004079598684253804,0.11510468105359191,-1.35562436031151
1589988299.021711,-1.6657073731532799,-3.082845621922133,8.73429262684672,0.6088888888888889,-0.03333333333333333,-0.81,-8.797173386178303e-07,0.10705574156671453,-1.3124193576386052
1589988299.031711,-1.6464061143612,-3.0784366861672012,8.715157199471598,0.6088888888888889,-0.03333333333333333,-0.81,0.0037154943939004597,0.09655567205319752,-1.2534164859639412
1589988299.041711,-1.6665517417422526,-3.138620730731923,8.706551741742253,0.6088888888888889,-0.03333333333333333,-0.81,0.01365419860960214,0.0956169622343333,-1.1983340003678715
1589988299.051711,-1.68,-3.2043991558257474,8.759313320943711,0.6088888888888889,-0.03333333333333333,-0.81,0.016935966528156144,0.08797105125457748,-1.1436588167139705
1589988299.061711,-1.661817733295743,-3.24,8.751513955455316,0.5630965134855747,-0.07306495316856185,-0.8005721580052,0.018577260324377724,0.07787869046585937,-1.0782357156824027
1589988299.071711,-1.6579384498959449,-3.27175379958378,8.81526139875134,0.5333333333333333,-0.09888888888888887,-0.7944444444444444,0.012066279355630061,0.07398518335252734,-1.006115255576662
1589988299.081711,-1.66,-3.304360679800922,8.685715694594162,0.5333333333333333,-0.09888888888888887,-0.7944444444444444,0.01158903566976046,0.0668852072317393,-0.9379427460945621
1589988299.091711,-1.66,-3.31,8.725071741596778,0.5333333333333333,-0.09888888888888887,-0.7944444444444444,0.012818044273754875,0.061355318618318055,-0.8799846919108324
1589988299.101711,-1.6473225959456392,-3.3290161060815406,8.74366129797282,0.5333333333333333,-0.09888888888888887,-0.7944444444444444,0.013781414519189565,0.057229912520376694,-0.8200848771196033
1589988299.111711,-1.5793493386823796,-3.286930671347082,8.762743997994107,0.5030080026745232,-0.040765338459502566,-0.7009413415797795,0.014180800172453925,0.049843404177216846,-0.741197122982198
1589988299.121711,-1.5876663163850941,-3.3391657909627357,8.707750788133538,0.4933333333333334,-0.022222222222222227,-0.6711111111111111,0.014935281911232596,0.04422414573595071,-0.6820606622060412
1589988299.131711,-1.6,-3.3438913484822543,8.673472837120563,0.4933333333333334,-0.022222222222222227,-0.6711111111111111,0.011711615859321648,0.04254240051736178,-0.6190809285720489
1589988299.141711,-1.594288566840957,-3.358557165795216,8.641442834204783,0.4933333333333334,-0.022222222222222227,-0.6711111111111111,0.010440497752673633,0.0363121934153065,-0.5594584060511443
1589988299.151711,-1.6062309703213902,-3.434103234404634,9.166442667486802,0.4933333333333334,-0.022222222222222227,-0.6711111111111111,0.01090830782496456,0.03045374322197331,-0.49632476301034106
1589988299.161711,-1.4028410754899212,-3.045682150979842,8.364487646820576,0.5174621027233421,0.037683687987454695,-0.634501943760753,0.07462183846239424,0.08744808081019288,-0.4004375332158024
1589988299.171711,-1.3570256688416318,-3.0297232104398324,7.880543528548411,0.5255555555555556,0.057777777777777775,-0.6222222222222222,0.062385416961079916,0.05914311767084102,-0.3625988485216663
1589988299.181711,-1.4443875320367856,-3.2093404191165384,8.56798017488316,0.5255555555555556,0.057777777777777775,-0.6222222222222222,-0.0591117467903703,-0.036564045923557706,-0.34960612656774825
1589988299.191711,-1.4156723061675158,-3.15588461337831,8.585236911199596,0.5255555555555556,0.057777777777777775,-0.6222222222222222,-0.03845581090125372,-0.033691062953741586,-0.2965426829952407
1589988299.201711,-1.3945269955156951,-3.1511063677130045,8.277846098654708,0.5255555555555556,0.057777777777777775,-0.6222222222222222,0.053642811958874326,0.03176906221235526,-0.21929983785423013
1589988299.211711,-1.44208336837384,-3.282416673674768,8.946833179155103,0.5314536982529582,0.10243514391525493,-0.6323333239891982,-0.02454364673825408,-0.022207440874359004,-0.17984164723902668
1589988299.221711,-1.4436523609546246,-3.273173819522688,8.563124449452012,0.5333333333333333,0.11666666666666667,-0.6355555555555555,0.003571887017649919,0.0002471938976948834,-0.13318037157021634
1589988299.231711,-1.5228309056364788,-3.401095630145662,8.70230525649145,0.5333333333333333,0.11666666666666667,-0.6355555555555555,0.008903500395702549,-0.001815518237112533,-0.09358485293329
1589988299.241711,-1.5264597093791281,-3.4029194187582563,8.751532364597095,0.5333333333333333,0.11666666666666667,-0.6355555555555555,0.009264136196393283,-0.014097222648828045,-0.06306500554287633
1589988299.251711,-1.5556661644425314,-3.4851097718467496,8.973718790357298,0.5333333333333333,0.11666666666666667,-0.6355555555555555,0.01739259950288016,-0.011381055948201024,-0.03402817981711111
1589988299.261711,-1.5681830129282681,-3.502732051713072,8.8445753232067,0.541211324714488,0.13701814440131627,-0.6230820692020607,0.01666048234824594,-0.013238262898944426,0.0027249265670033565
1589988299.2717109,-1.5550384849274608,-3.450153939709843,8.684653635652854,0.5466666666666666,0.1511111111111111,-0.6144444444444445,0.0233730987909549,-0.010950288368500823,0.037478333985043556
1589988299.2817109,-1.546098619567183,-3.437802760865634,8.7534082825969,0.5466666666666666,0.1511111111111111,-0.6144444444444445,0.023176389581525007,-0.012263347305035959,0.06802782156114268
1589988299.2917109,-1.5444094408222129,-3.458818881644426,8.767952795888936,0.5466666666666666,0.1511111111111111,-0.6144444444444445,0.009911952342705034,-0.01905948340645266,0.09890482697787216
1589988299.3017108,-1.5385805174234424,-3.4623870116156286,8.724774023231257,0.5466666666666666,0.1511111111111111,-0.6144444444444445,0.010028559134223621,-0.01625692069156908,0.13109689583195425
1589988299.3117108,-1.5292246262883382,-3.477673878865015,8.70461231314417,0.5466666666666666,0.16648548825834145,-0.6241815499710237,0.0022662417162548345,-0.01963495408493621,0.1703256955961082
1589988299.3217108,-1.5483603055943482,-3.505819847202826,8.747621375174568,0.5466666666666666,0.18444444444444444,-0.6355555555555555,0.00017886291315722725,-0.02282684162762351,0.2068548246503163
1589988299.3317108,-1.56,-3.50510679028565,8.85617469314215,0.5466666666666666,0.18444444444444444,-0.6355555555555555,-0.001090830782496456,-0.028384898371079565,0.2485717184759486
1589988299.3417108,-1.4989793656657344,-3.4133839956374126,8.640492198356993,0.5466666666666666,0.18444444444444444,-0.6355555555555555,0.007229567504913185,-0.03278059044236816,0.2866678043822542
1589988299.3517108,-1.4830825385282354,-3.3630825385282352,8.552330154112942,0.5466666666666666,0.18444444444444444,-0.6355555555555555,0.008008649985407582,-0.02787996650348226,0.3246581569595621
1589988299.3617108,-1.537485358371293,-3.4800585665148276,8.807485358371293,0.5689149184510345,0.18305392870792148,-0.644593907842955,-0.014193577403893414,-0.040526640147884735,0.3777273100562068
1589988299.3717108,-1.5436363636363637,-3.4486363636363637,8.636363636363637,0.5822222222222222,0.18222222222222226,-0.65,0.01051164208587494,-0.034063670344321145,0.43474565004222393
1589988299.3817108,-1.5563435185394914,-3.502465741013386,8.737618519105755,0.5822222222222222,0.18222222222222226,-0.65,-0.004665624759101868,-0.03437783515324308,0.4735596405900001
1589988299.3917108,-1.5473340042710917,-3.486670021355458,8.745005032033186,0.5822222222222222,0.18222222222222226,-0.65,-0.011454272125882667,-0.04312403055878125,0.5064352002797256
1589988299.4017107,-1.5718806815945852,-3.4606268938648617,8.806895832513478,0.5822222222222222,0.18222222222222226,-0.65,-0.010091011092527817,-0.04182602634482623,0.5337256311559553
1589988299.4117107,-1.5815902627302276,-3.4331805254604553,8.817951313651138,0.6306330128205128,0.1706309061634766,-0.6547728948477188,-0.018197181794761944,-0.04328628979218044,0.5598941607717511
1589988299.4217107,-1.5813802228931382,-3.3758593313205862,8.765690111446569,0.6611111111111111,0.16333333333333333,-0.6577777777777778,-0.014518836145679748,-0.04643558773702645,0.5850815992293864
1589988299.4317107,-1.62272711461534,-3.3336364426923297,8.677273175256536,0.6611111111111111,0.16333333333333333,-0.6577777777777778,-0.01338745144693836,-0.05226068525405299,0.609080187755547
1589988299.4417107,-1.6661997779331332,-3.3523995558662665,8.702598593576509,0.6611111111111111,0.16333333333333333,-0.6577777777777778,-0.02107478612119844,-0.048476633018250406,0.6314599457308074
1589988299.4517107,-1.6890322134022522,-3.375483893298874,8.740322826287612,0.6611111111111111,0.16333333333333333,-0.6577777777777778,-0.026074369638743856,-0.04884103204480561,0.6533372089449916
1589988299.4617107,-1.7035332763178355,-3.355866894728658,8.697666381589178,0.7357025000431936,0.16451109210594517,-0.6734812280792688,-0.02148945970657038,-0.0585848727864243,0.6780602278170166
1589988299.4717107,-1.717125369700953,-3.3246559727242855,8.733562684850478,0.8722222222222222,0.16666666666666666,-0.7022222222222222,-0.014405965497874757,-0.05921843577665837,0.7040803894592701
1589988299.4817107,-1.7492548504290022,-3.298509700858004,8.744038803432018,0.8722222222222222,0.16666666666666666,-0.7022222222222222,-0.029811713029253072,-0.055713653116280105,0.7294194966652304
1589988299.4917107,-1.7464807346056896,-3.276759632697155,8.68944220381707,0.8722222222222222,0.16666666666666666,-0.7022222222222222,-0.024613946508024596,-0.05884401613013858,0.7763672865141265
1589988299.5017107,-1.76,-3.274294358774156,8.74002017047303,0.8722222222222222,0.16666666666666666,-0.7022222222222222,-0.03194418701790487,-0.06248744892780564,0.8028602569465431
1589988299.5117106,-1.7801082404484248,-3.3301623606726367,8.774864699439469,1.2380804859366163,0.07338677347536311,-1.112206902476215,-0.03110933990343325,-0.05781403147231216,0.8427405744866703
1589988299.5217106,-1.8549026475351185,-3.3550088502240802,8.779946898655519,1.6,-0.01888888888888889,-1.5177777777777777,-0.03163988515051239,-0.057269581490749795,0.8688245138356523
1589988299.5317106,-1.9256264640580123,-3.356250585623205,8.778747071883975,1.6,-0.01888888888888889,-1.5177777777777777,-0.02836160034490785,-0.0594505331723844,0.8861641041016316
1589988299.5417106,-1.9538997058933025,-3.360849558839954,8.719150441160046,1.6,-0.01888888888888889,-1.5177777777777777,-0.025699844907360936,-0.06544984694978735,0.9019864140871806
1589988299.5517106,-1.922247053888105,-3.3266852904160786,8.735561763472026,1.6,-0.01888888888888889,-1.5177777777777777,-0.021571500094821797,-0.06690225645720155,0.9189575607567441
1589988299.5617106,-1.9,-3.2891820107544403,8.738327195698224,1.236379121177557,-0.11742737131787155,-1.2281764162728803,-0.023089921074972562,-0.06826816122730199,0.9304746403966914
1589988299.5717106,-1.9093477499902765,-3.2646738749951383,8.796738749951382,0.7266666666666667,-0.25555555555555554,-0.8222222222222222,-0.022326456321752848,-0.06916103053025147,0.9416833576497181
1589988299.5817106,-1.90666065864239,-3.265553552880797,8.778856846092747,0.7266666666666667,-0.25555555555555554,-0.8222222222222222,-0.022907446432425576,-0.07235909727938053,0.948660481258649
1589988299.5917106,-1.9031104490786714,-3.277480598771562,8.685629850307109,0.7266666666666667,-0.25555555555555554,-0.8222222222222222,-0.021954027670601096,-0.07417649320975901,0.9556322387857917
1589988299.6017106,-1.92,-3.313468625912452,8.698856076277433,0.7266666666666667,-0.25555555555555554,-0.8222222222222222,-0.023076503546349818,-0.07270729403543578,0.9581680495876933
1589988299.6117105,-1.907862554112554,-3.35,8.75,0.7077861952861952,-0.18839502164502164,-0.7998353775853776,-0.029982027111200755,-0.06898713728917494,0.9499437300072255
1589988299.6217105,-1.8823962230536255,-3.352479244610725,8.75495848922145,0.6488888888888888,0.021111111111111112,-0.73,-0.03055231815691027,-0.06927228281202971,0.9302806638116811
1589988299.6317105,-1.8986253590480098,-3.36,8.735800574476816,0.6488888888888888,0.021111111111111112,-0.73,-0.026804447236106595,-0.06669886386217067,0.8766275153076916
1589988299.6417105,-1.8783734939759036,-3.3223192771084338,8.656506024096386,0.6488888888888888,0.021111111111111112,-0.73,-0.023896422533423868,-0.06042611120750698,0.8086046026045943
1589988299.6517105,-1.8584653048119757,-3.242970261267408,8.668564433920617,0.6488888888888888,0.021111111111111112,-0.73,-0.020234370349893525,-0.05345070834232633,0.7159143395462227
1589988299.6617105,-1.8453936046511628,-3.201535465116279,8.765393604651162,0.6305490633074935,0.03756992894056847,-0.73,-0.016864941521732853,-0.047910683215919625,0.6092957419893041
1589988299.6717105,-1.8884515228571974,-3.2153545685715925,8.804225761428599,0.6055555555555555,0.06,-0.73,-0.0126290103253773,-0.03943882082320853,0.48930151912735503
1589988299.6817105,-1.9,-3.253339020644941,8.759914690325884,0.6055555555555555,0.06,-0.73,-0.010177985356014534,-0.03271561763303652,0.37335577269759135
1589988299.6917105,-1.90431085453572,-3.26862170907144,8.703108545357201,0.6055555555555555,0.06,-0.73,-0.0037235369991219605,-0.020405891802000732,0.2354626511402821
1589988299.7017105,-1.9043495875905927,-3.2997764434329246,8.76,0.6055555555555555,0.06,-0.73,0.0003081821894990633,-0.014537754838951927,0.1298908607435707
1589988299.7117105,-1.8908093231966168,-3.3471673688118413,8.76,0.6055555555555555,0.06,-0.73,0.0010466890497035546,-0.004937165656293541,0.04643958554046318
1589988299.7217104,-1.8747507951456137,-3.3876744433980703,8.74980063611649,0.6,0.013333333333333334,-0.7511111111111111,0.00956379816968583,0.007932988802467386,-0.1006391459290384
1589988299.7317104,-1.8002238845750635,-3.4398432807974553,8.69017910766005,0.6,0.013333333333333334,-0.7511111111111111,0.015254535541916005,0.015249651138191895,-0.18518724403074383
1589988299.7417104,-1.85,-3.4041012256973797,8.656317624683009,0.6,0.013333333333333334,-0.7511111111111111,0.021437775559490682,0.02611140454668667,-0.3654454399315662
1589988299.7517104,-6.053504751561228,-6.115026880260657,6.309471626391528,0.6,0.013333333333333334,-0.7511111111111111,0.02350371592233105,0.03451373194461011,-0.5149699871961976
1589988299.7617104,-10.96191418527709,-9.48042741935484,-0.43745388751033915,0.5773312425328554,0.015774584137487363,-0.7193748506571087,-0.19814566726682747,0.8469552376918912,-0.7044949480316979
1589988299.7717104,2.8455225621918636,-0.3136468330134357,-1.3302145195890258,0.5277777777777778,0.021111111111111112,-0.65,-0.5541189244251186,1.392043067574485,-1.2904255562134392
1589988299.7817104,1.6696929077378284,0.17524881197883976,-0.5001757374697391,0.5277777777777778,0.021111111111111112,-0.65,-0.12056609437533186,-0.8018543233227936,-2.259556448294032
1589988299.7917104,0.05079229122055673,-0.21471092077087794,0.13425053533190578,0.5277777777777778,0.021111111111111112,-0.65,0.04804677469070847,-0.35349457665927975,-2.276069815852763
1589988299.8017104,-0.23912229863477746,-0.31657265881680713,0.1,0.5277777777777778,0.021111111111111112,-0.65,0.14665003668803706,-0.1908674500221596,-2.1643228472140557
1589988299.8117104,0.011963161262080343,-0.1796427248543624,0.1,0.5406347442502609,0.08700306428258744,-0.6537499485544743,0.2751810461557973,-0.17825420936092848,-1.9955786970522384
1589988299.8217103,0.02177549177431387,-0.14828026227963406,0.08435509835486278,0.5544444444444444,0.15777777777777774,-0.6577777777777778,0.343171363875176,-0.06262985086116467,-1.801104073634445
1589988299.8317103,0.5412405827308452,0.6109320653943855,2.827851234286458,0.5544444444444444,0.15777777777777774,-0.6577777777777778,0.3843548739518716,0.012966413424949887,-1.6276765006371121
1589988299.8417103,2.895971688762235,2.4342315078676746,9.841918597447652,0.5544444444444444,0.15777777777777774,-0.6577777777777778,0.37978812424922226,0.10117928547889882,-1.4142537299367735
1589988299.8517103,4.85,3.35,13.4,0.5544444444444444,0.15777777777777774,-0.6577777777777778,0.3403392041388943,0.1679879405044542,-1.2959069696057897
1589988299.8617103,-0.7321620922917829,0.23003360765220382,0.7423585677969751,0.5544444444444444,0.15777777777777774,-0.6577777777777778,0.0446060442403603,1.9016629893522534,-1.0835608646294652
1589988299.8717103,1.4057936462507157,-0.16291184888380084,9.81630337721809,0.5344444444444445,0.14333333333333334,-0.6433333333333333,0.036620350756646124,0.3032081859778608,-0.704639689657643
1589988299.8817103,3.166747381944174,-0.4319679215167206,14.417812901467668,0.5344444444444445,0.14333333333333334,-0.6433333333333333,0.03834775336620089,-0.9401536602146244,-0.4939864590075823
1589988299.8917103,0.1927223107569721,-0.09427370517928287,1.7343304780876494,0.5344444444444445,0.14333333333333334,-0.6433333333333333,-0.03557273062690275,-1.5777396168333646,-0.3313940223175766
1589988299.9017103,0.565603281086065,-0.49568689791116904,3.4964025689123455,0.5344444444444445,0.14333333333333334,-0.6433333333333333,0.08489478221752654,-1.0022244774136637,-0.15163359419011815
1589988299.9117103,-0.09890880591616091,-2.4466874321771632,9.767314818536232,0.5327414046416499,0.14702325290605503,-0.6396434137606116,0.06497648575214202,0.7476029658513784,0.19656804897282826
1589988299.9217103,-0.22776103041929296,-1.124223074815018,4.897832282817211,0.5277777777777778,0.15777777777777774,-0.6288888888888889,-0.12693665096080914,1.094066804206657,0.363962013153538
1589988299.9317102,-1.1959034422452788,-3.0667743454352836,11.473419711772916,0.5277777777777778,0.15777777777777774,-0.6288888888888889,-0.16651710651866522,-0.06909511517569489,0.3081385918997464
1589988299.9417102,-0.8571672272945698,-2.7632119974371294,10.491168108281274,0.5277777777777778,0.15777777777777774,-0.6288888888888889,-0.12499216289709038,-0.3648177666514916,0.3120375793932323
1589988299.9517102,-0.8906816378352642,-2.314850817330582,7.8621544199333435,0.5277777777777778,0.15777777777777774,-0.6288888888888889,-0.022821751901821563,0.03465694561942001,0.43464993027452264
1589988299.9617102,-0.8354575520359245,-2.284639541234298,8.18911796832332,0.5302607358860773,0.15984690953469397,-0.6342686314568711,0.05696971163307786,0.008815877396254506,0.45423649415709444
1589988299.9717102,-0.9860319867640976,-2.460159933820488,8.684468955374788,0.5344444444444445,0.16333333333333333,-0.6433333333333333,-0.05857438950706209,-0.0392024299662215,0.44769847998695245
1589988299.9817102,-1.019617562466295,-2.464429489484091,8.259062780873629,0.5344444444444445,0.16333333333333333,-0.6433333333333333,0.041368134808035875,-0.0129836168201828,0.46463133714836813
1589988299.9917102,-1.1135110555334509,-2.7015994998010573,9.250221110669017,0.5344444444444445,0.16333333333333333,-0.6433333333333333,0.015489387887146579,0.0011000693311574022,0.46548402626688895
1589988300.0017102,-1.115013302408077,-2.6003751961252473,9.031474179684835,0.5344444444444445,0.16333333333333333,-0.6433333333333333,-0.0774431812867637,-0.09765722297313162,0.43493147464122545
1589988300.0117102,-1.2151569001978306,-2.7362843645541988,9.374823657821135,0.5344444444444445,0.16333333333333333,-0.6433333333333333,-0.03374729363116073,-0.014166866202604517,0.44741601397139763
1589988300.0217102,-1.1710058939096266,-2.5343968565815325,8.534196463654224,0.5288888888888889,0.16444444444444445,-0.6355555555555555,-0.04472406208235469,-0.03490658503988659,0.4385139745635753
1589988300.0317101,-1.2640387595339195,-2.692310076271357,9.07712402648367,0.5288888888888889,0.16444444444444445,-0.6355555555555555,-0.021314325514204306,-0.029379286127962194,0.4420904620948205
1589988300.0417101,-1.281493464871945,-2.6410185881893935,8.851087423013682,0.5288888888888889,0.16444444444444445,-0.6355555555555555,0.0200741378854748,-0.022803844411782154,0.44986897490360267
1589988300.0517101,-1.3289252454064937,-2.7248477221243395,9.013468411779511,0.5288888888888889,0.16444444444444445,-0.6355555555555555,-0.02355046825286521,-0.035002681383675606,0.4636181834150177
1589988300.0617101,-1.1825660235999251,-2.4379018542798274,7.978603671099457,0.5331454912488813,0.1691740026222139,-0.6372109009177749,-0.00011772554726998709,-0.01587919857021723,0.5052645846107149
1589988300.07171,-1.339685334332272,-2.7992762689642254,9.117718673908971,0.5488574223221161,0.1866317038146969,-0.6433210963351439,-0.020684595227846356,-0.0664394198683008,0.518118878161075
1589988300.08171,-1.3279529972752044,-2.9311464956100517,9.176386996669695,0.5488888888888889,0.18666666666666668,-0.6433333333333333,-0.022335796445269212,-0.06608067442433051,0.5347047407721354
1589988300.09171,-1.6618788881297422,-3.3908195188608006,9.298649717717286,0.5488888888888889,0.18666666666666668,-0.6433333333333333,-0.03234796336054972,-0.059700479528402614,0.5887117119942776
1589988300.10171,-18.435941012649735,-22.927845183370803,2.896700667718015,0.5488888888888889,0.18666666666666668,-0.6433333333333333,-0.4205014496332785,0.18407087754016216,-0.706265734193247
1589988300.11171,-2.518908163607687,-1.9091992416870802,1.5737996174881725,0.5488888888888889,0.18666666666666668,-0.6433333333333333,-0.20557744294150798,-0.6794630779178447,-1.790096796510319
1589988300.12171,1.5080489037838647,-0.12161558480462825,10.677141787272284,0.5633333333333334,0.17888888888888888,-0.6788888888888889,0.7291033421737138,0.4329879713561384,-1.6866977765110567
1589988300.13171,-0.2604869230249375,0.4721203622355883,1.5681175238223963,0.5633333333333334,0.17888888888888888,-0.6788888888888889,0.5565629195833771,0.39647305248089165,-1.5355576343903317
1589988300.14171,0.4297357576259604,-1.4909499057756426,9.777374764439106,0.5633333333333334,0.17888888888888888,-0.6788888888888889,-0.3292541776158521,-0.09735259814611363,-1.2497740598891507
1589988300.15171,-0.6825484218629715,-2.7767070053887606,12.36323233256351,0.5633333333333334,0.17888888888888888,-0.6788888888888889,-0.2832581034648599,0.15223362322634837,-1.0666971381359307
1589988300.16171,-0.5340204772902233,-2.2084261739799844,8.449843879907622,0.5633333333333334,0.17888888888888888,-0.6788888888888889,0.14644407453747726,0.1416671762262909,-0.9363776251352219
1589988300.17171,-0.9163535284096004,-2.3351331559912722,8.74283288997818,0.5633333333333334,0.19,-0.6944444444444444,0.04001787567984794,0.1110106245287857,-0.8400575006397699
1589988300.18171,-1.0158380863568346,-2.3871950293856132,8.51832382728633,0.5633333333333334,0.19,-0.6944444444444444,-0.06863152150165303,-0.010111008485056989,-0.8131515281749478
1589988300.19171,-2.6178152803276373,-5.63318175398955,8.329906227933908,0.5633333333333334,0.19,-0.6944444444444444,0.06367780536087947,0.07930027066465875,-0.775714248039548
1589988300.20171,-6.604969286850745,-13.172810504904033,8.450674480897428,0.5633333333333334,0.19,-0.6944444444444444,0.03754830113162025,0.07288466730452955,-1.0179961168204477
1589988300.21171,-3.7414048100696786,-8.848934592043154,9.151141829624635,0.5595671936265328,0.19869109163107815,-0.6941547413900752,0.036736405253366244,0.026051951891071803,-1.5250841667009751
1589988300.22171,0.7254196840026332,-1.26901086240948,8.357271231073074,0.5488888888888889,0.22333333333333333,-0.6933333333333334,0.07817806123330465,0.16813677176164474,-1.732415402584232
1589988300.23171,-0.5460429868687529,-2.443987718037499,9.323926308224994,0.5488888888888889,0.22333333333333333,-0.6933333333333334,-0.015700762088712586,0.10951890815479047,-1.706701784505466
1589988300.24171,-0.7378513098582349,-2.389185340040504,8.995112040243026,0.5488888888888889,0.22333333333333333,-0.6933333333333334,0.01643105288059395,0.10727715362204816,-1.6528996757196504
1589988300.25171,-1.0139842903575298,-3.594948537378115,8.639699349945829,0.5488888888888889,0.22333333333333333,-0.6933333333333334,0.07205776418991013,0.12031816257662559,-1.5863820295596505
1589988300.26171,-2.1576088840736727,-6.859201516793066,9.313756229685808,0.5488888888888889,0.22333333333333333,-0.6933333333333334,0.013400436612668001,0.10214265262311396,-1.651648633483624
1589988300.27171,-0.9230989073566573,-4.416673488272769,8.275739402783215,0.5366666666666666,0.25555555555555554,-0.7022222222222222,0.0765367634167733,0.14461573501243988,-1.9415577209927748
1589988300.28171,-0.5139642730008738,-3.1706342836801396,8.328721400601923,0.5366666666666666,0.25555555555555554,-0.7022222222222222,0.07085210865003477,0.14934003277754473,-2.048078584810074
1589988300.29171,-0.8167898976397341,-3.45338527559886,8.900423159449856,0.5366666666666666,0.25555555555555554,-0.7022222222222222,0.06895896926792838,0.14289883250703572,-2.007432648105052
1589988300.30171,-1.0233402511519927,-4.338601076365683,9.01107513454571,0.5366666666666666,0.25555555555555554,-0.7022222222222222,0.07378707249107187,0.14289883250703572,-1.9728312416725242
1589988300.31171,-1.0674461421657018,-4.757651134098889,8.599159153459238,0.5366666666666666,0.25555555555555554,-0.7022222222222222,0.05721100505985682,0.14289883250703572,-1.9899997910120135
1589988300.3217099,-0.7778519618002072,-4.48133531240373,8.731480381997928,0.51,0.31555555555555553,-0.7022222222222222,0.05029537330435258,0.14843372873217767,-2.0886053011900616
1589988300.3317099,-0.7361736524584993,-4.138159181420291,8.854405189069832,0.51,0.31555555555555553,-0.7022222222222222,0.05321833527728801,0.15708752540645582,-2.141726108535789
1589988300.3417099,-0.6356559481599218,-4.0610575865020175,8.624076292945348,0.51,0.31555555555555553,-0.7022222222222222,0.06164654319328272,0.15275938796284855,-2.147759653908832
1589988300.3517098,-0.5211871648793566,-4.391689845844504,8.552705889745308,0.51,0.31555555555555553,-0.7022222222222222,0.07550765678802206,0.1538071403320003,-2.1531144658392933
1589988300.3617098,-0.48299237548272106,-4.559778690959501,8.788977126448163,0.5070152710389367,0.3202273052337415,-0.7022222222222222,0.07610335035689776,0.15418934695878153,-2.1836841763225125
1589988300.3717098,-0.4229715327443556,-4.2045996353947555,8.644056934511289,0.4844444444444445,0.3555555555555556,-0.7022222222222222,0.07130141754617454,0.15650461754677275,-2.2141356172739624
1589988300.3817098,-0.37417846958549306,-4.335821530414507,8.658580026152853,0.4844444444444445,0.3555555555555556,-0.7022222222222222,0.06018709067763503,0.15531726891720576,-2.2089201670479737
1589988300.3917098,-0.3213144171537504,-4.38868558284625,8.486771855749689,0.4844444444444445,0.3555555555555556,-0.7022222222222222,0.06811612933364211,0.16036302078921025,-2.2125242755279766
1589988300.4017098,-0.24767163307040607,-4.484110429447853,8.66123283669296,0.4844444444444445,0.3555555555555556,-0.7022222222222222,0.07895823901500566,0.15939577586592968,-2.236173148495896
1589988300.4117098,-0.18318065101403816,-4.34867936712948,8.667681934898596,0.4844444444444445,0.3555555555555556,-0.7022222222222222,0.07544080159398003,0.16009926335013477,-2.247428948243178
1589988300.4217098,-0.1250771780456894,-4.396037760374354,8.844614109771552,0.4611625631415707,0.3865980639593872,-0.6750600273688695,0.06655751536987799,0.15844738056700877,-2.2495699906127142
1589988300.4317098,0.33695648122262606,-4.312248625477588,8.619631907557544,0.4577777777777778,0.3911111111111111,-0.6711111111111111,0.004113970049241827,0.14898089264852563,-1.9051431281168898
1589988300.4417098,1.7409467026130236,-3.1260744158716993,8.605865823309829,0.4577777777777778,0.3911111111111111,-0.6711111111111111,-0.08977065672135483,0.04858106810401255,-0.4754337629928639
1589988300.4517097,2.3933160514309413,-1.263197497580534,9.432200331812526,0.4577777777777778,0.3911111111111111,-0.6711111111111111,0.1640421055970103,-0.13327854352596874,0.7264210616922296
1589988300.4617097,1.0955945313153272,-2.467533656660256,6.4011426540680665,0.45453080432217485,0.3948219379175144,-0.6725026711635124,0.21173409500096188,0.0836955629518728,0.3751618721021108
1589988300.4717097,-0.2108497784095662,-2.6516633915879257,8.093382598879504,0.42043270526149534,0.43379119398686244,-0.6871161421895179,-0.16510698516958014,-0.05690250503053755,-0.08393386008535153
1589988300.4817097,0.26299507890717805,-4.397687571210395,9.172662965746284,0.4188888888888889,0.4355555555555555,-0.6877777777777778,-0.11574814397498277,0.015727150846814437,-0.3353331923143848
1589988300.4917097,-0.557221867687726,-5.127898319506489,8.495927816776572,0.4188888888888889,0.4355555555555555,-0.6877777777777778,0.07382649609632239,0.05481774679158127,-0.4340628621023739
1589988300.5017097,-2.24019266182207,-7.1793618200898965,8.197610042967746,0.4188888888888889,0.4355555555555555,-0.6877777777777778,-0.003389539097392311,0.03730633500380366,-0.24802255982884253
1589988300.5117097,-0.015231945874393292,-3.546771878217385,8.473141638476248,0.41994021996698866,0.43526351914497224,-0.6877777777777778,0.013720722756379969,-0.03129274079170014,0.13986648658037895
1589988300.5217097,-0.3406697512483393,-4.590068486875258,8.801423106876175,0.4388888888888889,0.43,-0.6877777777777778,0.013656972526775283,0.006397218575420257,-0.013333206314864772
1589988300.5317097,0.05022001747802396,-4.616711047139259,8.971580733048887,0.4388888888888889,0.43,-0.6877777777777778,-0.021682708082530693,-0.01487938496083314,-0.011032738684284952
1589988300.5417097,-0.14657227507255724,-4.46559960496614,8.442341784908095,0.4388888888888889,0.43,-0.6877777777777778,-0.0060649760591708285,0.005447975997094472,0.0003615509557028825
1589988300.5517097,-0.032494581803706485,-4.518503250917775,8.590997832721483,0.4388888888888889,0.43,-0.6877777777777778,-0.011182788621179444,-0.0022360848974116833,-0.002181661564992912
1589988300.5617096,-0.06341368481578133,-4.499951789110531,8.603365473926312,0.4388888888888889,0.43,-0.6877777777777778,-0.0010645358213544082,-0.002910635084066686,-0.002181661564992912
1589988300.5717096,-0.06471642494988798,-4.52820893762528,8.694059662775617,0.4236053138387769,0.437641787525056,-0.6877777777777778,0.011032040782488622,0.0025626355984505822,0.0003191075546956383
1589988300.5817096,-0.08638702174671473,-4.439634608675427,8.701569717409003,0.4188888888888889,0.44,-0.6877777777777778,0.00519141071947069,0.004100579936974234,-0.0006967159929790715
1589988300.5917096,-0.06196406045459955,-4.5090179697727,8.6390179697727,0.4188888888888889,0.44,-0.6877777777777778,0.0026297550667210173,0.0020745386848648535,0.001753170044480678
1589988300.6017096,-0.07844962426142991,-4.50155037573857,8.63,0.4188888888888889,0.44,-0.6877777777777778,-0.0029342528314757815,0.0010062709034930593,-0.0020125418069861186
1589988300.6117096,-0.062409316021951544,-4.517590683978048,8.63,0.4188888888888889,0.44,-0.6877777777777778,0.0005651995661951252,0.00013140780407533263,-0.00026281560815066525
1589988300.6217096,-0.06750189425829264,-4.482490528708537,8.720022731099512,0.4138876260500271,0.44,-0.6877777777777778,0.005182479374485972,0.0016366594367958065,-0.0016366594367958065
1589988300.6317096,-0.0878735798189871,-4.434252840362025,8.710431109185443,0.4122222222222222,0.44,-0.6877777777777778,0.004294371617497,0.0019497051059958561,-0.000742896094000872
1589988300.6417096,-0.0689193313138113,-4.473242006058566,8.627838662627623,0.4122222222222222,0.44,-0.6877777777777778,-0.00616144991362707,0.0,0.0018280135644205167
1589988300.6517096,-0.059586170473621664,-4.5008276590527565,8.610827659052756,0.4122222222222222,0.44,-0.6877777777777778,-0.01181857141302925,0.0,-0.0011359725811043973
1589988300.6617095,-0.05167493445498614,-4.516650131090027,8.626650131090027,0.4122222222222222,0.44,-0.6877777777777778,-0.008366643502340313,0.0,-0.0019989545587766316
1589988300.6717095,-0.08,-4.487866387147839,8.686400838556485,0.4122222222222222,0.44,-0.7022222222222222,0.00786855653518199,0.00023274105770679725,-0.00023274105770679725
1589988300.6817095,-0.07995346353371986,-4.46990692706744,8.73958117180348,0.4122222222222222,0.44,-0.7022222222222222,0.009812400701475408,0.002181661564992912,-0.002181661564992912
1589988300.6917095,-0.06888917520664434,-4.453332474380067,8.648333762809967,0.4122222222222222,0.44,-0.7022222222222222,0.008181371414622966,0.0022422476589205433,-0.002181661564992912
1589988300.7017095,-0.052261293583619105,-4.503216119249142,8.623391940375427,0.4122222222222222,0.44,-0.7022222222222222,1.9179109676591838e-05,0.0031491579150256964,-0.002181661564992912
1589988300.7117095,-0.05556735082652246,-4.504432649173477,8.64226940330609,0.4122222222222222,0.44,-0.7022222222222222,-0.0016981345483492345,0.0020578848157838106,-0.0027889653308456907
1589988300.7217095,-0.0653934899052328,-4.505393489905233,8.670786979810465,0.4080272856292634,0.44,-0.6902366890994827,0.00017169236049181975,0.001679169263867639,-0.002684153866118185
1589988300.7317095,-0.07948977388407318,-4.453061356695561,8.698979547768145,0.4044444444444445,0.44,-0.68,0.006322356553664098,-0.0009238596765104791,-0.001146487817825115
1589988300.7417095,-0.06116764437796526,-4.4876647112440695,8.615254399700843,0.4044444444444445,0.44,-0.68,0.0044906933730351675,-0.001090830782496456,-0.001090830782496456
1589988300.7517095,-0.06693587241300487,-4.469192382760985,8.630807617239014,0.4044444444444445,0.44,-0.68,-0.003959126314745229,0.000422341843818281,-0.001090830782496456
1589988300.7617095,-0.07,-4.483110350028279,8.632296549990574,0.4044444444444445,0.44,-0.68,-0.006795499437304714,0.00025051474232597865,-0.0027714628628374106
1589988300.7717094,-0.07,-4.503672035370283,8.650508053055423,0.41431869221187084,0.44,-0.67392353983543,-0.002070821582593343,0.0007456938520642322,-0.0017811046433609035
1589988300.7817094,-0.08852715118149644,-4.500736424409252,8.678527151181497,0.4188888888888889,0.44,-0.6711111111111111,0.00808399472829676,0.001090830782496456,-8.033144145936093e-05
1589988300.7917094,-0.07,-4.47,8.641364177003181,0.4188888888888889,0.44,-0.6711111111111111,0.009743072729075989,0.002107257251600795,0.001016426469104339
1589988300.8017094,-0.07,-4.470722308970936,8.680361154485468,0.4188888888888889,0.44,-0.6711111111111111,0.007320648733486894,0.0,-0.001130226625494993
1589988300.8117094,-0.07,-4.484806830201984,8.687403415100992,0.4188888888888889,0.44,-0.6711111111111111,0.0011751170072659906,0.0,-0.001898418091272606
1589988300.8217094,-0.08,-4.509499116919816,8.68025044154009,0.4388888888888889,0.44,-0.6877777777777778,-0.002017747960304112,0.002181661564992912,-0.001063511848381656
1589988300.8317094,-0.08,-4.494683504062169,8.687658247968916,0.4388888888888889,0.44,-0.6877777777777778,0.002830650009697533,0.002181661564992912,-0.00025544552004804855
1589988300.8417094,-0.060590181288871246,-4.479704909355565,8.631475453222178,0.4388888888888889,0.44,-0.6877777777777778,0.002085093377419784,0.0010264519907810373,0.0010264519907810373
1589988300.8517094,-0.07909090909090909,-4.470454545454546,8.677727272727273,0.4388888888888889,0.44,-0.6877777777777778,-0.0009420811303378486,-0.000991664347724051,-0.000991664347724051
1589988300.8617094,-0.06414549791293978,-4.49378175313059,8.68,0.4388888888888889,0.44,-0.6877777777777778,-0.004549746566040376,-0.00022610183661047592,-0.001955559728382436
1589988300.8717093,-0.06677188534101165,-4.520315656023035,8.666456229317976,0.4306121401387636,0.44,-0.6877777777777778,-0.004715455813931078,0.0007386980985512015,3.443273066069258e-05
1589988300.8817093,-0.07,-4.5206934937426535,8.66,0.4266666666666667,0.44,-0.6877777777777778,0.0027429533221206602,7.564843219552957e-05,7.564843219552957e-05
1589988300.8917093,-0.07,-4.4811129503407985,8.6308347127556,0.4266666666666667,0.44,-0.6877777777777778,0.007514411428361906,0.0010604797702181345,0.0010604797702181345
1589988300.9017093,-0.07,-4.486741127486617,8.636741127486617,0.4266666666666667,0.44,-0.6877777777777778,0.007635815477475192,0.001090830782496456,0.001090830782496456
1589988300.9117093,-0.07670883782722909,-4.483291162172772,8.686961864790604,0.4266666666666667,0.44,-0.6877777777777778,0.005440353432459755,-0.0018364519441907937,0.00035901010082464355
1589988300.9217093,-0.07405807365439095,-4.48,8.71,0.4108215297450425,0.44462149826880704,-0.6877777777777778,-0.0008219858021078106,-0.0006798378814425509,-0.0006481636165117043
1589988300.9317093,-0.07811121539183483,-4.488111215391835,8.685666353824496,0.4,0.4477777777777778,-0.6877777777777778,-0.0008241377568368345,-0.0015635582473652865,-0.001090830782496456
1589988300.9417093,-0.08,-4.480313968055121,8.602511744440964,0.4,0.4477777777777778,-0.6877777777777778,0.0,-6.849720384921381e-05,0.0010223335786472422
1589988300.9517093,-0.08,-4.470258016690978,8.668193883163156,0.4,0.4477777777777778,-0.6877777777777778,0.002125371055209623,0.002125371055209623,0.0021535163101012674
1589988300.9617093,-0.07200281811421191,-4.493991545657364,8.677997181885788,0.4,0.4477777777777778,-0.6877777777777778,-0.0030524817395515135,0.002181661564992912,-0.0013077673047033715
1589988300.9717093,-0.07,-4.5,8.698857006928131,0.39266671952794885,0.44044449730572655,-0.6793968858097192,-0.004363323129985824,0.0011531713838451576,-0.0011531713838451576
1589988300.9817092,-0.07700979104268474,-4.5,8.650931462701207,0.3922222222222223,0.44,-0.6788888888888889,-0.0028340239603401344,0.001090830782496456,-0.001090830782496456
1589988300.9917092,-0.07027450827044149,-4.509725491729558,8.581372541352208,0.3922222222222223,0.44,-0.6788888888888889,0.007366317613172505,0.0032126039331998825,-0.0021517173578481687
1589988301.0017092,-0.07363148857482499,-4.506368511425175,8.5945259542993,0.3922222222222223,0.44,-0.6788888888888889,0.007239681525104864,0.0036686262998596965,-0.002181661564992912
1589988301.0117092,-0.07732479196935677,-4.502675208030643,8.609299167877426,0.3922222222222223,0.44,-0.6788888888888889,0.006836804621919473,0.004071503203045087,-0.002181661564992912
1589988301.0217092,-0.07459744871734966,-4.49459744871735,8.6416102051306,0.39762477350487263,0.44,-0.6851918653853143,0.005071667384196059,0.0028900058192031473,-0.0018869981028363765
1589988301.0317092,-0.06,-4.482510143296044,8.694979713407912,0.4122222222222222,0.44,-0.7022222222222222,0.000543202467336177,-0.001090830782496456,-0.001090830782496456
1589988301.0417092,-0.06261518358813536,-4.49,8.666924082059323,0.4122222222222222,0.44,-0.7022222222222222,-0.0009481946445055762,-0.0008055585065146963,-0.0016613753344599754
1589988301.0517092,-0.07357637527766889,-4.49,8.612118123611655,0.4122222222222222,0.44,-0.7022222222222222,-0.0003503543791162014,0.00039012202426405313,-0.004052736396017474
1589988301.0617092,-0.0847624663996928,-4.480475067200614,8.6466745295957,0.4122222222222222,0.44,-0.7022222222222222,0.0005195044949389973,0.0016103352774354531,-0.0033761359327262905
1589988301.0717092,-0.08491402050151925,-4.477628969247721,8.72,0.4139175487217158,0.44,-0.6962885794739947,0.000536036482887587,0.002181661564992912,-0.0013682279323008904
1589988301.0817091,-0.07557748171892217,-4.491633777421617,8.72,0.41702972831591484,0.44,-0.6853959508942981,-0.0004824219077153014,0.002181661564992912,-0.0018774571276023346
1589988301.0917091,-0.06418171168687982,-4.51163657662624,8.632725675303197,0.4188888888888889,0.44,-0.6788888888888889,-0.00045615398315736937,0.002181661564992912,-0.002816338364331999
1589988301.1017091,-0.06283966731133828,-4.511480998065985,8.581358669245352,0.4188888888888889,0.44,-0.6788888888888889,0.0012390386061026978,0.002181661564992912,-0.002962732695963694
1589988301.111709,-0.06683564684698418,-4.499493059459048,8.597342587387937,0.4188888888888889,0.44,-0.6788888888888889,0.002982613599586072,0.002181661564992912,-0.00252683894759285
1589988301.121709,-0.07,-4.486758352623696,8.624047138630653,0.4188888888888889,0.4392796339163768,-0.6805697430840096,0.004363323129985824,0.0020637919401905206,-0.0018280526905857385
1589988301.131709,-0.07,-4.471182179418937,8.691543889184606,0.4188888888888889,0.43581826209309715,-0.6886462773383288,0.004363323129985824,0.001497426300015622,-0.00012895577006104188
1589988301.141709,-0.06539090802851467,-4.4876545518289115,8.666254528456236,0.4188888888888889,0.43333333333333335,-0.6944444444444444,0.0018494534290590843,-0.0004174910380595879,0.000588056842311108
1589988301.151709,-0.06631465420392757,-4.49474138318429,8.586314654203928,0.4188888888888889,0.43333333333333335,-0.6944444444444444,-0.0017796527011429396,0.0012624480282395064,-0.0006888219186464836
1589988301.161709,-0.06633957234579226,-4.4836604276542085,8.633925131850493,0.4188888888888889,0.43333333333333335,-0.6944444444444444,-0.0001852079838373581,0.002074620198796036,-0.001090830782496456
1589988301.171709,-0.06032847970648934,-4.489671520293511,8.70605824352213,0.4188888888888889,0.43333333333333335,-0.6944444444444444,0.003093334459857384,0.00010749473257919097,-0.001090830782496456
1589988301.181709,-0.07116835197025603,-4.501168351970256,8.698831648029744,0.42571399287071204,0.4370561173234187,-0.7012695484262675,0.001445075029652834,0.0012182782118910227,-0.001090830782496456
1589988301.191709,-0.08,-4.511579143611389,8.672629420274724,0.4311111111111111,0.44,-0.7066666666666667,0.0,0.0016648880266072921,-0.000918572936367916
1589988301.201709,-0.08,-4.5178347178928835,8.603818103178273,0.4311111111111111,0.44,-0.7066666666666667,0.0,-0.0003822438699272808,-0.00023619563752305846
1589988301.211709,-0.07366130448851292,-4.5009839134655385,8.64338695511487,0.4311111111111111,0.44,-0.7066666666666667,0.0027657776739208897,-0.00039938636401623355,0.0
1589988301.221709,-0.045639757349510035,-4.473759838233007,8.712480323533986,0.4275021862740015,0.44,-0.6777952679697896,0.006134849966801657,0.0017715268368158341,-0.0017715268368158341
1589988301.231709,-0.07591795897948975,-4.47,8.666123061530765,0.4266666666666667,0.44,-0.6711111111111111,0.0026269431650514955,0.0012021511825111018,-0.0012021511825111018
1589988301.241709,-0.06698798907160163,-4.483012010928398,8.601445950822207,0.4266666666666667,0.44,-0.6711111111111111,-0.0020765090538702575,0.001090830782496456,-0.00038113567935259436
1589988301.251709,-0.05214389587726315,-4.505712208245473,8.617136624736421,0.4266666666666667,0.44,-0.6711111111111111,-0.002649387088470088,0.00023386276173858805,-0.0025709040622736044
1589988301.261709,-0.0701768821718444,-4.51,8.650176882171845,0.4266666666666667,0.44,-0.6711111111111111,-0.0007143572871361249,0.0,-0.0018051880696325808
1589988301.271709,-0.06436582708453502,-4.4865487406268025,8.699085432288664,0.4205867105328748,0.43478860902817834,-0.6884824143505166,0.0025581355612592335,0.0008527118537530779,-0.00023811892874337805
1589988301.281709,-0.06874514587274719,-4.488745145872747,8.692509708254505,0.4188888888888889,0.43333333333333335,-0.6933333333333334,-0.0005432973786764187,0.0020447782140379026,-0.0009539474315414467
1589988301.291709,-0.07667172895084161,-4.49,8.616610981540742,0.4188888888888889,0.43333333333333335,-0.6933333333333334,-0.001090830782496456,0.0007261161025827504,-0.002546376244906618
1589988301.301709,-0.08,-4.494560675942793,8.607364055656758,0.4188888888888889,0.43333333333333335,-0.6933333333333334,-0.001090830782496456,0.0004974925707389558,-0.0022775072060114564
1589988301.311709,-0.0757428203240059,-4.5,8.66128589837997,0.4188888888888889,0.43333333333333335,-0.6933333333333334,0.0007667142723806091,0.001090830782496456,-0.00016205825505792343
1589988301.321709,-0.05515657620041754,-4.485156576200417,8.709791231732776,0.4117420552076085,0.43333333333333335,-0.6823382045929018,0.003272492347489368,0.0005511086625556207,0.001090830782496456
1589988301.331709,-0.05467316052165513,-4.477336580260828,8.737336580260829,0.4044444444444445,0.43333333333333335,-0.6711111111111111,0.005673382623519343,0.001600593517353317,-0.0005097627348568611
1589988301.341709,-0.06,-4.491802676199863,8.675085280900754,0.4044444444444445,0.43333333333333335,-0.6711111111111111,0.003970040192048962,0.0008941893135280248,-0.0017345669082288995
1589988301.351709,-0.0668071794470731,-4.4931928205529275,8.65042153834122,0.4044444444444445,0.43333333333333335,-0.6711111111111111,-0.0015310788764293514,0.001485096176568905,-0.002181661564992912
1589988301.3617089,-0.07,-4.503103421522228,8.66,0.4044444444444445,0.43333333333333335,-0.6711111111111111,-0.003987173125113026,0.0007523000097455967,-0.0014669807873692543
1589988301.3717089,-0.07,-4.502452918579594,8.690188325681627,0.42121573648979255,0.43333333333333335,-0.6769810633269829,-0.00600984087626315,-0.0008232588731386633,-0.0002675719093577927
1589988301.3817089,-0.062391697355205895,-4.492391697355206,8.684783394710411,0.4266666666666667,0.43333333333333335,-0.6788888888888889,-0.0007354251857353078,-0.001920767855245517,0.0008299370727490612
1589988301.3917089,-0.06,-4.4826647248126665,8.621317798501327,0.4266666666666667,0.43333333333333335,-0.6788888888888889,0.0018909851797391055,0.0010189560239776858,0.0002906763852538065
1589988301.4017088,-0.054092400957602906,-4.485907599042397,8.594092400957603,0.4266666666666667,0.43333333333333335,-0.6788888888888889,0.0002484042991649103,0.0008928233877742442,0.0
1589988301.4117088,-0.06057462280820987,-4.493524874269403,8.614674119885823,0.4266666666666667,0.43333333333333335,-0.6788888888888889,-0.0007063266467469746,0.00038450413574948135,-0.00038450413574948135
