time,acc_x,acc_y,acc_z,mag_x,mag_y,mag_z,gyr_x,gyr_y,gyr_z
1589988357.704557,-3.94,-0.84,8.93,0.3,-0.3711111111111111,-0.6088888888888889,-0.002181661564992912,0.002181661564992912,-0.009817477042468105
1589988357.714557,-3.933475594800098,-0.833475594800098,8.954786607799853,0.30212397460005996,-0.3732350857111711,-0.6113990406889598,-0.0009012664927248741,-0.00199209727522133,-0.004932015999300569
1589988357.724557,-3.9396125337705223,-0.8465375112568406,8.943849954972638,0.31222222222222223,-0.38333333333333336,-0.6233333333333333,-0.0011330967915256904,-0.0007131318519878924,-0.006502718685949501
1589988357.734557,-3.9234040906026024,-0.84,8.915534550358366,0.31222222222222223,-0.38333333333333336,-0.6233333333333333,-0.002529834984344289,-0.0014853147262901573,-0.005105980493130902
1589988357.744557,-3.9272511990938215,-0.831753597281464,8.826492805437072,0.31222222222222223,-0.38333333333333336,-0.6233333333333333,-0.0004911354538136908,-0.004663170794327207,-0.006544984694978735
1589988357.754557,-3.9205308961942436,-0.8105308961942437,8.87,0.31222222222222223,-0.38333333333333336,-0.6233333333333333,0.0010039630958477816,-0.00545415391248228,-0.006458117008330061
1589988357.764557,-3.9351747524180185,-0.8312063118954953,8.878444183268467,0.31463484601321295,-0.3818589521277279,-0.6215908828176178,-0.002181661564992912,-0.005190977482702683,-0.0035356687772689645
1589988357.7745569,-3.902849986513044,-0.839287503371739,8.935012523602174,0.3307972289657003,-0.37198194032343007,-0.6099180506852658,-0.002181661564992912,-0.0034279349983957646,-0.005298711261575884
1589988357.7845569,-3.924197233755587,-0.83,8.875493084388967,0.3322222222222222,-0.3711111111111111,-0.6088888888888889,-0.0012321861585373054,-0.0017238143868001938,-0.00545415391248228
1589988357.7945569,-3.903300354924579,-0.83,8.846699645075422,0.3322222222222222,-0.3711111111111111,-0.6088888888888889,-5.396079514124194e-06,-0.0018108565314752616,-0.00545415391248228
1589988357.8045568,-3.8924823121771066,-0.8324823121771064,8.877376185239745,0.3322222222222222,-0.3711111111111111,-0.6088888888888889,-0.001369326804626856,0.00163238728940716,-0.00545415391248228
1589988357.8145568,-3.901698949686096,-0.84,8.93,0.32561519566518227,-0.3711111111111111,-0.6088888888888889,0.001646810767148314,0.0030871656859387487,-0.005083500589381041
1589988357.8245568,-3.91,-0.8350850423461889,8.927542521173095,0.2933333333333333,-0.3711111111111111,-0.6088888888888889,0.004363323129985824,0.002181661564992912,-0.003272492347489368
1589988357.8345568,-3.91,-0.820406313431791,8.920203156715896,0.2933333333333333,-0.3711111111111111,-0.6088888888888889,0.004363323129985824,0.002181661564992912,-0.003272492347489368
1589988357.8445568,-3.9,-0.8236420773295468,8.877284154659094,0.2933333333333333,-0.3711111111111111,-0.6088888888888889,0.0017843725586627005,-0.0017843725586627005,-0.008430393490135616
1589988357.8545568,-3.9,-0.8272696564208797,8.892730343579121,0.2933333333333333,-0.3711111111111111,-0.6088888888888889,0.001686499347075638,-0.001090830782496456,-0.01130664845391606
1589988357.8645568,-3.8993790367801293,-0.8212419264397416,8.901241926439742,0.2954032107329027,-0.371456090677706,-0.6084749134089751,0.003272492347489368,-0.0009553576234898142,-0.015407104113957026
1589988357.8745568,-3.890668314261386,-0.8386633714772278,8.918663371477228,0.32443895246204646,-0.3762953809658966,-0.6026677650631462,0.003272492347489368,0.0009450272287561976,-0.017307488966203037
1589988357.8845568,-3.908056583749644,-0.8473144720834519,8.853886832500711,0.32666666666666666,-0.37666666666666665,-0.6022222222222222,0.0007978851306340396,0.001969667738083705,-0.019049062781211375
1589988357.8945568,-3.926817515871724,-0.84,8.832277388897934,0.32666666666666666,-0.37666666666666665,-0.6022222222222222,0.000694310330385991,0.0036690127995998327,-0.01641182702436431
1589988357.9045568,-3.9225306130629094,-0.8425306130629096,8.895183678377458,0.32666666666666666,-0.37666666666666665,-0.6022222222222222,0.0019056145022319695,0.0013535203767100843,-0.01362870604693204
1589988357.9145567,-3.9286027806847064,-0.85,8.944191657945881,0.3257351871231375,-0.37666666666666665,-0.6002040165445757,0.0007860048146922438,-0.0007860048146922438,-0.010475008768439953
1589988357.9245567,-3.9173040630437006,-0.8473040630437008,8.967304063043702,0.32,-0.37666666666666665,-0.5877777777777777,-0.0005026685785762504,0.0007967496805363532,-0.001090830782496456
1589988357.9345567,-3.91,-0.84,8.932979623553791,0.32,-0.37666666666666665,-0.5877777777777777,0.0012873285050442405,0.0,-0.0012873285050442405
1589988357.9445567,-3.912996081225508,-0.8340078375489847,8.830972568578554,0.32,-0.37666666666666665,-0.5877777777777777,0.0015280180394642198,0.0006536435255286922,-0.0012011962766998736
1589988357.9545567,-3.917911580205118,-0.822088419794882,8.88,0.32,-0.37666666666666665,-0.5877777777777777,-0.00022781125990322282,0.002637284084799358,0.0015464533023029016
1589988357.9645567,-3.909253982688357,-0.8307460173116432,8.882984069246573,0.3185079653767135,-0.37625221260464264,-0.5893527032134691,-0.001090830782496456,0.004526078859548968,0.003109736617926224
1589988357.9745567,-3.9024322870256727,-0.8424322870256729,8.922432287025673,0.3,-0.3711111111111111,-0.6088888888888889,-0.0005601880706023008,0.006544984694978735,0.001090830782496456
1589988357.9845567,-3.9094840195699323,-0.8494840195699322,8.929484019569932,0.3,-0.3711111111111111,-0.6088888888888889,0.0009782613152397228,0.006544984694978735,0.001090830782496456
1589988357.9945567,-3.92,-0.8423909646503229,8.851954823251615,0.3,-0.3711111111111111,-0.6088888888888889,-0.0013992202128629708,0.0027032891330795394,0.0005692032144098287
1589988358.0045567,-3.92,-0.8496732411973054,8.888366205986527,0.3,-0.3711111111111111,-0.6088888888888889,0.0009838992143671593,0.004292035417899626,-0.0010195430704102576
1589988358.0145566,-3.9006898325794763,-0.8496550837102618,8.931034748869214,0.3,-0.3711111111111111,-0.6091571571142409,0.0032348678168662723,-0.0010532062518733602,0.0010532062518733602
1589988358.0245566,-3.9186722116229715,-0.8406638941885142,8.958008317434459,0.3,-0.3711111111111111,-0.6161503045200445,0.002254081186708094,-7.241962171518194e-05,7.241962171518194e-05
1589988358.0345566,-3.9175322825674135,-0.8224677174325864,8.877790543106723,0.3,-0.3711111111111111,-0.6166666666666667,0.0,0.004915781484888605,0.0043774090572949315
1589988358.0445566,-3.9074213995302913,-0.8351572009394176,8.81257860046971,0.3,-0.3711111111111111,-0.6166666666666667,-0.0011251267072472852,0.0029912106706775467,0.0013721124593082772
1589988358.0545566,-3.9,-0.845292728193015,8.834121815420955,0.3,-0.3711111111111111,-0.6166666666666667,-0.0035930975816902836,0.002438403414424759,0.002181661564992912
1589988358.0645566,-3.9,-0.8303474206647615,8.881042261994285,0.3,-0.371535736368042,-0.6161648368175666,-0.001166626213615927,0.0031966969163698972,0.002105866133873441
1589988358.0745566,-3.9044998059050533,-0.8422499029525267,8.912249902952526,0.3,-0.38333333333333336,-0.6022222222222222,-0.002290786988191071,0.001090830782496456,0.0004908526796491485
1589988358.0845566,-3.9160090759487356,-0.85,8.908027227846208,0.3,-0.38333333333333336,-0.6022222222222222,0.00043781736163779606,0.000873159642210236,0.002399332705279132
1589988358.0945566,-3.907251111493208,-0.85,8.872085185822014,0.3,-0.38333333333333336,-0.6022222222222222,-0.0005997144401718375,0.0002636578541368457,0.0027451766392156763
1589988358.1045566,-3.9268559299172243,-0.85,8.91786017520694,0.3,-0.38333333333333336,-0.6022222222222222,0.0036773934442621645,0.0007478659396346263,0.001776760468220115
1589988358.1145566,-3.914945549544945,-0.85,8.947636126137638,0.3,-0.38333333333333336,-0.6022222222222222,0.001078951535997403,-0.0005513550144977545,0.004375202376484877
1589988358.1245565,-3.9194367280981877,-0.85,8.96,0.31153377878667404,-0.39696416280849356,-0.6022222222222222,0.0,0.003026718615724555,0.002365991863816521
1589988358.1345565,-3.92,-0.85,8.919375564520985,0.31222222222222223,-0.3977777777777778,-0.6022222222222222,0.0017725753896820232,0.0014999169578073443,0.002181661564992912
1589988358.1445565,-3.926113880131739,-0.84,8.805181493157683,0.31222222222222223,-0.3977777777777778,-0.6022222222222222,0.001090830782496456,0.00014130330589234462,0.0023229648708852565
1589988358.1545565,-3.903952693777629,-0.84,8.834729741629827,0.31222222222222223,-0.3977777777777778,-0.6022222222222222,0.001090830782496456,0.0009471067809491236,0.003128768345942036
1589988358.1645565,-3.8809185792198444,-0.84,8.878162841560313,0.31222222222222223,-0.3977777777777778,-0.6022222222222222,5.01007244583932e-05,0.002131560840534519,0.0011910322314132422
1589988358.1745565,-3.91,-0.83,8.91,0.32,-0.37666666666666665,-0.6233333333333333,-0.002181661564992912,-0.0004169610327285652,0.0019731810486286294
1589988358.1845565,-3.91,-0.8350831900996906,8.896444826400826,0.32,-0.37666666666666665,-0.6233333333333333,-0.001442341533789745,-0.0012575115259889531,0.0007211707668948725
1589988358.1945565,-3.91,-0.8567107253351667,8.838771399106221,0.32,-0.37666666666666665,-0.6233333333333333,0.001703255957461465,0.0026744853380750596,-0.0008516279787307325
1589988358.2045565,-3.9139415658024648,-0.8339415658024646,8.911824697407395,0.32,-0.37666666666666665,-0.6233333333333333,0.0006449371962845631,0.003487471412917556,0.001321745303280161
1589988358.2145565,-3.929278897136798,-0.8492788971367974,8.957836691410392,0.32,-0.37666666666666665,-0.6233333333333333,0.0031545021674102176,0.004323993069959441,-0.0020243413248873785
1589988358.2245564,-3.9185325347127686,-0.8270650694255377,8.98,0.3,-0.37666666666666665,-0.6088888888888889,0.002632189824466673,-0.0012509064132521298,-0.001090830782496456
1589988358.2345564,-3.9082170820204336,-0.8117829179795666,8.955039148286069,0.3,-0.37666666666666665,-0.6088888888888889,-0.001868775508407468,-0.002959606290903924,-0.001090830782496456
1589988358.2445564,-3.898551785232831,-0.8185517852328313,8.83855178523283,0.3,-0.37666666666666665,-0.6088888888888889,-0.006086056811559686,-0.006544984694978735,-0.0014067822320351592
1589988358.2545564,-3.8904743288525983,-0.810474328852598,8.830474328852597,0.3,-0.37666666666666665,-0.6088888888888889,-0.009610512037092088,-0.006544984694978735,-0.0031690098448013595
1589988358.2645564,-3.89,-0.8285972019407415,8.867194403881483,0.3,-0.37666666666666665,-0.6088888888888889,-0.009817477042468105,-0.005192558005294496,-0.0005676389681208891
1589988358.2745564,-3.8976260910693554,-0.8552521821387109,8.90525218213871,0.3093207779736567,-0.36310917143225696,-0.6038048281759852,-0.008153722064753254,-0.0010358131745561222,0.001090830782496456
1589988358.2845564,-3.914294068012794,-0.8528529659936029,8.88855889798081,0.31222222222222223,-0.3588888888888889,-0.6022222222222222,-0.0037377131286117546,0.004677722818636124,0.001090830782496456
1589988358.2945564,-3.92,-0.8392434626865671,8.79529576119403,0.31222222222222223,-0.3588888888888889,-0.6022222222222222,0.0010083053635364853,0.010330629892244765,0.0022641869839528828
1589988358.3045564,-3.9186396502438203,-0.8286396502438204,8.866121573902808,0.31222222222222223,-0.3588888888888889,-0.6022222222222222,-0.0002225867083503362,0.002827318930788696,0.003049905639139032
1589988358.3145564,-3.901007650916428,-0.8110076509164285,8.94546557087607,0.31222222222222223,-0.3588888888888889,-0.6022222222222222,-0.00310761585184173,-0.0029427393561940922,0.00016487649564763795
1589988358.3245564,-3.9,-0.8431852376532656,8.962123491768844,0.32,-0.37666666666666665,-0.6022222222222222,-0.007983271005650081,-0.010049114061251365,-0.00011581850939162949
1589988358.3345563,-3.8981389522036434,-0.8690694761018217,8.96883371322186,0.32,-0.37666666666666665,-0.6022222222222222,-0.011314325469757143,-0.011796129785064724,-0.001192335193694602
1589988358.3445563,-3.8835432289944842,-0.8617716144972422,8.881259373966905,0.32,-0.37666666666666665,-0.6022222222222222,-0.014498618303626882,-0.010203983368129856,-0.0019884084021620364
1589988358.3545563,-3.89,-0.848897463020445,8.87,0.32,-0.37666666666666665,-0.6022222222222222,-0.009216136404398459,-0.0029116879646475797,-0.002671151709419721
1589988358.3645563,-3.89,-0.8416241524615464,8.87,0.32,-0.37666666666666665,-0.6022222222222222,-0.005249160880246962,-0.0005315026501566825,0.0012958238147317749
1589988358.3745563,-3.890138014203403,-0.843425342802269,8.895069007101702,0.3,-0.38333333333333336,-0.6088888888888889,-0.0034517883088805404,0.0012701267438876283,0.005259802936941686
1589988358.3845563,-3.8378545859706517,-0.8078545859706517,8.86249105089728,0.3,-0.38333333333333336,-0.6088888888888889,-0.004129294763544534,0.0017136048321103323,0.010870604691453909
1589988358.3945563,-3.82,-0.7879383675334986,8.805154081166254,0.3,-0.38333333333333336,-0.6088888888888889,-0.001956772349327521,-0.0026314399963236934,0.020422066339765076
1589988358.4045563,-3.8217286928128824,-0.772593039219324,8.85691477125153,0.3,-0.38333333333333336,-0.6088888888888889,-0.0002828567000659153,-0.006544984694978735,0.027459340695788675
1589988358.4145563,-3.8372913806537787,-0.7959370709806687,8.919165522615115,0.3,-0.38333333333333336,-0.6088888888888889,-0.002829295543350887,-0.006544984694978735,0.029156966591311992
1589988358.4245563,-3.8789606153984573,-0.8077921230796915,8.968960615398457,0.3,-0.3893938735064266,-0.5803177709300203,-0.0015725148042236748,-0.0048450071517130424,0.029452431127404314
1589988358.4345562,-3.900896668680922,-0.8504483343404612,8.967534161127464,0.3,-0.3911111111111111,-0.5722222222222222,-0.0031991338125755696,-0.004338870285014558,0.018372953387640886
1589988358.4445562,-3.9336001247539034,-0.8668000623769517,8.877599656926765,0.3,-0.3911111111111111,-0.5722222222222222,-0.0005235885691934413,-0.0034470218705538484,0.012130014486415923
1589988358.4545562,-3.91717618905175,-0.85,8.911411905474125,0.3,-0.3911111111111111,-0.5722222222222222,-0.0031954848498318257,0.000385037488287711,0.004440330627643366
1589988358.4645562,-3.8858099012862697,-0.85,8.927095049356865,0.3,-0.3911111111111111,-0.5722222222222222,-0.0023401020441511334,0.004661951516691171,0.005295713433324058
1589988358.4745562,-3.8686832252762304,-0.8286832252762304,8.939670806319057,0.3055555555555556,-0.37666666666666665,-0.6088888888888889,7.181892011505294e-05,0.004255594749813244,0.007851272237820351
1589988358.4845562,-3.830382613459958,-0.7903826134599581,8.930095653364988,0.3055555555555556,-0.37666666666666665,-0.6088888888888889,0.0021607932379969293,0.0011221332729904297,0.014118195191465977
1589988358.4945562,-3.8072117442604956,-0.7140391475349858,8.800866550809475,0.3055555555555556,-0.37666666666666665,-0.6088888888888889,-0.00030415151901236597,-0.0005663779401737291,0.022466843785804852
1589988358.5045562,-3.7571423309267717,-0.660714417268307,8.874286503609842,0.3055555555555556,-0.37666666666666665,-0.6088888888888889,-0.013401692729084019,-0.014181001076900386,0.036543132570300965
1589988358.5145562,-3.726242817150435,-0.6684392957123914,8.920635774274349,0.3055555555555556,-0.37666666666666665,-0.6088888888888889,-0.016772306808224204,-0.025978150353891026,0.05423885648578693
1589988358.5245562,-3.6379088098918086,-0.6386058732612055,8.989302936630603,0.31222222222222223,-0.37666666666666665,-0.5877777777777777,-0.021410125230052927,-0.037848624785568684,0.07874162846441998
1589988358.5345562,-3.610125855597262,-0.620083903731508,8.980041951865754,0.31222222222222223,-0.37666666666666665,-0.5877777777777777,-0.030502075762007877,-0.04795079204329641,0.0959153128025571
1589988358.5445561,-3.5696625450798556,-0.6696625450798558,8.912024729520866,0.31222222222222223,-0.37666666666666665,-0.5877777777777777,-0.03272492347489368,-0.05345070834232633,0.11774959112799584
1589988358.5545561,-3.557165773178739,-0.6597165773178739,8.969716577317875,0.31222222222222223,-0.37666666666666665,-0.5877777777777777,-0.03247759052599701,-0.05332704186787799,0.14791140462787533
1589988358.5645561,-3.382860823671196,-0.6422860823671197,8.952286082367118,0.31222222222222223,-0.37666666666666665,-0.5877777777777777,-0.01726661416885156,-0.04572155368930528,0.1878402175653821
1589988358.574556,-2.3778661376914574,-1.0187363808621506,8.968058582030634,0.31222222222222223,-0.3711111111111111,-0.6088888888888889,-0.006259272463735092,-0.021647750463068233,0.25523341068326166
1589988358.584556,-2.1708996526132953,-1.1677522501184272,8.934943944418126,0.31222222222222223,-0.3711111111111111,-0.6088888888888889,0.017220330474573574,0.03705125688270343,0.2362691160023201
1589988358.594556,-1.6572206066480877,-0.887362171331637,8.663390484268348,0.31222222222222223,-0.3711111111111111,-0.6088888888888889,0.02858594342598835,0.049744972144129,0.10217313952636162
1589988358.604556,-1.834679496081738,-1.0140678504116656,8.975504811030653,0.31222222222222223,-0.3711111111111111,-0.6088888888888889,-0.006568292397642136,0.02250712527748818,-0.16159009515061612
1589988358.614556,-2.034388255133419,-1.2054554111695268,9.050395595675033,0.31222222222222223,-0.3711111111111111,-0.6088888888888889,0.00795493839620732,0.01706091372979463,-0.2823144511244896
1589988358.624556,-2.099541472910133,-0.9927511625392019,8.783209689629068,0.2935498600146594,-0.3831932278336518,-0.6088888888888889,0.05510718566987206,0.0541038855936168,-0.351713123416061
1589988358.634556,-2.2714181929476958,-0.9492909035261521,8.93638186826463,0.2933333333333333,-0.38333333333333336,-0.6088888888888889,0.025104957630399233,0.03982721078585621,-0.42461087682973303
1589988358.644556,-2.284930975047923,-0.9425345124760386,8.997189387715652,0.2933333333333333,-0.38333333333333336,-0.6088888888888889,0.004468735489466424,0.024350044180156596,-0.4688313528460176
1589988358.654556,-2.3081013882174184,-0.94,9.038101388217418,0.2933333333333333,-0.38333333333333336,-0.6088888888888889,0.011536671257619553,0.03236600933387475,-0.5337962993209454
1589988358.664556,-2.3253302172765142,-0.932334891361743,8.948018696340915,0.2933333333333333,-0.38333333333333336,-0.6088888888888889,0.025631974070642966,0.04468549164731756,-0.5748241533045476
1589988358.674556,-2.3878130318892707,-0.9685420212595137,8.92,0.28583905142176125,-0.37690966312341434,-0.616383170800461,0.019992795905264458,0.04799655442984406,-0.6393807297927226
1589988358.684556,-2.4110397511471633,-0.9910397511471635,8.898960248852838,0.2855555555555556,-0.37666666666666665,-0.6166666666666667,0.01657484632395074,0.04646650054935133,-0.6811899010007272
1589988358.694556,-2.436766091051805,-1.0251491365777081,8.755871271585558,0.2855555555555556,-0.37666666666666665,-0.6166666666666667,0.020758321421384677,0.05130158333128544,-0.7374529824738442
1589988358.704556,-2.389287313796125,-1.0155106610846072,8.773468016746179,0.2855555555555556,-0.37666666666666665,-0.6166666666666667,0.026558240722009414,0.05394041925052332,-0.7798093416403349
1589988358.714556,-2.3914413557229923,-1.01,8.868618304317637,0.2855555555555556,-0.37666666666666665,-0.6166666666666667,0.0260227112607982,0.05532116881952601,-0.8265580557471618
1589988358.724556,-2.374142743388793,-1.01,8.925857256611206,0.31213106929485124,-0.3730753810262213,-0.6073293240015087,0.027204549857099542,0.0563375171938796,-0.8667352994115645
1589988358.734556,-2.3993285747901796,-1.0394964310926347,8.97932857479018,0.32666666666666666,-0.3711111111111111,-0.6022222222222222,0.03157916184587101,0.06315832369174201,-0.9242920922699784
1589988358.744556,-2.4658828819297502,-1.06196096064325,8.899476477641416,0.32666666666666666,-0.3711111111111111,-0.6022222222222222,0.034029661880682266,0.06566375457307948,-0.9553683799419385
1589988358.754556,-2.4732102950408037,-1.103579409918393,8.945553672316384,0.32666666666666666,-0.3711111111111111,-0.6022222222222222,0.03032790329025536,0.06562494138235757,-1.0012740545890575
1589988358.764556,-2.47,-1.140320044456336,8.96,0.32666666666666666,-0.3711111111111111,-0.6022222222222222,0.0286255801819135,0.06710354884076898,-1.0343868732824313
1589988358.774556,-2.4504993862652626,-1.1597503068673687,8.979500613734738,0.34616728040140404,-0.3591940693843272,-0.6228062033866673,0.03155238080582157,0.0740130694366077,-1.0736784391887775
1589988358.784556,-2.4878218231092535,-1.2072772788865667,8.847623619117613,0.3466666666666667,-0.3588888888888889,-0.6233333333333333,0.029571232247511757,0.08139650476685814,-1.106442657654734
1589988358.794556,-2.522129518365756,-1.2228518073463024,8.762889155922185,0.3466666666666667,-0.3588888888888889,-0.6233333333333333,0.03225626054021648,0.08251326604043724,-1.1258080088464752
1589988358.804556,-2.54,-1.2371217263925114,8.762730358355068,0.3466666666666667,-0.3588888888888889,-0.6233333333333333,0.033038894420043256,0.08290313946973066,-1.1526457610004421
1589988358.814556,-2.5028668171557564,-1.2548532731376976,8.839413092550789,0.3466666666666667,-0.3588888888888889,-0.6233333333333333,0.03596540498677931,0.08209301909175924,-1.1789960108650464
1589988358.8245559,-2.471221786980041,-1.3069455325498975,8.87877821301996,0.38317985864992016,-0.3265486331322929,-0.6097712905966963,0.03913663188512421,0.0797639234069895,-1.201095950175483
1589988358.8345559,-2.4832452042540507,-1.3232452042540503,8.926358214889175,0.3855555555555555,-0.3244444444444444,-0.6088888888888889,0.040714735821949524,0.08324271625243405,-1.215821385005827
1589988358.8445559,-2.539903534496064,-1.3383172557493441,8.850192931007872,0.3855555555555555,-0.3244444444444444,-0.6088888888888889,0.04145156973486533,0.09052843219309163,-1.2382449287939032
1589988358.8545558,-2.575180569514238,-1.4155417085427136,8.897148185371302,0.3855555555555555,-0.3244444444444444,-0.6088888888888889,0.04145156973486533,0.09254537707459973,-1.2587616660340177
1589988358.8645558,-2.5872874069413863,-1.4664370347069309,8.924574813882773,0.3855555555555555,-0.3244444444444444,-0.6088888888888889,0.040656636953241086,0.08715608704082908,-1.2748101398543874
1589988358.8745558,-2.5784358867029438,-1.503128226594112,8.924217943351472,0.39390741515898486,-0.3244444444444444,-0.6133860440599662,0.03973001441453362,0.08571552557255883,-1.287113202322366
1589988358.8845558,-2.5473509645075745,-1.5275496784974751,8.821854179532822,0.4,-0.3244444444444444,-0.6166666666666667,0.03926990816987242,0.0902933426687188,-1.300869898961298
1589988358.8945558,-2.5734359266647666,-1.5233128146670467,8.76993844400114,0.4,-0.3244444444444444,-0.6166666666666667,0.03489315560420582,0.08798249192498014,-1.3115668314536535
1589988358.9045558,-2.59,-1.5356918742396106,8.77569187423961,0.4,-0.3244444444444444,-0.6166666666666667,0.036148359366019775,0.08703149079000154,-1.324100513418541
1589988358.9145558,-2.583008457750953,-1.546991542249047,8.786991542249046,0.4,-0.3244444444444444,-0.6166666666666667,0.0401388824058335,0.09107975735090897,-1.33178884416736
1589988358.9245558,-2.6208670714220337,-1.6235607285596607,8.847213899990846,0.419979457139661,-0.3026486730193597,-0.6166666666666667,0.04234315092481804,0.09450377889210418,-1.338543952942929
1589988358.9345558,-2.656351688083256,-1.64,8.868783896027752,0.4244444444444445,-0.2977777777777777,-0.6166666666666667,0.04254240051736178,0.09586045249492368,-1.3395402009056478
1589988358.9445558,-2.6525250748200273,-1.6773746258998625,8.810200598560218,0.4244444444444445,-0.2977777777777777,-0.6166666666666667,0.044988564062313344,0.09191616961810219,-1.336278649512379
1589988358.9545557,-2.6096360447270337,-1.7384367463275598,8.86265511949134,0.4244444444444445,-0.2977777777777777,-0.6166666666666667,0.043173078169947435,0.09230016474380832,-1.335176877775662
1589988358.9645557,-2.6,-1.765069279578711,8.88,0.4244444444444445,-0.2977777777777777,-0.6166666666666667,0.04309033498517856,0.09217268204438199,-1.3313413365009445
1589988358.9745557,-2.593561577864367,-1.78965763320345,8.886438422135633,0.43517514800383333,-0.29205473587943703,-0.6281127504633481,0.04328206984704547,0.0916297857297023,-1.3250829321284976
1589988358.9845557,-2.5637739205103043,-1.81,8.908113039744848,0.4577777777777778,-0.28,-0.6522222222222223,0.038117423770713144,0.08897479968171312,-1.3110552933274144
1589988358.9945557,-2.574005635125616,-1.8450140878140409,8.79095210143226,0.4577777777777778,-0.28,-0.6522222222222223,0.039379913293394894,0.08912118227838473,-1.2998302722416857
1589988359.0045557,-2.5751090251115967,-1.8648909748884033,8.764454874442015,0.4577777777777778,-0.28,-0.6522222222222223,0.03876017116296269,0.08944812416470939,-1.2900382210446337
1589988359.0145557,-2.560875573061277,-1.8882488538774456,8.799124426938723,0.4577777777777778,-0.28,-0.6522222222222223,0.03858122747148931,0.08845280358696951,-1.2789312281096294
1589988359.0245557,-2.5545357620441647,-1.9190715240883298,8.819071524088331,0.4723930110311982,-0.26236092538380296,-0.6456705659362062,0.041350288724339705,0.08726646259971647,-1.26805177431351
1589988359.0345557,-2.56,-1.9462175268444752,8.83,0.49,-0.2411111111111111,-0.6377777777777778,0.04254240051736178,0.08549740484992485,-1.2581108354113686
1589988359.0445557,-2.544581527037398,-1.980278981975068,8.799163054074796,0.49,-0.2411111111111111,-0.6377777777777778,0.04254240051736178,0.08346377096728717,-1.2477886863254795
1589988359.0545557,-2.536877717088396,-2.0381440196187715,8.80438858544198,0.49,-0.2411111111111111,-0.6377777777777778,0.04254240051736178,0.08549445535489195,-1.242796849494627
1589988359.0645556,-2.513846423767472,-2.066538394058132,8.859230364348793,0.49,-0.2411111111111111,-0.6377777777777778,0.04182917236669154,0.08688885996789025,-1.242456261263463
1589988359.0745556,-2.5,-2.094958035222895,8.896638690148597,0.5020168317739865,-0.2069093591389959,-0.6627358130006726,0.03872907042568888,0.08363646352081454,-1.242456261263463
1589988359.0845556,-2.4597486531108794,-2.1322010775112967,8.867798922488703,0.5044444444444445,-0.2,-0.6677777777777778,0.0408135218807917,0.08729388029209023,-1.243334409427935
1589988359.0945556,-2.4733539551357735,-2.155569303423849,8.78993813459268,0.5044444444444445,-0.2,-0.6677777777777778,0.03720570087567486,0.08835729338221293,-1.2469437871333122
1589988359.1045556,-2.460911968734734,-2.1918133854421105,8.782725354176844,0.5044444444444445,-0.2,-0.6677777777777778,0.03530335541966947,0.08558105177135863,-1.2499925963840863
1589988359.1145556,-2.4266756648670267,-2.213887389188829,8.79,0.5044444444444445,-0.2,-0.6677777777777778,0.03575468179803029,0.0865382605266582,-1.251606955902507
1589988359.1245556,-2.3813183412420056,-2.2308520734474935,8.79,0.5056502303830548,-0.1946945418701144,-0.6754948077848841,0.037561757635697024,0.09101246597802336,-1.252747249336749
1589988359.1345556,-2.35,-2.298350305498982,8.775824847250508,0.51,-0.17555555555555555,-0.7033333333333334,0.04081617746644581,0.09194748186391206,-1.2552285345192111
1589988359.1445556,-2.343685038758184,-2.322629922483632,8.73842519379092,0.51,-0.17555555555555555,-0.7033333333333334,0.04076271432358082,0.0916297857297023,-1.2562350860647054
1589988359.1545556,-2.3107901595575613,-2.3592098404424386,8.756512300553048,0.51,-0.17555555555555555,-0.7033333333333334,0.037971014469387235,0.09401951021268393,-1.257433636263578
1589988359.1645555,-2.3,-2.3507488108025165,8.814919441460795,0.51,-0.17555555555555555,-0.7033333333333334,0.03778823959742211,0.09560227106973428,-1.2591278782034991
1589988359.1745555,-2.2775920859983048,-2.3803342452030516,8.84448158280034,0.5194611192451603,-0.15264968790937813,-0.7068190088447082,0.038667942234667615,0.09794856824885473,-1.2599095537834066
1589988359.1845555,-2.254986500674966,-2.439973001349933,8.840026998650067,0.5311111111111111,-0.12444444444444445,-0.7111111111111111,0.03818202248323391,0.10090037483299319,-1.2609974394700452
1589988359.1945555,-2.2157510840388186,-2.454916546217909,8.78575108403882,0.5311111111111111,-0.12444444444444445,-0.7111111111111111,0.03601562261326716,0.09930201478894572,-1.263163839340012
1589988359.2045555,-2.1772273707524623,-2.4527726292475376,8.721931573118843,0.5311111111111111,-0.12444444444444445,-0.7111111111111111,0.03490658503988659,0.09826651541617969,-1.2682147961600427
1589988359.2145555,-2.194750486219819,-2.4922553484180066,8.737504862198188,0.5311111111111111,-0.12444444444444445,-0.7111111111111111,0.031279201419604094,0.09983823432963358,-1.2777721730385587
1589988359.2245555,-2.156762459076028,-2.5211749727173514,8.79,0.546324319954731,-0.10522775958934562,-0.7519465664281961,0.030415092269032686,0.10162384323714346,-1.2861379033874265
1589988359.2345555,-2.1243954092089083,-2.5802206585599126,8.797802295395547,0.5522222222222222,-0.09777777777777777,-0.7677777777777778,0.032485191091556405,0.1110490775462586,-1.2908244493257923
1589988359.2445555,-2.154187346489371,-2.6136749385957483,8.71795036842551,0.5522222222222222,-0.09777777777777777,-0.7677777777777778,0.03197907127644413,0.11195469698273229,-1.2945270552696022
1589988359.2545555,-2.1396420943773746,-2.6442863244981005,8.69214316224905,0.5522222222222222,-0.09777777777777777,-0.7677777777777778,0.030971785933491584,0.11523858036807236,-1.298556196641412
1589988359.2645555,-2.1238464198695275,-2.652307160260945,8.73077135895622,0.5522222222222222,-0.09777777777777777,-0.7677777777777778,0.02886494463146607,0.11780972450961726,-1.3023681893338188
1589988359.2745554,-2.1310205049620548,-2.6430615148861647,8.783061514886164,0.5549435687877018,-0.10117946098462735,-0.7677777777777778,0.025734659489395007,0.11769840468698727,-1.3061697259387777
1589988359.2845554,-2.1070723830029765,-2.7413431701602176,8.771584446836806,0.5788888888888889,-0.13111111111111112,-0.7677777777777778,0.020619333709442224,0.12150802148906838,-1.30769320589727
1589988359.2945554,-2.0856474834815235,-2.8056474834815237,8.689172648666286,0.5788888888888889,-0.13111111111111112,-0.7677777777777778,0.013474505259649817,0.12667762975214972,-1.3081886261783724
1589988359.3045554,-2.077811372108159,-2.822188627891841,8.64390568605408,0.5788888888888889,-0.13111111111111112,-0.7677777777777778,0.009391432785012385,0.11765540367647428,-1.3074286236780808
1589988359.3145554,-1.6457049194563846,-2.4119445529937913,7.966119577960141,0.5788888888888889,-0.13111111111111112,-0.7677777777777778,0.005733646442008206,0.11602920884850837,-1.3009599776143879
1589988359.3245554,-1.9726926110965028,-2.857792386127911,9.55266485523125,0.5780895848956152,-0.13750554305730045,-0.7845631616365247,-0.037532680392880574,0.08908139059722796,-1.3004427757519579
1589988359.3345554,-2.069641942521104,-2.938296974295741,9.44049796073224,0.5777777777777777,-0.14,-0.7911111111111111,-0.055960095080757305,0.07577606106496106,-1.2888141898261172
1589988359.3445554,-1.8713848180470936,-2.762507272627477,8.459168999396235,0.5777777777777777,-0.14,-0.7911111111111111,0.07464560014103183,0.1290964911619686,-1.2388593756353568
1589988359.3545554,-1.8681833661157268,-2.8678974253588936,8.500916830578634,0.5777777777777777,-0.14,-0.7911111111111111,0.09298574254479389,0.14826399194620216,-1.213290988625524
1589988359.3645554,-1.95,-3.01,8.98365532469183,0.5777777777777777,-0.14,-0.7911111111111111,-0.004502362814169832,0.08643750952747338,-1.2288556364033034
1589988359.3745553,-1.95,-3.007720625682066,9.000221898872317,0.5585297279818924,-0.15772846691726283,-0.7878186815407623,-0.046224162733554994,0.03543577090075865,-1.234997026250961
1589988359.3845553,-1.9457007387118193,-3.021496306440903,8.678408864541833,0.4933333333333334,-0.21777777777777774,-0.7766666666666666,0.022990200361310182,0.09293555943033012,-1.1942551081565984
1589988359.3945553,-1.9354067866552391,-3.0867457067580863,8.66511856013713,0.4933333333333334,-0.21777777777777774,-0.7766666666666666,0.040778608548380904,0.10227742713779757,-1.1707276708619636
1589988359.4045553,-1.8856461664470638,-3.103387699868238,8.752176916776468,0.4933333333333334,-0.21777777777777774,-0.7766666666666666,0.012984580553629957,0.07576894066881174,-1.159931558227018
1589988359.4145553,-1.8394457370048594,-3.079445737004859,8.698136945957884,0.4933333333333334,-0.21777777777777774,-0.7766666666666666,0.01391964972536473,0.0706016972939206,-1.142240058293539
1589988359.4245553,-1.8762134714426248,-3.1540449048087495,8.676730223945373,0.4837253502562224,-0.15532588777655612,-0.7052072925306534,0.03355101585673102,0.07945415485513521,-1.1123544752688794
1589988359.4345553,-1.8716012425868398,-3.17546832344912,8.7486708086228,0.4755555555555556,-0.10222222222222224,-0.6444444444444445,0.019839298738722137,0.06674502238606975,-1.0954709464237316
1589988359.4445553,-1.8850463894752343,-3.241400765794512,8.703738402631192,0.4755555555555556,-0.10222222222222224,-0.6444444444444445,0.02401851844194985,0.06477693324755175,-1.0737549246027178
1589988359.4545553,-1.8738706837523231,-3.263870683752323,8.634676709380807,0.4755555555555556,-0.10222222222222224,-0.6444444444444445,0.030543261909900768,0.07048177476363532,-1.0485961151275554
1589988359.4645553,-1.5449409895596915,-2.9578543721371684,8.76039367804234,0.4755555555555556,-0.10222222222222224,-0.6444444444444445,0.026794068452906283,0.0669959070354401,-1.0300298517068012
1589988359.4745553,-1.4125525477194452,-2.8152052016609264,7.84763768629092,0.48922922858481493,-0.036892451082427585,-0.6254532319038065,0.09410189543042802,0.1259139718752466,-0.9840735014014046
1589988359.4845552,-1.6257507012229326,-3.1166424324021094,8.515841804106362,0.4955555555555556,-0.006666666666666667,-0.6166666666666667,0.05735843552583833,0.07471445526378587,-0.9774816538988202
1589988359.4945552,-1.723377090736256,-3.2533770907362562,8.73303578299346,0.4955555555555556,-0.006666666666666667,-0.6166666666666667,-0.05975045794320695,-0.01316443118838695,-0.9933985068085016
1589988359.5045552,-1.7188757339120662,-3.275281066521983,8.535502935648266,0.4955555555555556,-0.006666666666666667,-0.6166666666666667,-0.014852056264839458,0.02537312941359081,-0.957147522302639
1589988359.5145552,-1.6939335414115984,-3.2830332292942006,8.526731044472418,0.4955555555555556,-0.006666666666666667,-0.6166666666666667,0.06247198105375152,0.0827686831155846,-0.9119602479101986
1589988359.5245552,-1.68,-3.2930731415664654,8.688707234438318,0.49703521630977954,-0.0038780752452445806,-0.615585376115503,0.05261532022961664,0.07465542104085707,-0.8939784000341434
1589988359.5345552,-1.6746832776982992,-3.3367081942457477,8.783540971228739,0.5244444444444445,0.04777777777777778,-0.5955555555555555,0.005426974175531666,0.028127126346238193,-0.8750943514293027
1589988359.5445552,-1.6619894829097281,-3.321884312007011,8.613926380368097,0.5244444444444445,0.04777777777777778,-0.5955555555555555,0.03292473384609593,0.04492960863646226,-0.8423728001046141
1589988359.5545552,-1.6546197193019527,-3.398464789476465,8.700760561396095,0.5244444444444445,0.04777777777777778,-0.5955555555555555,0.04061424228652292,0.04615289731038988,-0.8086436142754125
1589988359.5645552,-1.642687072772367,-3.4074886576734618,8.745770975742545,0.5244444444444445,0.04777777777777778,-0.5955555555555555,0.0312352343858943,0.03341689595088721,-0.7889878881559745
1589988359.5745552,-1.6867805273833671,-3.529316835699797,8.749316835699798,0.5344605814739689,0.057436195627676365,-0.6044985350462023,0.03522051419084115,0.03915812567264782,-0.7545251298449039
1589988359.5845551,-1.68,-3.57,8.793157211716721,0.5555555555555556,0.07777777777777778,-0.6233333333333333,0.035423890405408644,0.04271530751013791,-0.7194914779720103
1589988359.5945551,-1.6852182799760058,-3.575218279976006,8.690416120503878,0.5555555555555556,0.07777777777777778,-0.6233333333333333,0.03172933529920914,0.038274319994187865,-0.6732286188180966
1589988359.6045551,-1.694936421215491,-3.609618527292946,8.629491369723928,0.5555555555555556,0.07777777777777778,-0.6233333333333333,0.029507914083609223,0.037668338843755804,-0.634022357933363
1589988359.6145551,-1.7,-3.679694372676287,8.714104858529208,0.5555555555555556,0.07777777777777778,-0.6233333333333333,0.02460799862400537,0.03298214754623414,-0.5915255899950883
1589988359.624555,-1.7049223113964687,-3.7398446227929374,8.750310754414125,0.553914785090066,0.09801394685214909,-0.6277087212413055,0.022387454577231677,0.02946938015144053,-0.5381694033235859
1589988359.634555,-1.7052336124641965,-3.75,8.74429916260741,0.5522222222222222,0.11888888888888888,-0.6322222222222222,0.01916598819382408,0.02576193922222688,-0.4913732465673503
1589988359.644555,-1.6693414281584273,-3.7270060711188204,8.698682856316854,0.5522222222222222,0.11888888888888888,-0.6322222222222222,0.01828937536774746,0.020399197889013083,-0.44790041734367964
1589988359.654555,-1.6290095958381605,-3.717028787514481,8.627028787514481,0.5522222222222222,0.11888888888888888,-0.6322222222222222,0.021600542980559672,0.016362461737446838,-0.39103666693585637
1589988359.664555,-1.632749045245647,-3.7645019095087062,8.674501909508706,0.5522222222222222,0.11888888888888888,-0.6322222222222222,0.02122992958793397,0.01438507057531251,-0.3412910773849836
1589988359.674555,-1.5949515151515152,-3.803915824915825,8.680517845117844,0.5618086793864572,0.12414597830153384,-0.6278928544706323,0.016969654144727356,0.01090830782496456,-0.2913436396994911
1589988359.684555,-1.5453000000000001,-3.820875,8.664425000000001,0.5866666666666667,0.13777777777777778,-0.6166666666666667,0.01979585162535443,0.010282443663507218,-0.24050773446329676
1589988359.694555,-1.6093316120434766,-3.7415595718985553,8.807326448173907,0.5866666666666667,0.13777777777777778,-0.6166666666666667,0.02457873928708043,0.007417086030187455,-0.19089257048293756
1589988359.704555,-1.5489804626472021,-3.766572647706083,8.67138827758832,0.5866666666666667,0.13777777777777778,-0.6166666666666667,0.0059037388473482735,-0.0004898082548313834,-0.12868726470167888
1589988359.714555,-1.4823664506597722,-3.672958063324715,8.633253869657187,0.5866666666666667,0.13777777777777778,-0.6166666666666667,0.013761323123401382,0.0032079574168659,-0.09582550849502694
1589988359.724555,-1.5573141244799604,-3.7458271203196443,8.734628248959922,0.5971117381334871,0.13926993084446643,-0.6166666666666667,-0.0005859671390425621,0.00021188007393261265,-0.04458009776109924
1589988359.734555,-1.5524563548152959,-3.6726309355541127,8.739650838522367,0.6255555555555555,0.14333333333333334,-0.6166666666666667,-0.0019137148204670987,-0.0037893420321477916,-0.008611049950591462
1589988359.744555,-1.5673260169981023,-3.6646520339962043,8.748717881013285,0.6255555555555555,0.14333333333333334,-0.6166666666666667,-0.0014904030252275615,-0.009126218502702753,0.030531290584372917
1589988359.754555,-1.581250264587596,-3.6950010583503845,8.662500529175192,0.6255555555555555,0.14333333333333334,-0.6166666666666667,-0.0028635751142004617,-0.010226625171992635,0.0549513799430542
1589988359.764555,-1.5973549162214928,-3.7447098324429855,8.687354916221492,0.6255555555555555,0.14333333333333334,-0.6166666666666667,-0.004827776321494795,-0.014694563193374841,0.09596511903720276
1589988359.774555,-1.5977286590365003,-3.708643295182501,8.708180893975666,0.7259987538123504,0.1456058038821296,-0.6462087838010181,-0.0008923970976996883,-0.018791888166492826,0.13645140120279808
1589988359.784555,-1.58,-3.605295949517507,8.76901350160831,0.8711111111111111,0.14888888888888888,-0.6888888888888889,-0.002716315928115752,-0.021795093593678344,0.18167373338314033
1589988359.794555,-1.52216005425568,-3.4876677882985105,8.70432010851136,0.8711111111111111,0.14888888888888888,-0.6888888888888889,-0.007155175010617322,-0.022907446432425576,0.23249528598465835
1589988359.804555,-1.5084278241198925,-3.452510721523163,8.633034780149867,0.8711111111111111,0.14888888888888888,-0.6888888888888889,-0.00881239515224763,-0.025563065978436727,0.29319286437026504
1589988359.814555,-1.5901728414819558,-3.606483956149476,8.714034568296391,0.8711111111111111,0.14888888888888888,-0.6888888888888889,-0.0133760102377002,-0.029681909732444174,0.3486225176354587
1589988359.824555,-1.614978980720247,-3.679957961440494,8.735063057839259,1.0496362410578899,0.09282084026497867,-0.8397984127970253,-0.023719837399952756,-0.0332772174093561,0.40779315813918005
1589988359.834555,-1.6069227082085082,-3.663845416417016,8.756924305971639,1.5822222222222222,-0.07444444444444444,-1.29,-0.01963495408493621,-0.03817907738737596,0.4756022211684547
1589988359.844555,-1.6348641636468897,-3.680815018118661,8.655679181765551,1.5822222222222222,-0.07444444444444444,-1.29,-0.017512562310085158,-0.038709675331088725,0.49098956153612483
1589988359.854555,-1.6282388703667385,-3.591194351833693,8.635880564816631,1.5822222222222222,-0.07444444444444444,-1.29,-0.015271630954950384,-0.03991137828191706,0.5110851345331199
1589988359.864555,-1.600819768582075,-3.454098842910375,8.649590115708962,1.5822222222222222,-0.07444444444444444,-1.29,-0.015271630954950384,-0.04140685829467279,0.5200580146096542
1589988359.8745549,-1.6467055837563451,-3.5267055837563452,8.79341116751269,1.3185496333897349,-0.10731119571347997,-1.1164340101522843,-0.012371239260170466,-0.044364697017461194,0.5203326510447174
1589988359.8845549,-1.6156615876442748,-3.482646350577099,8.74867682471145,0.7888888888888889,-0.17333333333333334,-0.7677777777777778,-0.008911221567372805,-0.04097832236038652,0.5112304863760355
1589988359.8945549,-1.6371126923254633,-3.463389086540683,8.715941874971122,0.7888888888888889,-0.17333333333333334,-0.7677777777777778,-0.011629446615148881,-0.04146981492930527,0.5009880403804257
1589988359.9045548,-1.682620095799762,-3.462620095799762,8.663209568901072,0.7888888888888889,-0.17333333333333334,-0.7677777777777778,-0.01090830782496456,-0.04202318596515932,0.49064044568634974
1589988359.9145548,-1.6640452983879743,-3.45,8.70809059677595,0.7888888888888889,-0.17333333333333334,-0.7677777777777778,-0.011233086415913503,-0.040569022533668196,0.482937964492981
1589988359.9245548,-1.651005145424303,-3.45,8.682010290848606,0.7888888888888889,-0.17333333333333334,-0.7677777777777778,-0.011944316428975246,-0.04341394258591516,0.4751144343493018
1589988359.9345548,-1.6419894572774556,-3.354031628167633,8.78465963818497,0.6233333333333333,0.06333333333333334,-0.7033333333333334,-0.017961580196689468,-0.03607167125138716,0.47058209950371455
1589988359.9445548,-1.6202423464426032,-3.420034620920372,8.769342202512934,0.6233333333333333,0.06333333333333334,-0.7033333333333334,-0.01637001485057884,-0.03926990816987242,0.4657885206825527
1589988359.9545548,-1.7141571509606135,-3.373633314425235,8.636366685574766,0.6233333333333333,0.06333333333333334,-0.7033333333333334,-0.019422502098614788,-0.03795233997560986,0.4638012491218706
1589988359.9645548,-1.6935254750428237,-3.3676524718161174,8.727059315619648,0.6233333333333333,0.06333333333333334,-0.7033333333333334,-0.014950395781480875,-0.035612389883319585,0.4611648891263253
1589988359.9745548,-1.5942219444692438,-3.507889027765378,8.731556111061513,0.6200495987461436,0.07318453709490225,-0.7033333333333334,-0.0059752225761504595,-0.03513685638933868,0.4644636419940382
1589988359.9845548,-1.6145,-3.5292499999999998,8.740499999999999,0.6077777777777778,0.11,-0.7033333333333334,-0.010771953977152502,-0.036979163526629846,0.46213046100462357
1589988359.9945548,-1.6002965324060658,-3.644851733796967,8.787176663768957,0.6077777777777778,0.11,-0.7033333333333334,-0.005329930065040638,-0.03712059327253395,0.448147697246469
1589988360.0045547,-1.5448842357381334,-3.687052547539556,8.662399840325156,0.6077777777777778,0.11,-0.7033333333333334,-0.004574593411818586,-0.03293619375672644,0.42431714207631116
1589988360.0145547,-1.5220527289882422,-3.763157570039193,8.806999383074468,0.6077777777777778,0.11,-0.7033333333333334,-0.010385832498981853,-0.03874743284388971,0.38529882249107206
1589988360.0245547,-1.5596092498665244,-3.623192071542979,8.675211892685532,0.6037314246307172,0.1025298095746574,-0.7173399403808507,-0.006196783705077471,-0.02399827721492203,0.27915301752269406
1589988360.0345547,-1.5742896100354513,-3.532386146713935,8.728096536678484,0.5933333333333334,0.08333333333333333,-0.7533333333333333,-0.00528162000087935,-0.017938767250522573,0.17136871275508747
1589988360.0445547,-1.486603779326294,-3.4165849131241823,8.716679244134742,0.5933333333333334,0.08333333333333333,-0.7533333333333333,0.00691545490048167,-0.0058122762175778055,0.07082991345982517
1589988360.0545547,-1.3964706572494545,-3.3017647886993453,8.697058920149237,0.5933333333333334,0.08333333333333333,-0.7533333333333333,0.017774114563442616,0.004619975645556887,-0.06872216012428291
1589988360.0645547,-1.3959713826270808,-3.3075142193502276,8.697514219350227,0.5933333333333334,0.08333333333333333,-0.7533333333333333,0.01961314136731474,0.011706169284708998,-0.1777367797623592
1589988360.0745547,-1.4521768261814716,-3.3886998600399036,8.778699860039902,0.5933333333333334,0.08333333333333333,-0.7533333333333333,0.014844536969415007,0.015793544482908768,-0.26493411732395433
1589988360.0845547,-6.207252757577466,-8.670275851701524,1.2333258169381964,0.5077777777777778,0.05666666666666665,-0.6166666666666667,-0.462812913332468,0.7672413048031602,-1.342602078481727
1589988360.0945547,-7.971141253140703,-9.438893294597989,-6.109640782035176,0.5077777777777778,0.05666666666666665,-0.6166666666666667,-1.2180278099275386,1.830308618615324,-4.4552536307655695
1589988360.1045547,-1.3617509486029666,-2.166059560768081,1.1424833850753133,0.5077777777777778,0.05666666666666665,-0.6166666666666667,-0.3586137114990488,-1.8457852723065635,-6.5119453031885755
1589988360.1145546,-0.052267842149454236,-1.5162422334172962,0.299291771620487,0.5077777777777778,0.05666666666666665,-0.6166666666666667,-0.46102712825723957,-0.9645662493223707,-6.2822578262460045
1589988360.1245546,-0.41147346072186836,-1.1856539278131635,0.03327813163481953,0.5138162302429818,0.08569768813399387,-0.6273500825666432,-0.3962487979202365,-0.6833603234500409,-5.99275832770778
1589988360.1345546,-0.1608839969636326,-0.9525015526878752,-0.023529777103029465,0.5366666666666666,0.1955555555555556,-0.6677777777777778,-0.4016021759163364,-0.6125346436402501,-5.688605221822902
1589988360.1445546,-0.2605744857677124,-0.6877685435279451,-0.3964195927695824,0.5366666666666666,0.1955555555555556,-0.6677777777777778,0.15548554202736242,0.1788879758749078,-5.3108527327185175
1589988360.1545546,-0.817400686237133,-0.3764018299656881,-1.171608082348456,0.5366666666666666,0.1955555555555556,-0.6677777777777778,1.4734696845813569,1.8201565840049296,-5.034872494800003
1589988360.1645546,0.34816440558737816,1.0117310823032861,10.058592101296354,0.5366666666666666,0.1955555555555556,-0.6677777777777778,1.509033599702569,3.1141852314644773,-4.463797557177415
1589988360.1745546,1.4272068562524347,1.8734125438254774,19.119411764705884,0.5019772323940613,0.2380257975154742,-0.6574033675280266,0.3239185250982912,2.95021028103673,-3.7608352342288422
1589988360.1845546,-1.0424072240399518,-0.22605885138625798,2.782508825555364,0.4177777777777778,0.3411111111111111,-0.6322222222222222,0.14202689109414557,0.4809300475966545,-3.1711934608088668
1589988360.1945546,0.32068931389594724,-0.9432890196602916,12.843348401765414,0.4177777777777778,0.3411111111111111,-0.6322222222222222,-0.00440294726272971,-0.46368880840930116,-2.8437144425084995
1589988360.2045546,2.438519261730873,-1.297781459271531,12.480030566768557,0.4177777777777778,0.3411111111111111,-0.6322222222222222,0.0660356432131552,-1.070918036518476,-2.4511890855863836
1589988360.2145545,0.30762213926310666,-0.4653465346534654,1.5032446031488393,0.4177777777777778,0.3411111111111111,-0.6322222222222222,0.15440753104510618,-0.297698361499301,-2.171926949305128
1589988360.2245545,1.287948709625061,-1.29590099009901,6.922272033760753,0.4177777777777778,0.3411111111111111,-0.6322222222222222,0.20044986770531442,0.7204313733578842,-1.9097826776752327
1589988360.2345545,0.0660980120203421,-2.441229773462783,11.091511789181691,0.4133333333333333,0.38222222222222224,-0.6177777777777778,-0.23723980930779712,0.6514539269949002,-1.5861199020728232
1589988360.2445545,0.41274499051797015,-2.7076738181735096,9.56293714442388,0.4133333333333333,0.38222222222222224,-0.6177777777777778,-0.026323623278763204,-0.0006388165463972056,-1.4372873822128547
1589988360.2545545,0.39682940118781673,-3.280434261428649,11.119487549719391,0.4133333333333333,0.38222222222222224,-0.6177777777777778,0.02012866006732638,0.13749499125501136,-1.219194129891543
1589988360.2645545,0.16680827188201347,-2.3793571657582557,7.565134658544405,0.4133333333333333,0.38222222222222224,-0.6177777777777778,-0.0071300952750096985,0.05694563364193746,-1.045898801561843
1589988360.2745545,0.20356781478933098,-2.927940259845388,9.203921965434898,0.4046120082927465,0.3923310307919933,-0.6165885061813341,0.022093462471544208,0.09623986699476615,-0.8819670412389852
1589988360.2845545,0.21560576888146185,-2.5993130381080394,7.748662404184982,0.3644444444444445,0.4388888888888889,-0.6111111111111112,0.004550722366024104,0.03751432327772441,-0.7343066089394669
1589988360.2945545,0.11702261161706823,-3.155105482452529,9.173024983119513,0.3644444444444445,0.4388888888888889,-0.6111111111111112,0.0359642531006807,0.04185117514198727,-0.49441164624451334
1589988360.3045545,0.08248513693779747,-2.077536272459281,5.7745374746792715,0.3644444444444445,0.4388888888888889,-0.6111111111111112,0.05329454174440731,0.031302303793631935,-0.35576933709470043
1589988360.3145545,0.08458440868377107,-3.5618137999089114,10.195869895248217,0.3644444444444445,0.4388888888888889,-0.6111111111111112,-0.010968753131721992,0.004673809142333334,-0.08662634266106575
1589988360.3245544,0.040980813237106145,-3.212153494103151,8.660383735257877,0.36389954820160775,0.44030561912026445,-0.6137266130767275,-0.017988243155400985,0.005195972065950905,0.09003430410007379
1589988360.3345544,0.04230689476412649,-3.063068947641265,8.203048211508554,0.3588888888888889,0.4533333333333333,-0.6377777777777778,-0.019131102230501608,-0.03146670756454914,0.3569617914128618
1589988360.3445544,0.03,-2.94,7.76,0.3588888888888889,0.4533333333333333,-0.6377777777777778,-0.01308996938995747,-0.03817907738737596,0.4865105289934194
1589988360.3545544,-0.039471798356706,-3.8108445048495705,10.437955766973499,0.3588888888888889,0.4533333333333333,-0.6377777777777778,-0.005684625357230404,-0.05033186362466905,0.6894551921853895
1589988360.3645544,-0.013560264409711496,-3.3617112497683324,8.865989374189164,0.3588888888888889,0.4533333333333333,-0.6377777777777778,-0.0169906648976638,-0.05786922331829133,0.852450595559971
1589988360.3745544,-0.042129298670159625,-3.460646493350798,9.148004129387473,0.3588888888888889,0.4533333333333333,-0.6377777777777778,-0.03343936520644859,-0.07204772275834584,1.023798706602246
1589988360.3845544,-0.08141841025044455,-3.395531384508002,8.631983281538231,0.3555555555555556,0.4744444444444445,-0.6466666666666666,-0.03364551192480868,-0.08521624892669974,1.262229968922415
1589988360.3945544,-0.08838881225798946,-3.52099862064381,9.231437854187092,0.3555555555555556,0.4744444444444445,-0.6466666666666666,-0.04353009972387528,-0.10194401289435091,1.3808450225112143
1589988360.4045544,-0.11756673975844906,-3.625816191570081,8.93919912289861,0.3555555555555556,0.4744444444444445,-0.6466666666666666,-0.022023801740913885,-0.09875097707848902,1.582993102784916
1589988360.4145544,-0.10296822247746337,-3.720706553896488,9.11438133027044,0.3555555555555556,0.4744444444444445,-0.6466666666666666,-0.03635586256692898,-0.12184151952040224,1.6888911077771387
1589988360.4245543,0.07346765884373212,-5.371166571265025,8.191967945048654,0.35740876423074486,0.4741174076194111,-0.6472117280417222,-0.0780040791838307,-0.12893207743603557,1.8435246276942379
1589988360.4345543,1.5700028620492272,-20.552595878649115,6.08721522610189,0.37252528143484076,0.47144978693633527,-0.6516577625135153,-0.3049780542394442,-0.13067803109030954,1.834794859422868
1589988360.4445543,-0.6057917317361982,1.3246378129772958,5.850534742839492,0.3744444444444445,0.4711111111111111,-0.6522222222222223,-0.9142905347184451,-0.27934558748000515,0.27799606557184897
1589988360.4545543,-0.3394686893995298,-0.4172588423057779,6.534337148839046,0.3744444444444445,0.4711111111111111,-0.6522222222222223,-0.30028659572624306,-0.11917064687334378,0.06599982065126775
1589988360.4645543,-0.18785682385827945,-0.4361579304298923,10.255971847759564,0.3744444444444445,0.4711111111111111,-0.6522222222222223,1.206515843546211,0.17295794432039302,0.24159591415277812
1589988360.4745543,0.06883652844170235,-0.1378386291082918,0.029863704781911693,0.3744444444444445,0.4711111111111111,-0.6522222222222223,1.319276228795679,0.33036841500421393,0.29002990513241533
1589988360.4845543,-1.008904273931517,-0.676509872531867,8.217168707823044,0.4088888888888889,0.4444444444444444,-0.6522222222222223,-0.06901684452378326,-0.258075622492103,0.2894008691184137
1589988360.4945543,-0.8530320785117914,-3.023233728821835,12.24061959865241,0.4088888888888889,0.4444444444444444,-0.6522222222222223,-0.7638918973871661,0.1286422424706351,0.3722042615150616
1589988360.5045543,-0.46781290612225607,-2.5625292408024385,8.69886533872073,0.4088888888888889,0.4444444444444444,-0.6522222222222223,-0.22627156971846205,-0.10070839187566406,0.5137038184080983
1589988360.5145543,-0.46,-2.0762567373145226,6.6553904958234025,0.4088888888888889,0.4444444444444444,-0.6522222222222223,0.2307436328855286,0.07783454407643264,0.710769892109955
1589988360.5245543,0.19984508809251073,-3.5155904652811865,7.5635117002127314,0.41301211537179466,0.44186742789262834,-0.6549280896016292,-0.023499421311335582,-0.07795676660223963,0.7589910500183095
1589988360.5345542,3.812340650559369,-9.659474005828711,9.405730469117232,0.4444444444444444,0.4222222222222222,-0.6755555555555556,-0.23278430936326072,-0.10779899085253841,0.1579878208349647
1589988360.5445542,-0.8009612054424828,-1.574327673451029,10.550806926796357,0.4444444444444444,0.4222222222222222,-0.6755555555555556,0.04855390480761393,0.08482946837343439,-1.2319836233781447
1589988360.5545542,0.31117348477233897,-1.9580435219620063,6.785434214493919,0.4444444444444444,0.4222222222222222,-0.6755555555555556,0.3795139428325171,0.25829905884838056,-1.4492349184678028
1589988360.5645542,-0.8576483294640155,-2.8819095588977492,6.944146966791158,0.4444444444444444,0.4222222222222222,-0.6755555555555556,0.011745870315758342,0.06942581339330679,-1.2175291427933697
1589988360.5745542,-4.264975335438042,-6.9872592738752966,10.26838595106551,0.4436051916162413,0.42190750241164604,-0.6762199640445496,-0.29229949430812474,0.012010223411190016,-0.8580509803820116
1589988360.5845542,2.697117445476695,-3.7915066458015567,8.509259750807201,0.4177777777777778,0.4122222222222222,-0.6966666666666667,0.05876019747480715,-0.08214900272785895,0.7522030091619285
1589988360.5945542,2.56602400027746,-5.298890854229528,8.04482606735338,0.4177777777777778,0.4122222222222222,-0.6966666666666667,0.08971034273903335,-0.0576613764517672,0.7394676915765217
1589988360.6045542,-0.023319460340581966,-2.527711476433254,8.626701002323726,0.4177777777777778,0.4122222222222222,-0.6966666666666667,-0.034854848796864235,0.001844288294680696,-0.014270728545151656
1589988360.6145542,-1.4938233252342936,-6.9982939951405765,8.546304451579312,0.4177777777777778,0.4122222222222222,-0.6966666666666667,0.007174290122758329,0.05527238817651102,-0.3024263977504043
1589988360.6245542,0.3187104039871568,-5.901072027603393,8.899338668711362,0.4177924740286364,0.4122405925357955,-0.6965968594750882,-0.06063564849038035,-0.011919784549482886,-0.12373791175394776
1589988360.6345541,-0.07210171407805213,-3.2201582847105854,8.697618057378207,0.4222222222222222,0.4177777777777778,-0.6755555555555556,0.07457953966855184,0.011838655598596835,0.061672979431581995
1589988360.6445541,-0.32614261775453757,-4.448022652480265,8.409705033211523,0.4222222222222222,0.4177777777777778,-0.6755555555555556,-0.00855515165450639,-0.0075594390434500815,0.0007075391280059601
1589988360.6545541,-0.06554115196782534,-4.588513717322608,8.58176062912956,0.4222222222222222,0.4177777777777778,-0.6755555555555556,-0.016966907651146307,-0.008358322436077145,-0.0035526816819908455
1589988360.664554,-0.04294904481470842,-4.580983014938236,8.438677283826486,0.4222222222222222,0.4177777777777778,-0.6755555555555556,-0.014502491058738475,-0.0009650726588536496,0.0005546793053555392
1589988360.674554,-0.060169307735909505,-4.41977425635212,8.79994356408803,0.4222222222222222,0.41780286040531994,-0.6755931794968688,0.004344854520981337,-0.003272492347489368,-0.0021693491589899207
1589988360.684554,-0.08913867588292472,-4.385598606760989,8.786985365590235,0.4222222222222222,0.4222222222222222,-0.6822222222222222,0.0017015440418944475,-0.0029906246893056797,9.395588606122947e-05
1589988360.694554,-0.06700644567219154,-4.515987108655617,8.69156123388582,0.4222222222222222,0.4222222222222222,-0.6822222222222222,0.012985808108056107,0.003272492347489368,0.0013652962625306702
1589988360.704554,-0.05125608593083371,-4.536183054760829,8.555121718616673,0.4222222222222222,0.4222222222222222,-0.6822222222222222,0.0001370177198814125,0.0031354746276079557,-0.002724421467963718
1589988360.714554,-0.061347576942051535,-4.442695153884103,8.736737884710259,0.4222222222222222,0.4222222222222222,-0.6822222222222222,0.0005028394184275531,0.0018876658829584604,0.0012378286235136817
1589988360.724554,-0.0693060984402869,-4.458612196880574,8.776530492201434,0.4222222222222222,0.4222222222222222,-0.6822222222222222,-0.0029697206749464255,0.00015138583627147132,0.002105968646857176
1589988360.734554,-0.0787286171504249,-4.5411003200529745,8.6750855313983,0.41,0.43,-0.6755555555555556,0.006267611985247819,0.0,0.0015068898470928307
1589988360.744554,-0.07101368502372807,-4.487095795166097,8.70594525990509,0.41,0.43,-0.6755555555555556,0.004584474895513469,0.0,0.004031595481694357
1589988360.754554,-0.07,-4.535499571550985,8.550438731790917,0.41,0.43,-0.6755555555555556,0.0005795330635371063,-0.002270274039869231,0.0028498071034063367
1589988360.764554,-0.07,-4.463611763390361,8.65349882589735,0.41,0.43,-0.6755555555555556,-0.013708021450217957,-0.0011696272362024507,0.0011302290093494532
1589988360.774554,-0.05077661703990992,-4.556116914800451,8.621553234079819,0.41,0.43,-0.6755555555555556,-0.009287926667917636,-0.001090830782496456,0.0017898127117159258
1589988360.784554,-0.06170244404621192,-4.530424371830557,8.614468296030807,0.4188417364632715,0.43,-0.6803783208991582,0.0013462466453595641,-0.00030170764846262595,0.002181661564992912
1589988360.794554,-0.06027801911381407,-4.5097219808861855,8.600556038227628,0.4222222222222222,0.43,-0.6822222222222222,0.009665841138732716,0.0010605036017493782,0.0011211579632435338
1589988360.804554,-0.06309550304379132,-4.4582546747834435,8.65103183434793,0.4222222222222222,0.43,-0.6822222222222222,0.007073037142895351,0.003272492347489368,-0.002709714012909527
1589988360.814554,-0.08966409042797516,-4.529664090427976,8.6586563617119,0.4222222222222222,0.43,-0.6822222222222222,0.00210837746473293,0.0031625661970993953,0.0021633405399279163
1589988360.824554,-0.07291134942983245,-4.5129113494298325,8.59164539771933,0.4222222222222222,0.43,-0.6822222222222222,-0.0015465036496599646,-0.002319755474489948,0.0012496202613296928
1589988360.834554,-0.07,-4.532035651455097,8.653452171516989,0.41324473459236805,0.4169418361747576,-0.6822222222222222,-0.0013804226676735073,-0.0016700145528505588,0.0002895918851770514
1589988360.844554,-0.06,-4.460377527196861,8.718489891212558,0.41,0.4122222222222222,-0.6822222222222222,0.0043015503868510585,-4.1181828756510186e-05,0.001070239868118201
1589988360.854554,-0.06058472668040052,-4.478245819958799,8.643508360082404,0.41,0.4122222222222222,-0.6822222222222222,0.0007719118513325302,-0.0020540939925273415,0.0
1589988360.864554,-0.06949229199946112,-4.455584788005928,8.69492291999461,0.41,0.4122222222222222,-0.6822222222222222,-0.004529470184638088,-0.00011076470310150891,0.00011076470310150891
1589988360.874554,-0.06141996574221983,-4.544380376835582,8.614199657422198,0.41,0.4122222222222222,-0.6822222222222222,-0.007171132774964048,-0.001871873096652149,0.001871873096652149
1589988360.884554,-0.05043347188599096,-4.529783264057005,8.650650207828987,0.4222222222222222,0.4222222222222222,-0.6755555555555556,-0.005217731674189415,-0.001090830782496456,0.0
1589988360.894554,-0.06959165029918239,-4.5202041748504085,8.679387475448774,0.4222222222222222,0.4222222222222222,-0.6755555555555556,0.005231433700644745,-0.001090830782496456,0.0
1589988360.904554,-0.08481138032437893,-4.4977829295134315,8.642971549189053,0.4222222222222222,0.4222222222222222,-0.6755555555555556,0.009493331309756001,-0.0002829953030417117,0.0008078354794547443
1589988360.9145539,-0.07,-4.500396159122085,8.620594238683127,0.4222222222222222,0.4222222222222222,-0.6755555555555556,0.0032076709627187967,-0.0010476165259827419,4.321425651371419e-05
1589988360.9245539,-0.07,-4.511903155006858,8.637854732510288,0.4222222222222222,0.4222222222222222,-0.6755555555555556,0.0013248431639431239,0.0002076020065343734,0.0012984327890308294
1589988360.9345539,-0.0651315995613348,-4.534605201315995,8.645131599561335,0.4222222222222222,0.4260087558967396,-0.6674415548244469,-0.002124240424006102,-0.0005023495355081205,0.001119541352989861
1589988360.9445539,-0.06578428029923186,-4.5268628788030725,8.674705681795391,0.4222222222222222,0.43,-0.6588888888888889,-0.0012084876274908595,-0.002181661564992912,0.0
1589988360.9545538,-0.07,-4.517773154512018,8.622268454879816,0.4222222222222222,0.43,-0.6588888888888889,0.00278667002625864,-0.002181661564992912,0.0
1589988360.9645538,-0.07705587940882058,-4.52,8.628223517635282,0.4222222222222222,0.43,-0.6588888888888889,0.0009634612104720509,-0.0006423074736480339,-0.000769677045672439
1589988360.9745538,-0.08,-4.527151996177532,8.647151996177532,0.4222222222222222,0.43,-0.6588888888888889,-0.004680970552049588,-0.0023404852760247944,-0.0003106690238215246
1589988360.9845538,-0.06701283571532589,-4.53,8.675974328569348,0.4222222222222222,0.43432905476155803,-0.669711525792784,-0.005836644766025681,-0.001855812489583259,-0.0007083399289530546
1589988360.9945538,-0.06997059057308641,-4.539970590573087,8.640147047134569,0.4222222222222222,0.43666666666666665,-0.6755555555555556,-0.0011036630657656294,0.0032596600642201944,0.0010844146408618691
1589988361.0045538,-0.07,-4.524461310076081,8.629640873384053,0.4222222222222222,0.43666666666666665,-0.6755555555555556,0.0028641881848618517,0.002142486928244137,0.001090830782496456
1589988361.0145538,-0.06950941779411038,-4.508037671176441,8.623924657647116,0.4222222222222222,0.43666666666666665,-0.6755555555555556,0.0063844420435199105,0.001090830782496456,0.000983802348190573
1589988361.0245538,-0.06259759735016397,-4.480390389400656,8.679219221198688,0.4222222222222222,0.43666666666666665,-0.6755555555555556,0.004122554092516393,0.001090830782496456,-0.00052412295247844
1589988361.0345538,-0.06449095119650056,-4.492454755982503,8.686527146410498,0.42022624391266644,0.43666666666666665,-0.6720625935138329,0.0008230584435733185,0.00011105722093003633,-0.00011105722093003633
1589988361.0445538,-0.07,-4.52,8.66866908618168,0.4177777777777778,0.43666666666666665,-0.6677777777777778,-0.002472021917367517,-0.0012360109586837585,0.001090830782496456
1589988361.0545537,-0.07,-4.52,8.662989139266562,0.4177777777777778,0.43666666666666665,-0.6677777777777778,-0.003711194104958895,-0.0018555970524794475,0.001090830782496456
1589988361.0645537,-0.062147486563389184,-4.488589946253557,8.65214748656339,0.4177777777777778,0.43666666666666665,-0.6677777777777778,0.0007761348959874409,0.00038806744799372043,-0.0006223218928279655
1589988361.0745537,-0.06360589838811631,-4.490817695164349,8.657211796776233,0.4177777777777778,0.43666666666666665,-0.6677777777777778,0.0013949765729305875,0.0006974882864652938,-0.001090830782496456
1589988361.0845537,-0.0677484987357775,-4.503245496207333,8.665496997471555,0.4177777777777778,0.43666666666666665,-0.6677777777777778,0.0004912013771687185,0.00024560068858435924,-0.001090830782496456
1589988361.0945537,-0.07,-4.513970429661579,8.662059140676842,0.41491024524441494,0.43666666666666665,-0.6693218337572808,-0.0010827667236469206,-0.00021655334472938414,-0.0004411707483083035
1589988361.1045537,-0.07,-4.52266796615793,8.644664067684142,0.4086286911081619,0.43666666666666665,-0.6727042090614171,-0.0034546518591732586,-0.0006909303718346518,0.0009819603330074994
1589988361.1145537,-0.07,-4.52031332744925,8.642108340688438,0.4033333333333333,0.43666666666666665,-0.6755555555555556,-0.0025483607479437837,-0.0005625047525803658,0.0019174985500348667
1589988361.1245537,-0.06396947427925381,-4.477938948558507,8.69809157716224,0.4033333333333333,0.43666666666666665,-0.6755555555555556,0.005887156385896079,0.001090830782496456,0.002406487400661769
1589988361.1345537,-0.0579812444373693,-4.4720187555626305,8.712018755562632,0.4046791703750871,0.4337506864095334,-0.6798173728544425,0.004573305628460872,0.0017514669955125115,0.0023916440634679605
1589988361.1445537,-0.05494627312788081,-4.475053726872119,8.715053726872119,0.4067024845814128,0.4293668389624945,-0.6862245345078072,0.003249049577107422,0.0027446590340275993,0.0010673880121145106
1589988361.1545537,-0.05191130181839232,-4.478088698181608,8.718088698181608,0.40872579878773846,0.42498299151545554,-0.6926316961611718,0.0019247935257539722,0.0037378510725426866,-0.0002568680392389393
1589988361.1645536,-0.05751645692158761,-4.490021942562117,8.702461600516296,0.41,0.4222222222222222,-0.6966666666666667,0.0005442186101380351,0.0035434048714481923,-0.001090830782496456
1589988361.1745536,-0.07781800580832526,-4.5170906744111,8.655091319780574,0.41,0.4222222222222222,-0.6966666666666667,-0.0009321516870626379,0.0013288494256471829,-0.001090830782496456
1589988361.1845536,-0.057021994884910485,-4.512340664961637,8.67297800511509,0.4159572605853936,0.4281794828076158,-0.6856031827223643,-0.0027618384691565,-0.0005801769041635881,0.0005801769041635881
1589988361.1945536,-0.054027223997253834,-4.5180544479945075,8.635700536030209,0.4177777777777778,0.43,-0.6822222222222222,-0.004151096328331949,-0.0006515287920751654,0.0006515287920751654
1589988361.2045536,-0.05956483853080193,-4.529129677061604,8.57478677616118,0.4177777777777778,0.43,-0.6822222222222222,-0.005359216407290752,-4.746875259576343e-05,4.746875259576343e-05
1589988361.2145536,-0.06,-4.53,8.579226049798276,0.4177777777777778,0.43,-0.6822222222222222,0.002597093384161811,0.0030192177362415337,0.0
1589988361.2245536,-0.06706454674893214,-4.508806359753204,8.664774560987185,0.4177777777777778,0.43,-0.6822222222222222,0.005584359864925496,-0.0005806201815708478,0.001541245011624086
1589988361.2345536,-0.07,-4.49180908342307,8.708190916576932,0.4214181851453024,0.4236292871068319,-0.6767616111709353,0.0038645135132858864,-0.002181661564992912,0.002181661564992912
1589988361.2445536,-0.07,-4.507315936626282,8.701342031686858,0.4222222222222222,0.4222222222222222,-0.6755555555555556,0.003272492347489368,-0.00029278589502234795,0.00029278589502234795
1589988361.2545536,-0.07,-4.51,8.589530422442412,0.4222222222222222,0.4222222222222222,-0.6755555555555556,-0.0027526884389704924,-0.0030125903932299303,-0.00200839359548662
1589988361.2645535,-0.07,-4.51,8.640839749172619,0.4222222222222222,0.4222222222222222,-0.6755555555555556,-0.0025350937786354235,-0.00032289807207358957,0.0007679327104228666
1589988361.2745535,-0.05863029712615685,-4.504315148563078,8.67,0.4222222222222222,0.4222222222222222,-0.6755555555555556,-0.0028017826591242388,0.001090830782496456,0.0009414193767302585
1589988361.2845535,-0.054799025337268964,-4.4952009746627315,8.684397076011807,0.4222222222222222,0.4222222222222222,-0.6755555555555556,-0.0017020149783273416,4.3845869721771636e-05,0.0
1589988361.2945535,-0.06,-4.506819253859348,8.660755074328188,0.4222222222222222,0.4222222222222222,-0.6755555555555556,-0.0006115653282799777,0.001355430530623455,0.0
1589988361.3045535,-0.06517986617048413,-4.525179866170484,8.604100669147579,0.4222222222222222,0.4222222222222222,-0.6755555555555556,-0.00222090227609168,0.000447313613501307,0.0011300714935952244
1589988361.3145535,-0.06492648098402376,-4.5350735190159766,8.595220557047929,0.4222222222222222,0.4222222222222222,-0.6755555555555556,-0.001612187132026962,-0.0010747914213513079,0.00162822649317211
1589988361.3245535,-0.06,-4.523945462536546,8.63675756243909,0.4222222222222222,0.4222222222222222,-0.6755555555555556,0.001751278366387796,0.001751278366387796,0.0005070713270338573
1589988361.3345535,-0.06,-4.503541208388326,8.69875274967004,0.4272457268090792,0.4272457268090792,-0.6705320509686986,0.006090671830586606,0.0025679474767150586,0.002113634612322928
1589988361.3445535,-0.0661983296534511,-4.493801670346549,8.707603340693097,0.43,0.43,-0.6677777777777778,0.0069596825988706874,0.00015326292917940002,0.003272492347489368
1589988361.3545535,-0.07,-4.50403835790141,8.629808210492946,0.43,0.43,-0.6677777777777778,0.0034822901080665118,-0.00032515713576839985,0.0017411450540332557
1589988361.3645535,-0.07,-4.516205896937102,8.606205896937102,0.43,0.43,-0.6677777777777778,-0.0025570468234009307,0.0006769583411991204,0.001090830782496456
1589988361.3745534,-0.07,-4.504974786480101,8.645058831546429,0.43,0.43,-0.6677777777777778,-0.0027224930089677925,0.0005444986017935585,0.0005444986017935585
1589988361.3845534,-0.07,-4.500312451582916,8.685156225791458,0.4162500645561122,0.43,-0.6752256594765503,0.0,0.0011249139629648935,0.0005624569814824468
1589988361.3945534,-0.046404437207408916,-4.494269624804939,8.705730375195062,0.4033333333333333,0.43,-0.6822222222222222,0.0,0.0013237026908433655,0.001090830782496456
1589988361.4045534,-0.06428694704332819,-4.514286947043328,8.612852211826688,0.4033333333333333,0.43,-0.6822222222222222,0.0,-0.0015584641622759115,0.00020773246757233358
1589988361.4145534,-0.07,-4.52,8.605680841121496,0.4033333333333333,0.43,-0.6822222222222222,-0.0008552572095381676,-0.0013264043554547444,0.0
1589988361.4245534,-0.06373839113034487,-4.52,8.653831262087586,0.4033333333333333,0.43,-0.6822222222222222,-0.001090830782496456,-0.0017738663527937216,0.0006830355702972657
1589988361.4345534,-0.06,-4.513167133975375,8.693665732049249,0.42155430939900035,0.43455524401641676,-0.6776669782058055,0.0011452193952041303,0.0007997386719412027,0.0018361808417299845
1589988361.4445534,-0.07311537422318293,-4.496884625776818,8.693442312888408,0.43,0.43666666666666665,-0.6755555555555556,0.0007509961723320643,3.566347600164046e-05,0.002181661564992912
1589988361.4545534,-0.0731469381142672,-4.496853061885733,8.614616319256939,0.43,0.43666666666666665,-0.6755555555555556,0.0,0.0004042753893656538,0.001434108479061857
1589988361.4645534,-0.07,-4.5,8.60508426849973,0.43,0.43666666666666665,-0.6755555555555556,0.0,-0.0009613711351969887,-0.0002773038292991736
1589988361.4745533,-0.05920867526377492,-4.516186987104338,8.64158264947245,0.43,0.43666666666666665,-0.6755555555555556,0.0,-0.0010045106443739345,0.0006748955984320103
1589988361.4845533,-0.06509698691641236,-4.514903013083588,8.667548493458206,0.4149030130835876,0.43666666666666665,-0.6965235929394616,-0.0008234129025684428,-0.0024702387077053284,0.002181661564992912
1589988361.4945533,-0.07,-4.498869039089245,8.686696441366133,0.41,0.43666666666666665,-0.7033333333333334,0.0001233686975252342,-0.0014511931274568328,0.0009674620849712218
1589988361.5045533,-0.07498126546482857,-4.504943796394485,8.645206079886885,0.41,0.43666666666666665,-0.7033333333333334,4.087241532153493e-06,0.0,0.0010867435409643025
1589988361.5145533,-0.07481769957786993,-4.514817699577869,8.62109380253278,0.41,0.43666666666666665,-0.7033333333333334,3.977178242431682e-05,0.0005653012824603864,0.0010510590000721391
1589988361.5245533,-0.06118160969749918,-4.523227585453751,8.65,0.41,0.43666666666666665,-0.7033333333333334,-0.00035207495660896323,-0.00035207495660896323,0.0004809685797018064
1589988361.5345533,-0.06776315789473684,-4.516315789473684,8.661842105263158,0.40605263157894733,0.42219298245614034,-0.694780701754386,-0.0015357749174621156,-0.0028275482125237083,-0.00020094251256513678
1589988361.5445533,-0.07256488884021466,-4.5,8.647694666520644,0.4033333333333333,0.4122222222222222,-0.6888888888888889,0.0005312588423789003,-0.003272492347489368,-0.00027978597005877783
1589988361.5545533,-0.06314224963684975,-4.5,8.6262844992737,0.4033333333333333,0.4122222222222222,-0.6888888888888889,0.003335024340936619,-0.0017763633085292594,0.002244193558440163
1589988361.5645533,-0.06717697375411752,-4.521530921262353,8.62,0.4033333333333333,0.4122222222222222,-0.6888888888888889,0.0020146639611376606,-0.0018737171721125104,0.0009238331786412049
1589988361.5745533,-0.06397294020285225,-4.523972940202852,8.638081179391444,0.4033333333333333,0.4122222222222222,-0.6888888888888889,-0.0015389701593737889,-0.002181661564992912,-0.001972350706402684
1589988361.5845532,-0.06636371784529892,-4.5136362821547005,8.669091153535897,0.4203032475874638,0.41858594006752115,-0.6846464103253562,-0.003272492347489368,-0.0007933137016380965,-0.0025783184158119604
1589988361.5945532,-0.06393064644364259,-4.516069353556357,8.673930646443642,0.43,0.4222222222222222,-0.6822222222222222,-0.0019483648096635677,-0.0006620637689129,-0.002843725333905812
1589988361.6045532,-0.06694301470588236,-4.52,8.61445588235294,0.43,0.4222222222222222,-0.6822222222222222,0.00042390005040395364,0.0019386308833043632,-0.0017577615145889583
1589988361.6145532,-0.07,-4.512652568670267,8.648779450637857,0.43,0.4222222222222222,-0.6822222222222222,0.00269379163584661,0.002471011920814291,0.0005121300708536974
1589988361.6245532,-0.06584078907767654,-4.518318421844647,8.674159210922323,0.43,0.4222222222222222,-0.6822222222222222,0.0019113937559995975,0.0017279620344963216,-0.00027026780899331465
1589988361.6345532,-0.06010287559167145,-4.529794248816657,8.679897124408328,0.43,0.4222222222222222,-0.6822222222222222,3.366595864882785e-05,0.0011020527687127318,-0.002147995606344084
1589988361.6445532,-0.07,-4.51663347708439,8.693366522915609,0.4222222222222222,0.4177777777777778,-0.6755555555555556,0.0007236000998637809,0.0,-0.00035636941723110583
1589988361.6545532,-0.07,-4.51,8.660248353715899,0.4222222222222222,0.4177777777777778,-0.6755555555555556,0.0017344927768643554,0.00043362319421608885,0.0006572075882803671
1589988361.6645532,-0.07,-4.505524335519503,8.626853986882983,0.4222222222222222,0.4177777777777778,-0.6755555555555556,0.003875103871240603,0.0006026115237512352,0.00048821925874522086
1589988361.6745532,-0.06696177370030582,-4.509114678899083,8.66,0.4222222222222222,0.4177777777777778,-0.6755555555555556,0.0022782351159203506,0.00033141907718967247,9.65735509274384e-05
1589988361.6845531,-0.06739863431194784,-4.526300682844026,8.674797268623896,0.4205780812640116,0.41942191873598844,-0.6755555555555556,-0.0016141316111814386,-0.00011976792588962301,-0.0013745957594021928
1589988361.6945531,-0.07664303028110415,-4.52,8.689929090843313,0.4177777777777778,0.4222222222222222,-0.6755555555555556,-0.005095700311041836,-0.001815472974464906,0.00036618859052800604
1589988361.7045531,-0.07,-4.5154085944040965,8.64245156642458,0.4177777777777778,0.4222222222222222,-0.6755555555555556,-0.0040407614155098075,-0.0005899861266026704,0.0005899861266026704
1589988361.714553,-0.07,-4.504423667427761,8.621152665144477,0.4177777777777778,0.4222222222222222,-0.6755555555555556,0.0001257362621506033,-0.0006082835223235296,0.0
1589988361.724553,-0.06434199373502857,-4.511316012529942,8.658290031324857,0.4177777777777778,0.4222222222222222,-0.6755555555555556,0.00047363804235759136,-0.002325216262774185,-0.0012343854802777292
1589988361.734553,-0.0655331767822736,-4.5144668232177265,8.68,0.4177777777777778,0.4197630325412117,-0.6712519736137872,0.0006035759559098737,-0.001461764479759747,0.0002326422586465828
1589988361.744553,-0.06403870683967451,-4.504038706839674,8.685961293160325,0.4177777777777778,0.4177777777777778,-0.6677777777777778,-0.00020972163405726888,0.0,0.0008811091484391871
1589988361.754553,-0.06651803731859018,-4.5130360746371805,8.631337664132689,0.4177777777777778,0.4177777777777778,-0.6677777777777778,0.0017531995169350778,0.0021330227245736507,-0.001422015149715767
1589988361.764553,-0.07,-4.498900206106504,8.62813305852466,0.4177777777777778,0.4177777777777778,-0.6677777777777778,0.0025052821913775073,0.0017380720352656468,-0.0014144514088810514
1589988361.774553,-0.07,-4.493894868585732,8.651684605757197,0.4177777777777778,0.4177777777777778,-0.6677777777777778,0.002181661564992912,0.0006659665277869477,-0.00024110227307743944
1589988361.784553,-0.07,-4.499420591528885,8.668261774586654,0.4177777777777778,0.4177777777777778,-0.6677777777777778,0.002181661564992912,6.32036595931678e-05,0.0009644234633101204
1589988361.794553,-0.06291857378249725,-4.512918573782497,8.66832570487001,0.41,0.43,-0.6755555555555556,-0.002181661564992912,0.001090830782496456,-0.0017275648070834801
1589988361.804553,-0.07,-4.515846548859688,8.615079293158134,0.41,0.43,-0.6755555555555556,-0.0012755190935036342,0.00018468831100717825,-0.0019132786402554515
1589988361.814553,-0.07,-4.514253926912008,8.597015707648033,0.41,0.43,-0.6755555555555556,0.0,-0.0006267993402855888,-0.0009280628844217343
1589988361.824553,-0.06610082660213094,-4.5161008266021305,8.625848760096803,0.41,0.43,-0.6755555555555556,-0.0002126669184343438,0.0,-0.001968994646558568
1589988361.834553,-0.05621891305175763,-4.496890543474121,8.668656739155274,0.4162189130517576,0.426199553135037,-0.6776285265728081,-0.001090830782496456,0.001017567268578929,-0.0014300198720227657
1589988361.844553,-0.07,-4.492092448579112,8.701630205683553,0.43,0.4177777777777778,-0.6822222222222222,-0.0013190815145850741,0.0028159908833121318,-0.0014969093687270574
