time,acc_x,acc_y,acc_z,mag_x,mag_y,mag_z,gyr_x,gyr_y,gyr_z
1589988377.407517,-3.89,-0.81,8.95,0.31222222222222223,-0.4011111111111111,-0.6377777777777778,0.003272492347489368,0.002181661564992912,0.0
1589988377.417517,-3.8937467354608577,-0.8181266322695713,8.953772851773998,0.31222222222222223,-0.4011111111111111,-0.6377777777777778,0.0028637869100319405,-0.0008864780637677422,-0.0008864780637677422
1589988377.427517,-3.9092997289766007,-0.8107002710233997,8.842100813070198,0.31222222222222223,-0.4011111111111111,-0.6377777777777778,0.0010144430636549952,0.0001527754376829216,0.0
1589988377.437517,-3.9012944230255373,-0.8187055769744627,8.866116730923387,0.31222222222222223,-0.4011111111111111,-0.6377777777777778,0.0001411996481828255,0.001899262268627261,0.0
1589988377.447517,-3.8912628283179687,-0.82,8.887474343364064,0.31222222222222223,-0.4011111111111111,-0.6377777777777778,0.0,0.00027550640044961814,0.0019061551645432938
1589988377.457517,-3.897377954804748,-0.8052440903905046,8.904755909609495,0.31222222222222223,-0.3961924745746126,-0.6049868675344547,-0.0024144300638659273,-0.0008048100212886424,0.0005720415224156272
1589988377.467517,-3.9091109735482488,-0.8191109735482488,8.86288778838599,0.31222222222222223,-0.3944444444444444,-0.5933333333333334,-0.0028845813794798666,-0.001090830782496456,9.697774200237533e-05
1589988377.477517,-3.899076405115449,-0.8109235948845507,8.793694379538202,0.31222222222222223,-0.3944444444444444,-0.5933333333333334,0.0012923279286212756,-0.000587087917184407,0.0008893336363716363
1589988377.4875169,-3.891133295673686,-0.8211332956736856,8.837933069715799,0.31222222222222223,-0.3944444444444444,-0.5933333333333334,0.003272492347489368,0.004363323129985824,-0.0008435840211911837
1589988377.4975169,-3.8993034263786353,-0.8293034263786353,8.895123984650448,0.31222222222222223,-0.3944444444444444,-0.5933333333333334,0.003272492347489368,0.004363323129985824,0.0009388619928045255
1589988377.5075169,-3.9074594713136186,-0.8312702643431906,8.93127026434319,0.31222222222222223,-0.38666666666666666,-0.6,0.0050384608782442705,0.00041569303423800915,0.0
1589988377.5175169,-3.8933084228816277,-0.8383457885591862,8.938345788559186,0.31222222222222223,-0.38666666666666666,-0.6,0.002723000993112157,0.0027311529193701227,0.0
1589988377.5275168,-3.9,-0.8187839547518047,8.866080226240976,0.31222222222222223,-0.38666666666666666,-0.6,-0.0012234807414604515,0.003272492347489368,0.0001326499589639956
1589988377.5375168,-3.9,-0.81,8.908712740597727,0.31222222222222223,-0.38666666666666666,-0.6,-0.002322079783098703,0.003412910565595159,0.0009504125643906649
1589988377.5475168,-3.9,-0.81,8.90044957544475,0.31222222222222223,-0.38666666666666666,-0.6,-0.003223451274070725,0.004314282056567181,4.904107341864323e-05
1589988377.5575168,-3.902832553601361,-0.8214162768006804,8.883004678391835,0.3,-0.38,-0.6144444444444445,-0.003272492347489368,0.00078184711635288,-0.001090830782496456
1589988377.5675168,-3.916511505678572,-0.83,8.785232741482142,0.3,-0.38,-0.6144444444444445,-0.00289195664845162,-0.001090830782496456,-0.001090830782496456
1589988377.5775168,-3.898635969130445,-0.8286359691304449,8.81545612347822,0.3,-0.38,-0.6144444444444445,-0.0007932454103392514,-0.001090830782496456,-0.0006444527242606493
1589988377.5875168,-3.892010627659366,-0.8210053138296829,8.854021255318731,0.3,-0.38,-0.6144444444444445,0.0014198189639427195,-0.000871505328198947,0.002181661564992912
1589988377.5975168,-3.908459185474225,-0.8292295927371125,8.88691837094845,0.3,-0.38,-0.6144444444444445,0.004111207942760864,0.000922753991013149,0.002181661564992912
1589988377.6075168,-3.891108984304165,-0.8194455078479176,8.966118554935424,0.32666666666666666,-0.38666666666666666,-0.6077777777777778,0.004423808840800239,0.0009698593608676253,0.001272287914939702
1589988377.6175168,-3.9080109205939837,-0.8109945397030083,8.906961777921058,0.32666666666666666,-0.38666666666666666,-0.6077777777777778,0.005345666460236657,-0.0008738558780052102,0.004037860773248955
1589988377.6275167,-3.8908270808909733,-0.8108270808909731,8.84,0.32666666666666666,-0.38666666666666666,-0.6077777777777778,0.0062743231063323406,0.00018044105909759662,-0.00018044105909759662
1589988377.6375167,-3.8990222743259086,-0.8190222743259086,8.84,0.32666666666666666,-0.38666666666666666,-0.6077777777777778,0.003592452326130181,0.0019683549125657034,-0.0019683549125657034
1589988377.6475167,-3.9,-0.8109770634358436,8.885114682820783,0.32666666666666666,-0.38666666666666666,-0.6077777777777778,-0.0016487561288579533,0.00021316217445398406,0.0007710875208154803
1589988377.6575167,-3.9010018193457094,-0.8089981806542906,8.89,0.32,-0.3744444444444445,-0.6,-0.0030539292713293188,-0.0008722677063364066,0.002181661564992912
1589988377.6675167,-3.908067450557596,-0.8019325494424043,8.89,0.32,-0.3744444444444445,-0.6,-0.0015124476665906354,0.0006692138984022765,0.002181661564992912
1589988377.6775167,-3.919377829202444,-0.83,8.765599537178003,0.32,-0.3744444444444445,-0.6,-0.000683620947729799,0.002181661564992912,0.001022962476702013
1589988377.6875167,-3.9108637314008488,-0.83,8.842226417392363,0.32,-0.3744444444444445,-0.6,0.004888843032569677,0.002181661564992912,9.421847998543364e-05
1589988377.6975167,-3.8928061771482017,-0.8214030885741006,8.884387645703598,0.32,-0.3744444444444445,-0.6,0.0017030436653756912,0.0003061064414396177,0.0009377775617766471
1589988377.7075167,-3.91,-0.8196493869060653,8.92859754762426,0.31222222222222223,-0.38222222222222224,-0.6144444444444445,0.002258153476114981,-0.0010525848269354215,0.001090830782496456
1589988377.7175167,-3.9057847853946512,-0.8085949284648838,8.877354356183954,0.31222222222222223,-0.38222222222222224,-0.6144444444444445,0.003903514545351506,-0.00015326952821143925,0.001090830782496456
1589988377.7275167,-3.880781443246927,-0.8,8.801302405411546,0.31222222222222223,-0.38222222222222224,-0.6144444444444445,0.001090830782496456,-0.001090830782496456,0.0010340026259283274
1589988377.7375166,-3.908670759481137,-0.8019938607782949,8.853323101297157,0.31222222222222223,-0.38222222222222224,-0.6144444444444445,0.0008733343111988162,-0.0009458331349646962,-0.0008733343111988162
1589988377.7475166,-3.892058025547084,-0.8269129616793741,8.89485493613229,0.31222222222222223,-0.38222222222222224,-0.6144444444444445,-0.0018449179223044329,0.0008663350207041367,0.0018449179223044329
1589988377.7575166,-3.8915047957952433,-0.83,8.938495204204756,0.30666666666666664,-0.38666666666666666,-0.6222222222222222,-0.004117101493762469,0.0030262707112660133,0.0002462216362233549
1589988377.7675166,-3.90866044951633,-0.83,8.921339550483669,0.30666666666666664,-0.38666666666666666,-0.6222222222222222,-0.0013100142178407038,0.00021918343534424803,0.00305330891214512
1589988377.7775166,-3.908323315288408,-0.83,8.794471159230913,0.30666666666666664,-0.38666666666666666,-0.6222222222222222,-0.0009688988294333838,0.00012193195306307221,0.0009079328529018476
1589988377.7875166,-3.8848346089229047,-0.83,8.857107709538921,0.30666666666666664,-0.38666666666666666,-0.6222222222222222,0.000739248100200697,0.001830078882697153,-0.001654287541549274
1589988377.7975166,-3.903619646402572,-0.8142535690649523,8.893619646402572,0.30666666666666664,-0.38666666666666666,-0.6222222222222222,0.0019496653614166826,-0.0021125113296082214,-0.00046399240715245876
1589988377.8075166,-3.9193488233935114,-0.8096744116967557,8.90772088187729,0.30666666666666664,-0.38666666666666666,-0.6022222222222222,0.005347605389402367,-0.0021461453906329413,0.0
1589988377.8175166,-3.9055057922703718,-0.8027528961351861,8.859270272946302,0.30666666666666664,-0.38666666666666666,-0.6022222222222222,0.0030825447185758295,-0.001391125167024095,0.0
1589988377.8275166,-3.9,-0.8,8.800540477213262,0.30666666666666664,-0.38666666666666666,-0.6022222222222222,0.002181661564992912,-0.003243013888416164,0.0021521831059197077
1589988377.8375165,-3.906830714156691,-0.8136614283133816,8.854645713253527,0.30666666666666664,-0.38666666666666666,-0.6022222222222222,0.002926776891848177,-0.0017822616937788376,-5.368441557288342e-05
1589988377.8475165,-3.9025157004032525,-0.8274842995967475,8.887484299596748,0.30666666666666664,-0.38666666666666666,-0.6022222222222222,0.00082326103182196,-0.0027236516596080614,0.0005419900946151493
1589988377.8575165,-3.892727503812913,-0.8154550076258261,8.919089984748348,0.30666666666666664,-0.38181833587527536,-0.616767214596396,0.0015866125412925067,-0.0016858798061968612,0.001090830782496456
1589988377.8675165,-3.880592988024816,-0.7908894820372241,8.907331553888328,0.30666666666666664,-0.38,-0.6222222222222222,-0.0032401498679333124,6.46849591121113e-05,0.0031107799497090897
1589988377.8775165,-3.9,-0.819256766231945,8.818885149347917,0.30666666666666664,-0.38,-0.6222222222222222,-0.002060050224075133,0.002303272905910691,-0.002060050224075133
1589988377.8875165,-3.9,-0.8003849655575216,8.79128321852507,0.30666666666666664,-0.38,-0.6222222222222222,0.001090830782496456,0.005398162941769562,0.001048837554461918
1589988377.8975165,-3.9,-0.8220002404961091,8.863334134987031,0.30666666666666664,-0.38,-0.6222222222222222,0.001090830782496456,0.002254348638418156,-0.0013090231730516365
1589988377.9075165,-3.8996989160979525,-0.8196989160979525,8.89120433560819,0.30666666666666664,-0.3944444444444444,-0.6,0.0020831320884526863,-0.001057987623649714,0.002181661564992912
1589988377.9175165,-3.890727792046763,-0.8092722079532372,8.921994287485608,0.30666666666666664,-0.3944444444444444,-0.6,-0.0010114409857099479,-0.00015877959357301616,0.0020228819714198957
1589988377.9275165,-3.8999844771626133,-0.8000465685121596,8.82004656851216,0.30666666666666664,-0.3944444444444444,-0.6,-1.6932788852901381e-06,-0.0021782750072223316,-3.3865577705802762e-06
1589988377.9375165,-3.890119714003481,-0.8296408579895573,8.849640857989558,0.30666666666666664,-0.3944444444444444,-0.6,-0.001077772010487173,-2.6117544018565853e-05,-0.002155544020974346
1589988377.9475164,-3.89,-0.83,8.889519021146718,0.30666666666666664,-0.3944444444444444,-0.6,-0.001090830782496456,-0.0006158366394424209,-0.0009499882861080701
1589988377.9575164,-3.89,-0.8195652628278817,8.930434737172119,0.3159419885974385,-0.389420311731943,-0.6100482654250028,-0.0018496662834702334,0.00042684021945109873,0.0
1589988377.9675164,-3.900343890596463,-0.8103438905964631,8.913796382912379,0.3333333333333333,-0.38,-0.6288888888888889,-0.002144148920149611,0.0038366640611592466,-0.0011283434273397569
1589988377.9775164,-3.91,-0.8123843523355004,8.819074818684003,0.3333333333333333,-0.38,-0.6288888888888889,-0.001090830782496456,0.002701846549769133,0.00031055330533212404
1589988377.9875164,-3.9,-0.800073831775701,8.80066448598131,0.3333333333333333,-0.38,-0.6288888888888889,-8.05379736609533e-06,0.002181661564992912,-8.05379736609533e-06
1589988377.9975164,-3.9,-0.8079136448598131,8.871222803738318,0.3333333333333333,-0.38,-0.6288888888888889,-0.0008632447414828963,0.002181661564992912,-0.0008632447414828963
1589988378.0075164,-3.9,-0.8163473831814245,8.89,0.3199333021725483,-0.38916844237316867,-0.6246573001012726,0.0002939534100231717,-0.0012802989163061573,-0.0017832228787562697
1589988378.0175164,-3.9,-0.8015052286085032,8.89,0.31222222222222223,-0.3944444444444444,-0.6222222222222222,-0.0019353691098654778,0.0007624408423265432,-0.002181661564992912
1589988378.0275164,-3.914826863512436,-0.8148268635124357,8.82327911419404,0.31222222222222223,-0.3944444444444444,-0.6222222222222222,-0.0005643016522690644,0.0027081906952203037,-0.002181661564992912
1589988378.0375164,-3.9003907847000976,-0.8196092152999024,8.890586177050148,0.31222222222222223,-0.3944444444444444,-0.6222222222222222,-0.0011121447815062115,0.0011121447815062115,0.0010695167834867004
1589988378.0475163,-3.9158391189849175,-0.8041608810150827,8.913758678477377,0.31222222222222223,-0.3944444444444444,-0.6222222222222222,-0.001954720710315052,0.001954720710315052,0.00022694085467785975
1589988378.0575163,-3.909863295125089,-0.8397265902501776,8.939179770750533,0.31222222222222223,-0.38,-0.6144444444444445,-0.00437823531855287,-0.0021220128107247264,-0.0010759185939294095
1589988378.0675163,-3.9018101875852005,-0.8236203751704011,8.890861125511204,0.31222222222222223,-0.38,-0.6144444444444445,-0.005256693078479311,0.0013918182289810398,-0.00019746083400296803
1589988378.0775163,-3.88006290269739,-0.819968548651305,8.81018870809217,0.31222222222222223,-0.38,-0.6144444444444445,-0.0021782307550621597,-0.0010771075427734472,-0.0010942615924272082
1589988378.0875163,-3.8983846237850823,-0.8108076881074588,8.865153871355247,0.31222222222222223,-0.38,-0.6144444444444445,-0.0011789358875236896,0.0029200719273804335,-0.0020935564599656783
1589988378.0975163,-3.9076707850294836,-0.81,8.885341570058968,0.31222222222222223,-0.38,-0.6144444444444445,-0.002764336469711225,0.004109245191096752,-0.0030184144086002965
1589988378.1075163,-3.891333087149188,-0.8224446085672082,8.908666912850812,0.31222222222222223,-0.3889877728540948,-0.6192840144428032,-0.003272492347489368,0.003005826919862834,-0.0012362480323048833
1589988378.1175163,-3.889775238886581,-0.8202247611134191,8.890674283340259,0.31222222222222223,-0.3944444444444444,-0.6222222222222222,-7.355290236775013e-05,-0.0020835910285025784,-0.0010663131483738726
1589988378.1275163,-3.89,-0.8035582383543148,8.816012072594416,0.31222222222222223,-0.3944444444444444,-0.6222222222222222,-0.0026902769582374574,-0.0012849025789137595,-0.0028843487546547607
1589988378.1375163,-3.8983960390998877,-0.808396039099888,8.808396039099888,0.31222222222222223,-0.3944444444444444,-0.6222222222222222,0.0003909708129912963,-0.001090830782496456,-0.0005248949771288693
1589988378.1475163,-3.9,-0.8171462656641604,8.860023859649123,0.31222222222222223,-0.3944444444444444,-0.6222222222222222,-0.0020273158440490026,0.0004682425307762732,-0.0015590733132727292
1589988378.1575162,-3.905752423657387,-0.8084951526852255,8.908762118286937,0.320531278616226,-0.3982793935493692,-0.6017691603292898,-0.003899984427433251,0.001090830782496456,-0.001554169485049029
1589988378.1675162,-3.887264517039441,-0.8151569886403726,8.945156988640372,0.32666666666666666,-0.4011111111111111,-0.5866666666666667,-0.004363323129985824,-0.0005625401953902912,-0.00026414529355308237
1589988378.1775162,-3.892536273318562,-0.8262681366592809,8.881050496747909,0.32666666666666666,-0.4011111111111111,-0.5866666666666667,-0.0029958278466181883,0.0002766645008711794,0.0006837476416838177
1589988378.1875162,-3.9,-0.8225799859055672,8.869680056377732,0.32666666666666666,-0.4011111111111111,-0.5866666666666667,-0.002991059543069387,0.004328422694802357,0.001090830782496456
1589988378.1975162,-3.893209704624799,-0.826790295375201,8.907161181500804,0.32666666666666666,-0.4011111111111111,-0.5866666666666667,-0.0010503733822355846,0.0024913286254772352,-0.00039058186100606623
1589988378.2075162,-3.907397041319504,-0.8126029586804966,8.893904438020746,0.3092696253471632,-0.3953120973379432,-0.5982646942130023,-0.0018977228195677166,0.0029885536020641725,-0.0001419693727125977
1589988378.2175162,-3.8916904047075778,-0.800845202353789,8.853380809415155,0.30666666666666664,-0.3944444444444444,-0.6,-0.001183028056991593,0.0012752253314867296,0.000998633508001319
1589988378.2275162,-3.89,-0.8085131272848123,8.773381854436689,0.30666666666666664,-0.3944444444444444,-0.6,-0.0029481070420131874,-0.0016950836067786406,0.001090830782496456
1589988378.2375162,-3.9062161415782573,-0.826216141578257,8.808648424734772,0.30666666666666664,-0.3944444444444444,-0.6,-0.004156945667833536,-0.0012972082446487438,0.00020637746215228779
1589988378.2475162,-3.90319750670728,-0.8368024932927198,8.88122243963448,0.30666666666666664,-0.3944444444444444,-0.6,-0.003621286221843378,-0.0018328676906389021,0.0
1589988378.2575161,-3.9,-0.8159069223429469,8.918031025885684,0.3173747011809125,-0.388198090977801,-0.6178467241904098,-0.0006443452721502504,-0.0030577105901059515,-0.0017520980502260784
1589988378.2675161,-3.9090782786361897,-0.8190782786361894,8.929078278636188,0.32,-0.38666666666666666,-0.6222222222222222,0.0,0.000688653967884814,-0.0011913749861493664
1589988378.2775161,-3.9015740191229806,-0.8284259808770195,8.862592152983844,0.32,-0.38666666666666666,-0.6222222222222222,0.0009191319313379303,0.00017169885115852568,-0.00017169885115852568
1589988378.287516,-3.908356839095649,-0.8132863218087024,8.891784195478245,0.32,-0.38666666666666666,-0.6222222222222222,0.002002420515486815,0.0,0.0
1589988378.297516,-3.903030633921658,-0.8169693660783418,8.906969366078343,0.32,-0.38666666666666666,-0.6222222222222222,-0.0008592980561038413,0.0,0.0
1589988378.307516,-3.908638409480944,-0.82,8.944553637923777,0.32,-0.38666666666666666,-0.5972668170550501,-0.0012393572676305943,0.001884608594724635,0.0
1589988378.317516,-3.8922988344004317,-0.8022988344004316,8.834942423602804,0.32,-0.38666666666666666,-0.5933333333333334,-0.0030217284147041187,0.00025076393278524985,-0.000965448816103831
1589988378.327516,-3.8957819402169673,-0.8057819402169671,8.77952641848123,0.32,-0.38666666666666666,-0.5933333333333334,-0.002011068673244969,0.0012614236742443993,0.0014320165659923426
1589988378.337516,-3.9,-0.81,8.802543434027234,0.32,-0.38666666666666666,-0.5933333333333334,-0.0017276751742184438,0.002181661564992912,0.0007251147806014166
1589988378.347516,-3.9063942729927903,-0.8163942729927902,8.85918281897837,0.32,-0.38666666666666666,-0.5933333333333334,-0.002879168546215039,0.0014841545837707853,-0.0031833517261628365
1589988378.357516,-3.894249400168601,-0.82,8.917251799494196,0.32,-0.37704130010303416,-0.6047087665448991,-0.0006953064766583826,0.001090830782496456,-0.0017861372591548384
1589988378.367516,-3.895336248492159,-0.8253362484921591,8.913991254523522,0.32,-0.3744444444444445,-0.6077777777777778,-0.0017462832354892754,0.001090830782496456,-0.001090830782496456
1589988378.377516,-3.895631495438318,-0.8387370091233637,8.873788972629908,0.32,-0.3744444444444445,-0.6077777777777778,-0.002319432497617613,0.002996950482239966,-0.0006143008575605786
1589988378.387516,-3.89,-0.8387110423956383,8.84,0.32,-0.3744444444444445,-0.6077777777777778,0.0013720377089305655,0.0036070025439120137,-0.0006157171228567554
1589988378.397516,-3.906192366331949,-0.8084101782240681,8.888577098995846,0.32,-0.3744444444444445,-0.6077777777777778,0.0020949502383994286,0.003359203674082851,-0.0005020597279514864
1589988378.407516,-3.9043792353918936,-0.8108276861441418,8.935206921536036,0.31305743795195273,-0.38485828751651535,-0.6152988866631623,0.001090830782496456,0.00209137501256534,-0.0005679870293551209
1589988378.417516,-3.9047574067751603,-0.83,8.925242593224839,0.30666666666666664,-0.3944444444444444,-0.6222222222222222,0.001090830782496456,0.0008048916790083291,-0.0018957224615047852
1589988378.427516,-3.896829946805511,-0.8234149734027555,8.827809627638578,0.30666666666666664,-0.3944444444444444,-0.6222222222222222,-0.0003457991606699636,0.003964090668829295,0.0006915983213399272
1589988378.437516,-3.9052501603592047,-0.8352501603592046,8.841000641436818,0.30666666666666664,-0.3944444444444444,-0.6222222222222222,-0.0035861324361705976,0.0046223866945909,0.0005181271292101512
1589988378.447516,-3.903423963747834,-0.8334239637478341,8.866576036252166,0.30666666666666664,-0.3944444444444444,-0.6222222222222222,-0.003645988852918316,0.0022113202987832994,0.0
1589988378.457516,-3.907917258698741,-0.8220827413012589,8.885834517397482,0.30666666666666664,-0.38300840410181847,-0.6046283140027977,-0.0006815754970170007,0.0002271918323390001,-0.0008636389501574559
1589988378.467516,-3.901653200309141,-0.8033064006182815,8.89,0.30666666666666664,-0.38,-0.6,-0.0009104946038121194,0.0,0.0007301584251277829
1589988378.477516,-3.9028670704667134,-0.8,8.867063436266292,0.30666666666666664,-0.38,-0.6,-0.001090830782496456,0.0,0.0007780819104286953
1589988378.487516,-3.91,-0.8,8.846985227137708,0.30666666666666664,-0.38,-0.6,0.0009264004304753261,-0.002017231212971782,0.0006724104043239273
1589988378.497516,-3.914793378605287,-0.809586757210574,8.908347028842295,0.30666666666666664,-0.38,-0.6,0.002181661564992912,0.0003876431068755332,0.0005679542890157558
1589988378.507516,-3.9176014452473598,-0.82,8.95,0.30799919708480017,-0.3786674695818665,-0.5984009634982398,0.0011350946219196027,0.0033167561869125147,0.0
1589988378.517516,-3.91,-0.8057764701712098,8.957111764914396,0.31222222222222223,-0.3744444444444445,-0.5933333333333334,-0.0029574347736429562,0.0023273196259501324,-0.0031030928346001767
1589988378.527516,-3.9169055354625146,-0.8138110709250291,8.877133574449825,0.31222222222222223,-0.3744444444444445,-0.5933333333333334,-0.004779046477915725,0.003272492347489368,-0.0013502148691331107
1589988378.5375159,-3.9056697502807336,-0.8152232500935779,8.84,0.31222222222222223,-0.3744444444444445,-0.5933333333333334,-0.007538404247767205,0.00431461751513183,0.001042125167642462
1589988378.5475159,-3.867985438584268,-0.8055970877168537,8.848805824566293,0.31222222222222223,-0.3744444444444445,-0.5933333333333334,-0.008376627367141757,0.003052737786938368,0.008425343491407082
1589988378.5575159,-3.7921461727664454,-0.7712877036598672,8.855214617276644,0.31222222222222223,-0.3771029904018642,-0.6002455528226246,-0.00602298041691245,-0.004698038502596577,0.033066598635568004
1589988378.5675159,-3.7256153202176643,-0.7639744663038929,8.869179573043114,0.31222222222222223,-0.38,-0.6077777777777778,-0.009115445929831729,-0.014001810776581759,0.06382204797967439
1589988378.5775158,-3.6716981466387892,-0.7756368049895461,8.861273609979092,0.31222222222222223,-0.38,-0.6077777777777778,-0.014656750915197738,-0.021155425844506862,0.0847606326750363
1589988378.5875158,-3.5774440248693598,-0.7456665522370981,8.853889079604837,0.31222222222222223,-0.38,-0.6077777777777778,-0.018968356077293237,-0.02347709834695275,0.1021018361356458
1589988378.5975158,-3.4814900494606067,-0.7079943139774896,8.891002843011256,0.31222222222222223,-0.38,-0.6077777777777778,-0.02961807155350368,-0.03010879034341748,0.1177565785303789
1589988378.6075158,-3.31488579726774,-0.642710029043709,8.974312811502744,0.3084690499241039,-0.384503806757742,-0.6077777777777778,-0.050736088971664636,-0.04999915531420056,0.13396398615902835
1589988378.6175158,-3.150909491148392,-0.7267128556863472,9.09384581518213,0.30666666666666664,-0.38666666666666666,-0.6077777777777778,-0.07194900542804845,-0.06254348408335418,0.16457041184613985
1589988378.6275158,-3.017111866461712,-0.7668592089025525,8.989675030851501,0.30666666666666664,-0.38666666666666666,-0.6077777777777778,-0.05391144613131773,-0.04565342563109574,0.195546195899322
1589988378.6375158,-2.9646113053384138,-0.6568374121066898,8.74678438150607,0.30666666666666664,-0.38666666666666666,-0.6077777777777778,-0.022471876848261043,-0.022392861569048118,0.21028172570186293
1589988378.6475158,-2.8606655097613882,-0.5760216919739697,8.698947505422993,0.30666666666666664,-0.38666666666666666,-0.6077777777777778,-0.01764580877257651,-0.019604571726482292,0.2155505288485936
1589988378.6575158,-2.5873,-0.6265,8.950899999999999,0.30666666666666664,-0.38666666666666666,-0.6077777777777778,-0.0464148497952242,-0.04108068726881653,0.2198569442121607
1589988378.6675158,-2.056239488731921,-0.7778203834510595,8.935856037672385,0.30666666666666664,-0.38666666666666666,-0.6077777777777778,-0.016926773121059197,-0.020339059120795845,0.25840544742306726
1589988378.6775157,-2.0287907404148826,-0.9133018554362915,8.653070365808356,0.30666666666666664,-0.38666666666666666,-0.6077777777777778,0.034056646854967655,0.01004574383944661,0.3205620391782921
1589988378.6875157,-2.046510858566202,-0.9645528138865105,8.503489141433798,0.30666666666666664,-0.38666666666666666,-0.6077777777777778,0.06513428124548688,0.028723738843183515,0.3586837904024248
1589988378.6975157,-2.131389711452379,-0.9003474278630949,8.646253701535707,0.30666666666666664,-0.38666666666666666,-0.6077777777777778,0.05287948891734851,0.019929916351134978,0.36110014559376635
1589988378.7075157,-2.214042902252721,-0.915957097747279,9.105115458570747,0.30397139849818594,-0.38666666666666666,-0.6077777777777778,-0.01808150113435893,-0.03743745023551727,0.33061353568857765
1589988378.7175157,-2.2399244363193174,-0.8900755636806825,9.130491163924436,0.3,-0.38666666666666666,-0.6077777777777778,-0.031321312531403515,-0.04440303920246827,0.3094460698329826
1589988378.7275157,-2.316453561090662,-0.8408866097273344,8.828989743773004,0.3,-0.38666666666666666,-0.6077777777777778,0.005080785180225156,-0.01187544900760177,0.29221896010919096
1589988378.7375157,-2.3504429273166263,-0.8347785363416867,8.827785363416869,0.3,-0.38666666666666666,-0.6077777777777778,0.0043735403028299525,-0.007818861805184926,0.26314201513018237
1589988378.7475157,-2.34,-0.8454617399542997,8.88,0.3,-0.38666666666666666,-0.6077777777777778,-0.015876047141740762,-0.016958245144260933,0.22230210922708468
1589988378.7575157,-2.34,-0.8229697194184646,8.831345494953236,0.2921912522764454,-0.3944754143902213,-0.6077777777777778,-0.012970977014572636,-0.012145909338729406,0.1803969866325533
1589988378.7675157,-2.3249800177619893,-0.8100133214920071,8.79,0.2855555555555556,-0.4011111111111111,-0.6077777777777778,-0.0027234440828536074,-0.005997389579697988,0.13741416245809815
1589988378.7775156,-2.2947054612395172,-0.8250981795868275,8.76960728165269,0.2855555555555556,-0.4011111111111111,-0.6077777777777778,-0.0011122502456013157,-0.003807198007185166,0.08728710114489563
1589988378.7875156,-2.304304735032184,-0.8154171589806896,8.813192311083679,0.2855555555555556,-0.4011111111111111,-0.6077777777777778,-0.0027119086276634406,-0.004863233535500953,0.034574170686275114
1589988378.7975156,-2.3256505342551854,-0.8021747328724074,8.899572595851666,0.2855555555555556,-0.4011111111111111,-0.6077777777777778,-0.0004257736743747951,-0.004409945690142806,-0.006502475890129718
1589988378.8075156,-2.3114004450710923,-0.8092997774644538,8.963697997180084,0.2855555555555556,-0.4011111111111111,-0.6077777777777778,0.008900887886822247,0.002585050480754975,-0.04924967471228281
1589988378.8175156,-2.296111374332733,-0.8016658770018005,9.031665877001801,0.31222222222222223,-0.4066666666666667,-0.6,0.009393293784522059,0.004545042121327506,-0.1378065660738977
1589988378.8275156,-2.3187133326273432,-0.810428889124219,8.973431112993753,0.31222222222222223,-0.4066666666666667,-0.6,0.009248669378271075,0.01333128523287128,-0.21278096647298392
1589988378.8375156,-2.3142685582013613,-0.7960298398001513,8.878089519400454,0.31222222222222223,-0.4066666666666667,-0.6,0.01068363163395556,0.021591939458920118,-0.27730879501455236
1589988378.8475156,-2.271033760734031,-0.7973558404893543,8.852644159510646,0.31222222222222223,-0.4066666666666667,-0.6,0.011196740883768881,0.02411104301796378,-0.34511447917384735
1589988378.8575156,-2.3207961093628673,-0.81,8.85847766561772,0.31222222222222223,-0.4029026977445384,-0.6023952529504452,0.009481543601726676,0.029203339746587807,-0.4158784891098828
1589988378.8675156,-2.386781187724193,-0.81,8.87746831406935,0.31222222222222223,-0.3944444444444444,-0.6077777777777778,0.010131118065382787,0.037753005579146966,-0.4946513699937912
1589988378.8775156,-2.3952135969730257,-0.8176067984865129,8.78816260832418,0.31222222222222223,-0.3944444444444444,-0.6077777777777778,0.015164401876291395,0.04186645623213211,-0.5811562594611855
1589988378.8875155,-2.42,-0.8313846314252945,8.722769262850589,0.31222222222222223,-0.3944444444444444,-0.6077777777777778,0.018846203018664395,0.04279413361421565,-0.6341251488776473
1589988378.8975155,-2.4403550082233543,-0.865815716635244,8.817802158129087,0.31222222222222223,-0.3944444444444444,-0.6077777777777778,0.02604070240661863,0.04863095070264416,-0.7309266800342997
1589988378.9075155,-2.49,-0.8723749034749034,8.925250193050193,0.315893564993565,-0.3961389103389103,-0.6077777777777778,0.029193369345816057,0.05156449766301731,-0.8042697886367487
1589988378.9175155,-2.4941349439865497,-0.8830795518923957,8.990674719932748,0.32666666666666666,-0.4011111111111111,-0.6077777777777778,0.03253619752928258,0.057436579581089955,-0.8926166085719134
1589988378.9275155,-2.503519239701311,-0.9335192397013112,8.974249883882955,0.32666666666666666,-0.4011111111111111,-0.6077777777777778,0.032664085758237954,0.06306680903504422,-0.9617142455796803
1589988378.9375155,-2.504926143024619,-0.9501477139507619,8.89,0.32666666666666666,-0.4011111111111111,-0.6077777777777778,0.031650205784846765,0.0714896989846417,-1.0449619235600676
1589988378.9475155,-2.50319381317414,-0.9695814395224205,8.88680618682586,0.32666666666666666,-0.4011111111111111,-0.6077777777777778,0.03307331444728316,0.07522166612692745,-1.1000378353394251
1589988378.9575155,-2.5120913045151854,-0.9920913045151853,8.880697101505062,0.32852560401349806,-0.39963945237820286,-0.609249436510686,0.033967838213439336,0.07790523742539597,-1.1521165018677475
1589988378.9675155,-2.5447187342377022,-1.0483124054262125,8.856968860336085,0.3533333333333333,-0.38,-0.6288888888888889,0.035997415822383035,0.08347923619613656,-1.2423436713332197
1589988378.9775155,-2.5659394202269934,-1.0746868599243355,8.766868599243356,0.3533333333333333,-0.38,-0.6288888888888889,0.03773613684625815,0.08580100784285584,-1.3041598684696087
1589988378.9875154,-2.5751002047662617,-1.1042985666361695,8.749398771402431,0.3533333333333333,-0.38,-0.6288888888888889,0.03926990816987242,0.0894262628759912,-1.3607228391827497
1589988378.9975154,-2.585425277309525,-1.1708505546190504,8.826275831928575,0.3533333333333333,-0.38,-0.6288888888888889,0.0413732040845942,0.09222159167898326,-1.4119205724804702
1589988379.0075154,-2.612372285774306,-1.2247445715486125,8.907116857322919,0.35913225411497085,-0.3773641269174375,-0.6357421589035516,0.045241614551853035,0.09541983054669001,-1.45294689631978
1589988379.0175154,-2.62,-1.24,8.930791054212106,0.37777777777777777,-0.3688888888888889,-0.6577777777777778,0.04768233930401827,0.09751539278477939,-1.4912585218374055
1589988379.0275154,-2.6230291258979945,-1.258174755387966,8.91879611871404,0.37777777777777777,-0.3688888888888889,-0.6577777777777778,0.055731921557738866,0.10452065181882053,-1.5423309374274499
1589988379.0375154,-2.6298462438643826,-1.2990774631862954,8.871076292949322,0.37777777777777777,-0.3688888888888889,-0.6577777777777778,0.0535010249200451,0.10898244509420806,-1.5691016970797749
1589988379.0475154,-2.5403206509503744,-1.4041282603801497,8.903807609429775,0.37777777777777777,-0.3688888888888889,-0.6577777777777778,0.05431637744978139,0.11084939405726624,-1.619227908456045
1589988379.0575154,-2.574044479464831,-1.4176177917859325,8.883573312321102,0.37777777777777777,-0.3688888888888889,-0.6577777777777778,0.053580637644837364,0.11305661347209829,-1.6420358424093098
1589988379.0675154,-2.602811970120526,-1.4784359103615783,8.841405985060263,0.4033333333333333,-0.3477777777777778,-0.6522222222222223,0.05486552401558671,0.11780972450961726,-1.6838497571474809
1589988379.0775154,-2.6318554851515383,-1.5418554851515383,8.819514466753187,0.4033333333333333,-0.3477777777777778,-0.6522222222222223,0.05073245862961101,0.11873346223424065,-1.7203284164321693
1589988379.0875154,-2.681329266196941,-1.608670733803059,8.709018302113765,0.4033333333333333,-0.3477777777777778,-0.6522222222222223,0.05534236901016818,0.12562845425690183,-1.7607525382342153
1589988379.0975153,-2.6635534213685474,-1.642563025210084,8.776116446578632,0.4033333333333333,-0.3477777777777778,-0.6522222222222223,0.057110818831014924,0.12590518176939286,-1.7875475461267358
1589988379.1075153,-2.6369508494285148,-1.692609830114297,8.817829490342891,0.41725242727625095,-0.33588855170153564,-0.6522222222222223,0.05620174651247154,0.11999138607461016,-1.8154778790687598
1589988379.1175153,-2.613457009741635,-1.7493423690526613,8.857942679655514,0.4566666666666666,-0.3022222222222222,-0.6522222222222223,0.06123920624783583,0.1239058715323515,-1.8517505676086228
1589988379.1275153,-2.602842487883683,-1.8235787560581584,8.85736873990307,0.4566666666666666,-0.3022222222222222,-0.6522222222222223,0.06248742193053749,0.12970550734099842,-1.8853802055255116
1589988379.1375153,-2.582071761770449,-1.8721913647211976,8.82597607940985,0.4566666666666666,-0.3022222222222222,-0.6522222222222223,0.05846592061020296,0.13177757718878602,-1.9188496263594785
1589988379.1475153,-2.588840807174888,-1.934878923766816,8.816280269058296,0.4566666666666666,-0.3022222222222222,-0.6522222222222223,0.061465868784745935,0.13795047188114598,-1.9501733318362668
1589988379.1575153,-2.57,-1.9699185656118294,8.821902278734196,0.4595320300656396,-0.2947281948710622,-0.6621407878340516,0.06611678177851707,0.14573854578702133,-1.9760993001336524
1589988379.1675153,-2.5648790447317946,-2.015120955268205,8.867439522365897,0.4711111111111111,-0.2644444444444444,-0.7022222222222222,0.05887847390883596,0.1431517489431803,-2.0072869698693148
1589988379.1775153,-2.521361810412432,-2.041455275835027,8.808451258742377,0.4711111111111111,-0.2644444444444444,-0.7022222222222222,0.05625715828246102,0.14227914187989724,-2.0342610543801163
1589988379.1875153,-2.454234751852504,-2.068306099258998,8.687622553334506,0.4711111111111111,-0.2644444444444444,-0.7022222222222222,0.057721643518773263,0.14594035497067787,-2.0518348772158634
1589988379.1975152,-2.4474956760035043,-2.152504323996496,8.736252161998248,0.4711111111111111,-0.2644444444444444,-0.7022222222222222,0.06517666757931513,0.14760315817526373,-2.078102350522911
1589988379.2075152,-2.42,-2.1921239657052447,8.769398345128392,0.48188796951577306,-0.24989568559815079,-0.7054552797436208,0.062177354602297986,0.1488819942194065,-2.0912886683974916
1589988379.2175152,-2.416100778287767,-2.2416976651366993,8.824801037717023,0.5155555555555555,-0.20444444444444448,-0.7155555555555555,0.06246091400706348,0.15152710590119017,-2.1037322742992632
1589988379.2275152,-2.390990221512672,-2.3170293354619833,8.791320295350229,0.5155555555555555,-0.20444444444444448,-0.7155555555555555,0.06428700522679003,0.1579184251702331,-2.114688821617623
1589988379.2375152,-2.37,-2.394042303172738,8.745616921269095,0.5155555555555555,-0.20444444444444448,-0.7155555555555555,0.06920045901745438,0.1620556668717943,-2.124116716204882
1589988379.2475152,-2.3659776970954356,-2.4322346127247583,8.760893845089903,0.5155555555555555,-0.20444444444444448,-0.7155555555555555,0.06748525345395283,0.16347836231364093,-2.130636276650291
1589988379.2575152,-2.2817722131494587,-2.494177705195669,8.788861065747293,0.5171308561328521,-0.1961741164136374,-0.719493806998797,0.06339242383900365,0.1607387619582939,-2.1362333090593757
1589988379.2675152,-2.288689875611353,-2.5621835406477453,8.82519621057496,0.5244444444444445,-0.15777777777777774,-0.7377777777777778,0.058809587320672915,0.1626766989931755,-2.1381236086271898
1589988379.2775152,-2.26,-2.6208405491024287,8.701932418162619,0.5244444444444445,-0.15777777777777774,-0.7377777777777778,0.0567232006898157,0.16580627893946132,-2.140998342235386
1589988379.2875152,-2.2567869203525244,-2.6624915575323285,8.67,0.5244444444444445,-0.15777777777777774,-0.7377777777777778,0.05532123021538405,0.1654557863208534,-2.142742149441647
1589988379.2975152,-2.2439476042380475,-2.7160523957619525,8.682104791523905,0.5244444444444445,-0.15777777777777774,-0.7377777777777778,0.05202977057958044,0.16702619701871094,-2.144142701566035
1589988379.3075151,-2.223064033776058,-2.733963409270824,8.71,0.5263160543778892,-0.15777777777777774,-0.7398695771151572,0.051809472881864285,0.17267551929715858,-2.145772234391435
1589988379.3175151,-2.134303335129633,-2.7657172225216056,8.731413887391973,0.5433333333333333,-0.15777777777777774,-0.7588888888888888,0.05578884358821265,0.17468939888032636,-2.145353444300621
1589988379.3275151,-2.096503562695554,-2.808950122262246,8.73202850156443,0.5433333333333333,-0.15777777777777774,-0.7588888888888888,0.05110891982813989,0.17267929012878472,-2.1427196833173845
1589988379.337515,-2.098087226243068,-2.912130839364602,8.684043613121533,0.5433333333333333,-0.15777777777777774,-0.7588888888888888,0.04163643371652159,0.1739069714512291,-2.137331018141615
1589988379.347515,-2.0898337879074287,-2.934481380465016,8.683277929302475,0.5433333333333333,-0.15777777777777774,-0.7588888888888888,0.03757708938081125,0.1787831030987858,-2.12879471373045
1589988379.357515,-2.038864734951797,-2.9458078366773788,8.666288244983932,0.5433333333333333,-0.15777777777777774,-0.7588888888888888,0.03881261409011559,0.1812541525173945,-2.1219993278292764
1589988379.367515,-2.0284583309424074,-3.042312503586389,8.718843748206806,0.59,-0.14,-0.7888888888888889,0.03461228752860883,0.17763724754047788,-2.107650967530205
1589988379.377515,-1.9963678965589793,-3.090448155161531,8.694775922419234,0.59,-0.14,-0.7888888888888889,0.02848637164001179,0.17413672417556528,-2.088398089023186
1589988379.387515,-1.9716583645827503,-3.13,8.621658364582752,0.59,-0.14,-0.7888888888888889,0.030846572332884056,0.15850301818702434,-2.045757249114113
1589988379.397515,-1.9247081211171433,-3.13,8.574708121117144,0.59,-0.14,-0.7888888888888889,0.0325537313601503,0.15423512061885875,-2.01758912516422
1589988379.407515,-1.922708655631188,-3.2054173112623765,8.708194229579208,0.5872913443688118,-0.1434108996837184,-0.7888888888888889,0.036686842308775586,0.1452849193720204,-1.9638504474188254
1589988379.417515,-1.9470413056930693,-3.2540826113861385,8.691972462871286,0.5629586943069307,-0.17405201457645764,-0.7888888888888889,0.042880163173792264,0.1373220782598561,-1.8886458369150518
1589988379.427515,-1.8738898125583618,-3.307495843487371,8.708614343954267,0.56,-0.17777777777777778,-0.7888888888888889,0.04102725700718507,0.1315061140277993,-1.8087212604738463
1589988379.437515,-1.8571673140199403,-3.3728326859800597,8.66283268598006,0.56,-0.17777777777777778,-0.7888888888888889,0.04254240051736178,0.12544553998709246,-1.7532596276754353
1589988379.447515,-1.85,-3.38,8.682724383497145,0.56,-0.17777777777777778,-0.7888888888888889,0.04198719454908273,0.12128149522499958,-1.6973361643917617
1589988379.457515,-1.8421669150521611,-3.378694485842027,8.723916542473921,0.5512965722801789,-0.1682040072859745,-0.7707567478059281,0.04036073895236887,0.10822862123134434,-1.644633703311319
1589988379.467515,-1.7768423259480401,-3.391052278483136,8.73684232594804,0.4933333333333334,-0.10444444444444444,-0.65,0.04150896262292348,0.10339926130758283,-1.5740117006863714
1589988379.477515,-1.7416688190798852,-3.4473298894721838,8.701668819079885,0.4933333333333334,-0.10444444444444444,-0.65,0.044578430144534185,0.10570136194879085,-1.527202320981808
1589988379.487515,-1.743944447706853,-3.470092587155245,8.614129622017343,0.4933333333333334,-0.10444444444444444,-0.65,0.03925980847797192,0.09117931384804302,-1.4469708798802323
1589988379.497515,-1.7177988221436984,-3.5097248527679623,8.669174558303887,0.4933333333333334,-0.10444444444444444,-0.65,0.035116682389184375,0.0851748427558512,-1.391040005290209
1589988379.507515,-1.639719243103192,-3.499719243103192,8.641544162932444,0.49369207825703254,-0.10283789109048734,-0.6493760957848711,0.042450523037730864,0.08821947716276655,-1.3210456302832205
1589988379.517515,-1.6219041348992291,-3.4819041348992292,8.73952725805424,0.5164558276287627,-0.0008958830344775598,-0.6097869664427312,0.0366205425110145,0.07947450637269202,-1.2549725176471023
1589988379.527515,-1.1967231638418079,-2.9007790663098425,9.128721379720487,0.5188888888888888,0.01,-0.6055555555555555,0.039237580049744904,0.1806049895016434,-1.1750067200603038
1589988379.537515,-1.4387276074022943,-3.0161828222068827,8.409035926765934,0.5188888888888888,0.01,-0.6055555555555555,0.18811981546552425,-0.009078137373958194,-1.1076303581960176
1589988379.547515,-1.547036676995362,-3.5087872896287746,10.089022014298155,0.5188888888888888,0.01,-0.6055555555555555,-0.11940729884658041,-0.019936066415888406,-1.0705970721748508
1589988379.557515,-1.29667671893848,-3.12537394451146,8.82304583835947,0.5213583969977215,0.02369454496716258,-0.6042085511325559,0.0004776496671245051,0.05013676705678072,-0.9725657775878714
1589988379.567515,-1.4038374103206845,-3.344043132509292,8.51455743798081,0.5311111111111111,0.07777777777777778,-0.5988888888888889,0.0653970921894099,0.08641578619556026,-0.8636619012056735
1589988379.577515,-1.2226403961213121,-2.9546940375489994,7.746362079636889,0.5311111111111111,0.07777777777777778,-0.5988888888888889,-0.001186838294733507,0.025803222946034026,-0.8168009243462251
1589988379.5875149,-1.4573774689100218,-3.39556510607169,8.928891733723482,0.5311111111111111,0.07777777777777778,-0.5988888888888889,-3.491137288530975e-05,0.021795668826197934,-0.7495519636930484
1589988379.5975149,-1.3486156464634294,-3.3263173273888422,8.138978792625617,0.5311111111111111,0.07777777777777778,-0.5988888888888889,0.04338837271521634,0.043339985911769366,-0.6602091802646257
1589988379.6075149,-1.4560127726232075,-3.5663814917459935,8.720186769490299,0.5311111111111111,0.07777777777777778,-0.5988888888888889,0.02753838391030425,0.021287827574500363,-0.615415733642048
1589988379.6175148,-1.5161118735858155,-3.6581957787751773,9.145629288920212,0.52,0.13777777777777778,-0.6055555555555555,0.026604067577797944,0.02181661564992912,-0.5109600044744349
1589988379.6275148,-1.3916473162951146,-3.4403828035164508,8.445516154160021,0.52,0.13777777777777778,-0.6055555555555555,0.04018104462004694,0.02181661564992912,-0.4337409475466438
1589988379.6375148,-1.4453524965002333,-3.553381241250583,8.686997480167989,0.52,0.13777777777777778,-0.6055555555555555,0.020141918072866756,0.011200241222247512,-0.3223077662140235
1589988379.6475148,-1.401155012771392,-3.443465038314176,8.43577506385696,0.52,0.13777777777777778,-0.6055555555555555,0.024627136052841107,0.008516659012436477,-0.2528594455775833
1589988379.6575148,-1.43167725907095,-3.538386295354749,8.606836145135198,0.5224227075469275,0.14448681406157718,-0.6055555555555555,0.01308996938995747,0.0019917682701199157,-0.15208423525336004
1589988379.6675148,-1.4561291511102377,-3.6219357928866183,8.788387453330714,0.5344444444444445,0.17777777777777778,-0.6055555555555555,0.008867367503577252,-0.006122740582644249,-0.05901024242447747
1589988379.6775148,-1.5033699446176758,-3.730054916926514,8.92342486154419,0.5344444444444445,0.17777777777777778,-0.6055555555555555,0.0025522607511158763,-0.010182085721198945,0.01678997074379499
1589988379.6875148,-1.53,-3.77,8.99,0.5344444444444445,0.17777777777777778,-0.6055555555555555,0.007635815477475192,-0.01090830782496456,0.06326818538479445
1589988379.6975148,-1.4219152332346208,-3.623767668493899,8.614882280049567,0.5344444444444445,0.17777777777777778,-0.6055555555555555,0.005555188582652388,-0.016456646211158703,0.10280009638642773
1589988379.7075148,-1.4778001009272692,-3.7551113353939316,8.92217813663029,0.5353135403744121,0.17794073326464674,-0.605745670290236,0.005294172737354275,-0.026286592896666943,0.1802027612596308
1589988379.7175148,-1.3943542902332937,-3.586125741399763,8.618708580466587,0.57,0.18444444444444444,-0.6133333333333333,0.0005715970553437338,-0.03030577221878074,0.24374646184550644
1589988379.7275147,-1.4127809001920284,-3.6755505596927547,8.651668540115217,0.57,0.18444444444444444,-0.6133333333333333,0.00612029588042664,-0.029452431127404314,0.2874976464414888
1589988379.7375147,-1.4587509983253897,-3.6049960066984412,8.681665335566146,0.57,0.18444444444444444,-0.6133333333333333,-0.001090830782496456,-0.029634091057278256,0.3371103843673678
1589988379.7475147,-1.4314817128400537,-3.7192591435799733,8.721481712840054,0.57,0.18444444444444444,-0.6133333333333333,-0.0018181648720343373,-0.03389656915622768,0.3919724290164277
1589988379.7575147,-1.4445819408439267,-3.7127090295780367,8.734581940843928,0.57,0.18444444444444444,-0.6133333333333333,-0.008248724255990356,-0.03461107575444501,0.42412522593620783
1589988379.7675147,-1.4054871869118284,-3.665487186911829,8.67768206167656,0.6164911603365346,0.1824660971960813,-0.6350951530653283,-0.014792783563531642,-0.03684882290917013,0.48015237690531676
1589988379.7775147,-1.477207428866225,-3.7449281717528473,8.893901543712053,0.6222222222222222,0.18222222222222226,-0.6377777777777778,-0.015271630954950384,-0.04466806820890102,0.5182655918283495
1589988379.7875147,-1.436926935068456,-3.5755415480547645,8.431259319506575,0.6222222222222222,0.18222222222222226,-0.6377777777777778,-0.017604414799963816,-0.043449134197484904,0.5763982681664467
1589988379.7975147,-1.48,-3.610746110948048,8.744031112415614,0.6222222222222222,0.18222222222222226,-0.6377777777777778,-0.019358004091728272,-0.04933154944912707,0.6154071540519449
1589988379.8075147,-1.48,-3.6189533313765776,8.678373348987378,0.6222222222222222,0.18222222222222226,-0.6377777777777778,-0.028310692773902003,-0.05201735605377919,0.6413699512302488
1589988379.8175147,-1.5331459158903713,-3.673145915890371,8.768699558082119,0.7377934996346167,0.1720991906240563,-0.6698340445053033,-0.02365511102568587,-0.05318806614578965,0.6744957815499575
1589988379.8275146,-1.4353786945812808,-3.5216549829480863,8.54786116900341,0.7744444444444445,0.1688888888888889,-0.68,-0.018905184571295624,-0.05794942944813312,0.7259815479461051
1589988379.8375146,-1.5584792531120333,-3.5565783195020746,8.721635892116183,0.7744444444444445,0.1688888888888889,-0.68,-0.027187825686522404,-0.061210939633635025,0.7663312560477955
1589988379.8475146,-1.521927610264157,-3.4748190256603926,8.539877959094433,0.7744444444444445,0.1688888888888889,-0.68,-0.025825051811897967,-0.06456928582857074,0.8124058682248309
1589988379.8575146,-1.5386011011508418,-3.5165027528771042,8.798317067838047,0.7744444444444445,0.1688888888888889,-0.68,-0.03219083680070245,-0.06638808153965774,0.8478723845910272
1589988379.8675146,-1.5444350821849577,-3.4735480657479663,8.74,1.4611111111111108,0.13333333333333333,-1.07,-0.02983946506102459,-0.06654067773228381,0.8943050207685667
1589988379.8775146,-1.5879588660136146,-3.508367092810891,8.74,1.4611111111111108,0.13333333333333333,-1.07,-0.03363763171470621,-0.06654067773228381,0.9246903539980198
1589988379.8875146,-1.671750724637681,-3.622917874396135,8.55992077294686,1.4611111111111108,0.13333333333333333,-1.07,-0.03676995588380324,-0.06897697187413773,0.9476050169375067
1589988379.8975146,-1.6960655072463768,-3.6634425120772947,8.697704541062803,1.4611111111111108,0.13333333333333333,-1.07,-0.032349403660590796,-0.07251341365270769,0.9582143422732167
1589988379.9075146,-1.6761993094577212,-3.6045481010087332,8.70214948209329,1.4611111111111108,0.13333333333333333,-1.07,-0.028388776956373478,-0.07308566242726255,0.9625273411857004
1589988379.9175146,-1.7022375053729826,-3.5811187526864914,8.739277089601813,1.0770626826271388,-0.1920518932437185,-0.9057430346606229,-0.029251536849028877,-0.07462146146181953,0.9550796175195253
1589988379.9275146,-1.7335465815250597,-3.5019472200871125,8.71936025542482,0.9155555555555556,-0.3288888888888889,-0.8366666666666667,-0.02463245065984764,-0.07305076977348553,0.9393828198368034
1589988379.9375145,-1.7490258021248808,-3.46,8.645845187250716,0.9155555555555556,-0.3288888888888889,-0.8366666666666667,-0.023785740208837513,-0.0690411448064035,0.9130753419484282
1589988379.9475145,-1.7427070188173543,-3.408949131721481,8.661878943547936,0.9155555555555556,-0.3288888888888889,-0.8366666666666667,-0.01763395051876425,-0.06792679846025701,0.8893641007850083
1589988379.9575145,-1.7814245109007891,-3.447994315261105,8.777703728342052,0.9155555555555556,-0.3288888888888889,-0.8366666666666667,-0.023405314650229735,-0.06853525114758909,0.8569902211712983
1589988379.9675145,-1.814007280750138,-3.46,8.695968450082736,0.6914876018876019,-0.05858469081326223,-0.7219652141937857,-0.025089107997418484,-0.06348476312801972,0.8292426777296185
1589988379.9775145,-1.797092976142241,-3.381133779822199,8.649408918654814,0.6355555555555555,0.008888888888888889,-0.6933333333333334,-0.025024631024789572,-0.06423006222203308,0.7946945469066901
1589988379.9875145,-1.911120119915514,-3.2461606595353274,8.647840839408598,0.6355555555555555,0.008888888888888889,-0.6933333333333334,-0.02399827721492203,-0.062299540730690994,0.7675083750550888
1589988379.9975145,-1.9291914752950785,-3.3510290314426276,8.77889746631147,0.6355555555555555,0.008888888888888889,-0.6933333333333334,-0.02387800944630331,-0.06423073054743092,0.7416607000314538
1589988380.0075145,-1.839477317362475,-3.4652106869932138,8.656559978221557,0.6355555555555555,0.008888888888888889,-0.6933333333333334,-0.010533059660126153,-0.049996117442175296,0.7300950768834337
1589988380.0175145,-1.889512665134313,-3.4683898678925495,8.899025330268627,0.6022222222222222,0.06666666666666668,-0.7144444444444444,-0.033709434282815115,-0.06275742908959335,0.69050396442266
1589988380.0275145,-1.8,-3.5272863889134083,8.702799232059318,0.6022222222222222,0.06666666666666668,-0.7144444444444444,-0.014017642545042834,-0.049168964026046064,0.6697491340477671
1589988380.0375144,-1.800007346020523,-3.3700734602052296,8.490095498266799,0.6022222222222222,0.06666666666666668,-0.7144444444444444,-0.012003946566650183,-0.050180219311165786,0.6424809003801875
1589988380.0475144,-1.8192644796951403,-3.5626447969514015,8.740438236036821,0.6022222222222222,0.06666666666666668,-0.7144444444444444,-0.0246077110836031,-0.05543178785989617,0.5941664697318679
1589988380.0575144,-1.7736157063397386,-3.517817669632206,8.680423559509608,0.6022222222222222,0.06666666666666668,-0.7144444444444444,-0.010542351084590122,-0.04867522529683612,0.5556379887675736
1589988380.0675144,-1.7147355654525211,-3.5103173214569745,8.700740416732941,0.6055908134952194,0.05712232472650797,-0.7178130357174416,-0.0027559222906756928,-0.041979677925452825,0.4838558039436998
1589988380.0775144,-1.6773950010681478,-3.552604998931852,8.751092501602221,0.6088888888888889,0.04777777777777778,-0.7211111111111111,-0.0013291776580224924,-0.026610818104169577,0.3736051852747152
1589988380.0875144,-1.6797806476118127,-3.3995926312790807,8.779529959168169,0.6088888888888889,0.04777777777777778,-0.7211111111111111,-0.007594796676803974,-0.02504125272996873,0.2002582389385752
1589988380.0975144,-1.610081426265312,-3.270151220207008,8.63017448485424,0.6088888888888889,0.04777777777777778,-0.7211111111111111,0.00543892723647554,-0.009835241497809302,0.05580113223306063
1589988380.1075144,-1.6688339853545993,-3.278404855050657,8.663619420202629,0.6088888888888889,0.04777777777777778,-0.7211111111111111,0.00637098137365003,0.00851907218088691,-0.07272347465616581
1589988380.1175144,-2.20315036701209,-3.7127150798791018,8.391774071675302,0.5244444444444445,-0.013333333333333334,-0.6644444444444444,0.0038667148802903582,0.019758443806778082,-0.26657554045454895
1589988380.1275144,-13.710149819223528,-12.79161358884615,0.5628454101257927,0.5244444444444445,-0.013333333333333334,-0.6644444444444444,-0.11583731808554819,0.10472745397502825,-0.6376073320244273
1589988380.1375144,-4.921455914798258,-6.095927273567361,-0.13482378625636748,0.5244444444444445,-0.013333333333333334,-0.6644444444444444,-0.010665951386081604,-0.9818671688094103,-2.019104581031491
1589988380.1475143,2.8564301322823584,-0.03738381394622859,-0.6842371327115933,0.5244444444444445,-0.013333333333333334,-0.6644444444444444,0.07213133979318247,-1.8886128782842415,-3.26638095813391
1589988380.1575143,0.36050493620010116,-0.4547352401763765,0.2732161392281578,0.5244444444444445,-0.013333333333333334,-0.6644444444444444,-0.07248059122996331,-0.9673813176923498,-3.149441680578156
1589988380.1675143,-0.25625245528791485,-0.7038165512250594,0.2081262276439574,0.5433333333333333,0.12444444444444445,-0.6411111111111111,0.009802422156759092,-0.3870480583725601,-2.935455745469381
1589988380.1775143,-0.06,-0.38,0.11,0.5433333333333333,0.12444444444444445,-0.6411111111111111,0.12326387842209953,-0.3196134192714616,-2.7085328329387
1589988380.1875143,-0.044384643245201014,-0.2628848243390076,-0.014922854038391886,0.5433333333333333,0.12444444444444445,-0.6411111111111111,0.15392455971213717,-0.23614823131524795,-2.5211620028329143
1589988380.1975143,-0.15503205128205128,-0.1314010989010989,0.33617902930402926,0.5433333333333333,0.12444444444444445,-0.6411111111111111,0.16611894380660544,-0.1490754620270643,-2.251648049304153
1589988380.2075143,5.303103312302839,-0.3985843848580442,9.071118559411147,0.5433333333333333,0.12444444444444445,-0.6411111111111111,0.6439890432760775,0.3949945865393877,-2.110829540609718
1589988380.2175143,-1.3309104083831897,2.0710430678904537,17.729256066292596,0.5046692595758034,0.16782364914801465,-0.6439401896787352,0.7330874544950138,2.6904187023136314,-1.751953319995638
1589988380.2275143,-0.5088985921240563,-0.7182885125484595,6.91159273617629,0.4977777777777778,0.17555555555555555,-0.6444444444444445,-0.4271269565066186,0.016657014983224395,-0.9908215645489559
1589988380.2375143,4.317841256886349,-1.4542807590287699,22.12780452968782,0.4977777777777778,0.17555555555555555,-0.6444444444444445,0.04337638193789117,-0.4809189361892432,-0.8087815824126873
1589988380.2475142,0.898130269422059,0.4509348652889704,2.8177738769648144,0.4977777777777778,0.17555555555555555,-0.6444444444444445,1.0335423655693838,0.049228529704397284,-0.6241592796038264
1589988380.2575142,1.0487145017644095,-1.076662325659553,7.449576541757687,0.4977777777777778,0.17555555555555555,-0.6444444444444445,0.24370440046122188,0.018920030078982283,-0.4045363187285276
1589988380.2675142,0.39602105316175185,-2.8579523533707722,14.705799440932786,0.5097774084240628,0.19755487840707817,-0.617445275490303,-0.9693876841266028,-0.11551502135027612,-0.10887301043142428
1589988380.2775142,-0.028617121588089267,-2.2856553349875934,8.83454094292804,0.5111111111111111,0.2,-0.6144444444444445,-0.3169049378672695,0.1600279073815015,0.07864900768903986
1589988380.2875142,-0.24929469806390886,-2.3621483633294926,8.55857722455736,0.5111111111111111,0.2,-0.6144444444444445,0.22356461730345084,0.22829757555796842,0.185835209542427
1589988380.2975142,-0.6351228487101843,-2.529349917589789,8.744634520295909,0.5111111111111111,0.2,-0.6144444444444445,0.24232323532837707,0.1654778464278085,0.30917536993899336
1589988380.3075142,-0.8021307633049778,-3.0938499614823556,11.067928406352951,0.5111111111111111,0.2,-0.6144444444444445,-0.18001995904846788,-0.1511655708779684,0.2985250253810689
1589988380.3175142,-0.6030602499688578,-2.5741830336752067,8.895346925216959,0.506481566065505,0.1976852274771969,-0.630647852104066,-0.16156892019954833,-0.11439011517580772,0.36688109237622435
1589988380.3275142,-0.7013701522391377,-2.593132570285587,8.507828647627514,0.5044444444444445,0.19666666666666666,-0.6377777777777778,0.16375056172195301,0.008042013271912977,0.46557019023277424
1589988380.3375142,-0.7559889710888213,-2.858340443879635,9.24983456633232,0.5044444444444445,0.19666666666666666,-0.6377777777777778,-0.06142315995222039,-0.03943289164629316,0.46595975827821856
1589988380.3475142,-0.8833092956633409,-2.927426652178208,9.110808060851525,0.5044444444444445,0.19666666666666666,-0.6377777777777778,-0.03939005795970582,-0.047771987468397586,0.47509694550520015
1589988380.3575141,-0.7015297479544427,-2.5202820607705276,8.018344640434194,0.5044444444444445,0.19666666666666666,-0.6377777777777778,0.03263329207451375,-0.04084562738580373,0.48275314821249515
1589988380.3675141,-0.618373085613859,-2.7699531341534858,7.786937819064357,0.5059861820143016,0.20206274816116646,-0.6416321217024205,-0.013304137020364759,-0.024133934972289994,0.4797880754691517
1589988380.3775141,-0.7800503449561813,-3.3889931008763754,9.357247809062091,0.5066666666666667,0.20444444444444448,-0.6433333333333333,-0.034785765818405534,-0.033764497617973926,0.4658103724456948
1589988380.387514,-0.806119709118031,-2.867605817639381,7.932122568214307,0.5066666666666667,0.20444444444444448,-0.6433333333333333,0.027776216978876743,-0.00722305037064205,0.4790810960693608
1589988380.397514,-0.9330447001431676,-3.168599077363593,8.76114746274988,0.5066666666666667,0.20444444444444448,-0.6433333333333333,-0.044476790138180955,-0.06522062151943402,0.47382909334421014
1589988380.407514,-0.8732441583413452,-2.731053588596748,7.893762696986164,0.5066666666666667,0.20444444444444448,-0.6433333333333333,-0.03543376140120552,-0.05142774913650573,0.4752410427782798
1589988380.417514,-1.0627486304980633,-3.209255770244562,9.191624607485846,0.5231291623053983,0.21484181011101178,-0.6433333333333333,0.0021510085924439093,-0.02928263966200438,0.4815566485945856
1589988380.427514,-0.9618003913894324,-3.02723418134377,8.45865840400087,0.5277777777777778,0.21777777777777774,-0.6433333333333333,-0.020597228597784237,-0.030709293992472526,0.469816003090829
1589988380.437514,-1.0370501322188732,-3.146371655232354,8.674336224272796,0.5277777777777778,0.21777777777777774,-0.6433333333333333,-0.01147785878274305,-0.03692735627588212,0.4573798785240098
1589988380.447514,-1.017075667793876,-3.0469580864331585,8.486050631340552,0.5277777777777778,0.21777777777777774,-0.6433333333333333,0.0014098259413650562,-0.033263925797756,0.4389668150283345
1589988380.457514,-0.9566226455942844,-3.7970588872050226,8.693641480840009,0.5277777777777778,0.21777777777777774,-0.6433333333333333,0.0020895585112640494,-0.030451158856171907,0.4174974746727061
1589988380.467514,-9.267902395675195,-16.244791720665013,7.666058799570481,0.5277777777777778,0.21777777777777774,-0.6473948317925805,-0.1569085781986561,0.13054066124783215,0.038170918472351545
1589988380.477514,-3.138176844595595,-7.251208043767559,11.318527872246044,0.5277777777777778,0.21777777777777774,-0.6522222222222223,-0.37725847923294376,-0.28290069717165495,-2.4353470298762487
1589988380.487514,1.7178336389076523,-0.7577892502171187,11.509461545884397,0.5277777777777778,0.21777777777777774,-0.6522222222222223,0.6155551895165647,0.3810878338018199,-2.8639584827864457
1589988380.497514,0.8663845245663429,-0.38788484243029697,5.136148397057489,0.5277777777777778,0.21777777777777774,-0.6522222222222223,0.8654327081765997,0.4033090976804322,-2.7576007018796616
1589988380.507514,0.6721538552999227,-1.3567781344747638,5.006156887224302,0.5277777777777778,0.21777777777777774,-0.6522222222222223,0.17992090035836084,0.014910809215826104,-2.5467852149203094
1589988380.517514,-0.24374505425627768,-2.3448995181572454,8.340448152936107,0.5311602529783279,0.21777777777777774,-0.6691345982249731,-0.3834091792572941,0.14619452856490603,-2.3033665643087526
1589988380.527514,-0.42116674787301833,-2.295875716802219,7.385254300813312,0.5333333333333333,0.21777777777777774,-0.68,0.07938526027929904,0.1993629092697324,-1.9694586522042232
1589988380.537514,-0.5601709317261141,-2.440739057405395,7.643722952277443,0.5333333333333333,0.21777777777777774,-0.68,0.13450673211692568,0.1905235495493081,-1.8206242751774853
1589988380.547514,-0.8807306495992344,-3.0412803565019737,9.156200203373608,0.5333333333333333,0.21777777777777774,-0.68,-0.04208843143199159,0.06693543345869268,-1.7072283753901107
1589988380.557514,-0.6690226643421187,-2.8257850476874165,8.145534816941852,0.5333333333333333,0.21777777777777774,-0.68,0.057640747000761855,0.10445652828844101,-1.5679583321152584
1589988380.567514,-0.8442975386626007,-3.1161555216728383,9.087998257460248,0.5092640189743217,0.2868462450688545,-0.6674420968561678,0.07037177238202741,0.10374344850121545,-1.4018848273160218
1589988380.577514,-0.8508765139786905,-5.758440488115836,9.35246972042619,0.5077777777777778,0.2911111111111111,-0.6666666666666666,0.0010475194063769427,0.0856193885819419,-1.293564728133693
1589988380.587514,-0.7096843679546418,-5.4964447867139885,9.218459117391014,0.5077777777777778,0.2911111111111111,-0.6666666666666666,-0.0069847600194875075,0.08491233391643024,-1.433907229484841
1589988380.597514,-0.25000808615429854,-3.4157760870364244,8.572877935825339,0.5077777777777778,0.2911111111111111,-0.6666666666666666,0.04557657558726968,0.1453095496922882,-2.148754094653141
1589988380.607514,-0.08283636936322117,-2.3352364953540867,8.028702994032932,0.5077777777777778,0.2911111111111111,-0.6666666666666666,0.1556635397391592,0.22506284044650532,-2.713101086498645
1589988380.617514,-0.3046470458065944,-2.848695286567825,8.28836468245187,0.5000466671584175,0.30429947628531384,-0.6666666666666666,0.08474652038444905,0.17234151157345023,-2.5868130630250032
1589988380.627514,-0.4820195630124976,-2.9855890392119786,8.485722095202076,0.4888888888888889,0.3233333333333333,-0.6666666666666666,0.04501096983659988,0.15417815143773494,-2.336544159351952
1589988380.6375139,-0.4285359636484539,-3.361215781890724,8.564922974620416,0.4888888888888889,0.3233333333333333,-0.6666666666666666,0.09214624689592472,0.154248888717154,-2.0994990250326095
1589988380.6475139,0.22024655851227204,-7.113289308351717,8.431034261301763,0.4888888888888889,0.3233333333333333,-0.6666666666666666,0.022227234413474052,0.12438291430622363,-1.8919958109172827
1589988380.6575139,-0.1533692808372153,-4.597867398379172,8.50684002297237,0.4888888888888889,0.3233333333333333,-0.6666666666666666,0.06264658377113269,0.1421302182832896,-2.197821327525545
1589988380.6675138,-0.3498478016893422,-3.144427533521038,8.714731930142353,0.4628840453203997,0.34995733984392946,-0.6666666666666666,0.11025692033329682,0.18505787760025488,-2.480389598626208
1589988380.6775138,-4.787853789403085,-8.284037558685446,8.213098591549295,0.44222222222222224,0.3711111111111111,-0.6666666666666666,0.08629122622609622,0.1854002628541629,-2.4661635483733138
1589988380.6875138,1.2470371160409552,-3.6886860068259395,11.512361348122866,0.44222222222222224,0.3711111111111111,-0.6666666666666666,-0.09383494855515424,0.12034716258195594,-1.2467486152405778
1589988380.6975138,1.6302560975609754,-1.5823638211382114,8.360178861788619,0.44222222222222224,0.3711111111111111,-0.6666666666666666,0.051721785894784184,-0.1637988842433794,0.7327194617186691
1589988380.7075138,-0.006204334583355342,-2.0046881107061743,7.150600538741879,0.44222222222222224,0.3711111111111111,-0.6666666666666666,0.21903440011002168,0.027274015225226655,0.6572874541114216
1589988380.7175138,-0.19718433366493499,-3.3214159389852993,8.17547805902509,0.41925328224211833,0.4008856629371717,-0.6717708755511342,-0.022194172275358248,-0.01396079325659283,0.09104761543809692
1589988380.7275138,0.1534823328229703,-4.054986776958104,8.512924777793243,0.4122222222222222,0.41,-0.6733333333333333,-0.1733783897777726,-0.07894091480328551,-0.18128789444046065
1589988380.7375138,0.17318713862642787,-3.5878158228740658,7.841728106049922,0.4122222222222222,0.41,-0.6733333333333333,0.030720908417815995,0.02962817010440673,-0.3628374236572602
1589988380.7475138,-1.6148921906852753,-6.533179394699702,8.2943982280069,0.4122222222222222,0.41,-0.6733333333333333,0.03797650308062177,0.04812617290646892,-0.4349081775619078
1589988380.7575138,-1.2136934366082348,-6.766703356434299,8.82678336051094,0.4122222222222222,0.41,-0.6733333333333333,-0.020401363136036913,0.02117859303876451,-0.28497742963766926
1589988380.7675138,0.41982046678635543,-4.825350089766607,8.94985038898863,0.41350555223086644,0.40769000598444044,-0.6748733293437064,-0.028836186807430244,-0.0026823600749718356,-0.02111746557928059
1589988380.7775137,-0.060473406647316125,-4.543990842565717,8.728895384489595,0.4177777777777778,0.4,-0.68,0.012580787186672882,-0.010839453619160444,0.011149297545278963
1589988380.7875137,-0.04892847520155858,-4.439030653485046,8.716224792223674,0.4177777777777778,0.4,-0.68,0.0015026420677702011,-0.002098214106637415,-0.005148081928950247
1589988380.7975137,-0.06018734902030957,-4.4839695803882975,8.65981265097969,0.4177777777777778,0.4,-0.68,-0.0035828867485497348,0.0001021830392121132,0.0005556336951694393
1589988380.8075137,-0.05,-4.566895725927158,8.602760685182105,0.4177777777777778,0.4,-0.68,-0.015873483641464643,-0.00545415391248228,-0.0004889780959821965
1589988380.8175137,-0.03992129427197202,-4.5697638828159155,8.610708351552251,0.4177777777777778,0.41231841811203424,-0.6839194966720109,-0.010324257849815058,-0.0032553214213110237,-0.001090830782496456
1589988380.8275137,-0.036081787581465304,-4.552163575162931,8.675672849674138,0.4177777777777778,0.4244444444444445,-0.6877777777777778,0.004497147747218255,-0.003081091114436563,-0.001090830782496456
1589988380.8375137,-0.04,-4.512535767143562,8.654726196349285,0.4177777777777778,0.4244444444444445,-0.6877777777777778,0.012058873297573056,-0.0014869094484645825,-0.001090830782496456
1589988380.8475137,-0.05611218568665378,-4.486112185686654,8.617775628626692,0.4177777777777778,0.4244444444444445,-0.6877777777777778,0.008403124557877277,-0.0006667360295336173,-0.001090830782496456
1589988380.8575137,-0.05299803701092032,-4.50566732099636,8.64100588896724,0.4177777777777778,0.4244444444444445,-0.6877777777777778,-0.0012005562474202485,-0.0015634527452811262,-0.0017090396022082417
1589988380.8675137,-0.05702372160349768,-4.48730170452867,8.68,0.4177777777777778,0.4244444444444445,-0.6833642203250192,-0.00359715395670776,0.0001471691880198904,-0.0015626615797347389
1589988380.8775136,-0.05954805612449992,-4.490903887751,8.700903887751,0.4177777777777778,0.4244444444444445,-0.68,0.002378859281535408,0.000520765676680416,-0.000520765676680416
1589988380.8875136,-0.05793846441160679,-4.494123071176786,8.680307677941967,0.4177777777777778,0.4244444444444445,-0.68,0.006977960762275401,-0.00043297606729666505,0.00043297606729666505
1589988380.8975136,-0.05449268386599923,-4.4544926838659995,8.651014632268001,0.4177777777777778,0.4244444444444445,-0.68,0.001433334286755468,-0.001090830782496456,-3.689307036167577e-05
1589988380.9075136,-0.05197683741648107,-4.467945953971789,8.64007720861173,0.4177777777777778,0.4244444444444445,-0.68,-0.008282734009241685,-0.001961810977886648,-0.001090830782496456
1589988380.9175136,-0.06886295585412669,-4.513979654510557,8.582274088291747,0.4177777777777778,0.4240654297291534,-0.68,-0.014118784034685125,-0.003086443934182967,-0.0011528469202652565
1589988380.9275136,-0.060498519548008944,-4.559002960903983,8.63049851954801,0.4177777777777778,0.4177777777777778,-0.68,-0.0056460989991116645,0.0,-0.0010364507356320186
1589988380.9375136,-0.07,-4.513338417734391,8.634667683546878,0.4177777777777778,0.4177777777777778,-0.68,0.008652482190297342,0.0017449964787232812,-0.0011633309858155208
1589988380.9475136,-0.06525330534103121,-4.494746694658969,8.639493389317938,0.4177777777777778,0.4177777777777778,-0.68,0.01423606282512745,0.0012013560878435013,-0.0016638775000814452
1589988380.9575136,-0.06,-4.482838630305515,8.65,0.4177777777777778,0.4177777777777778,-0.68,0.007941928048507517,-0.001090830782496456,-0.001090830782496456
1589988380.9675136,-0.057253385289819776,-4.484719532391622,8.63901354115928,0.41411562483087083,0.41564152189208203,-0.6738964117551551,-0.00040721515426462933,-0.000791221595144239,-0.0016900491572008902
1589988380.9775136,-0.051661615449675784,-4.541691922751621,8.611661615449675,0.4044444444444445,0.41,-0.6577777777777778,-0.0041820690018680206,-0.0005437623843534103,-0.0025474758350181544
1589988380.9875135,-0.06,-4.50332176535785,8.61667823464215,0.4044444444444445,0.41,-0.6577777777777778,-0.0003737052238307085,-0.0025477955665747032,0.0007284823920391235
1589988380.9975135,-0.0663306894447834,-4.5015590807402885,8.620551149074638,0.4044444444444445,0.41,-0.6577777777777778,0.005684344276508784,-0.001090830782496456,-0.00023019036402650451
1589988381.0075135,-0.07241581687367168,-4.474396045781583,8.66,0.4044444444444445,0.41,-0.6577777777777778,0.0007905742232026296,-0.001090830782496456,-0.00013176237053377164
1589988381.0175135,-0.04553986486486487,-4.49784054054054,8.637699324324323,0.40791343843843847,0.40752214714714713,-0.6617423423423423,-0.008977611044728433,-0.0020638813223963354,-0.0003687450273533628
1589988381.0275135,-0.03428932307967451,-4.537132030760977,8.598578646159348,0.4122222222222222,0.4044444444444445,-0.6666666666666666,-0.008261509303311149,-0.0014036776954144351,-0.001558723347634601
1589988381.0375135,-0.041917255826132496,-4.55,8.578082744173868,0.4122222222222222,0.4044444444444445,-0.6666666666666666,0.0023456717863360567,-0.000649985474901528,-0.001090830782496456
1589988381.0475135,-0.05588422010610197,-4.526463119575592,8.634726421167121,0.4122222222222222,0.4044444444444445,-0.6666666666666666,0.010845159688835489,-0.0004489619402243965,0.00019290690204766298
1589988381.0575135,-0.06,-4.51,8.684552900891084,0.4122222222222222,0.4044444444444445,-0.6666666666666666,0.009613458280801531,-0.0004966444441651342,0.001090830782496456
1589988381.0675135,-0.06,-4.506629447022428,8.679888341067285,0.41634178697258745,0.40893851508120654,-0.6636706195754919,0.004351143029891243,0.0007475206884886049,0.0003554901941024317
1589988381.0775135,-0.05503370632720802,-4.5198651746911676,8.66,0.4244444444444445,0.4177777777777778,-0.6577777777777778,-0.0016105086442462992,0.002738107326026162,-0.001090830782496456
1589988381.0875134,-0.05,-4.511796810273405,8.60359362054681,0.4244444444444445,0.4177777777777778,-0.6577777777777778,-0.0029929613110136807,-0.0007550636686049932,0.0001397655182378435
1589988381.0975134,-0.045676123078196455,-4.494323876921803,8.594591015374428,0.4244444444444445,0.4177777777777778,-0.6577777777777778,0.0007958164359152761,-0.002181661564992912,0.00014750717329058995
1589988381.1075134,-0.04342660149701306,-4.496573398502987,8.653706405988052,0.4244444444444445,0.4177777777777778,-0.6577777777777778,0.002524923869031312,-0.0018078773257638838,-0.001464615021725484
1589988381.1175134,-0.05,-4.508716918176993,8.677326154546144,0.4244444444444445,0.4177777777777778,-0.6577777777777778,-0.000659196974726189,-0.0013825020753668968,-0.0030566754436042345
1589988381.1275134,-0.05229615451539934,-4.555407690969201,8.663111536453801,0.4244444444444445,0.4177777777777778,-0.6577777777777778,-0.005955097117835446,-0.0019311899623163289,-0.005078446508467405
1589988381.1375134,-0.060564463116979626,-4.52943553688302,8.572257852467917,0.4244444444444445,0.4177777777777778,-0.6577777777777778,-0.008273590930261211,0.0,-0.0011524041568549829
1589988381.1475134,-0.05491083015866371,-4.525267509524009,8.554554150793319,0.4244444444444445,0.4177777777777778,-0.6577777777777778,-0.0006524115198281747,-0.0010713769409364656,0.0005356884704682328
1589988381.1575134,-0.06,-4.5008253538717735,8.619756799888982,0.4244444444444445,0.4177777777777778,-0.6577777777777778,0.007789350742691265,-0.0015144624706474874,0.0007572312353237437
1589988381.1675134,-0.05843170801254633,-4.481568291987454,8.708431708012547,0.4244444444444445,0.4183005417735957,-0.6589975604346862,0.01240567291961467,-8.553705879285012e-05,0.0
1589988381.1775134,-0.04709644241188679,-4.503548221205944,8.69,0.4244444444444445,0.4244444444444445,-0.6733333333333333,0.0012669159983460226,-0.0007037798910414808,-0.00038705089145497516
1589988381.1875134,-0.06282744886528648,-4.512827448865286,8.647588267020701,0.4244444444444445,0.4244444444444445,-0.6733333333333333,-0.00467174995580474,-0.0006168536516378333,-0.0017076844341342894
1589988381.1975133,-0.057940816825629744,-4.50794081682563,8.576177549523111,0.4244444444444445,0.4244444444444445,-0.6733333333333333,-0.003261732542754545,-0.001743177291047365,-0.0019570395256527273
1589988381.2075133,-0.044484619535887754,-4.49,8.640464112250406,0.4244444444444445,0.4244444444444445,-0.6733333333333333,0.0003261307358354218,-0.001090830782496456,0.0
1589988381.2175133,-0.06658935220715728,-4.486589352207157,8.689768056621471,0.41762314885875906,0.41762314885875906,-0.6733333333333333,0.0006934857247183348,-0.0003467428623591674,-0.001116131880205933
1589988381.2275133,-0.055279657818593536,-4.5036017109070325,8.636957604730155,0.4044444444444445,0.4044444444444445,-0.6733333333333333,-0.005271118298229698,-0.0004538975841219372,-0.002242673436410439
1589988381.2375133,-0.05534709288976197,-4.524652907110238,8.557223256881905,0.4044444444444445,0.4044444444444445,-0.6733333333333333,-0.00814336890786962,-0.002181661564992912,-0.001090830782496456
1589988381.2475133,-0.06520691473004438,-4.525206914730044,8.551241488380265,0.4044444444444445,0.4044444444444445,-0.6733333333333333,-0.0030919251819818937,-0.0027496478519295742,-0.0005228444955597937
1589988381.2575133,-0.07,-4.522297504210687,8.606958735262594,0.4044444444444445,0.4044444444444445,-0.6733333333333333,0.003191360659754311,-0.002852386372037797,0.0
1589988381.2675133,-0.07,-4.507080098747807,8.67335921001755,0.40671547875170616,0.4044444444444445,-0.675279934168129,0.007182008328527274,-0.0018631497482186426,0.0
1589988381.2775133,-0.07,-4.5,8.705160561451558,0.4122222222222222,0.4044444444444445,-0.68,0.005565490104638486,-0.001542424518972622,-0.000903187472952332
1589988381.2875133,-0.07,-4.516389924433249,8.624927707808565,0.4122222222222222,0.4044444444444445,-0.68,-0.0002500667745969835,-0.0012877298602639521,-0.002181661564992912
1589988381.2975132,-0.06620276535510607,-4.528608296065318,8.590377877159153,0.4122222222222222,0.4044444444444445,-0.68,-0.002181661564992912,-0.0008284280878024618,-0.001767447521091681
1589988381.3075132,-0.06,-4.505990410137854,8.644009589862145,0.4122222222222222,0.4044444444444445,-0.68,-0.0013069047556300548,-0.0013069047556300548,-0.0013095199848371702
1589988381.3175132,-0.06,-4.491625139138625,8.658374860861375,0.4122222222222222,0.4044444444444445,-0.68,0.0018271112053425526,0.0018271112053425526,-0.0020930239750803223
1589988381.3275132,-0.05,-4.4976710340657124,8.686986897802862,0.4122222222222222,0.4,-0.6733333333333333,0.00032867846274454787,-0.000254050773250636,-0.001090830782496456
1589988381.3375132,-0.05,-4.494665519724734,8.682006881651597,0.4122222222222222,0.4,-0.6733333333333333,-0.0023513046493957176,-0.0009211876980936503,-0.001090830782496456
1589988381.3475132,-0.046555976131836894,-4.526888047736326,8.547220119340816,0.4122222222222222,0.4,-0.6733333333333333,-0.0010183839968624661,0.0,-0.001090830782496456
1589988381.3575132,-0.041945115882269304,-4.539351628039244,8.583241859803783,0.4122222222222222,0.4,-0.6733333333333333,0.0036261243941397192,-0.00028290563732028093,-0.001090830782496456
1589988381.3675132,-0.06803014157405998,-4.5201507078703,8.64181915055564,0.41069011011315776,0.40087549263375116,-0.6733333333333333,0.008726646259971648,-0.004363323129985824,-0.0008759525616789169
1589988381.3775132,-0.05822018869262963,-4.481779811307371,8.682880754770519,0.4044444444444445,0.4044444444444445,-0.6733333333333333,0.00697932059496828,-0.003586733945539883,-0.00038829459222297055
1589988381.3875132,-0.05372471965862856,-4.501174158975886,8.616477523072342,0.4044444444444445,0.4044444444444445,-0.6733333333333333,-0.0019034385544568011,-0.002031519429900862,-0.002181661564992912
1589988381.3975132,-0.06,-4.523232826100569,8.56646565220114,0.4044444444444445,0.4044444444444445,-0.6733333333333333,-0.003625138969985326,-0.004043567422498447,-0.0007710750750090796
1589988381.4075131,-0.06,-4.526213800167613,8.606503398826707,0.4044444444444445,0.4044444444444445,-0.6733333333333333,-0.0018852611344756698,-0.0006778204499114304,0.0013556408998228607
1589988381.4175131,-0.06,-4.517578272776037,8.65726518167189,0.4044444444444445,0.4044444444444445,-0.6749478181493088,0.0029741699458055316,0.0,-0.0007925083808126196
1589988381.4275131,-0.06,-4.503924641413024,8.686075358586976,0.4044444444444445,0.4044444444444445,-0.68,0.003134638056000045,0.0006627188161377812,-0.0026097735313515866
1589988381.437513,-0.057716403038983684,-4.499134387844065,8.665746045584754,0.4044444444444445,0.4044444444444445,-0.68,-0.0029289669229604987,0.0011852544210361293,-0.0013399325684856516
1589988381.447513,-0.053440870994907165,-4.526559129005093,8.56376348397963,0.4044444444444445,0.4044444444444445,-0.68,-0.003952790712544702,-0.001055639165039729,-0.001055639165039729
1589988381.457513,-0.06,-4.522936264295598,8.594404396443398,0.4044444444444445,0.4044444444444445,-0.68,-0.0002900889127003491,0.0007705340345780132,0.0009306824085372346
1589988381.467513,-0.06,-4.5362792473238,8.6144188709857,0.4044444444444445,0.4044444444444445,-0.68,0.003348645241672144,-0.0006849596271709839,0.000202935577662736
1589988381.477513,-0.0607527478171546,-4.48150549563431,8.667741756548537,0.4122222222222222,0.41,-0.68,0.00662709674401966,-0.0010087187334555311,-0.001090830782496456
1589988381.487513,-0.06936969696969697,-4.498739393939394,8.64189090909091,0.4122222222222222,0.41,-0.68,0.0075670600826996575,-6.87553947755343e-05,-0.001090830782496456
1589988381.497513,-0.06,-4.489972238457043,8.567479178842783,0.4122222222222222,0.41,-0.68,-0.001634732016463311,-0.002728591113522513,3.0283145627458315e-06
1589988381.507513,-0.05951250615888473,-4.52,8.591218734602789,0.4122222222222222,0.41,-0.68,-0.003272492347489368,-0.0011440081113130527,-0.003272492347489368
1589988381.517513,-0.0430981910694577,-4.521549095534729,8.644647286604187,0.4122222222222222,0.41,-0.68,-0.0025965719097653544,-0.003103512238058365,-0.0024275918003343507
1589988381.527513,-0.05879042969115364,-4.529395214845577,8.668185644536731,0.4122222222222222,0.41,-0.68,0.0008269434771997842,-0.00224763339131708,0.001851802433372073
1589988381.537513,-0.06,-4.51,8.647992692943623,0.4122222222222222,0.41,-0.68,0.0009120413540143178,-0.0012696202109785941,-0.0007734257297518075
1589988381.547513,-0.05632710660384128,-4.517345786792317,8.588364466980794,0.4122222222222222,0.41,-0.68,-0.002181661564992912,-0.003962672612250036,0.0016026020709431538
1589988381.557513,-0.058001033057851245,-4.527332988980716,8.625334022038567,0.4122222222222222,0.41,-0.68,-0.001308884249865324,-0.00239971503236178,0.00319962004314904
1589988381.567513,-0.07966580578512397,-4.5201113980716245,8.63977720385675,0.4122222222222222,0.41,-0.68,0.001054375848804555,-3.645493369190114e-05,4.8606578255868185e-05
1589988381.577513,-0.047097506741732506,-4.5129024932582675,8.667743766854331,0.4122222222222222,0.41,-0.6666666666666666,0.003342988389921603,-0.002181661564992912,-0.0014074436817071178
1589988381.587513,-0.06352744584164843,-4.5,8.657670649900219,0.4122222222222222,0.41,-0.6666666666666666,0.003530230658652664,-0.0006425229619292196,0.0003847846507659231
1589988381.597513,-0.06100760190746025,-4.4970025339691535,8.597984796185079,0.4122222222222222,0.41,-0.6666666666666666,0.0,0.0015277159218059265,0.0014178036040899487
1589988381.607513,-0.04,-4.49308182800216,8.64,0.4122222222222222,0.41,-0.6666666666666666,-0.0005602921418527002,0.00011205842837054003,0.001957544708251832
1589988381.617513,-0.04,-4.5119603312728795,8.64,0.4122222222222222,0.41,-0.6666666666666666,-0.003992500891046186,0.0007985001782092374,0.0005846612085744372
1589988381.627513,-0.05,-4.52,8.66,0.4044444444444445,0.4,-0.6733333333333333,-0.0021597024969270684,-0.0010688717144306124,1.0979534032921718e-05
1589988381.637513,-0.05165309803539219,-4.519173450982303,8.65173450982304,0.4044444444444445,0.4,-0.6733333333333333,0.00200133654264389,0.0029118423027913246,0.00200133654264389
1589988381.647513,-0.0674272917288743,-4.509142430576291,8.565145416542252,0.4044444444444445,0.4,-0.6733333333333333,-0.00018709262510181076,-0.0009972844699455505,-9.354631255090538e-05
1589988381.657513,-0.04237921767691849,-4.500793072558973,8.615241564646162,0.4044444444444445,0.4,-0.6733333333333333,-0.0020086399729767525,-8.651079600807969e-05,-0.0010043199864883763
1589988381.667513,-0.060733884757625166,-4.529266115242375,8.64146776951525,0.4054229574546114,0.4017939405186393,-0.6743933890943474,-0.00186144393122392,-0.00016010881688449593,-0.00016010881688449593
1589988381.677513,-0.06907344812502486,-4.520926551874974,8.65814689625005,0.41654237527781096,0.42217953986117196,-0.6864394250694804,0.0017773770422718333,-0.0019795193036323726,-0.0019795193036323726
1589988381.6875129,-0.06213063047099266,-4.517869369529007,8.657216217174044,0.4177777777777778,0.4244444444444445,-0.6877777777777778,0.004828154590762568,0.001090830782496456,0.0003935835913313399
1589988381.6975129,-0.06956285218130914,-4.51043714781869,8.612622886912146,0.4177777777777778,0.4244444444444445,-0.6877777777777778,0.006449613835552901,0.001090830782496456,-0.0020386052758541613
1589988381.7075129,-0.06774303000572317,-4.512256969994277,8.642256969994277,0.4177777777777778,0.4244444444444445,-0.6877777777777778,0.0031323369575218117,-0.0030262951129965657,0.0007385917034784074
1589988381.7175128,-0.05740511182108626,-4.517405111821086,8.652594888178914,0.41604785232516867,0.4235794817181399,-0.6877777777777778,-0.0013738891727659837,-0.002181661564992912,0.002564846371815549
1589988381.7275128,-0.04751264540082089,-4.502504215133607,8.662487354599179,0.4044444444444445,0.4177777777777778,-0.6877777777777778,-0.002999324852116173,-0.001635326574246522,-0.001362159078873327
1589988381.7375128,-0.06894238465861677,-4.509647461552872,8.641057615341383,0.4044444444444445,0.4177777777777778,-0.6877777777777778,-0.0022201175440069564,-7.69119580280894e-05,0.0009754628454543223
