time,acc_x,acc_y,acc_z,mag_x,mag_y,mag_z,gyr_x,gyr_y,gyr_z
1589988417.1535394,-3.78,-0.76,8.79,0.3088888888888889,-0.3977777777777778,-0.6044444444444445,-0.002181661564992912,0.002181661564992912,0.0
1589988417.1635394,-3.77608666857988,-0.75,8.8204333428994,0.3088888888888889,-0.3977777777777778,-0.6044444444444445,-0.0015177090200141645,0.001090830782496456,-0.0006639525449787474
1589988417.1735394,-3.7937635766607727,-0.7537635766607729,8.912581459964638,0.3088888888888889,-0.39568690185512617,-0.6015172181527322,0.0016421701095425303,-0.000961881854431707,-0.0025922040923785448
1589988417.1835394,-3.7945010592039248,-0.7490021184078492,9.015987289552903,0.3088888888888889,-0.3922222222222223,-0.5966666666666667,0.002563798962540449,-0.003763481740837366,-0.002072809569192452
1589988417.1935394,-3.7956911930109074,-0.74,9.030161648923649,0.3088888888888889,-0.3922222222222223,-0.5966666666666667,0.001090830782496456,-0.002651679494946722,-0.001090830782496456
1589988417.2035394,-3.7959033664130732,-0.7359033664130732,9.01228990076078,0.3088888888888889,-0.3922222222222223,-0.5966666666666667,0.001090830782496456,-0.0012879147607471868,-0.0006439573803735934
1589988417.2135394,-3.788673081792859,-0.728673081792859,9.028673081792858,0.3088888888888889,-0.3922222222222223,-0.5966666666666667,0.0012355751051169024,-0.00014474432262044643,0.0
1589988417.2235394,-3.78,-0.7253664604938845,9.016422359670743,0.3053112485596325,-0.39321601120257127,-0.5980579712391553,0.001986531555000231,-0.0012859607924891369,0.0
1589988417.2335393,-3.7826368119630924,-0.75,8.98945275214763,0.2888888888888889,-0.3977777777777778,-0.6044444444444445,0.00022793608539756509,-0.0016063984335936514,-0.00028763156569963026
1589988417.2435393,-3.8003354875708584,-0.7551677437854292,8.882483843218564,0.2888888888888889,-0.3977777777777778,-0.6044444444444445,-0.002745374964712996,-0.0016911401991602532,-0.0016545441822165404
1589988417.2535393,-3.799696315153385,-0.7548481575766927,8.835759212116537,0.2888888888888889,-0.3977777777777778,-0.6044444444444445,-0.0038344711776808487,-0.0015865558569149259,-0.0010577039046099504
1589988417.2635393,-3.781740950064387,-0.7623885749034197,8.888906674774645,0.2888888888888889,-0.3977777777777778,-0.6044444444444445,-0.0034624005395916093,-0.0013513838855913226,0.0009009225903942148
1589988417.2735393,-3.77,-0.7772510248372317,8.954740776464915,0.29255418910591324,-0.40174851967955416,-0.6062770945529566,-0.0006823282010599966,-0.002972625674702785,0.001581928219419746
1589988417.2835393,-3.7736288571950256,-0.7554845712198982,9.02,0.3022222222222222,-0.4122222222222222,-0.6111111111111112,0.005251726914298127,-0.00020242699818415286,-0.0011875407400852554
1589988417.2935393,-3.783198773788205,-0.73,9.010403678635384,0.3022222222222222,-0.4122222222222222,-0.6111111111111112,0.008726646259971648,0.00431928862181451,-0.003621424438931082
1589988417.3035393,-3.7976696570542394,-0.7261651714728804,8.997669657054239,0.3022222222222222,-0.4122222222222222,-0.6111111111111112,0.009144961160269409,0.005708354894383212,-0.0026900635287947783
1589988417.3135393,-3.806721377786767,-0.72,9.011639311106617,0.3022222222222222,-0.4122222222222222,-0.6111111111111112,0.008744550432156627,0.004005680926548664,0.0
1589988417.3235393,-3.7936706753582152,-0.72,9.018164662320892,0.3022222222222222,-0.4122222222222222,-0.6111111111111112,0.00447371804947708,0.002582070132322149,0.0
1589988417.3335392,-3.791157586080507,-0.74,8.990739311355943,0.2966666666666667,-0.4122222222222222,-0.6044444444444445,-0.0007576383180039419,0.000252546106001314,0.000964557729495799
1589988417.3435392,-3.8003646833013436,-0.74,8.916717850287908,0.2966666666666667,-0.4122222222222222,-0.6044444444444445,-0.006584765472075535,0.0023010038962833113,0.0
1589988417.3535392,-3.8007765527509925,-0.7492234472490074,8.854595859330686,0.2966666666666667,-0.4122222222222222,-0.6044444444444445,-0.007300441471476875,0.004112657888489013,-0.0006707480119966333
1589988417.3635392,-3.780760069867146,-0.7684798602657069,8.913040279468586,0.2966666666666667,-0.4122222222222222,-0.6044444444444445,-0.0062133416518061505,0.001090830782496456,-0.0019329292826134733
1589988417.3735392,-3.788503321693212,-0.7485033216932118,8.957483391533941,0.2974981546148823,-0.41305371017043785,-0.6032803613169425,-0.0018551370112850681,0.0009275685056425341,0.0007643062287886122
1589988417.3835392,-3.7808048741382074,-0.7383902517235851,9.00321949655283,0.3022222222222222,-0.4177777777777778,-0.5966666666666667,0.00026339444579760507,0.0,-0.0008274363366988508
1589988417.3935392,-3.79,-0.7327739810437159,8.997420063187613,0.3022222222222222,-0.4177777777777778,-0.5966666666666667,0.003272492347489368,0.0,0.0012527114491588062
1589988417.4035392,-3.7941890018484288,-0.7458109981515711,8.952567005545287,0.3022222222222222,-0.4177777777777778,-0.5966666666666667,0.003729441563909441,0.0,0.00045694921642007273
1589988417.4135392,-3.7966270700859477,-0.74,8.986864649570261,0.3022222222222222,-0.4177777777777778,-0.5966666666666667,0.002891604819005349,0.0,0.0003549716270062186
1589988417.4235392,-3.791569956509815,-0.74,9.015290130470555,0.3022222222222222,-0.4137656666971403,-0.5957944686056585,-0.0001712556888086549,0.0,-0.0012620864713051108
1589988417.4335392,-3.79100191617294,-0.7444990419135299,8.95400766469176,0.3022222222222222,-0.3922222222222223,-0.5911111111111111,-0.003544677488006566,-0.001963077364408088,-0.0002185842005848239
1589988417.4435391,-3.788142531493701,-0.7459287342531493,8.881501139772046,0.3022222222222222,-0.3922222222222223,-0.5911111111111111,-0.007433197095056354,-0.0030310045298693965,0.0008493429648764846
1589988417.4535391,-3.7965728091630377,-0.7468543816739247,8.857135954184812,0.3022222222222222,-0.3922222222222223,-0.5911111111111111,-0.008352797733726814,-0.0007169822562516227,-0.0007169822562516227
1589988417.4635391,-3.7927917275168417,-0.7572082724831583,8.902562773825789,0.3022222222222222,-0.3922222222222223,-0.5911111111111111,-0.006722224783961177,0.00015226511558566916,-0.0004567953467570075
1589988417.473539,-3.8059645734206438,-0.7440354265793565,8.961840580392897,0.3022222222222222,-0.3922222222222223,-0.5911111111111111,-0.002411421042476383,0.0008707324058331347,-0.0026121972174994045
1589988417.483539,-3.8084920368818107,-0.7492460184409053,9.030753981559094,0.31555555555555553,-0.4122222222222222,-0.6111111111111112,0.00032898651763807614,-0.002099414935583393,-0.0010085841530869369
1589988417.493539,-3.7909132439228834,-0.7404566219614417,9.039543378038557,0.31555555555555553,-0.4122222222222222,-0.6111111111111112,0.004164084213383998,-0.0011406405116469124,-4.980972915045643e-05
1589988417.503539,-3.7843369706274785,-0.7478315146862605,8.95216848531374,0.31555555555555553,-0.4122222222222222,-0.6111111111111112,0.0080170111004861,0.0,-0.0008542857293346064
1589988417.513539,-3.7996695362906907,-0.7401652318546544,8.959834768145347,0.31555555555555553,-0.4122222222222222,-0.6111111111111112,0.005508225910474098,0.0,-1.8023999330606154e-05
1589988417.523539,-3.7821843622069693,-0.7507281207356565,8.95218436220697,0.3136139002604715,-0.4116559060944894,-0.6100593811596072,-0.0002382769535484326,-0.0020228102626272905,0.001090830782496456
1589988417.533539,-3.8078119717305854,-0.7592706572435284,8.977811971730585,0.2908338029061466,-0.4050117110328113,-0.597720161759348,-0.003033815488564351,-0.00015911790595001148,0.001090830782496456
1589988417.543539,-3.797904687593782,-0.76,8.933237500750254,0.2888888888888889,-0.4044444444444445,-0.5966666666666667,-0.006773547822143679,-0.00045712625432988753,-0.0019530984378279682
1589988417.553539,-3.7890993892282068,-0.76,8.87540366463076,0.2888888888888889,-0.4044444444444445,-0.5966666666666667,-0.007439332686891155,-0.002181661564992912,-0.0013855549683725113
1589988417.563539,-3.78,-0.7630109261186264,8.939032778355879,0.2888888888888889,-0.4044444444444445,-0.5966666666666667,-0.004797271733678223,-0.0018532204755908833,-0.004363323129985824
1589988417.573539,-3.7811551839229876,-0.7705775919614939,8.962310367845976,0.2893381270811619,-0.4044444444444445,-0.5978860274742649,-0.0028944592926973558,-0.001153836291628458,-0.004300317620853822
1589988417.583539,-3.8035729641616856,-0.7728540716766283,8.989281107514943,0.2966666666666667,-0.4044444444444445,-0.6177777777777778,0.004441742135186436,-0.0006226618480634878,-0.001713492630559944
1589988417.593539,-3.8028231598938422,-0.7492347398407636,8.94129263957537,0.2966666666666667,-0.4044444444444445,-0.6177777777777778,0.007327856505863923,0.0017902256595503181,0.0006993948770538621
1589988417.603539,-3.7937131303520455,-0.73,8.901139391056137,0.2966666666666667,-0.4044444444444445,-0.6177777777777778,0.007511527193741652,-0.0001242882837335401,0.000405039688743332
1589988417.613539,-3.7940825460602436,-0.7319724846465854,8.933807392526097,0.2966666666666667,-0.4044444444444445,-0.6177777777777778,0.005023824518382886,-0.001966496867943215,0.001090830782496456
1589988417.623539,-3.77808333439292,-0.7373055552023599,8.971138886416519,0.2966666666666667,-0.4044444444444445,-0.6177777777777778,0.0038603290128900163,-0.0013847491151967803,0.001090830782496456
1589988417.633539,-3.7885335357685093,-0.7678003036527642,9.017800303652765,0.28945918053446856,-0.41165193057664257,-0.6260149047860042,-0.0017817454837079291,-7.998321625699652e-05,-0.0019417119162219224
1589988417.643539,-3.798241007709138,-0.753517984581723,9.028241007709138,0.2888888888888889,-0.4122222222222222,-0.6266666666666667,-0.0030806160537847995,0.0008989544887918875,0.0005152019013827504
1589988417.653539,-3.7813626132209675,-0.7413626132209677,8.905450452883871,0.2888888888888889,-0.4122222222222222,-0.6266666666666667,-0.0028265782136689,0.0009421927378896333,0.00014863804460682267
1589988417.663539,-3.7889154196603823,-0.7489154196603821,8.935661678641528,0.2888888888888889,-0.4122222222222222,-0.6266666666666667,-0.0003549280861636947,0.00011830936205456486,0.0009725214204418911
1589988417.673539,-3.7803603234122334,-0.7196396765877665,8.930720646824467,0.28960953571335574,-0.41170175507121837,-0.6266666666666667,-0.0029973560386865063,0.0011301359694682934,0.0010122204085527813
1589988417.683539,-3.7885516756503397,-0.7114483243496601,8.94710335130068,0.3059922401895685,-0.39986980183839804,-0.6266666666666667,0.0032574093814318828,0.002023673886628063,-0.0007748554257667583
1589988417.693539,-3.804212110940522,-0.7338585927063187,8.910353518234203,0.3088888888888889,-0.3977777777777778,-0.6266666666666667,0.003903853102664674,-0.0008803771974380206,0.002851585177372497
1589988417.703539,-3.7794323330106483,-0.7505676669893514,8.871703000968054,0.3088888888888889,-0.3977777777777778,-0.6266666666666667,0.0063592161071212554,6.192286261915991e-05,0.001028907919877296
1589988417.713539,-3.77,-0.7579250448409327,8.93112432738601,0.3075055854495107,-0.399161081217156,-0.6204418011894648,0.0023671223635651877,0.00018546079857227572,0.0006790274879431351
1589988417.7235389,-3.77,-0.7529756678938921,9.005364981591617,0.30420600081815036,-0.40246066584851636,-0.6055936703483432,0.00020754927236114494,-0.001974112292631767,0.0022987073063461673
1589988417.7335389,-3.775605040045575,-0.7443949599544251,9.052802520022787,0.3022222222222222,-0.4044444444444445,-0.5966666666666667,-0.001090830782496456,-0.002049662303721685,0.002355369814663605
1589988417.7435389,-3.7896605341644047,-0.7303394658355953,9.059830267082203,0.3022222222222222,-0.4044444444444445,-0.5966666666666667,-0.001090830782496456,0.001016770825881804,5.5544967460988744e-05
1589988417.7535388,-3.7836551473263005,-0.7173102946526009,8.948275736631503,0.3022222222222222,-0.4044444444444445,-0.5966666666666667,-0.003272492347489368,0.0015948588872352696,0.0003987147218088174
1589988417.7635388,-3.7871218560198443,-0.7357562879603116,8.971365568059532,0.3022222222222222,-0.4044444444444445,-0.5966666666666667,-0.002016665127485058,0.0027935391049804365,0.00014896036749322353
1589988417.7735388,-3.7819448859439007,-0.751944885943901,8.949351704685366,0.30186205815853684,-0.404948674133604,-0.5976030932322486,0.001090830782496456,-0.0010201127339613944,-0.0019695074193877274
1589988417.7835388,-3.809942168674699,-0.7801156626506024,8.93953734939759,0.2966666666666667,-0.4122222222222222,-0.6111111111111112,0.001097139201479568,-1.2616837966224068e-05,0.0010845223635133439
1589988417.7935388,-3.8182513915737006,-0.7726229126394485,8.86912569578685,0.2966666666666667,-0.4122222222222222,-0.6111111111111112,0.002845300890059228,-0.0038407598776587027,-0.001990917975198949
1589988417.8035388,-3.832021794574542,-0.6851304840662596,8.87756524203313,0.2966666666666667,-0.4122222222222222,-0.6111111111111112,0.0036851122918280716,-0.0062793938011596875,-0.005527668437742108
1589988417.8135388,-3.7728392293173365,-0.63,8.86703537590402,0.2966666666666667,-0.4122222222222222,-0.6111111111111112,0.0009428140698260372,-0.004201627968864524,-0.0014142211047390564
1589988417.8235388,-3.7810325870221613,-0.6382606961772916,8.921358457243777,0.2986171088196383,-0.4122222222222222,-0.6111111111111112,-0.002519574877806931,-0.006319709153102723,0.002934579034675349
1589988417.8335388,-3.783490812559625,-0.7208486457339582,9.028678916587166,0.31555555555555553,-0.4122222222222222,-0.6111111111111112,-0.004744111709582248,-0.0034166001927857805,0.00023668073430001084
1589988417.8435388,-3.7591780526109146,-0.7657536317235963,9.05671221044366,0.31555555555555553,-0.4122222222222222,-0.6111111111111112,-0.002360982667714257,0.0,0.0011804913338571285
1589988417.8535388,-3.750944248135061,-0.823390263054574,9.023776992540244,0.31555555555555553,-0.4122222222222222,-0.6111111111111112,-0.004157320143577973,0.0,0.0020786600717889866
1589988417.8635387,-3.7588395711867593,-0.9034812864397217,9.037071656949408,0.31555555555555553,-0.4122222222222222,-0.6111111111111112,-0.007057266896200036,-0.0015427962167337502,-0.002440777472138487
1589988417.8735387,-3.7917082001128453,-0.8048753996614633,9.063366560090277,0.31555555555555553,-0.4122222222222222,-0.6111111111111112,-0.004906020163538344,-0.007279454170498261,-0.007460353181682434
1589988417.8835387,-3.7783299356437623,-0.6529979613862573,9.036498980693128,0.2966666666666667,-0.4044444444444445,-0.59,-0.004944951295142327,-0.010781007170629572,-0.0009635301281614676
1589988417.8935387,-3.6945009393612342,-0.6027005636167406,9.01135028180837,0.2966666666666667,-0.4044444444444445,-0.59,-0.0012872213107118311,-0.009866574674521948,-4.909763205384384e-05
1589988417.9035387,-3.168396084185981,-0.37258146219872557,8.323550565863268,0.2966666666666667,-0.4044444444444445,-0.59,0.008550765227820884,0.0424708508592259,-0.026918086540205582
1589988417.9135387,-2.702865591745991,-0.3285672041270047,8.188508061905072,0.2966666666666667,-0.4044444444444445,-0.59,-0.008768580461522,0.12003977169178365,-0.07778737878840034
1589988417.9235387,-2.73813520219388,-0.3249014059983459,8.098721107386933,0.2966666666666667,-0.4044444444444445,-0.5907079808664277,-0.10076203319735622,0.23094454135110642,-0.13648167249609827
1589988417.9335387,-3.075899316589039,-0.41618900448352414,8.819893135419841,0.2966666666666667,-0.4044444444444445,-0.6038939673142868,-0.2302151524315083,0.46893912209697064,-0.2201283033858581
1589988417.9435387,-2.712026697053557,-1.1065733355038256,9.481746703565033,0.2966666666666667,-0.4044444444444445,-0.6044444444444445,-0.23881511145974677,0.294493058430527,-0.35995136969209995
1589988417.9535387,-2.074768028650497,-1.0610548591893212,8.70793260621846,0.2966666666666667,-0.4044444444444445,-0.6044444444444445,0.03510369104160743,-0.07542145733414163,-0.40794922632375724
1589988417.9635386,-1.5760083099816407,-1.2382974200405836,8.94587593004155,0.2966666666666667,-0.4044444444444445,-0.6044444444444445,0.12655618680854036,0.15208525303246775,-0.43144070270250595
1589988417.9735386,-1.740916061070738,-0.9209093939595974,8.653647576505099,0.2983844108125727,-0.403838181804713,-0.605050707084176,0.0698124428107669,0.14725779202298392,-0.427307340992241
1589988417.9835386,-1.95,-0.93,8.99,0.31555555555555553,-0.3977777777777778,-0.6111111111111112,0.04799655442984406,0.016362461737446838,-0.4025165587411922
1589988417.9935386,-2.0022306643288523,-0.9508922657315411,9.110130527956361,0.31555555555555553,-0.3977777777777778,-0.6111111111111112,0.0018469531133210038,0.010095231929030127,-0.3939703362751694
1589988418.0035386,-2.0733352331911714,-0.9524985751066213,9.027484326172836,0.31555555555555553,-0.3977777777777778,-0.6111111111111112,-0.022542385475204815,0.0037269533629442505,-0.37024485282770603
1589988418.0135386,-2.2175536084851277,-0.908111597878718,8.706641687802628,0.31555555555555553,-0.3977777777777778,-0.6111111111111112,0.020619267266236613,0.03805734298600905,-0.3380124170582222
1589988418.0235386,-2.278369741830655,-0.9094565806102185,8.688369741830655,0.31555555555555553,-0.3977777777777778,-0.6111111111111112,0.03042470619026494,0.03865330026591929,-0.32548251820266927
1589988418.0335386,-2.252522281337897,-0.9337834220068454,8.81639482869633,0.3088888888888889,-0.3911111111111111,-0.5966666666666667,0.002319230671267627,0.023300709615847192,-0.32629597307271513
1589988418.0435386,-2.2667359110779763,-0.9551038666169643,8.908783422006845,0.3088888888888889,-0.3911111111111111,-0.5966666666666667,0.003094463913841907,0.013222677462381554,-0.32707120631528935
1589988418.0535386,-2.4117855504587156,-0.9508927752293578,8.96089277522936,0.3088888888888889,-0.3911111111111111,-0.5966666666666667,0.012778231969088071,0.019031056653456658,-0.3266453373174573
1589988418.0635386,-2.4278188073394498,-0.9589094036697248,8.968909403669725,0.3088888888888889,-0.3911111111111111,-0.5966666666666667,0.019774060028759147,0.023403449190751085,-0.3310177298547517
1589988418.0735385,-2.5103797998718393,-0.9778621777492975,9.05037979987184,0.3088888888888889,-0.3911111111111111,-0.5966666666666667,0.019751554200864812,0.024972507881489883,-0.3413548645446012
1589988418.0835385,-2.4050722549661643,-0.971790875354726,8.986117878192536,0.33625263770646874,-0.39202323607169715,-0.6030515413907687,0.01963495408493621,0.02329815482533546,-0.3514756315643023
1589988418.0935385,-2.3470885931991354,-0.98,8.88015193904242,0.3422222222222222,-0.3922222222222223,-0.6044444444444445,0.02354261686417604,0.030860847125776,-0.37194843586361126
1589988418.1035385,-2.3889733274819585,-0.9820533450360834,8.76,0.3422222222222222,-0.3922222222222223,-0.6044444444444445,0.013956814975209309,0.027299864766138018,-0.39418408068454075
1589988418.1135385,-2.375030851660574,-0.9980123406642295,8.760993829667886,0.3422222222222222,-0.3922222222222223,-0.6044444444444445,0.011999138607461015,0.036979836605450754,-0.41919078890050737
1589988418.1235385,-2.334466237257974,-0.9817864949031896,8.769106752548405,0.3422222222222222,-0.3922222222222223,-0.6044444444444445,0.011999138607461015,0.03609485400404165,-0.4395453887329166
1589988418.1335385,-2.39738175783494,-1.028523648433012,8.881810812535903,0.35,-0.3977777777777778,-0.6177777777777778,0.009173297148445177,0.027109724588905666,-0.4849579384771183
1589988418.1435385,-2.4439224272755706,-1.02,8.946077572724429,0.35,-0.3977777777777778,-0.6177777777777778,0.006095959574626738,0.02671477683170199,-0.5155997479319068
1589988418.1535385,-2.5222949854987182,-1.023442478248077,8.884917405741666,0.35,-0.3977777777777778,-0.6177777777777778,0.01942032759202435,0.03771410681172564,-0.5553757386500024
1589988418.1635385,-2.539924761464419,-1.049887142196629,8.999510949518726,0.35,-0.3977777777777778,-0.6177777777777778,0.026151213401190466,0.04252188238970144,-0.5899917228114282
1589988418.1735384,-2.54,-1.090852978577717,9.016341191431087,0.35,-0.3977777777777778,-0.6177777777777778,0.02707121251169978,0.04343367424914662,-0.6284642237973307
1589988418.1835384,-2.577043730287273,-1.1,8.992217202284545,0.3551449625398991,-0.37513994260222205,-0.6260097178416163,0.028280980594807735,0.04767407542944361,-0.674422985176595
1589988418.1935384,-2.587192058791269,-1.078423823626193,8.903695294504772,0.3555555555555556,-0.37333333333333335,-0.6266666666666667,0.02914613225681191,0.05191921398936432,-0.7080026604945573
1589988418.2035384,-2.6592718968715414,-1.1302427010428193,8.78951459791436,0.3555555555555556,-0.37333333333333335,-0.6266666666666667,0.02277507354819982,0.055738268214699856,-0.7623794455257968
1589988418.2135384,-2.6396580050816016,-1.1367806649727994,8.7764386700544,0.3555555555555556,-0.37333333333333335,-0.6266666666666667,0.019209167393363036,0.05859099313856928,-0.788767151071589
1589988418.2235384,-2.617415770185601,-1.1462921149071994,8.832921149071995,0.3555555555555556,-0.37333333333333335,-0.6266666666666667,0.018826019045498892,0.05793660324897168,-0.8230378862810068
1589988418.2335384,-2.6190213588657705,-1.1725533971644264,8.87902135886577,0.3610686081957487,-0.36431197446756275,-0.6226571738374354,0.019142915287399715,0.057215239487352194,-0.8582101640789639
1589988418.2435384,-2.629001764068038,-1.199001764068038,8.88001764068038,0.36777777777777776,-0.3533333333333333,-0.6177777777777778,0.01952413913694012,0.05835848471370126,-0.8873879551112895
1589988418.2535384,-2.622213662626034,-1.1922136626260338,8.812136626260337,0.36777777777777776,-0.3533333333333333,-0.6177777777777778,0.026188342143822242,0.06206081971752467,-0.8984949601227598
1589988418.2635384,-2.592562129638071,-1.2519215972285531,8.953202662047588,0.36777777777777776,-0.3533333333333333,-0.6177777777777778,0.03367601176349242,0.06210748335534913,-0.9206882895956942
1589988418.2735384,-2.623152338408241,-1.2748642538061812,8.991440423010301,0.36777777777777776,-0.3533333333333333,-0.6177777777777778,0.03200757469501767,0.061273264821111756,-0.934035786143492
1589988418.2835383,-2.6357883328262854,-1.2742116671737147,8.973261332522057,0.3944444444444444,-0.3466666666666667,-0.6266666666666667,0.04581489286485115,0.07308566242726255,-0.9632035809443706
1589988418.2935383,-2.59591249619714,-1.3140875038028599,8.909459993915425,0.3944444444444444,-0.3466666666666667,-0.6266666666666667,0.04581489286485115,0.07308566242726255,-0.9632035809443706
1589988418.3035383,-2.570715988729138,-1.3407159887291382,8.79095465163885,0.3944444444444444,-0.3466666666666667,-0.6266666666666667,0.03576310905868374,0.06872233929727672,-0.9861656963279406
1589988418.3135383,-2.6,-1.3702283910650697,8.829314826804792,0.3944444444444444,-0.3466666666666667,-0.6266666666666667,0.02620485238033745,0.06879708009854424,-1.0335897638338614
1589988418.3235383,-2.6,-1.3770174813855616,8.808947555843316,0.3944444444444444,-0.3466666666666667,-0.6266666666666667,0.026945427251011598,0.07101880471056668,-1.050622985859367
1589988418.3335383,-2.6,-1.4176850842894686,8.86029613486315,0.4086810318426881,-0.3315926329508792,-0.6434155930175416,0.029737252561446957,0.0728169926444446,-1.0794820450132037
1589988418.3435383,-2.5345596943648516,-1.4673944603629416,8.842605539637058,0.4133333333333333,-0.32666666666666666,-0.6488888888888888,0.03564214046724331,0.07716476527313659,-1.1109420764417144
1589988418.3535383,-2.554662385435501,-1.486441590290334,8.782454433983832,0.4133333333333333,-0.32666666666666666,-0.6488888888888888,0.04406816258323406,0.08193273375772116,-1.1431368859096
1589988418.3635383,-2.541269217820671,-1.5368269554483223,8.788730782179329,0.4133333333333333,-0.32666666666666666,-0.6488888888888888,0.04683649855392356,0.08085992809158585,-1.1742541812890022
1589988418.3735383,-2.556774534463444,-1.590323603390332,8.890647206780663,0.4133333333333333,-0.32666666666666666,-0.6488888888888888,0.049650450430563466,0.08255129576021498,-1.2006181245801224
1589988418.3835382,-2.575863615349052,-1.6158636153490524,8.933795423023579,0.44594187599527396,-0.31520961113679563,-0.6427197051420352,0.052773893986501376,0.08722926945583802,-1.2313247945752281
1589988418.3935382,-2.561124109722262,-1.657751780555476,8.93056205486113,0.4544444444444444,-0.31222222222222223,-0.6411111111111111,0.046244067585632556,0.08629825316601472,-1.27000806148455
1589988418.4035382,-2.545874995583507,-1.6953125110412324,8.838187471292796,0.4544444444444444,-0.31222222222222223,-0.6411111111111111,0.04042209649770804,0.08694603129824047,-1.2957910763025013
1589988418.4135382,-2.5496331671677,-1.7003668328322996,8.857799003006201,0.4544444444444444,-0.31222222222222223,-0.6411111111111111,0.035026630803537406,0.08936809365560884,-1.3319948348469124
1589988418.4235382,-2.533954344336113,-1.780228278319433,8.827908688672228,0.4544444444444444,-0.31222222222222223,-0.6411111111111111,0.03578173979606189,0.09032327892088468,-1.3548740851150518
1589988418.4335382,-2.53,-1.7922252174978557,8.857774782502144,0.4744444444444445,-0.28,-0.6977777777777778,0.039609735174089916,0.09395708743935986,-1.385041010426214
1589988418.4435382,-2.5273640886073125,-1.845271822785375,8.80275124367011,0.4744444444444445,-0.28,-0.6977777777777778,0.047121373643878355,0.09729958963871532,-1.4029395721549536
1589988418.4535382,-2.490084298754787,-1.9200505792528721,8.700134878007658,0.4744444444444445,-0.28,-0.6977777777777778,0.05018557244896879,0.10036378844380575,-1.420287426399847
1589988418.4635382,-2.5402853841709994,-1.9505707683419988,8.780856152512998,0.4744444444444445,-0.28,-0.6977777777777778,0.05455191598610824,0.10476126256480155,-1.435720093268474
1589988418.4735382,-2.5645158867706526,-1.9990317735413055,8.853547660311957,0.4744444444444445,-0.28,-0.6977777777777778,0.05543296192314365,0.10828544631294319,-1.4515789201351115
1589988418.4835382,-2.5680441999210712,-2.051173480047357,8.888435359936858,0.4666666666666667,-0.2411111111111111,-0.7111111111111111,0.05655252493537537,0.11428121853046737,-1.4780089340268434
1589988418.4935381,-2.51989087164049,-2.0806547701570577,8.849345229842942,0.4666666666666667,-0.2411111111111111,-0.7111111111111111,0.05218131669913524,0.10798034340976952,-1.503450515657228
1589988418.5035381,-2.5115838466261313,-2.130496920243212,8.799503079756787,0.4666666666666667,-0.2411111111111111,-0.7111111111111111,0.03858897880418895,0.10707418755010642,-1.5251982562891417
1589988418.5135381,-2.491954655396965,-2.167068016904553,8.808045344603036,0.4666666666666667,-0.2411111111111111,-0.7111111111111111,0.040918520165819865,0.11280674189677685,-1.5509976161711532
1589988418.523538,-2.49,-2.18581566439347,8.82581566439347,0.4666666666666667,-0.2411111111111111,-0.7111111111111111,0.04231418041316682,0.11862206544944039,-1.570595247840983
1589988418.533538,-2.4608291314472215,-2.2191708685527787,8.806663305157777,0.4900033615088897,-0.20999551798814708,-0.702683971306975,0.04445162939953352,0.12253702458417245,-1.5878878424726939
1589988418.543538,-2.4466612377850163,-2.259983713355049,8.803322475570033,0.5066666666666667,-0.18777777777777774,-0.6966666666666667,0.04654152118739358,0.12653459417222324,-1.612962088670745
1589988418.553538,-2.4256968500235074,-2.3246820874471084,8.743166337564645,0.5066666666666667,-0.18777777777777774,-0.6966666666666667,0.04558019244204829,0.12630167034678605,-1.6329043236374274
1589988418.563538,-2.4325556506849315,-2.36,8.752629851598172,0.5066666666666667,-0.18777777777777774,-0.6966666666666667,0.05292552811114154,0.13118656620724323,-1.6537318425207288
1589988418.573538,-2.4121445518383466,-2.371142179264661,8.76442891036767,0.5066666666666667,-0.18777777777777774,-0.6966666666666667,0.05684779311991789,0.13733533670866285,-1.6677861750954022
1589988418.583538,-2.37802474890876,-2.451851506547442,8.789938127728101,0.5193072094851983,-0.1611661086861324,-0.7359188785768436,0.0532419910908549,0.14006402231612036,-1.6846601626774709
1589988418.593538,-2.37,-2.486338682876554,8.823661317123447,0.5277777777777778,-0.14333333333333334,-0.7622222222222222,0.047197778945296774,0.13962634015954636,-1.7034545703300525
1589988418.603538,-2.311129991237952,-2.5220500062586053,8.745899987482789,0.5277777777777778,-0.14333333333333334,-0.7622222222222222,0.0421453375663667,0.14513067310727304,-1.7203405020673996
1589988418.613538,-2.291846854817305,-2.578918871096169,8.713693709634612,0.5277777777777778,-0.14333333333333334,-0.7622222222222222,0.03967282938697608,0.14528195468058047,-1.7286473967795164
1589988418.623538,-2.268001135098557,-2.6046659099342953,8.731998864901444,0.5277777777777778,-0.14333333333333334,-0.7622222222222222,0.03607030296794245,0.14508049407202864,-1.7388565353446863
1589988418.633538,-2.2541000754237626,-2.645399547457425,8.769499622881188,0.5389220797551153,-0.15185544661012088,-0.7792664487757973,0.031045093434586224,0.14701123987467882,-1.744631087383707
1589988418.643538,-2.226745083758194,-2.6932549162418065,8.766745083758194,0.5466666666666666,-0.15777777777777774,-0.7911111111111111,0.029207172960939158,0.15088970426761192,-1.7481112280088884
1589988418.653538,-1.71,-2.44,8.71,0.5466666666666666,-0.15777777777777774,-0.7911111111111111,0.12326387842209953,0.01308996938995747,-1.7496925751243153
1589988418.663538,-1.7620388968595568,-2.4660194484297784,8.408174398214571,0.5466666666666666,-0.15777777777777774,-0.7911111111111111,0.1720823207222435,0.013657625695773097,-1.7355011674789247
1589988418.673538,-1.3217071180909647,-2.0620579237201713,7.235710789312666,0.5466666666666666,-0.15777777777777774,-0.7911111111111111,0.10336461534886925,0.1937240270691784,-1.7056644377182095
1589988418.683538,-1.479343625937362,-2.2169051610057346,7.904185560946919,0.5622039896093711,-0.16943076998480613,-0.8124749301573297,-0.144626550640089,0.3344387414872009,-1.7147591403457154
1589988418.693538,-2.0151400048697345,-2.8502800097394694,9.5488436593842,0.5733333333333334,-0.17777777777777778,-0.8277777777777777,-0.08237695613723486,0.08284601071768014,-1.7311484518218756
1589988418.703538,-1.9012686763352757,-2.762186390921439,8.773725408579065,0.5733333333333334,-0.17777777777777778,-0.8277777777777777,0.06367740823716857,0.05748861757481284,-1.690721492563274
1589988418.713538,-2.107366016389876,-2.9249133367176734,9.027949815069983,0.5733333333333334,-0.17777777777777778,-0.8277777777777777,0.004608481197645314,0.18142804529533482,-1.6558811278296202
1589988418.723538,-2.109961224679716,-2.989980612339858,8.992582746533486,0.5733333333333334,-0.17777777777777778,-0.8277777777777777,0.009431962413160726,0.12889810045534536,-1.6523099826147327
1589988418.733538,-2.051695176000879,-3.03265594666862,8.777515109336655,0.525975849480483,-0.2045450512598236,-0.810790854221864,0.03009332068277749,0.1050588592129548,-1.6372075080777435
1589988418.743538,-1.9548932359443651,-3.063628018918087,8.730884056754261,0.4711111111111111,-0.23555555555555555,-0.7911111111111111,0.02239196302512042,0.10283240692253545,-1.612326046329756
1589988418.753538,-2.056981396981397,-3.147786357786358,8.983359073359074,0.4711111111111111,-0.23555555555555555,-0.7911111111111111,0.03573399301495672,0.11412014605036955,-1.5790467954897
1589988418.763538,-2.0197943670207583,-3.1969065718091154,8.701859630315434,0.4711111111111111,-0.23555555555555555,-0.7911111111111111,0.03965221099600901,0.11673010926630346,-1.5608891254389672
1589988418.7735379,-1.9535566188197766,-3.180191387559809,8.619712918660287,0.4711111111111111,-0.23555555555555555,-0.7911111111111111,0.03493790075613051,0.1055061275497848,-1.5399486065326242
1589988418.7835379,-1.9918739386674655,-3.3069506043352312,8.704139696334034,0.4607987879998668,-0.13930720651727543,-0.6793942774059645,0.04091451727065302,0.10432765097713519,-1.5109288562252075
1589988418.7935379,-1.9358515677870516,-3.3005677118580343,8.596419279645087,0.4577777777777778,-0.1111111111111111,-0.6466666666666666,0.040038413862892204,0.09862095102822414,-1.481788040081575
1589988418.8035378,-1.9135031538991123,-3.3874526915133134,8.634968461008876,0.4577777777777778,-0.1111111111111111,-0.6466666666666666,0.03926990816987242,0.0977926356137836,-1.4585587842386267
1589988418.8135378,-2.016533527920731,-3.5554113219141255,9.291445579537598,0.4577777777777778,-0.1111111111111111,-0.6466666666666666,0.047985662041663366,0.10108002171527801,-1.4195707662493238
1589988418.8235378,-1.820759652049571,-3.3840085795996186,9.55599142040038,0.4577777777777778,-0.1111111111111111,-0.6466666666666666,0.13024145187353064,0.18175597457230644,-1.3634863542950477
1589988418.8335378,-1.5601548682703323,-3.1800580756013748,7.862961855670103,0.5044444444444445,-0.013333333333333334,-0.6177777777777778,0.11863659423506627,0.1731865801137146,-1.3286234463268578
1589988418.8435378,-1.5985906071019473,-3.1944714776632304,8.598045360824743,0.5044444444444445,-0.013333333333333334,-0.6177777777777778,0.05312583319519107,0.10977216342711539,-1.3265271019735818
1589988418.8535378,-1.6370263459335623,-3.208884879725086,9.333128865979383,0.5044444444444445,-0.013333333333333334,-0.6177777777777778,-0.012384927844684132,0.04635774674051618,-1.3244307576203058
1589988418.8635378,-1.6235597000658497,-3.2593208998024514,8.436462603819276,0.5044444444444445,-0.013333333333333334,-0.6177777777777778,0.10449508712324782,0.13739625077767012,-1.2489475119357853
1589988418.8735378,-1.671336800244723,-3.4753472009788924,9.044054975309182,0.5044444444444445,-0.013333333333333334,-0.6177777777777778,0.03890008492944906,0.07017083749056159,-1.2318387876212549
1589988418.8835378,-1.533262187088274,-3.2974779680866635,8.800125311081834,0.5276648611721075,0.03213998275834024,-0.5868172221408936,0.019702023171255707,0.04767765689322491,-1.1973530672174426
1589988418.8935378,-1.5192206579690917,-3.379868553598192,8.535586840618166,0.5311111111111111,0.03888888888888889,-0.5822222222222222,0.05400278380210974,0.0822793711192768,-1.1470162463046223
1589988418.9035378,-1.52,-3.421892569971415,8.655543422378514,0.5311111111111111,0.03888888888888889,-0.5822222222222222,0.040198237087388414,0.05551381353564315,-1.1170986122629794
1589988418.9135377,-1.52,-3.4842010135135135,8.756245683183183,0.5311111111111111,0.03888888888888889,-0.5822222222222222,0.04453756850882315,0.05785057676035188,-1.0802467347678348
1589988418.9235377,-1.4892638127684787,-3.440085913198045,8.658613538735002,0.5311111111111111,0.03888888888888889,-0.5822222222222222,0.04950765641146261,0.06100621825041911,-1.034135696834955
1589988418.9335377,-1.4407484230955847,-3.4251018922852987,8.844964822901504,0.5402116017035958,0.08114116663971103,-0.5822222222222222,0.04525836274947268,0.054437669381462814,-0.9909419628291186
1589988418.9435377,-1.4136139189551837,-3.443613918955184,8.90589229805886,0.5466666666666666,0.1111111111111111,-0.5822222222222222,0.04532885403064283,0.052662273533973944,-0.9468521455848129
1589988418.9535377,-1.4024253276440108,-3.424850655288022,8.580035812252362,0.5466666666666666,0.1111111111111111,-0.5822222222222222,0.03781676929678605,0.05675578265162145,-0.8938256959002523
1589988418.9635377,-1.4077178185976698,-3.4817425487813596,8.662074190551069,0.5466666666666666,0.1111111111111111,-0.5822222222222222,0.034064701629880394,0.04855331396224398,-0.8435065188068575
1589988418.9735377,-1.3910810600155883,-3.5,8.69108106001559,0.5466666666666666,0.1111111111111111,-0.5822222222222222,0.027624545625230396,0.04512698079461117,-0.8020357559542372
1589988418.9835377,-1.4193410919048433,-3.570813965428718,8.892441896286154,0.5641515964021526,0.13559001274079147,-0.604952630878354,0.02743143514026805,0.04300748311968168,-0.742251148029463
1589988418.9935377,-1.3905280608297783,-3.5505280608297785,8.665802037974403,0.5688888888888889,0.14222222222222222,-0.6111111111111112,0.030083888596576073,0.03909782401402535,-0.6843548414775835
1589988419.0035377,-1.4088831469684144,-3.655532587873658,8.806623602263109,0.5688888888888889,0.14222222222222222,-0.6111111111111112,0.028967930619474978,0.0342407491613115,-0.6341438110475981
1589988419.0135376,-1.3999709980740909,-3.679970998074091,8.836589328197576,0.5688888888888889,0.14222222222222222,-0.6111111111111112,0.02690505022201035,0.03272492347489368,-0.5795367560783058
1589988419.0235376,-1.3456008405848576,-3.738616882732493,8.789818563902209,0.5688888888888889,0.14222222222222222,-0.6111111111111112,0.02617993877991494,0.028762307763411484,-0.5322981720749157
1589988419.0335376,-1.284641834965937,-3.823422017978796,8.753368807191519,0.5679310499276637,0.14384318046429548,-0.6115531906316766,0.026107603687513335,0.022979781524827183,-0.48704589662259234
1589988419.0435376,-1.3377624291392456,-3.6695442105949048,8.800732064898678,0.5544444444444444,0.16666666666666666,-0.6177777777777778,0.017747092548577495,0.01932608556565958,-0.37507100890288597
1589988419.0535376,-1.2574023933276925,-3.6958007977758975,8.726655384987307,0.5544444444444444,0.16666666666666666,-0.6177777777777778,0.0196892780644344,0.013722738267656067,-0.3011199280275833
1589988419.0635376,-1.21,-3.68,8.64094508421171,0.5544444444444444,0.16666666666666666,-0.6177777777777778,0.014859260174876137,0.010628286051454132,-0.24219508123497882
1589988419.0735376,-1.2064199385901875,-3.6907401842294374,8.709380675507937,0.5544444444444444,0.16666666666666666,-0.6177777777777778,0.0053058545162338235,0.0075550739032563055,-0.18102517488565442
1589988419.0835376,-1.2,-3.7055438933205385,8.78445610667946,0.5995006342034471,0.181520355598206,-0.6252046222435474,0.008963964490546558,0.003509810578064278,-0.11798979587791876
1589988419.0935376,-1.264394332550764,-3.6765838790724494,8.749021788376787,0.6555555555555556,0.2,-0.6344444444444445,0.005267833419257155,-0.002102047406807496,-0.06600714605708527
1589988419.1035376,-1.2957537205595364,-3.674246279440464,8.672512401865122,0.6555555555555556,0.2,-0.6344444444444445,0.0022912857766919465,-0.006435360483279701,-0.0361919638601033
1589988419.1135375,-1.2725318009372908,-3.6476802053113144,8.649872796250836,0.6555555555555556,0.2,-0.6344444444444445,0.0013577569045690656,-0.010355954545454526,-0.014751654487328772
1589988419.1235375,-1.27532721598584,-3.5402617727886723,8.745065443197168,0.6555555555555556,0.2,-0.6344444444444445,0.0037964915025448407,-0.01250886027172132,0.01653379162698888
1589988419.1335375,-1.2739078509020052,-3.5273848136275063,8.808707335470489,0.8316775619670208,0.2695790642613196,-0.7083722002220965,-0.0042223153039625694,-0.012663688984226094,0.04297193785075477
1589988419.1435375,-1.2447941697853062,-3.4745197294990477,8.763970848926531,0.9255555555555556,0.30666666666666664,-0.7477777777777778,-0.005977116710314932,-0.012522101405293666,0.06731810325549298
1589988419.1535375,-1.2342166625323363,-3.477949962791027,8.643616712144299,0.9255555555555556,0.30666666666666664,-0.7477777777777778,-0.004363323129985824,-0.013208140469800542,0.10285259793988218
1589988419.1635375,-1.2845665833242743,-3.5578541145776716,8.635708229155343,0.9255555555555556,0.30666666666666664,-0.7477777777777778,-0.009224783226066995,-0.016362461737446838,0.15180996779096737
1589988419.1735375,-1.325092544501629,-3.641110534019548,8.710555267009774,0.9255555555555556,0.30666666666666664,-0.7477777777777778,-0.014756500681040457,-0.015806951307085843,0.19461206100533093
1589988419.1835375,-1.3255172267661144,-3.6641378141289147,8.722068907064457,1.1486980454200864,0.054635193739317134,-1.1019168632547451,-0.012939498813315272,-0.01967258328597668,0.2416379022647648
1589988419.1935375,-1.3315786408473775,-3.66631456338951,8.705789320423689,1.4233333333333331,-0.25555555555555554,-1.5377777777777777,-0.009989680045550661,-0.026983658675787003,0.2964182266634909
1589988419.2035375,-1.311727090799088,-3.643454181598176,8.611044817796808,1.4233333333333331,-0.25555555555555554,-1.5377777777777777,-0.006282163874902217,-0.032987744294970194,0.3468620798002351
1589988419.2135375,-1.3359582662278553,-3.681642742104895,8.667601008332749,1.4233333333333331,-0.25555555555555554,-1.5377777777777777,-0.005484019806744314,-0.033785888363128104,0.37846565339034555
1589988419.2235374,-1.3433133243607,-3.6751895020188425,8.763812382234185,1.4233333333333331,-0.25555555555555554,-1.5377777777777777,-0.006129118305409494,-0.032309057085324444,0.407199966564583
1589988419.2335374,-1.2833251231527094,-3.5366502463054186,8.78111658456486,1.0015207079000181,-0.15982941069147963,-1.0968199233716476,-0.00545415391248228,-0.036484617748227116,0.43876294907714997
1589988419.2435374,-1.2976556436297582,-3.554249029807613,8.751282098918338,0.6644444444444444,-0.08333333333333333,-0.7444444444444445,-0.004247448817238595,-0.03915403385712519,0.45666251296000193
1589988419.2535374,-1.3233806993286579,-3.569715804028053,8.730142097985974,0.6644444444444444,-0.08333333333333333,-0.7444444444444445,-0.0036412694368958727,-0.03891663156618897,0.46509369140434287
1589988419.2635374,-1.323789902967234,-3.5237899029672337,8.74456616509633,0.6644444444444444,-0.08333333333333333,-0.7444444444444445,-0.004278646067415434,-0.04069944720265043,0.469809359005691
1589988419.2735374,-1.25367432394498,-3.483068915504819,8.716743239449798,0.6644444444444444,-0.08333333333333333,-0.7444444444444445,-0.010487010542775534,-0.03991438328549725,0.46418151786036754
1589988419.2835374,-1.31585666629184,-3.478557667078976,8.763243000112448,0.6265860372910862,0.036448184381390275,-0.6997591114109724,-0.018642334462511588,-0.036508506372298924,0.4528911970561729
1589988419.2935374,-1.364772421648816,-3.4968139030834218,8.788179373190527,0.5966666666666667,0.13111111111111112,-0.6644444444444444,-0.014230450066634223,-0.038278377175736546,0.4378203429345212
1589988419.3035374,-1.3827979293237949,-3.5412046590214614,8.823601035338102,0.5966666666666667,0.13111111111111112,-0.6644444444444444,-0.012042941245561765,-0.035997415822383035,0.41822621607715016
1589988419.3135374,-1.3281108522858616,-3.5414168607856036,8.740394224442984,0.5966666666666667,0.13111111111111112,-0.6644444444444444,-0.008030932980888476,-0.035550779806988134,0.38614558170752555
1589988419.3235373,-1.2220881554903371,-3.61065895121546,8.613406057921258,0.5966666666666667,0.13111111111111112,-0.6644444444444444,-0.003871818058986673,-0.03279680390189245,0.3635341722793149
1589988419.3335373,-1.2278472752098308,-3.582152724790169,8.541691899923697,0.5895216167132957,0.13468363608779657,-0.6758115693702618,-0.0030541816288607556,-0.0274553272141787,0.32622591010016294
1589988419.3435373,-1.1436683892109907,-3.6768842954373584,8.622763423241745,0.5722222222222222,0.14333333333333334,-0.7033333333333334,-0.008255268223950837,-0.02732012779922968,0.2935321969651832
1589988419.3535373,-1.1060623299530052,-3.774844175117487,8.732889562206283,0.5722222222222222,0.14333333333333334,-0.7033333333333334,0.00753693111393699,-0.016791994907304462,0.2508107448602872
1589988419.3635373,-1.08,-3.84,8.593842552910925,0.5722222222222222,0.14333333333333334,-0.7033333333333334,0.003644037928182761,-0.019263408504242817,0.1899763042857608
1589988419.3735373,-1.1037889235840055,-3.7353287362303758,8.701851201318414,0.5722222222222222,0.14333333333333334,-0.7033333333333334,0.001249360314639123,-0.014392172881977484,0.09291689792934585
1589988419.3835373,-1.1408064712322101,-3.62,8.764596764383894,0.5626164700158132,0.11871859330441012,-0.7063351308978362,0.004891157317161459,-0.001565855013288004,-0.021024997057498288
1589988419.3935373,-1.1664116315585553,-3.6309410877057036,8.749058912294297,0.5544444444444444,0.09777777777777777,-0.7088888888888889,0.011505051588133312,0.009034616491494792,-0.14578574479000925
1589988419.4035373,-1.1142758077703419,-3.4906268358416863,8.69220058746934,0.5544444444444444,0.09777777777777777,-0.7088888888888889,0.014606192136145576,0.01786500904700128,-0.29045719017375315
1589988419.4135373,-2.0049554021715483,-6.840835393469533,5.934463342760516,0.5544444444444444,0.09777777777777777,-0.7088888888888889,0.02316164929044736,0.02490715544674754,-0.4227660826993752
1589988419.4235373,-1.2952893506045648,-7.148655300989288,-0.9163047179774559,0.5544444444444444,0.09777777777777777,-0.7088888888888889,-0.5457202558462976,0.821754847818821,-1.9907568442667647
1589988419.4335372,-0.0774407897031637,-4.88957584847745,-2.522713732603161,0.5333145751702381,0.12373733145751702,-0.6382547544579705,-1.3778183202033396,-0.276855356230985,-8.86549898502534
1589988419.4435372,-0.28203528886241813,-5.368094550327576,0.9317511911852293,0.5155555555555555,0.14555555555555555,-0.5788888888888889,-1.4828469904818313,-1.5247629266858984,-13.042450520657367
1589988419.4535372,-0.029764090061666415,-5.303249677326832,1.421358812562742,0.5155555555555555,0.14555555555555555,-0.5788888888888889,-1.5304429403517457,-0.7434757201998963,-13.085472939479732
1589988419.4635372,-1.0385506688480415,-5.642231739004908,5.5211904532768745,0.5155555555555555,0.14555555555555555,-0.5788888888888889,-1.1310886425953122,0.1389403061720943,-12.458524181920115
1589988419.4735372,-0.4366267980735496,-3.9514387777884092,0.44090613338436524,0.5155555555555555,0.14555555555555555,-0.5788888888888889,-0.3072394674078581,1.440732334595177,-11.754532686191197
1589988419.4835372,-0.9705598620043443,-4.559422249669918,4.3066408279739345,0.469749184850765,0.23587189024707658,-0.6017920742412842,0.4079356586979953,2.337437952462648,-11.06572916982963
1589988419.4935372,-2.660737436906765,-4.730370146979461,7.122969746992159,0.3977777777777778,0.37777777777777777,-0.6377777777777778,1.2007987561404039,3.2099969305799294,-10.381937873079792
1589988419.5035372,-0.2094486498700716,-2.764248484163748,12.726152600459459,0.3977777777777778,0.37777777777777777,-0.6377777777777778,2.480846997474081,3.0436067748134352,-9.610006885825413
1589988419.5135372,3.229892844576656,-0.011185426862425296,8.035533378114703,0.3977777777777778,0.37777777777777777,-0.6377777777777778,2.8788955626152584,1.2810599053578544,-8.625848373513108
1589988419.5235372,-0.30871313521935834,-0.855737295612833,-0.8641555125870581,0.3977777777777778,0.37777777777777777,-0.6377777777777778,1.295412840810775,-0.050388809468849854,-7.538775462667873
1589988419.5335371,0.3611316493520031,-0.5763350821722665,3.0082881067370835,0.30329082844005884,0.43969883680977806,-0.6111746561195851,0.07448360560441414,0.3976734838289598,-6.850730566446228
1589988419.5435371,-0.15757205086461035,-1.3815241782901397,16.708970167642015,0.1688888888888889,0.5277777777777778,-0.5733333333333334,-1.1426455086492546,0.8716424311111337,-6.188096944227853
1589988419.5535371,-0.5084468246029229,-2.3416551589528387,16.879229755776223,0.1688888888888889,0.5277777777777778,-0.5733333333333334,-1.063860964808748,0.600541455136414,-5.638388543530782
1589988419.5635371,0.838304837117473,-2.160410661401777,10.781202369200395,0.1688888888888889,0.5277777777777778,-0.5733333333333334,0.0532170358055033,0.34386182301566137,-5.124480599755956
1589988419.573537,1.3732706660853062,-1.2711954653876734,8.503298366205852,0.1688888888888889,0.5277777777777778,-0.5733333333333334,0.8747267939031246,0.48793065979156086,-4.719607813072601
1589988419.583537,8.715481795673176,-8.762099484515161,7.134784267565044,0.11869890814628405,0.5390988260655833,-0.5812580671347973,0.7523157323870078,0.37106439662821933,-4.404833476270746
1589988419.593537,19.248010777982124,-20.63966596809375,11.202637184038322,0.021111111111111112,0.5611111111111111,-0.5966666666666667,0.020499183562501938,0.10023004472694855,-4.094936021894555
1589988419.603537,1.3849665299071474,-3.613592096739365,7.99324551932628,0.021111111111111112,0.5611111111111111,-0.5966666666666667,-0.5832103655485836,0.06776639999137488,-3.6548549575820095
1589988419.613537,0.1757506792564496,0.6947908428160224,12.16635837839292,0.021111111111111112,0.5611111111111111,-0.5966666666666667,0.23277248426373331,0.3747688203159315,-2.946553471273818
1589988419.623537,1.3461108656356697,0.6133331994376381,10.001659771038362,0.021111111111111112,0.5611111111111111,-0.5966666666666667,0.8073358461472785,0.2865549587844625,-2.570784807426805
1589988419.633537,2.2645502021905672,-0.35085448375363226,8.634022677856576,-0.01779505033879057,0.5611111111111111,-0.5927760505216765,0.40291105418806566,0.11986601290792384,-2.2940645051899775
1589988419.643537,6.346,-3.793223880597015,11.965880597014925,-0.10111111111111112,0.5611111111111111,-0.5844444444444444,-0.41958453292502984,0.0491525094381612,-1.955776016926342
1589988419.653537,6.584795805268991,-4.119261659135477,8.822652400034103,-0.10111111111111112,0.5611111111111111,-0.5844444444444444,-0.32102408695915075,0.15531378699211135,-1.773526144238308
1589988419.663537,0.9375609078919969,0.348164433955716,6.763083570486569,-0.10111111111111112,0.5611111111111111,-0.5844444444444444,0.23680666541886972,0.12935052035718084,-1.7682866326879516
1589988419.673537,3.8395726814704236,-1.4456447098339242,8.094829881196741,-0.10111111111111112,0.5611111111111111,-0.5844444444444444,0.31104255751585097,0.07532126505539438,-1.5539333327017566
1589988419.683537,5.771209897906212,-2.8413863990309745,9.274971102266829,-0.12214912230105171,0.5554667666455173,-0.591115033358328,-0.11787518568202937,0.04089530077552685,-1.3262489402981001
1589988419.693537,5.12,-2.54,9.98,-0.14666666666666667,0.5488888888888889,-0.5988888888888889,-0.2476185876266955,0.10253809355466686,-1.2599095537834066
1589988419.703537,2.7826869917070627,-1.5313781499138657,8.092343656103521,-0.14666666666666667,0.5488888888888889,-0.5988888888888889,0.04671002875355253,0.18830773931486228,-1.2454129672548644
1589988419.713537,4.572805324459234,-2.2985024958402662,8.529707154742097,-0.14666666666666667,0.5488888888888889,-0.5988888888888889,0.0777005481969389,0.01996165881180702,-1.051161568549297
1589988419.723537,3.5989409984871408,-1.8899476502653507,8.307477367144537,-0.14666666666666667,0.5488888888888889,-0.5988888888888889,-0.004962215241030092,0.08513685013696932,-0.9715801596641247
1589988419.733537,3.297919483250714,-1.8302718942466578,9.052397476340694,-0.1692911388179527,0.5488888888888889,-0.6088436566354547,0.004713824413410773,0.08238484327549356,-0.9113865789114162
1589988419.743537,3.833254969936623,-2.003524908365383,8.827068956177888,-0.20222222222222225,0.5488888888888889,-0.6233333333333333,0.04295635408715266,0.05518897062278139,-0.8149780678799311
1589988419.753537,3.3273433115060804,-1.721468662301216,9.131440598690364,-0.20222222222222225,0.5488888888888889,-0.6233333333333333,0.025922792515004647,0.05560073683504855,-0.7479231769735172
1589988419.763537,3.2238410562904796,-1.7051636700092525,8.475050138788166,-0.20222222222222225,0.5488888888888889,-0.6233333333333333,0.010213148364584462,0.044137470140900706,-0.664964460157163
1589988419.773537,3.465141302292354,-1.762311264261551,8.573821150169142,-0.20222222222222225,0.5488888888888889,-0.6233333333333333,0.013707387909884551,0.022238503789222968,-0.5965661938298414
1589988419.783537,3.719060530233442,-1.8679351303411358,8.72259890405752,-0.20222222222222225,0.5449806608737273,-0.6194251053181717,0.019202159862974577,0.0323769190518059,-0.5420289820438164
1589988419.793537,3.660925263306851,-1.813302605777589,8.854273960418057,-0.20222222222222225,0.54,-0.6144444444444445,0.01897298450400829,0.0385655552472428,-0.49450660287535897
1589988419.803537,3.3870077869215116,-1.695511680382267,8.607795327847093,-0.20222222222222225,0.54,-0.6144444444444445,0.022666954007455224,0.04286880033074217,-0.45662868158040915
1589988419.813537,3.5605776412320895,-1.7935670206849061,8.637773393013216,-0.20222222222222225,0.54,-0.6144444444444445,0.016598615319991163,0.030549993471526992,-0.4099364153210018
1589988419.8235369,3.71834028160151,-1.7687552112011327,8.84331943679698,-0.20222222222222225,0.54,-0.6144444444444445,0.014226061970437635,0.018832297233299055,-0.3684458368388569
1589988419.8335369,3.7080038543462828,-1.7573070291104576,9.017740135916421,-0.21010672707396516,0.5383573948225536,-0.6144444444444445,0.01249216446878612,0.017529304361669138,-0.33118525404668797
1589988419.8435369,3.695297242162391,-1.7684286291641809,8.982805758164778,-0.2288888888888889,0.5344444444444445,-0.6144444444444445,0.0028293036357770708,0.02512338999098706,-0.3000115085777544
1589988419.8535368,3.463293436525078,-1.6599316054715623,8.87,-0.2288888888888889,0.5344444444444445,-0.6144444444444445,0.005811546935233248,0.029813554493003987,-0.27853229875931773
1589988419.8635368,3.61172193161664,-1.7532680780369532,8.945185775542733,-0.2288888888888889,0.5344444444444445,-0.6144444444444445,0.01308996938995747,0.026453191364408477,-0.26328942008548434
1589988419.8735368,3.7797543444989055,-1.7898771722494526,8.996932793459518,-0.2288888888888889,0.5344444444444445,-0.6144444444444445,0.010198951875465828,0.010955202326899185,-0.24838153729269094
1589988419.8835368,3.815458635019922,-1.8077293175099611,8.902046184824986,-0.2288888888888889,0.5321466756161072,-0.6100256582361034,0.0034956964868665613,-0.0028015951723711517,-0.23480150118686852
1589988419.8935368,3.5832360237974807,-1.69,8.852233542886045,-0.2288888888888889,0.52,-0.5866666666666667,-0.00024364173341256924,0.006089545699295195,-0.22478174028169357
1589988419.9035368,3.619877410333951,-1.6940490358664195,8.750122589666049,-0.2288888888888889,0.52,-0.5866666666666667,0.012330399579650214,0.01615499354745491,-0.2246977687361357
1589988419.9135368,3.5632241579558652,-1.716710336817654,8.853289663182347,-0.2288888888888889,0.52,-0.5866666666666667,0.013821953586119089,0.023515051425311597,-0.21513527704660707
1589988419.9235368,3.6606527293844366,-1.6777389082462253,8.892261091753776,-0.2288888888888889,0.52,-0.5866666666666667,0.009570830193761471,0.022098010294525728,-0.215843797612
1589988419.9335368,3.617544809033751,-1.6156204448059057,8.805341737308018,-0.23018285074777303,0.5205175847435537,-0.5931364759610873,0.009712519255644647,0.009637963740622132,-0.21180068510615846
1589988419.9435368,3.768092935487675,-1.67945512442505,8.817393167433266,-0.2344444444444445,0.5222222222222223,-0.6144444444444445,0.0036757270783072385,0.011430415965739585,-0.22084020785256986
1589988419.9535367,3.626068542317934,-1.6282056269538034,8.8641028134769,-0.2344444444444445,0.5222222222222223,-0.6144444444444445,0.007617123459898547,0.022693018679441613,-0.2329528558955437
1589988419.9635367,3.61,-1.5862864330326163,8.869336687485543,-0.2344444444444445,0.5222222222222223,-0.6144444444444445,0.010856232830114292,0.022045196805398463,-0.24754623145577692
1589988419.9735367,3.6185801562591786,-1.6300203646047504,8.95997963539525,-0.2344444444444445,0.5222222222222223,-0.6144444444444445,0.006233001409440674,0.020099596862583027,-0.26273755908953716
1589988419.9835367,3.6453613357683277,-1.660341768849465,8.89212888077224,-0.2372243963243181,0.5248036061106763,-0.6132530364959272,0.006818759600473541,0.011530420032253172,-0.2724754707562515
1589988419.9935367,3.675482441074963,-1.5919297642998511,8.815482441074963,-0.25,0.5366666666666666,-0.6077777777777778,0.012192907066788616,0.004961364678765061,-0.28532161195115063
1589988420.0035367,3.6892034283658015,-1.6468137134632055,8.829203428365801,-0.25,0.5366666666666666,-0.6077777777777778,0.009947815771325207,0.0064580922090740015,-0.2950503408981588
1589988420.0135367,3.7772862016679305,-1.6318280894617134,8.804541887793782,-0.25,0.5366666666666666,-0.6077777777777778,0.006147584041635969,0.026873844441820668,-0.30761380513124853
1589988420.0235367,3.5406969990319457,-1.4606969990319458,8.874937076476282,-0.25,0.5366666666666666,-0.6077777777777778,0.019096402585349382,0.03127505835933934,-0.31634092692397225
1589988420.0335367,3.660484631684477,-1.5795153683155234,8.92854610494657,-0.24994615203505813,0.5356974032977131,-0.6074008420231847,0.012349857766516986,0.026583523054930946,-0.3161294664601321
1589988420.0435367,3.6712114721729527,-1.57,8.899273116696229,-0.2488888888888889,0.5166666666666667,-0.6,-0.002108978452381204,0.013136222279801284,-0.3119974264610623
1589988420.0535367,3.7852702702702703,-1.5588513513513513,8.804527027027026,-0.2488888888888889,0.5166666666666667,-0.6,0.010060702825051775,0.021455462215183668,-0.31865525709764714
1589988420.0635366,3.4949967217891746,-1.5206574633933125,8.888553580534714,-0.2488888888888889,0.5166666666666667,-0.6,0.010893964198808764,0.02395524633645464,-0.33032091633024496
1589988420.0735366,3.774780872632823,-1.5539043631641178,8.87,-0.2488888888888889,0.5166666666666667,-0.6,0.008585405546919441,0.030921355686966565,-0.3345047786359563
1589988420.0835366,3.734302347959969,-1.4910132794457274,8.86388151141904,-0.24997662019217062,0.5159868346021156,-0.6017675633678328,0.016652384237567625,0.019367984657477653,-0.32885105131368814
1589988420.0935366,3.66305378344852,-1.547389243310296,8.836150540492646,-0.2577777777777778,0.5111111111111111,-0.6144444444444445,0.008089506749231205,0.017453292519943295,-0.3403392041388943
1589988420.1035366,3.8831386347642503,-1.4831386347642506,8.829954257565094,-0.2577777777777778,0.5111111111111111,-0.6144444444444445,0.00540041840595536,0.017223381317017405,-0.33895973692133896
1589988420.1135366,3.8209985555020554,-1.4209985555020554,8.682371569317382,-0.2577777777777778,0.5111111111111111,-0.6144444444444445,0.017262672881000436,0.016376077425942756,-0.33387591357489105
1589988420.1235366,3.695667515192537,-1.3613518047115258,8.792980680095937,-0.2577777777777778,0.5111111111111111,-0.6144444444444445,0.021137938202918368,0.030484644261283517,-0.3560248182244953
1589988420.1335366,3.5845782139756626,-1.3675234325569077,8.89789835346743,-0.2577777777777778,0.5111111111111111,-0.6144444444444445,0.013059296244692532,0.03519718540358192,-0.37285532230413243
1589988420.1435366,3.8110470737672286,-1.5489529262327715,8.939401672133013,-0.27,0.5244444444444445,-0.6144444444444445,0.006610252140512298,0.025089107997418484,-0.3983653548091905
1589988420.1535366,3.8667091967315677,-1.4932908032684322,8.907594744724818,-0.27,0.5244444444444445,-0.6144444444444445,0.010079849691861101,0.025089107997418484,-0.4096415468510742
1589988420.1635365,3.5561978197287956,-1.3640494549321989,8.761611273597447,-0.27,0.5244444444444445,-0.6144444444444445,0.015080061230983644,0.027387944685019365,-0.4379234583516202
1589988420.1735365,3.7757097682310747,-1.4089094134433688,8.907890941344338,-0.27,0.5244444444444445,-0.6144444444444445,0.015331113224297881,0.036568639114794424,-0.4555744905991496
1589988420.1835365,3.6112894925549415,-1.3291403382967057,8.901934238832412,-0.2703104333928563,0.5243250469856536,-0.6141340110515882,0.01965839772114838,0.030683923727173795,-0.4749099322015652
1589988420.1935365,3.6643662209473993,-1.2937558527017337,8.9815493314211,-0.2830881643021517,0.5194105350974629,-0.6013562801422927,0.020623359873893323,0.036473696643643465,-0.49131428879822936
1589988420.2035365,3.7803881237703454,-1.3222089071722412,8.786626721516724,-0.28444444444444444,0.5188888888888888,-0.6,0.015880552949615278,0.02617993877991494,-0.5120522800628091
1589988420.2135365,3.7842892495814833,-1.282859499720989,8.737140500279011,-0.28444444444444444,0.5188888888888888,-0.6,0.02095950218407934,0.027348525363148343,-0.5325582393460454
1589988420.2235365,3.6862021895924815,-1.2275956208150371,8.820887957241352,-0.28444444444444444,0.5188888888888888,-0.6,0.0203666466754168,0.03474116906635219,-0.5625929904789473
1589988420.2335365,3.6686091397689817,-1.2554797042491908,8.91,-0.2843671744316101,0.5186184438439686,-0.6002704450449202,0.014446308974429263,0.04799655442984406,-0.5865059312030741
1589988420.2435365,3.639106436360127,-1.1345532181800635,8.916829827270096,-0.2822222222222222,0.5111111111111111,-0.6077777777777778,0.02181661564992912,0.04799655442984406,-0.6370451769779303
1589988420.2535365,3.685506961799357,-1.1632916815423062,8.922277757943592,-0.2822222222222222,0.5111111111111111,-0.6077777777777778,0.019641769343305963,0.04702995607134488,-0.6423614679496757
1589988420.2635365,3.7227023978816263,-1.1875131172461137,8.858270239788162,-0.2822222222222222,0.5111111111111111,-0.6077777777777778,0.015395514841198693,0.045331419416727074,-0.6712325828940653
1589988420.2735364,3.6513840974353897,-1.0816262996336272,8.871141895237152,-0.2822222222222222,0.5111111111111111,-0.6077777777777778,0.03021487853085871,0.05416031542309559,-0.7233189500813149
1589988420.2835364,3.7095286662045748,-1.0899326666006537,8.979124665808497,-0.2822222222222222,0.5111111111111111,-0.6077777777777778,0.02296620590818338,0.057784651734433264,-0.7405345475601688
1589988420.2935364,3.7602657091561937,-1.0676811490125673,8.971787432675045,-0.29444444444444445,0.4977777777777778,-0.6144444444444445,0.02813763731387321,0.049282363870698405,-0.7703294230512351
1589988420.3035364,3.778843827662803,-1.014230134817128,8.91115067408564,-0.29444444444444445,0.4977777777777778,-0.6144444444444445,0.026221778470356207,0.047073682175317384,-0.8052853551574415
1589988420.3135364,3.7092759154384605,-0.9909179007351648,8.795507404410987,-0.29444444444444445,0.4977777777777778,-0.6144444444444445,0.022317252838526064,0.05276038731070744,-0.827571767261183
1589988420.3235364,3.8641886805726546,-0.9982946990748883,8.839768194449329,-0.29444444444444445,0.4977777777777778,-0.6144444444444445,0.026340672191145647,0.0559791227928031,-0.8509075995063765
1589988420.3335364,3.680761457399796,-0.9302422818999352,8.820103835099973,-0.29444444444444445,0.4977777777777778,-0.6144444444444445,0.02944488002584743,0.06868080823871386,-0.8976102630650024
1589988420.3435364,3.7799565901352077,-0.9383297158446006,9.011583464425815,-0.3166570200300462,0.475565202192176,-0.6144444444444445,0.024909275901034884,0.07417412556892004,-0.9231954032622519
1589988420.3535364,3.764770398481973,-0.8918178368121442,8.885453510436433,-0.3211111111111111,0.4711111111111111,-0.6144444444444445,0.033790915605796286,0.06416072093206669,-0.974087464095268
1589988420.3635364,3.5692788534837625,-0.8632131422472937,8.79963942674188,-0.3211111111111111,0.4711111111111111,-0.6144444444444445,0.029452431127404314,0.06751467536571736,-1.0111989712004874
1589988420.3735363,3.7258657565876088,-0.8789753509002897,8.882756162274928,-0.3211111111111111,0.4711111111111111,-0.6144444444444445,0.03050470845527058,0.06834458172291169,-1.0450852195689282
1589988420.3835363,3.7003803698377657,-0.8110143195673749,8.899746420108157,-0.3211111111111111,0.4711111111111111,-0.6144444444444445,0.03699143214173366,0.07946467947113414,-1.0858589113124104
1589988420.3935363,3.631454010095345,-0.7657270050476724,8.995727005047673,-0.3233333333333333,0.4777777777777778,-0.6222222222222222,0.031792700589403505,0.08072147790473774,-1.133491871276187
1589988420.4035363,3.6983241545673846,-0.7850025032998044,8.993346684265623,-0.3233333333333333,0.4777777777777778,-0.6222222222222222,0.0376333889284793,0.07963119325753816,-1.168821633565523
1589988420.4135363,3.787742852294901,-0.7509714091796047,8.85661427844235,-0.3233333333333333,0.4777777777777778,-0.6222222222222222,0.04023763064250072,0.07565379292817684,-1.2109250326089678
1589988420.4235363,3.7746093094427167,-0.6795705612320451,8.830744360531122,-0.3233333333333333,0.4777777777777778,-0.6222222222222222,0.03912937466168763,0.08689170657789036,-1.262235787175785
1589988420.4335363,5.3687689333924835,-0.5016781798593067,9.083163698586729,-0.3249067677855941,0.47615008696509425,-0.621516889536726,-0.006408449376173331,-0.044911616674718775,-0.874600316592887
1589988420.4435363,5.15,0.05,8.95,-0.3555555555555556,0.4444444444444444,-0.6077777777777778,0.05999569303730508,-0.06981317007977318,0.25634523388666713
1589988420.4535363,3.7295836151504904,-0.10279379438620224,8.548208911058506,-0.3555555555555556,0.4444444444444444,-0.6077777777777778,0.059378388688079514,0.08821674332197242,0.08473462480195901
1589988420.4635363,3.3741384297520662,-0.8391528925619836,9.504840909090909,-0.3555555555555556,0.4444444444444444,-0.6077777777777778,-0.09257569829047455,0.018400331972019762,-0.17137064282149747
1589988420.4735363,4.4635124814085305,-0.6220394340153556,8.827297503718293,-0.3555555555555556,0.4444444444444444,-0.6077777777777778,-0.0030124898904080174,-0.013920797715372576,-0.006341284313096383
1589988420.4835362,3.552989639270956,-0.7281314754556525,9.009128021879304,-0.35581853308401934,0.4443752398316908,-0.6078608233130821,0.019458306263731427,0.008617939908461011,1.3588293938829547e-05
1589988420.4935362,3.7539422673826683,-0.6025360828858323,8.950516838680054,-0.37349492166791987,0.4397235586254012,-0.6134428407606297,0.00758468516630793,0.0013110961562003993,0.0009269437629714061
1589988420.5035362,3.750682530804563,-0.593895696683107,9.056587345977187,-0.37666666666666665,0.4388888888888889,-0.6144444444444445,0.001090830782496456,-0.002847537761369115,0.0014237688806845576
1589988420.5135362,3.8004445687361232,-0.5654602464365012,8.807777156319384,-0.37666666666666665,0.4388888888888889,-0.6144444444444445,0.001090830782496456,-0.00594936420568354,0.0029746821028417705
1589988420.5235362,3.8915080834462925,-0.571422455119516,8.736941018944027,-0.37666666666666665,0.4388888888888889,-0.6144444444444445,0.002181661564992912,-0.006549654995713794,0.0009356649993876848
1589988420.5335362,3.8013736899527224,-0.5783558700036366,8.965743710120012,-0.37666666666666665,0.4388888888888889,-0.6144444444444445,0.002181661564992912,-0.0012554273273211927,0.00017934676104588477
1589988420.5435362,3.8404995277995457,-0.5809990555990917,8.967002833202725,-0.3688888888888889,0.43333333333333335,-0.6144444444444445,-0.0011453208125421928,0.004472303190077298,-0.001036340752450719
1589988420.5535362,3.8489274016918844,-0.5978548033837683,8.916435589848696,-0.3688888888888889,0.43333333333333335,-0.6144444444444445,-0.0020646592398182763,0.006310980044629464,-0.00011700232517463543
1589988420.5635362,3.849613388509111,-0.59,8.813889206429044,-0.3688888888888889,0.43333333333333335,-0.6144444444444445,0.002181661564992912,-0.0013174314932983217,-0.0009775304270955231
1589988420.5735362,3.7638235385091243,-0.589575162387875,9.0149019486545,-0.3688888888888889,0.43333333333333335,-0.6144444444444445,0.002181661564992912,-0.003272492347489368,0.0
1589988420.5835361,3.8222038354469534,-0.5830884627281163,8.937061552737395,-0.3688888888888889,0.43333333333333335,-0.6144444444444445,0.002181661564992912,-0.003272492347489368,0.0
1589988420.5935361,3.8162602687140117,-0.5884349328214971,8.992784261036467,-0.35295623800383874,0.43333333333333335,-0.6144444444444445,0.002181661564992912,-0.0023523839104914934,0.0
1589988420.6035361,3.828374428362642,-0.5808127858186789,8.900406392909339,-0.35,0.43333333333333335,-0.6144444444444445,0.002181661564992912,-0.002181661564992912,0.0020930003859337496
1589988420.6135361,3.7905852213970106,-0.5997073893014948,8.90882955720598,-0.35,0.43333333333333335,-0.6144444444444445,0.0021178238135494557,-0.002245499316436368,0.0
1589988420.623536,3.810366000114375,-0.59,8.870732000228749,-0.35,0.43333333333333335,-0.6144444444444445,0.0,-0.004336706850575323,0.0
1589988420.633536,3.83435216073505,-0.59,8.9187043214701,-0.35,0.43333333333333335,-0.6144444444444445,0.0,-0.002592384026646203,0.0
1589988420.643536,3.822293697026587,-0.5634405455398802,8.93,-0.3549184174926148,0.4431701683185629,-0.6213302289341052,0.000965729016380383,-0.001215932548612529,0.000965729016380383
1589988420.653536,3.817589890568004,-0.59,8.946384835852006,-0.3555555555555556,0.4444444444444444,-0.6222222222222222,0.0010251052435563035,0.004363323129985824,0.0019844849481724545
1589988420.663536,3.790269020323085,-0.59,8.905403530484628,-0.3555555555555556,0.4444444444444444,-0.6222222222222222,0.0002800440868625689,0.004363323129985824,-0.00025069852190874944
1589988420.673536,3.8002242361954592,-0.5898878819022704,8.93011211809773,-0.3555555555555556,0.4444444444444444,-0.6222222222222222,0.0032358017858058474,0.001054140220812935,0.0
1589988420.683536,3.8158994674390354,-0.5820502662804821,8.937949733719517,-0.3555555555555556,0.4444444444444444,-0.6222222222222222,0.0006709480713193187,-0.0015107134936735934,0.0
1589988420.693536,3.8199320431378343,-0.5800226522873886,8.949954695425221,-0.35,0.4388888888888889,-0.6088888888888889,0.0010933017637341984,-0.0032650794037761407,-2.4709812377425016e-06
1589988420.703536,3.7906509688945897,-0.59,8.927070639974346,-0.35,0.4388888888888889,-0.6088888888888889,0.0020396421832596704,7.100969086662073e-05,-0.0009488114007632145
1589988420.713536,3.8098653167804297,-0.59,8.840606074488067,-0.35,0.4388888888888889,-0.6088888888888889,-0.0021522782446343103,0.002166969904813611,0.0032431090271307665
1589988420.723536,3.780692421363732,-0.5997691928787559,8.918153543030048,-0.35,0.4388888888888889,-0.6088888888888889,0.002080952959923927,-0.003146606591153137,7.553145380173858e-05
1589988420.733536,3.8037049540859633,-0.5841966972760243,8.95950825680994,-0.35,0.4388888888888889,-0.6088888888888889,0.00045778865735064266,-0.002410555893668233,-0.0008619364538211346
1589988420.743536,3.819035541853295,-0.5890355418532953,8.960964458146705,-0.3610434400429165,0.4388888888888889,-0.6219402271214266,-0.0009856247190109621,-0.004152911003014836,-0.00010520606348549382
1589988420.753536,3.81,-0.58,8.918211640885268,-0.3622222222222222,0.4388888888888889,-0.6233333333333333,0.002084121706367494,0.001090830782496456,-0.001042060853183747
1589988420.763536,3.81,-0.58,8.882611666348378,-0.3622222222222222,0.4388888888888889,-0.6233333333333333,0.00014244430232103,0.001090830782496456,-7.1222151160515e-05
1589988420.773536,3.7807639628671432,-0.59,8.940190990716786,-0.3622222222222222,0.4388888888888889,-0.6233333333333333,8.333542121643903e-05,0.0020566584331682533,2.083385530410976e-05
1589988420.783536,3.8126791964693347,-0.59,8.948169799117332,-0.3622222222222222,0.4388888888888889,-0.6233333333333333,0.003564747345600007,-0.0031654594534070994,0.0008911868364000018
1589988420.793536,3.805582764619296,-0.582791382309648,8.98604308845176,-0.3766394576029261,0.4388888888888889,-0.6289400359813848,0.0020043085072205054,-0.0020043085072205054,-0.0004818456326804231
1589988420.803536,3.809676114691569,-0.5606477706168618,8.951619426542154,-0.38222222222222224,0.4388888888888889,-0.6311111111111111,0.0021463311585494353,-0.0021463311585494353,-3.5330406443476615e-05
1589988420.813536,3.81,-0.572795576313282,8.905215482903513,-0.38222222222222224,0.4388888888888889,-0.6311111111111111,0.0007858807127618605,-0.0014837711388773862,0.002791561704462103
1589988420.823536,3.7960515623845756,-0.5869742188077122,8.907896875230849,-0.38222222222222224,0.4388888888888889,-0.6311111111111111,0.0,-0.0003300615265646365,-0.0002012924056050934
1589988420.833536,3.79,-0.5793984797085061,8.951804560874482,-0.38222222222222224,0.4388888888888889,-0.6311111111111111,0.0011564464675222353,0.0005782232337611177,-0.00044699186370955883
1589988420.843536,3.804215442828426,-0.5794769618856174,8.970523038114383,-0.38222222222222224,0.43625639947621736,-0.6268991280508367,0.0016647734775240542,5.7054607558740256e-05,5.7054607558740256e-05
1589988420.853536,3.811459888895526,-0.6070802222089481,8.942919777791051,-0.38222222222222224,0.43333333333333335,-0.6222222222222222,0.0020224123903664656,-0.0020224123903664656,0.0007723324332435633
1589988420.863536,3.8297747952077277,-0.5704504095845452,8.80157643354591,-0.38222222222222224,0.43333333333333335,-0.6222222222222222,0.002181661564992912,-2.4566031977666346e-05,0.001090830782496456
1589988420.8735359,3.8122275013376137,-0.5788862493311931,8.888862493311931,-0.38222222222222224,0.43333333333333335,-0.6222222222222222,0.0031510009961333157,0.0,0.001090830782496456
1589988420.8835359,3.7946930400183323,-0.58,8.953574359935837,-0.38222222222222224,0.43333333333333335,-0.6222222222222222,0.001602762034044904,-0.0016697303134444637,0.003595426252663152
1589988420.8935359,3.79,-0.5993962192577607,8.989396219257761,-0.36929140938371513,0.44051711824361506,-0.6229406007132504,-0.0003197020861979349,-0.002181661564992912,0.0022475238269442374
1589988420.9035358,3.781408921806205,-0.59281784361241,8.974226765418615,-0.3622222222222222,0.4444444444444444,-0.6233333333333333,0.0017205929820912397,-0.00030737905526778166,0.00015368952763389083
1589988420.9135358,3.8185582094878785,-0.5803604476280303,8.863964923908332,-0.3622222222222222,0.4444444444444444,-0.6233333333333333,0.0011301495193097827,-0.0021030240913662585,-0.0010515120456831293
1589988420.9235358,3.792652496626181,-0.58,8.923810841205578,-0.3622222222222222,0.4444444444444444,-0.6233333333333333,0.003079597349468965,-0.0011872782815066578,0.0008979357844760524
1589988420.9335358,3.804851628279513,-0.58,8.944851628279512,-0.3622222222222222,0.4444444444444444,-0.6233333333333333,0.0024624616826149754,0.0021492918770011143,-0.0005292305472523293
1589988420.9435358,3.81,-0.5883949104068172,8.966789820813634,-0.3519617761694456,0.4351167662146475,-0.6158711907494958,0.003097404233798523,0.0014410070098781467,-0.001090830782496456
1589988420.9535358,3.8186068206508903,-0.5813931793491096,8.892538614141987,-0.35,0.43333333333333335,-0.6144444444444445,0.003272492347489368,-0.0017257446891287634,-0.001090830782496456
1589988420.9635358,3.8018202910246384,-0.5890898544876806,8.861820291024639,-0.35,0.43333333333333335,-0.6144444444444445,0.004264041655846926,-0.00019856294827779548,-0.0020823800908540144
1589988420.9735358,3.8081603371934607,-0.5818396628065394,8.884481011580382,-0.35,0.43333333333333335,-0.6144444444444445,0.0008027043275148477,0.0,0.0013789572374780642
1589988420.9835358,3.8053134807267406,-0.5940595578197785,8.913432596366297,-0.35,0.43333333333333335,-0.6144444444444445,0.0010224398972068756,0.0015336598458103134,0.0006480017191825985
1589988420.9935358,3.8051019496344436,-0.61,8.94680259951259,-0.3486772723169961,0.4308768390648976,-0.6144444444444445,0.002181661564992912,0.002901468100022864,-0.001090830782496456
1589988421.0035357,3.8202029104324655,-0.6026521828243492,8.977550727608117,-0.3422222222222222,0.4188888888888889,-0.6144444444444445,0.002181661564992912,0.000556482438539389,-0.0013580049544749894
1589988421.0135357,3.801099268975883,-0.5883244517319123,8.972774817243971,-0.3422222222222222,0.4188888888888889,-0.6144444444444445,0.002181661564992912,-0.0004854595693913994,-0.0018789759584403837
1589988421.0235357,3.801877935858876,-0.5918779358588759,8.934366192423372,-0.3422222222222222,0.4188888888888889,-0.6144444444444445,0.002181661564992912,-0.004330035299341563,-0.0015338206616238904
1589988421.0335357,3.7914020259772543,-0.6,8.947195948045492,-0.3422222222222222,0.4188888888888889,-0.6144444444444445,0.001505420146456899,-0.003163777602298672,0.00026165205457556956
1589988421.0435357,3.784374246890236,-0.595625753109764,8.97,-0.3497556474220731,0.4232631357791249,-0.6132293758638233,0.001090830782496456,-0.0008522526245910153,0.0008522526245910153
1589988421.0535357,3.7921496765103906,-0.5878503234896094,8.97,-0.3631466651012282,0.4310385653992795,-0.6110695343026693,0.001090830782496456,-0.00042816872575104665,0.00042816872575104665
1589988421.0635357,3.7999251061305452,-0.5800748938694548,8.97,-0.3765376827803834,0.4388139950194341,-0.6089096927415153,0.001090830782496456,-4.084826911077925e-06,4.084826911077925e-06
1589988421.0735357,3.805655885397365,-0.584344114602635,8.835204401109223,-0.37666666666666665,0.4388888888888889,-0.6088888888888889,0.002418596261555245,0.0008538960859341227,0.0013277654790587892
1589988421.0835357,3.7949360407907684,-0.5950639592092316,8.87272385723231,-0.37666666666666665,0.4388888888888889,-0.6088888888888889,0.0030032730855779517,0.0002692192619114163,0.0019124423030814955
1589988421.0935357,3.799607913898147,-0.5951960430509265,8.942843526439807,-0.36972761774022733,0.4415577538605963,-0.6115577538605963,0.0027484619357056672,0.0026201520589185043,0.001657631153209211
1589988421.1035357,3.8058751638386057,-0.5879375819193028,8.989687909596514,-0.3622222222222222,0.4444444444444444,-0.6144444444444445,0.0017317117392325685,0.0043292793480814214,0.00041590604385594086
1589988421.1135356,3.795969747422863,-0.5829848737114315,8.964924368557156,-0.3622222222222222,0.4444444444444444,-0.6144444444444445,0.0006511984252587863,0.0016279960631469656,-0.0012048639271047326
1589988421.1235356,3.7928044224555735,-0.5814022112277867,8.955608844911147,-0.3612874147370311,0.44537925192963557,-0.6156908544246994,0.0,0.00030591503416638795,-0.002028704047909718
1589988421.1335356,3.7998626817447496,-0.5849313408723747,8.969725363489498,-0.35893466164063903,0.4477320050260276,-0.618827858553222,0.0,0.0010758516845138712,-0.0016437357227359764
1589988421.1435356,3.8069209410339258,-0.5884604705169628,8.983841882067852,-0.35658190854424704,0.45008475812241966,-0.6219648626817447,0.0,0.0018457883348613545,-0.0012587673975622347
1589988421.1535356,3.808393472249587,-0.5867869444991745,8.988393472249587,-0.3555555555555556,0.4511111111111111,-0.6233333333333333,0.00017524499230850006,0.002181661564992912,-0.0007403407978794558
1589988421.1635356,3.805543831996032,-0.5810876639920645,8.985543831996033,-0.3555555555555556,0.4511111111111111,-0.6233333333333333,0.0004860925230703802,0.002181661564992912,-0.00011864573635569562
1589988421.1735356,3.8026941917424772,-0.5753883834849545,8.982694191742478,-0.3555555555555556,0.4511111111111111,-0.6233333333333333,0.0007969400538322604,0.002181661564992912,0.0005030493251680648
1589988421.1835356,3.8,-0.5705872388481084,8.977651044607567,-0.3555555555555556,0.4511111111111111,-0.6233333333333333,0.0009627151400575724,0.0020535459225540283,0.001090830782496456
1589988421.1935356,3.8,-0.58,8.941574010455563,-0.3576542361629741,0.4511111111111111,-0.6249947888142062,-0.0009191328768064238,0.0002575468585350483,0.001090830782496456
1589988421.2035356,3.8,-0.58,8.95410365944735,-0.3743604348186873,0.4511111111111111,-0.638220529416646,0.00044763980460504286,0.0023077058806522488,0.001090830782496456
1589988421.2135355,3.8,-0.5725205470223659,8.892684923201292,-0.38222222222222224,0.4511111111111111,-0.6444444444444445,0.0002749490280726549,-0.0016227981790534387,0.001090830782496456
1589988421.2235355,3.816549803092882,-0.5948247046393238,8.903099606185766,-0.38222222222222224,0.4511111111111111,-0.6444444444444445,0.0009026517328985657,-0.003272492347489368,-0.0007144726833006754
1589988421.2335355,3.8144325917383433,-0.5888651834766869,8.921134816523313,-0.38222222222222224,0.4511111111111111,-0.6444444444444445,0.001090830782496456,-0.003272492347489368,-0.00048352075144245707
1589988421.2435355,3.81,-0.5747885317750182,8.950845872899928,-0.38222222222222224,0.44184627871114357,-0.632863403944485,0.0016593137786776804,-0.003840975343670593,-0.0005684829961812246
1589988421.2535355,3.798913967124868,-0.575543016437566,8.964456983562435,-0.38222222222222224,0.43333333333333335,-0.6222222222222222,0.00036771367759863235,-0.0031540245383896376,-0.00048618148669836274
1589988421.2635355,3.796913835040908,-0.5869138350409081,8.897775484631827,-0.38222222222222224,0.43333333333333335,-0.6222222222222222,0.0011717164438210996,0.0015892504788696804,0.0
1589988421.2735355,3.813726845225925,-0.59,8.89745369045185,-0.38222222222222224,0.43333333333333335,-0.6222222222222222,0.0014329782990427273,0.0017751258155889985,0.0007486832659501847
1589988421.2835355,3.8139550526052672,-0.5839550526052673,8.916044947394733,-0.38222222222222224,0.43333333333333335,-0.6222222222222222,0.0004314293128218423,0.0004314293128218423,0.001090830782496456
1589988421.2935355,3.81,-0.58,8.945136757565203,-0.3755190868715014,0.43891927945893405,-0.6300425467980632,-0.000548398978485485,0.00109679795697097,0.001639229760981941
1589988421.3035355,3.8071993217008195,-0.5771993217008193,8.981202713196723,-0.3688888888888889,0.4444444444444444,-0.6377777777777778,0.00013119565774997403,0.001570648344869697,0.001570648344869697
1589988421.3135355,3.8005521482115405,-0.5705521482115405,9.007791407153837,-0.3688888888888889,0.4444444444444444,-0.6377777777777778,0.00303157224122983,0.000120460053129769,0.000120460053129769
1589988421.3235354,3.806419888545607,-0.5920994427280339,8.887900557271966,-0.3688888888888889,0.4444444444444444,-0.6377777777777778,-0.001090830782496456,-0.0017911319870708852,0.0018718899383405097
1589988421.3335354,3.8,-0.56,8.929663643049766,-0.3688888888888889,0.4444444444444444,-0.6377777777777778,-3.6690851522067514e-05,-0.0026720406789580388,0.002745422382002174
1589988421.3435354,3.8256061861364263,-0.5664015465341066,8.952803093068214,-0.35679707876890976,0.4487121421338488,-0.6335100800883734,0.002487431585493852,-0.0015701215239910323,0.0007850607619955161
1589988421.3535354,3.828131738643728,-0.5818682613562717,8.954065869321864,-0.35,0.4511111111111111,-0.6311111111111111,0.002625179106382651,0.0012946264822134338,0.0012946264822134338
1589988421.3635354,3.82,-0.583493643743299,8.87843008117629,-0.35,0.4511111111111111,-0.6311111111111111,0.0014719281963231393,0.0007621948276533667,5.246145898359393e-05
1589988421.3735354,3.8060496562435757,-0.586975171878212,8.888826203147485,-0.35,0.4511111111111111,-0.6311111111111111,0.001090830782496456,-0.0022826196593871847,0.0019526620966864563
1589988421.3835354,3.8117028217256563,-0.5841485891371717,8.933405643451312,-0.35,0.4511111111111111,-0.6311111111111111,-0.00018574903554498452,-0.001995912529447927,0.0007193327114064871
1589988421.3935354,3.8266967469842155,-0.5866967469842156,8.95,-0.3581849129807079,0.4392057831391723,-0.6259025301233878,0.0011006745433953453,-0.00255183433309099,0.00037017276809807776
1589988421.4035354,3.8183360047713126,-0.5783360047713124,8.961663995228687,-0.3622222222222222,0.43333333333333335,-0.6233333333333333,0.0009093170607584987,-0.001363975591137748,0.001090830782496456
1589988421.4135354,3.81,-0.5829181236392426,8.905409381803787,-0.3622222222222222,0.43333333333333335,-0.6233333333333333,0.0007045743458890482,-0.0007045743458890482,0.00038625643660740775
1589988421.4235353,3.8214696802646086,-0.5842651598676957,8.898674200661521,-0.3622222222222222,0.43333333333333335,-0.6233333333333333,0.002341978812299172,-0.001090830782496456,0.0006255740149013579
1589988421.4335353,3.822080831994589,-0.5839595840027056,8.931878752008117,-0.3622222222222222,0.43333333333333335,-0.6233333333333333,0.00284056873588618,-0.0028185252289092077,-0.0006368636639162957
1589988421.4435353,3.8066747101845864,-0.59,8.95,-0.3644390820991647,0.43333333333333335,-0.6233333333333333,0.002181661564992912,-0.004728688214207235,-0.0018215609509392783
1589988421.4535353,3.8055910318546746,-0.5955910318546745,8.933226904435976,-0.3688888888888889,0.43333333333333335,-0.6233333333333333,0.002181661564992912,-0.0026626053821896365,-0.00012894314810300692
1589988421.4635353,3.8030772600465728,-0.6,8.885386300232863,-0.3688888888888889,0.43333333333333335,-0.6233333333333333,-8.379978713204516e-05,8.379978713204516e-05,-0.001090830782496456
1589988421.4735353,3.819466745331185,-0.5935110848896049,8.902444575551975,-0.3688888888888889,0.43333333333333335,-0.6233333333333333,0.001032661721731141,0.001090830782496456,-0.0017986616172389882
1589988421.4835353,3.814823117940485,-0.584941039313495,8.92,-0.3688888888888889,0.43333333333333335,-0.6233333333333333,0.001077967556137105,0.001090830782496456,-0.0005261205517092017
1589988421.4935353,3.8046292833098367,-0.58,8.94777569985902,-0.36271651114243975,0.43333333333333335,-0.626933887018762,-0.0005049764735267134,0.0005858543089697426,0.001090830782496456
1589988421.5035353,3.81,-0.5938010909953356,8.966198909004664,-0.3555555555555556,0.43333333333333335,-0.6311111111111111,-0.0005890089528382318,0.0,0.0005890089528382318
1589988421.5135353,3.8153595513854275,-0.5778426916874358,8.896404486145727,-0.3555555555555556,0.43333333333333335,-0.6311111111111111,0.0,-0.0005846363631595689,0.0005846363631595689
1589988421.5235353,3.8031760988221777,-0.5724318682370966,8.900471703533468,-0.3555555555555556,0.43333333333333335,-0.6311111111111111,0.0006117343095482376,-0.0004790964729482184,0.001090830782496456
1589988421.5335352,3.798618969894813,-0.5813810301051867,8.944309484947405,-0.3555555555555556,0.43333333333333335,-0.6311111111111111,0.001090830782496456,-0.0009401837674672482,0.0020310145499637046
1589988421.5435352,3.81,-0.57,8.966762217577386,-0.35928049279497476,0.42960839609391416,-0.6267653509984553,0.0004813393519525849,-0.002181661564992912,0.002053509486401626
1589988421.5535352,3.81,-0.5794734579130146,8.970526542086986,-0.3622222222222222,0.4266666666666667,-0.6233333333333333,0.0005166969754100544,-0.0026983585404029664,5.743683167634727e-05
1589988421.5635352,3.81,-0.5940312425280944,8.927750059775246,-0.3622222222222222,0.4266666666666667,-0.6233333333333333,0.001090830782496456,-0.0023930116592185344,-0.00021135009422562244
1589988421.5735352,3.814181138745891,-0.595818861254109,8.888362277491783,-0.3622222222222222,0.4266666666666667,-0.6233333333333333,0.0006347392975058069,-0.001090830782496456,0.001546922267487105
1589988421.5835352,3.8169676577628233,-0.5869676577628236,8.907580855592942,-0.3622222222222222,0.4266666666666667,-0.6233333333333333,-0.00016538861276880963,-0.000594664944190027,0.0018508843394552926
1589988421.5935352,3.8,-0.57,8.960189806054872,-0.3622222222222222,0.4300632686849574,-0.6272960356880058,-0.0016465984881126289,0.0005143584481443937,-0.0011115354112323456
1589988421.6035352,3.8,-0.5637002708545585,8.951100812563675,-0.3622222222222222,0.43333333333333335,-0.6311111111111111,-0.00012008002302162611,-0.003152412324467742,-0.00012008002302162611
1589988421.6135352,3.8,-0.5863896205248269,8.874025948687933,-0.3622222222222222,0.43333333333333335,-0.6311111111111111,0.0018104960426684911,-0.0022043273494697186,0.0003711655223244209
1589988421.6235352,3.794299069227479,-0.5885981384549583,8.874205584635124,-0.3622222222222222,0.43333333333333335,-0.6311111111111111,0.0009379114098835087,-0.001090830782496456,0.0018656252326641053
1589988421.6335351,3.7988884622768286,-0.5844442311384143,8.926665386830486,-0.3622222222222222,0.43333333333333335,-0.6311111111111111,0.0,-0.0020604116085587696,0.003272492347489368
1589988421.6435351,3.8050326531887633,-0.5850326531887635,8.97490204043371,-0.35891065768139796,0.4300217687925091,-0.6200725626416967,0.0,-0.0011050784238764368,0.0021887853856829022
1589988421.6535351,3.8,-0.58,8.99,-0.3555555555555556,0.4266666666666667,-0.6088888888888889,0.0005633041178294512,-0.0005990815709918976,-0.0005990815709918976
1589988421.663535,3.8,-0.58,8.925512354651163,-0.3555555555555556,0.4266666666666667,-0.6088888888888889,0.0005046215438529057,-0.0010092430877058113,-0.000423033849062261
1589988421.673535,3.8100706220023413,-0.5850353110011707,8.890141244004683,-0.3555555555555556,0.4266666666666667,-0.6088888888888889,-0.000549267223952009,0.000549267223952009,0.001090830782496456
1589988421.683535,3.823467366741991,-0.5865326332580088,8.923869466967965,-0.3555555555555556,0.4266666666666667,-0.6088888888888889,-0.0007125997448596082,0.0007125997448596082,0.0014690618201333037
1589988421.693535,3.8224884667571235,-0.58,8.957511533242876,-0.36348439620081413,0.43334358510477916,-0.6172350369365295,-0.0008193811685075143,0.0008193811685075143,0.0013622803964853977
1589988421.703535,3.802789323553382,-0.58,8.941157294213529,-0.37666666666666665,0.4444444444444444,-0.6311111111111111,-0.0006085359988743473,0.0013950987819336296,0.0007865627830592823
1589988421.713535,3.7933066852044957,-0.5816533426022477,8.885039972193256,-0.37666666666666665,0.4444444444444444,-0.6311111111111111,0.0020013098645384523,0.00036070340090891965,0.0016406064636295325
