time,acc_x,acc_y,acc_z,mag_x,mag_y,mag_z,gyr_x,gyr_y,gyr_z
1589988427.2467892,-3.91,-0.79,8.74,0.3333333333333333,-0.3566666666666667,-0.6077777777777778,-0.003272492347489368,0.003272492347489368,0.0
1589988427.2567892,-3.923341243568779,-0.7966587564312209,8.846682487137558,0.3333333333333333,-0.3566666666666667,-0.6077777777777778,-0.0072713423438109295,0.001814599812832317,0.0014527152976643865
1589988427.2667892,-3.927425337186898,-0.8002986512524085,8.883171965317919,0.3333333333333333,-0.35866918218796834,-0.6114967351744808,-0.005983280404762593,3.2577797935828736e-05,0.0
1589988427.2767892,-3.92,-0.83,8.95,0.3333333333333333,-0.3644444444444445,-0.6222222222222222,-0.0025280652878058993,0.002538389210617398,0.0
1589988427.2867892,-3.92,-0.8350156120563308,8.939968775887337,0.3333333333333333,-0.3644444444444445,-0.6222222222222222,0.002185067587317664,0.000817271581291154,0.0002735592012053019
1589988427.2967892,-3.924015252206123,-0.8379542433816319,8.918030504412245,0.3333333333333333,-0.3644444444444445,-0.6222222222222222,0.005016157841889738,0.0013139882117776244,0.001090830782496456
1589988427.3067892,-3.93,-0.8168057547606964,8.939582735717911,0.3333333333333333,-0.3644444444444445,-0.6222222222222222,0.004014885026598311,0.003620930450876881,0.001787706989271482
1589988427.3167892,-3.92369156886704,-0.80684578443352,8.96630843113296,0.33123052295567995,-0.3644444444444445,-0.6131100439190577,0.0018962061736709872,0.004363323129985824,0.0022402777171255826
1589988427.3267891,-3.9182596525319826,-0.7958701737340089,8.963480694936035,0.32666666666666666,-0.3644444444444445,-0.5933333333333334,-0.0019918191059575675,0.0030118406447941564,0.0004504941617305557
1589988427.3367891,-3.93,-0.7981579595253336,8.895131222610665,0.32666666666666666,-0.3644444444444445,-0.5933333333333334,-0.004162387684748774,0.0015357784511261592,0.001090830782496456
1589988427.3467891,-3.9259572064438872,-0.8180855871122258,8.846171174224452,0.32666666666666666,-0.3644444444444445,-0.5933333333333334,-0.00545415391248228,0.0008586604675070387,0.0015318311483250803
1589988427.356789,-3.92,-0.8267903651199209,8.86358073023984,0.32666666666666666,-0.3644444444444445,-0.5933333333333334,-0.0044038033541528914,-0.0024912981936023072,0.0007811941538870605
1589988427.366789,-3.9180145791915177,-0.82,8.851985420808482,0.32666666666666666,-0.36157661438774763,-0.594656947205655,-0.0006656308711217604,-0.006970184606353431,-0.0019650857515827475
1589988427.376789,-3.91,-0.8144389141753168,8.86,0.32666666666666666,-0.35,-0.6,0.006869601419538406,-0.012887762603235167,-0.0008886239957741521
1589988427.386789,-3.90663637797138,-0.7933636220286199,8.839818267828282,0.32666666666666666,-0.35,-0.6,0.011622312410156783,-0.009797653137759984,0.0
1589988427.396789,-3.9,-0.7951008082422951,8.834294342303934,0.32666666666666666,-0.35,-0.6,0.009795484095703143,-0.0059885728303480275,-0.0005344189178657475
1589988427.406789,-3.9088396601785136,-0.7770534466071621,8.948839660178514,0.32666666666666666,-0.35,-0.6,0.012447131161322072,-0.006350139020204393,-0.0012174042220398128
1589988427.416789,-3.9283332796858406,-0.7716667203141597,8.97250008047124,0.32666666666666666,-0.3505555734380532,-0.6018519114601775,0.010453780368840163,-0.0033633978387142475,0.0009090198000466975
1589988427.426789,-3.9132855086255276,-0.799856525876583,8.98685796549789,0.32666666666666666,-0.3566666666666667,-0.6222222222222222,0.0036621869400406846,-0.004004929735497505,-0.001090830782496456
1589988427.436789,-3.9163233419992864,-0.82,8.930586735994291,0.32666666666666666,-0.3566666666666667,-0.6222222222222222,-0.0012031835171671032,-0.004074614692267437,-0.0006897696101074215
1589988427.446789,-3.9058807548984253,-0.8076422646952759,8.884119245101575,0.32666666666666666,-0.3566666666666667,-0.6222222222222222,-0.005069852090467541,-0.0045554740409931935,-0.0008986798714890865
1589988427.456789,-3.904605677402358,-0.792302838701179,8.883091483896463,0.32666666666666666,-0.3566666666666667,-0.6222222222222222,-0.007384614743238176,-0.003523693081726384,-0.002684063033466943
1589988427.466789,-3.9156556675228873,-0.7978278337614437,8.866516498715669,0.32666666666666666,-0.3566666666666667,-0.6222222222222222,-0.006781931274750409,-0.004126376550214151,-0.003889429970442478
1589988427.476789,-3.92,-0.8,8.84048007975766,0.32666666666666666,-0.3512444665993498,-0.6005334219529549,-0.0044156917077566565,-0.0011693836491527055,-0.003298676636374785
1589988427.486789,-3.928423788941445,-0.8084237889414452,8.831576211058556,0.32666666666666666,-0.3511111111111111,-0.6,-0.0006877518169531968,-0.002009723610754613,-0.0023535995192312115
1589988427.496789,-3.9186818890489628,-0.82,8.814499220461409,0.32666666666666666,-0.3511111111111111,-0.6,-8.434558240060625e-05,-0.0002875672000273857,0.0012346143825101488
1589988427.506789,-3.9104043733101777,-0.82,8.905551893588049,0.32666666666666666,-0.3511111111111111,-0.6,0.006236212696925674,-0.0020934409941206085,0.0021375512795567602
1589988427.516789,-3.9190947473468056,-0.8081894946936112,8.963621010612778,0.32666666666666666,-0.3523181146487036,-0.5993964982312038,0.005651649404490485,-0.004264575383981721,0.002082913818988809
1589988427.526789,-3.9110453489934174,-0.7920906979868348,8.995818604026331,0.32666666666666666,-0.36305064578655466,-0.5940302326622783,0.007407755705380917,-0.0033865222335365056,0.0012048606685435936
1589988427.536789,-3.9,-0.7797843384733578,8.955323492289963,0.32666666666666666,-0.3644444444444445,-0.5933333333333334,0.0019383601483514783,-0.0005571779028413,0.0
1589988427.546789,-3.9033483574183356,-0.8133483574183356,8.906651642581664,0.32666666666666666,-0.3644444444444445,-0.5933333333333334,-0.004007907236353319,0.0007255816482243747,-0.0003652491342720813
1589988427.556789,-3.903013382314353,-0.82,8.895342254876235,0.32666666666666666,-0.3644444444444445,-0.5933333333333334,-0.006619653125870166,0.0005080811758025127,-0.001090830782496456
1589988427.566789,-3.8810018367882444,-0.82,8.880667891192164,0.32666666666666666,-0.3644444444444445,-0.5933333333333334,-0.003418203601843307,0.0021088059378159426,-0.001090830782496456
1589988427.576789,-3.8668282438658523,-0.8004847315975571,8.847312975463408,0.3333333333333333,-0.35,-0.6077777777777778,-0.0029793834397057388,0.0017828006276364987,-0.007078326495759602
1589988427.586789,-3.8551121456802697,-0.7824439271598652,8.798004655561213,0.3333333333333333,-0.35,-0.6077777777777778,0.0010663643904640313,0.0030059012498733603,-0.01793754193111046
1589988427.596789,-3.8422971043828436,-0.7854057912343128,8.759862356976967,0.3333333333333333,-0.35,-0.6077777777777778,0.005616199215692501,0.0019310863478515766,-0.03069029268845898
1589988427.6067889,-3.852538798772468,-0.7738081981587024,8.871424594476107,0.3333333333333333,-0.35,-0.6077777777777778,0.009955947035046733,0.001090830782496456,-0.04803041274610919
1589988427.6167889,-3.8726500083570117,-0.8013250041785058,8.951325004178505,0.33303888796033204,-0.35029444537300125,-0.6071398128029416,0.010811950801974524,0.0011871878054864906,-0.06403904156871473
1589988427.6267889,-3.9252277285642654,-0.8276138642821327,8.977613864282134,0.32719691904841497,-0.3561364142849184,-0.594482213493788,0.008900170946122575,0.00309896766133844,-0.07933328041553031
1589988427.6367888,-4.069403966342902,-0.8573509915857255,8.934105949514352,0.32666666666666666,-0.3566666666666667,-0.5933333333333334,0.007281836299280271,0.0029835303553510926,-0.06897517735127005
1589988427.6467888,-4.005866451016636,-0.8454488601355514,8.903653419593345,0.32666666666666666,-0.3566666666666667,-0.5933333333333334,0.002776040001530645,0.0026781139109516346,-0.046598301589483235
1589988427.6567888,-3.9089556377079484,-0.8325274183610597,8.94241774491682,0.32666666666666666,-0.3566666666666667,-0.5933333333333334,0.0013665293573455295,0.004087624555136751,-0.02404613128252139
1589988427.6667888,-3.9195226312383418,-0.8190452624766835,8.966181049906735,0.3257119291433502,-0.3560832159579733,-0.5940759069625795,-0.0023378801269386146,-0.003272492347489368,-0.002129588711011011
1589988427.6767888,-3.9115392668163995,-0.8030785336327991,8.902314134531197,0.3097452002994658,-0.34632577055337727,-0.6064944738411563,-0.004950430024741092,-0.003272492347489368,-0.001258738745076852
1589988427.6867888,-3.8879128063952564,-0.81,8.812866483138334,0.30666666666666664,-0.34444444444444444,-0.6088888888888889,-0.0032249356134438478,0.0017263065583761215,-0.0023617823342557873
1589988427.6967888,-3.862796773502748,-0.8042655911675828,8.741539248578295,0.30666666666666664,-0.34444444444444444,-0.6088888888888889,0.0020291212335695015,-0.0009382904510730456,-0.0014112770870316654
1589988427.7067888,-3.8344607142137805,-0.7948202380712602,8.83928095228504,0.30666666666666664,-0.34444444444444444,-0.6088888888888889,0.004363323129985824,-0.002746685940780166,-0.010790653917730406
1589988427.7167888,-3.885472624033298,-0.81,8.908756198453277,0.3088557162799859,-0.34578219698591733,-0.6079159779496359,0.004482717265116856,-0.001210224917627488,-0.022755485164660208
1589988427.7267888,-3.9339934192486976,-0.8126622794991317,8.98,0.32666666666666666,-0.3566666666666667,-0.6,0.004728129805166752,-0.001746047100603595,-0.039995932277187944
1589988427.7367887,-3.9569947902385523,-0.8279965268257015,8.98,0.32666666666666666,-0.3566666666666667,-0.6,0.0005463625526076757,0.0007630132509318507,-0.04417769952974701
1589988427.7467887,-3.966787908577046,-0.842202015237159,8.918808060948637,0.32666666666666666,-0.3566666666666667,-0.6,-0.0020516411841841674,-0.003142471966680623,-0.02997251265063929
1589988427.7567887,-3.9179687748607797,-0.8479687748607796,8.95406245027844,0.32666666666666666,-0.3566666666666667,-0.6,-0.005011009330873835,-0.0061018401133702905,-0.013482021956991946
1589988427.7667887,-3.9095911696123085,-0.8395911696123085,8.97,0.326939220258461,-0.3561669850817104,-0.6005905327822211,-0.0034508782561749086,-0.004452516084328595,-0.0020924686106501417
1589988427.7767887,-3.9004506723037027,-0.8304506723037025,8.97,0.33303288513086493,-0.3449952661489698,-0.6137934733390963,-0.007439172588796249,-0.006446663250639264,-9.832144433947164e-05
1589988427.7867887,-3.8990543350284326,-0.8109456649715675,8.847706355369622,0.3333333333333333,-0.34444444444444444,-0.6144444444444445,-0.005350997866390842,-0.0001031560460914382,0.001090830782496456
1589988427.7967887,-3.885309896746017,-0.8153098967460167,8.734690103253984,0.3333333333333333,-0.34444444444444444,-0.6144444444444445,-0.0038517122297326537,-0.0012613677492475128,0.0005792198822432857
1589988427.8067887,-3.8718943370937113,-0.7959471685468558,8.775859116124948,0.3333333333333333,-0.34444444444444444,-0.6144444444444445,-0.0006583404811894543,-0.0017491712636859102,-0.003262887318260416
1589988427.8167887,-3.9187423210097174,-0.8193711605048587,8.838323094679623,0.3333333333333333,-0.34444444444444444,-0.6144444444444445,0.001045100283926479,-4.573049856997687e-05,-0.007521489231050251
1589988427.8267887,-3.9632261976955734,-0.8454841317970487,8.952257934101475,0.32666666666666666,-0.3566666666666667,-0.6144444444444445,0.0030261899452155576,0.001090830782496456,-0.014286421345855142
1589988427.8367887,-3.912355366889024,-0.8115702445926825,8.96921487770366,0.32666666666666666,-0.3566666666666667,-0.6144444444444445,0.001176474339383786,0.001090830782496456,-0.006887558922528056
1589988427.8467886,-3.9182031758866205,-0.8282031758866204,8.93359364822676,0.32666666666666666,-0.3566666666666667,-0.6144444444444445,-0.00137202173752446,-0.004363323129985824,0.003468495452850005
1589988427.8567886,-3.9068299767999535,-0.8231700232000467,8.954226697600062,0.32666666666666666,-0.3566666666666667,-0.6144444444444445,-0.008212141958781685,-0.0051701802038149145,0.0039022619449406294
1589988427.8667886,-3.8822985592575985,-0.8477014407424015,8.986935254323202,0.32666666666666666,-0.3566666666666667,-0.6144444444444445,-0.012672079524360697,-0.011414092795625531,0.00033431189247741955
1589988427.8767886,-3.9170993481095175,-0.8243509778357235,8.921298044328552,0.32666666666666666,-0.3566666666666667,-0.6311111111111111,-0.012948374718894437,-0.020409372830288187,-0.005612359931054516
1589988427.8867886,-3.902516818774446,-0.8462247718383311,8.877550456323338,0.32666666666666666,-0.3566666666666667,-0.6311111111111111,-0.017720496284500575,-0.01881866564175281,-0.0064077135253222065
1589988427.8967886,-3.874813481613398,-0.8283955061288673,8.796791012257735,0.32666666666666666,-0.3566666666666667,-0.6311111111111111,-0.016928223128455742,-0.014746561563462832,-0.004013276868994123
1589988427.9067886,-3.898652407024989,-0.8204491976583369,8.780898395316674,0.32666666666666666,-0.3566666666666667,-0.6311111111111111,-0.014327799762395711,-0.012146138197402801,-0.0022796612916207693
1589988427.9167886,-3.872480586012657,-0.8108268620042189,8.825865689978905,0.32666666666666666,-0.3566666666666667,-0.6311111111111111,-0.009177629523511005,-0.005995333828729507,-0.00018039330541574266
1589988427.9267886,-3.878094836314546,-0.8342845089436381,8.902853526830915,0.31497412532343344,-0.3629626504668692,-0.6059271759103011,-0.005194607607500842,-0.0036881345862468766,-0.002649028989353105
1589988427.9367886,-3.8783299128323954,-0.8316495641619772,8.929979476994372,0.31222222222222223,-0.3644444444444445,-0.6,-0.005092036126735967,-0.0036368488458644395,-0.004001205344239511
1589988427.9467885,-3.847222767926382,-0.7769844388150753,8.893015561184926,0.31222222222222223,-0.3644444444444445,-0.6,-0.010383053319036214,-0.006992246181613663,-0.008937278166740208
1589988427.9567885,-3.6488513975553465,-0.6731853149841867,9.012741259936746,0.31222222222222223,-0.3644444444444445,-0.6,-0.02486693712409654,-0.01963495408493621,-0.023804521648973863
1589988427.9667885,-3.5860339251937274,-0.6884135700774909,9.08,0.3117815472437475,-0.3628580145219355,-0.6,-0.02832758884146923,-0.018077480150564554,-0.048756788074219834
1589988427.9767885,-3.54,-0.67,9.066469902083197,0.30666666666666664,-0.34444444444444444,-0.6,-0.01295235209386116,0.0037951835908732754,-0.0904935066514772
1589988427.9867885,-3.54,-0.67,9.018234211736873,0.30666666666666664,-0.34444444444444444,-0.6,-0.004683970175402572,0.017325263093805512,-0.11755366565734168
1589988427.9967885,-3.535537145332467,-0.572561908887445,8.774462854667533,0.30666666666666664,-0.34444444444444444,-0.6,-0.004570684147263505,0.015668278795253857,-0.12166815152043589
1589988428.0067885,-3.5128259692440977,-0.5347099487401632,8.797174030755903,0.30666666666666664,-0.34444444444444444,-0.6,-0.011177097476300954,0.006584460467827366,-0.09689410153654544
1589988428.0167885,-3.462883431085044,-0.5098071847507332,8.840385630498533,0.30666666666666664,-0.34444444444444444,-0.6,-0.019341453427182395,-0.008496244244988342,-0.04975755837636693
1589988428.0267885,-2.6935173041894354,-1.1410969034608378,9.202503825136612,0.3242309653916211,-0.35517818255413885,-0.6,0.009664005695218508,-0.01622961484105756,0.006125819554950587
1589988428.0367885,-2.3042048300341893,-0.9862335314997496,8.754061322706388,0.32666666666666666,-0.3566666666666667,-0.6,0.029768508616829583,0.018480651255863446,-0.08078409478900987
1589988428.0467885,-2.3152216451666945,-0.8858621209582844,8.792167532249957,0.32666666666666666,-0.3566666666666667,-0.6,-0.009446696916047085,0.018511886319690148,-0.29888229812343775
1589988428.0567884,-2.230899983246775,-1.0334250293181437,8.918650025129837,0.32666666666666666,-0.3566666666666667,-0.6,0.005116908289091605,0.03077597491349115,-0.40466006224497136
1589988428.0667884,-2.0302759871071716,-0.9796688154713941,8.57011039484287,0.32670346494762287,-0.3565992031515803,-0.6,0.08159554892014022,0.10014569332722145,-0.47700012828766764
1589988428.0767884,-2.072523166800967,-0.9289721998388397,8.587009266720386,0.33233642224012894,-0.34627211478198583,-0.6,0.0484146915799114,0.06788652646866566,-0.5240063428529919
1589988428.0867884,-2.2184610883557636,-0.9437604837136727,8.882221572069435,0.3333333333333333,-0.34444444444444444,-0.6,-0.015299715539169133,0.016912451511730698,-0.5929455713704395
1589988428.0967884,-2.285394967817437,-0.9735088745855276,8.978903842402964,0.3333333333333333,-0.34444444444444444,-0.6,0.0017367762195277109,0.02989263570883306,-0.6237735088385575
1589988428.1067884,-2.2504387847187406,-0.9406581770781108,8.831316354156222,0.3333333333333333,-0.34444444444444444,-0.6,0.04448474214330904,0.057790099478407596,-0.6687371745952502
1589988428.1167884,-2.267261405795648,-0.9658921086934723,8.881784217386945,0.3333333333333333,-0.34444444444444444,-0.6,0.03530942568682677,0.05687256783275937,-0.712778693586365
1589988428.1267884,-2.4052098728938813,-1.04,9.080202483003252,0.32666666666666666,-0.3511111111111111,-0.6144444444444445,0.023703078994001103,0.054882524508355165,-0.7676733723499076
1589988428.1367884,-2.449489041847895,-1.04,8.911941640978,0.32666666666666666,-0.3511111111111111,-0.6144444444444445,0.030465230266577048,0.05778058933945914,-0.8024501503231553
1589988428.1467884,-2.450673076923077,-1.0699038461538461,8.790192307692307,0.32666666666666666,-0.3511111111111111,-0.6144444444444445,0.02831964531481183,0.0665197002172358,-0.8446911096806451
1589988428.1567883,-2.5079364955531283,-1.0617233577781247,8.806553284443751,0.32666666666666666,-0.3511111111111111,-0.6144444444444445,0.024750233900375194,0.06473499451001748,-0.877708165264184
1589988428.1667883,-2.5408084892417926,-1.0669361630805976,8.81,0.32666666666666666,-0.3511111111111111,-0.6144444444444445,0.02551151325506827,0.06360239814721778,-0.9103887772871119
1589988428.1767883,-2.4395248148731685,-1.081187962817079,8.860712777690248,0.36,-0.3511111111111111,-0.6077777777777778,0.027244852234224782,0.06550168160616059,-0.9618253565531629
1589988428.1867883,-2.4263081770915393,-1.1142295572711516,8.880537734362692,0.36,-0.3511111111111111,-0.6077777777777778,0.026523996467559444,0.06694339313949127,-0.9841718853197883
1589988428.1967883,-2.492698333747824,-1.1481745834369559,8.79912708281522,0.36,-0.3511111111111111,-0.6077777777777778,0.03014501779433131,0.06862277826838437,-1.0255670359984945
1589988428.2067883,-2.5366641449553473,-1.1646656579821388,8.841329802937485,0.36,-0.3511111111111111,-0.6077777777777778,0.03214303702714897,0.07272177709039722,-1.054249829770129
1589988428.2167883,-2.5579844308246433,-1.2099221541232172,8.93185987742179,0.36,-0.3511111111111111,-0.6077777777777778,0.034466856059740605,0.07504745950218247,-1.087076102829478
1589988428.2267883,-2.5894274905422443,-1.2592366540563262,8.979427490542244,0.3534605576572789,-0.3129643641119051,-0.5870695436924945,0.03490658503988659,0.07526732399225547,-1.1219028153430424
1589988428.2367883,-2.6380321774245243,-1.2923613870905712,9.011735145183001,0.3533333333333333,-0.31222222222222223,-0.5866666666666667,0.0391840457122796,0.08294607069852707,-1.1494175760871035
1589988428.2467883,-2.5932241522979296,-1.3461310172424845,8.823541439651304,0.3533333333333333,-0.31222222222222223,-0.5866666666666667,0.03722892678784103,0.08392363016074633,-1.1670136464070506
1589988428.2567883,-2.6484878300408847,-1.349395132016354,8.809697566008177,0.3533333333333333,-0.31222222222222223,-0.5866666666666667,0.03272492347489368,0.08495283931154204,-1.1916490805172648
1589988428.2667882,-2.60842153528715,-1.33336861411486,8.80168430705743,0.3533333333333333,-0.31222222222222223,-0.5866666666666667,0.03272492347489368,0.081456395498906,-1.2038866338614915
1589988428.2767882,-2.642334060257035,-1.4094164849357413,8.838249454807224,0.3922222222222223,-0.31222222222222223,-0.6,0.030988823245801378,0.0830304427085594,-1.225703136557078
1589988428.2867882,-2.6778556456564546,-1.4005360885858864,8.811608265757659,0.3922222222222223,-0.31222222222222223,-0.6,0.03776973003523506,0.0849678446483976,-1.2363588472261882
1589988428.2967882,-2.68,-1.4284439579474102,8.791037361368392,0.3922222222222223,-0.31222222222222223,-0.6,0.03404207140003332,0.0840505495378879,-1.2463103708225018
1589988428.3067882,-2.7295924116268635,-1.4994293762776087,8.839592411626864,0.3922222222222223,-0.31222222222222223,-0.6,0.03922544717547192,0.09156754033754161,-1.2554750930623801
1589988428.3167882,-2.714525053453565,-1.5386873663660872,8.878687366366087,0.3922222222222223,-0.31222222222222223,-0.6,0.04264601777994009,0.0874096487171177,-1.2580783128609716
1589988428.3267882,-2.71,-1.589220180464994,8.929220180464993,0.41836900919888476,-0.2795387385013941,-0.6,0.03828540878157308,0.08403650280990595,-1.260957852008224
1589988428.3367882,-2.6805742682290434,-1.5801914227430145,8.949617154513971,0.4188888888888889,-0.2788888888888889,-0.6,0.042458876589141784,0.08720381965355148,-1.261000384565903
1589988428.3467882,-2.6877346570397114,-1.58,8.857184115523465,0.4188888888888889,-0.2788888888888889,-0.6,0.04254240051736178,0.08979762319700743,-1.2567817835704183
1589988428.3567882,-2.672748073982168,-1.6662596300891594,8.838625963008916,0.4188888888888889,-0.2788888888888889,-0.6,0.04066050732160153,0.08865706175144558,-1.2546052840555408
1589988428.3667881,-2.67,-1.68,8.84,0.4188888888888889,-0.2788888888888889,-0.6,0.03441229662777943,0.08750751590727159,-1.2502065124962176
1589988428.3767881,-2.657989977621789,-1.667989977621789,8.821984966432684,0.4382383693871175,-0.266878866510678,-0.6186822570327725,0.03403501368575605,0.08464628217799174,-1.2437608851149926
1589988428.3867881,-2.6141001159380757,-1.7246197913114643,8.82435995362477,0.4511111111111111,-0.2588888888888889,-0.6311111111111111,0.03255694312251852,0.08290313946973066,-1.2355753158637341
1589988428.3967881,-2.6127370730415707,-1.7691056095623559,8.798157317396074,0.4511111111111111,-0.2588888888888889,-0.6311111111111111,0.03371819139529486,0.08081904076683302,-1.2309508167329615
1589988428.406788,-2.5669945227828923,-1.7888342462028513,8.78,0.4511111111111111,-0.2588888888888889,-0.6311111111111111,0.040688585658820144,0.08252164743170806,-1.2245479580243945
1589988428.416788,-2.552648013895182,-1.8341119166289082,8.81675993052409,0.4511111111111111,-0.2588888888888889,-0.6311111111111111,0.039045637908178825,0.08049720764304415,-1.2182982970320884
1589988428.426788,-2.4919966756700607,-1.9080033243299397,8.907337765773253,0.4833351801832999,-0.24062858308131527,-0.651519688190164,0.03923360758181303,0.08279423770555248,-1.2152217922891115
1589988428.436788,-2.5478664721248205,-1.890711175958393,8.871422351916786,0.4844444444444445,-0.24,-0.6522222222222223,0.04453011892555802,0.08711130807427914,-1.2162375338521891
1589988428.446788,-2.5687506376663727,-1.9368765941659323,8.804372768167696,0.4844444444444445,-0.24,-0.6522222222222223,0.04472406208235469,0.08522108532392478,-1.2152536338456525
1589988428.456788,-2.475262222417274,-2.000287676643553,8.834450100939174,0.4844444444444445,-0.24,-0.6522222222222223,0.041905619790012685,0.08226635874238156,-1.220822376285736
1589988428.466788,-2.4736294935812815,-2.01,8.86044424037192,0.4844444444444445,-0.24,-0.6522222222222223,0.03624795483296044,0.08255568224464918,-1.2217304763960306
1589988428.476788,-2.4542226751592358,-2.003555668789809,8.850667006369427,0.4973331068648267,-0.21135852795470633,-0.6565184430290163,0.03522168922872594,0.08220017198406275,-1.2203245414246948
1589988428.486788,-2.4478019067796613,-2.015603813559322,8.84,0.5044444444444445,-0.1955555555555556,-0.6588888888888889,0.03429530380689864,0.08436547671046081,-1.2229530388620067
1589988428.496788,-2.471968178886261,-2.107872715545044,8.796063642227477,0.5044444444444445,-0.1955555555555556,-0.6588888888888889,0.03701089635932644,0.08268844445827135,-1.2231133524355395
1589988428.506788,-2.4194577394568597,-2.114053316910083,8.771351105636693,0.5044444444444445,-0.1955555555555556,-0.6588888888888889,0.04006597342858676,0.0846426527490504,-1.2181040670755001
1589988428.516788,-2.4399977904991466,-2.13249834287436,8.799997790499146,0.5044444444444445,-0.1955555555555556,-0.6588888888888889,0.04036073895236887,0.08263061253847243,-1.2173671532660448
1589988428.526788,-2.4033130718333493,-2.186686928166651,8.81933738563333,0.5044444444444445,-0.1633934494851961,-0.650588990548151,0.04341639125543188,0.08283085945492187,-1.2183857040337325
1589988428.536788,-2.4387985590497516,-2.2481978385746277,8.829699639762438,0.5044444444444445,-0.16111111111111112,-0.65,0.04469129786305762,0.09136767197532578,-1.2195160506117408
1589988428.546788,-2.420866534020586,-2.2563778219931376,8.785355246048034,0.5044444444444445,-0.16111111111111112,-0.65,0.0419412122601956,0.08954264836308298,-1.2181573899199583
1589988428.556788,-2.4173833058758922,-2.304299835255354,8.796916529379462,0.5044444444444445,-0.16111111111111112,-0.65,0.038749951487166805,0.0875518996496119,-1.2149509720682417
1589988428.566788,-2.3988242003992375,-2.3358818497005718,8.825881849700572,0.5044444444444445,-0.16111111111111112,-0.65,0.03760159703616376,0.08784394295092868,-1.2135171805673433
1589988428.576788,-2.38,-2.3590755582222602,8.83092444177774,0.5135200026667048,-0.14598518074067723,-0.6736972909136797,0.03560326186330245,0.08687230864063589,-1.212013840308341
1589988428.586788,-2.38,-2.37,8.831249686952166,0.5244444444444445,-0.12777777777777774,-0.7022222222222222,0.031975028534259375,0.08692552675785432,-1.2083678676068919
1589988428.596788,-2.327433033971105,-2.407547832877782,8.727356501366653,0.5244444444444445,-0.12777777777777774,-0.7022222222222222,0.034639095101812484,0.08671896010544825,-1.2023630122491686
1589988428.606788,-2.2850811593525933,-2.428306280215802,8.748143961510614,0.5244444444444445,-0.12777777777777774,-0.7022222222222222,0.035997415822383035,0.08979993027619532,-1.195568243840135
1589988428.616788,-2.28,-2.4735543000627747,8.781777150031386,0.5244444444444445,-0.12777777777777774,-0.7022222222222222,0.038372934383311144,0.09053895494720583,-1.1889168301914537
1589988428.626788,-2.28662836657781,-2.463486533688758,8.79,0.5288633554963181,-0.09831837076528682,-0.7169519257284677,0.03854686553979778,0.09053895494720583,-1.1817625929456217
1589988428.636788,-2.2662564936007197,-2.4974870127985604,8.79,0.5311111111111111,-0.08333333333333333,-0.7244444444444444,0.03386238610991988,0.09571898448015315,-1.1740080463457219
1589988428.646788,-2.2515699733203975,-2.552150133398011,8.71412975988358,0.5311111111111111,-0.08333333333333333,-0.7244444444444444,0.03640321651464428,0.09616436638224693,-1.1662060783641268
1589988428.6567879,-2.225561526801709,-2.5844384731982912,8.740730788663818,0.5311111111111111,-0.08333333333333333,-0.7244444444444444,0.03442242272068843,0.09421589293689407,-1.1605642358992299
1589988428.6667879,-2.2270861315090276,-2.611258394527082,8.757086131509027,0.5311111111111111,-0.08333333333333333,-0.7244444444444444,0.0314968231437306,0.09381144729469522,-1.157234190680073
1589988428.6767879,-2.1875697452518708,-2.6624302547481293,8.819402356647382,0.5367684784108617,-0.06164675868428935,-0.7291589171942366,0.026840523670826677,0.0928857627349267,-1.1544292603267061
1589988428.6867878,-2.1624971574758387,-2.6612485787379194,8.768740051165434,0.5377777777777778,-0.057777777777777775,-0.73,0.027134570750242108,0.09558451242318025,-1.1531443359109235
1589988428.6967878,-2.1780748188673664,-2.672049879244911,8.7057755433979,0.5377777777777778,-0.057777777777777775,-0.73,0.025956331641839987,0.0953358898994024,-1.1530081370987542
1589988428.7067878,-2.157284792626728,-2.699629124423963,8.683086082949309,0.5377777777777778,-0.057777777777777775,-0.73,0.025802843102588884,0.09632974828753246,-1.1515806668884132
1589988428.7167878,-2.120582246403816,-2.719708876798092,8.728835507192368,0.5377777777777778,-0.057777777777777775,-0.73,0.02670947586365616,0.10184977339585553,-1.151356012617502
1589988428.7267878,-2.1032212435457978,-2.7267787564542023,8.773221243545796,0.5488731722133032,-0.053482786383380825,-0.7443166379813232,0.0272707695624114,0.10584726719935043,-1.152620072639792
1589988428.7367878,-2.1051330460992252,-2.749201723404649,8.77026609219845,0.5722222222222222,-0.04444444444444445,-0.7744444444444445,0.025678062622824495,0.10575253358994587,-1.1540989678812503
1589988428.7467878,-2.0887159904534607,-2.8082100238663483,8.714863961813842,0.5722222222222222,-0.04444444444444445,-0.7744444444444445,0.01969014647774987,0.1073768002189817,-1.1534835206330831
1589988428.7567878,-2.0909105313193197,-2.8354552656596597,8.707276328298299,0.5722222222222222,-0.04444444444444445,-0.7744444444444445,0.015767384566621558,0.1063063395138274,-1.1530081370987542
1589988428.7667878,-2.0951033791784317,-2.8448966208215682,8.749586483286274,0.5722222222222222,-0.04444444444444445,-0.7744444444444445,0.014203354010474394,0.10848127826334619,-1.150337444737564
1589988428.7767878,-1.9850015665796343,-2.771251174934726,9.000996553524804,0.5681389498114302,-0.07244402668987525,-0.780861015375689,0.04172385021216732,0.053424300553774624,-1.1492720160356042
1589988428.7867877,-1.7830506047103756,-2.577772119669001,9.393341820496499,0.5644444444444444,-0.09777777777777777,-0.7866666666666666,0.06179832388721508,0.09025522437527866,-1.1233271765752393
1589988428.7967877,-1.5397706664720585,-2.388897666526792,8.62222199923373,0.5644444444444444,-0.09777777777777777,-0.7866666666666666,-0.1313470437806014,0.22028916782407654,-1.113395780783903
1589988428.8067877,-1.7705219160926737,-2.7519539762053853,9.465145898559799,0.5644444444444444,-0.09777777777777777,-0.7866666666666666,-0.015497959558444546,-0.023362904144240637,-1.118179658821534
1589988428.8167877,-1.872032739853177,-2.8151227744494136,9.152933085815544,0.5644444444444444,-0.09777777777777777,-0.7866666666666666,0.04137195040933504,0.12296031248499092,-1.0592681170833784
1589988428.8267877,-1.8123675969579132,-2.903370728517843,8.324149488970715,0.5644444444444444,-0.11577224114923279,-0.8702879964516634,0.048209285013980044,0.0724168768110694,-1.039251818002054
1589988428.8367877,-1.81,-2.860722604351721,8.534067629329325,0.5644444444444444,-0.11666666666666667,-0.8744444444444445,0.0013813314140609378,0.07779734118089078,-1.0355302382150424
1589988428.8467877,-1.866779827984693,-2.9340963513052705,8.809331830409578,0.5644444444444444,-0.11666666666666667,-0.8744444444444445,-0.014597781635895243,0.07550867231773525,-1.0271671280728134
1589988428.8567877,-1.9664537647882652,-3.1107669627391,8.940160321379869,0.5644444444444444,-0.11666666666666667,-0.8744444444444445,0.01667262867390651,0.060765863873566625,-1.0093356360855315
1589988428.8667877,-1.9275671934479177,-3.108376975429692,8.746753950859384,0.5644444444444444,-0.11666666666666667,-0.8744444444444445,0.016627839764933865,0.07606345807471654,-0.9826911866792891
1589988428.8767877,-1.8996049468280956,-3.1575259361937147,8.899407420242143,0.5214968510777569,-0.12740356500833858,-0.7690886294667889,0.009795930234436291,0.06017938430095346,-0.9681610714813653
1589988428.8867877,-1.9481587505928586,-3.254259773697405,8.888086591232469,0.4933333333333334,-0.13444444444444445,-0.7,0.021623637861928696,0.06721406747815584,-0.9481249277774206
1589988428.8967876,-1.8504192385765774,-3.1778930361655413,8.586100501263516,0.4933333333333334,-0.13444444444444445,-0.7,0.022643313455761593,0.06329105130202148,-0.9307999552392086
1589988428.9067876,-1.868336983167184,-3.2323668900147084,8.752239254780193,0.4933333333333334,-0.13444444444444445,-0.7,0.020225721225010564,0.06055622567816202,-0.9197517566398169
1589988428.9167876,-1.9028234494807337,-3.306220518295642,8.914308453848394,0.4933333333333334,-0.13444444444444445,-0.7,0.01928524874915189,0.05888400486723686,-0.9082080495459046
1589988428.9267876,-1.8763713924153977,-3.3522998734538922,8.889761603461649,0.4991936427589774,-0.08463181432647082,-0.6687450163965656,0.01976689397996568,0.05576430980234872,-0.8911734376773438
1589988428.9367876,-1.8647900733572655,-3.3852313875448727,9.277373575776494,0.5066666666666667,-0.021111111111111112,-0.6288888888888889,0.022859306522366125,0.05700735810763787,-0.8721444510715799
1589988428.9467876,-1.7390320562939796,-3.1915746677091477,8.969372947615325,0.5066666666666667,-0.021111111111111112,-0.6288888888888889,0.07813009381596743,0.10793646925512784,-0.8358433301623568
1589988428.9567876,-1.539895602657387,-2.9118538437203414,7.951410155014236,0.5066666666666667,-0.021111111111111112,-0.6288888888888889,0.10033650301856065,0.12105659389424664,-0.8104872713948669
1589988428.9667876,-1.6519770888810732,-3.1412926024552412,9.014485923395133,0.5066666666666667,-0.021111111111111112,-0.6288888888888889,-0.03998220282191406,-0.009658773212098362,-0.8465531050651529
1589988428.9767876,-1.6702213425275614,-3.2123364406418933,9.291549397692929,0.5139891788097637,0.010175986227576064,-0.6109154499921963,-0.06840576481657776,-0.027170429660271417,-0.8447886132027336
1589988428.9867876,-1.6289982540870236,-3.1337478176087794,8.435129583021563,0.5188888888888888,0.031111111111111114,-0.5988888888888889,0.0783325478555755,0.07283884474187761,-0.7798498235198447
1589988428.9967875,-1.6569247434435574,-3.2638711516533636,8.80933409350057,0.5188888888888888,0.031111111111111114,-0.5988888888888889,0.03421676206158267,0.050168762957269165,-0.7676938678536649
1589988429.0067875,-1.666864130828047,-3.364913046624376,8.917630430063436,0.5188888888888888,0.031111111111111114,-0.5988888888888889,-0.005990084161853232,0.025986078792808794,-0.7548092517756
1589988429.0167875,-1.6413704708608896,-3.3122912780509863,8.650963766887118,0.5188888888888888,0.031111111111111114,-0.5988888888888889,0.013580476363828893,0.034953292649277865,-0.7322487885034323
1589988429.0267875,-1.600525196406094,-3.2011029124527974,8.323413776639612,0.5190639543575869,0.03139121586102792,-0.5988947244045122,0.04567739676726142,0.052233839470372634,-0.708959802565769
1589988429.0367875,-1.6517390569069028,-3.3992753459793117,8.900289748865527,0.5522222222222222,0.08444444444444445,-0.6,0.02372952804302312,0.026021843797429618,-0.679144899246007
1589988429.0467875,-1.6303346696184606,-3.410334669618461,8.697657312670776,0.5522222222222222,0.08444444444444445,-0.6,0.03725252716968197,0.029543698107850125,-0.6470886349800863
1589988429.0567875,-1.6346543615227616,-3.4184907711420713,8.606036915431716,0.5522222222222222,0.08444444444444445,-0.6,0.041883875198937486,0.030721711332878158,-0.616600884338335
1589988429.0667875,-1.5918284482316103,-3.396365689646322,8.669097068938965,0.5522222222222222,0.08444444444444445,-0.6,0.03143710369322764,0.02637692777908452,-0.5846926907051642
1589988429.0767875,-1.5816262932122132,-3.433252586424426,8.711274497434603,0.5530231960448967,0.10326732927729648,-0.6032038952906982,0.028843477985556473,0.030936439015687035,-0.5484098313889417
1589988429.0867875,-1.6005483843752637,-3.4808225765628955,8.756782249219606,0.5544444444444444,0.13666666666666666,-0.6088888888888889,0.024738105837253003,0.027390408473846935,-0.5077148695065942
1589988429.0967875,-1.575513670756338,-3.463458987730986,8.694486329243661,0.5544444444444444,0.13666666666666666,-0.6088888888888889,0.01990020553964358,0.023396829036365634,-0.4716758649951266
1589988429.1067874,-1.575875949736996,-3.4937105493863236,8.717627849210986,0.5544444444444444,0.13666666666666666,-0.6088888888888889,0.022266479747473866,0.02335731052997032,-0.4415170266074688
1589988429.1167874,-1.6035775962660443,-3.55,8.750646441073512,0.5544444444444444,0.13666666666666666,-0.6088888888888889,0.018464188444632545,0.01877450880025989,-0.39462210053909247
1589988429.1267874,-1.6078451378454874,-3.5521548621545125,8.714477794472204,0.560190743523145,0.1393003870777378,-0.6117620384282393,0.016832579731482663,0.014801512960914559,-0.3614139755762468
1589988429.1367874,-1.5724990828794763,-3.537999266303581,8.762997432062534,0.5811111111111111,0.14888888888888888,-0.6222222222222222,0.02154400799663486,0.015489877145313559,-0.3108859726728511
1589988429.1467874,-1.5816065262850751,-3.576891747313135,8.731606526285075,0.5811111111111111,0.14888888888888888,-0.6222222222222222,0.01503416054704077,0.008489175852062035,-0.2740131330267821
1589988429.1567874,-1.5363204238217025,-3.565914139568871,8.63243770551699,0.5811111111111111,0.14888888888888888,-0.6222222222222222,0.017298176940642007,0.008081513710601163,-0.24207328537663306
1589988429.1667874,-1.488675886694913,-3.5461462413728784,8.648201561542356,0.5811111111111111,0.14888888888888888,-0.6222222222222222,0.017755104442416732,0.00901552297051205,-0.20703364802345142
1589988429.1767874,-1.4530257062403487,-3.5397692796802613,8.768376177067248,0.5990949492502767,0.15198955063702088,-0.6228423545718486,0.01275991603938106,0.005225729117867405,-0.16765884497907213
1589988429.1867874,-1.4125419609281848,-3.543896863248647,8.767793726497294,0.6133333333333333,0.15444444444444444,-0.6233333333333333,0.011019486923107197,0.006951757624808596,-0.13835109464350534
1589988429.1967874,-1.42,-3.5342432319535337,8.73827024446522,0.6133333333333333,0.15444444444444444,-0.6233333333333333,0.005430568030188133,0.0037589430330022284,-0.11810748813677693
1589988429.2067873,-1.4054434096820203,-3.5048521967726596,8.62603462259138,0.6133333333333333,0.15444444444444444,-0.6233333333333333,0.004363323129985824,0.002149415902965931,-0.09737415060042741
1589988429.2167873,-1.42531358511596,-3.5200895957474168,8.66062717023192,0.6133333333333333,0.15444444444444444,-0.6233333333333333,0.0016118127239288316,0.000520981941432375,-0.0790119313815455
1589988429.2267873,-1.4839117022627883,-3.5231680850677747,8.747079787330563,0.6520475179492763,0.1608968085471016,-0.6305447990951266,-0.0018360770936433025,-0.002181661564992912,-0.06866826192882909
1589988429.2367873,-1.513575678421129,-3.5120530401973586,8.775893919605283,0.7266666666666667,0.17333333333333334,-0.6444444444444445,-0.0028245884584930363,-0.001957709620494746,-0.0636871603337964
1589988429.2467873,-1.4533764701917569,-3.4963647086577025,8.726235298082432,0.7266666666666667,0.17333333333333334,-0.6444444444444445,0.0011190637903135717,-0.0014591465446314607,-0.05740336619845149
1589988429.2567873,-1.46,-3.45,8.662064723397586,0.7266666666666667,0.17333333333333334,-0.6444444444444445,0.005116314336568062,-0.002181661564992912,-0.04905208407512291
1589988429.2667873,-1.4473590632411721,-3.412077189723517,8.708442107707363,0.7266666666666667,0.17333333333333334,-0.6444444444444445,-0.0005761630222311403,-0.0035605738586049376,-0.03237534670181229
1589988429.2767873,-1.4210576128596109,-3.333172838578833,8.769206790355291,0.7409444402714139,0.17465534940784697,-0.6514951968418505,-0.006458458945236659,-0.006544984694978735,-0.016732244605425994
1589988429.2867873,-1.4797193673456828,-3.4992984183642073,8.723567193878598,1.2666666666666666,0.22333333333333333,-0.9111111111111112,-0.005065033423491555,-0.00726200112537961,0.02164824814408254
1589988429.2967873,-1.5131857163980482,-3.572742865592193,8.69,1.2666666666666666,0.22333333333333333,-0.9111111111111112,-0.01058495383838911,-0.0076116617129211705,0.05473476924125496
1589988429.3067873,-1.5162370769489812,-3.5565334231352077,8.669703653813773,1.2666666666666666,0.22333333333333333,-0.9111111111111112,-0.011081217085554247,-0.007668141831696336,0.08616435432773603
1589988429.3167872,-1.541885740169295,-3.6118857401692948,8.649428700846475,1.2666666666666666,0.22333333333333333,-0.9111111111111112,-0.006133580010087368,-0.011114010167410242,0.11286678461557752
1589988429.3267872,-1.5471251379959738,-3.6142502759919477,8.721623482044288,1.2002254114625048,0.03774501951786191,-0.934110007143321,-0.004363323129985824,-0.012939934998287396,0.14668907809754522
1589988429.3367872,-1.5488085480093676,-3.588255269320843,8.776510538641688,1.0355555555555556,-0.4222222222222222,-0.9911111111111112,-0.003402459598214209,-0.015912206642798125,0.17394344228828293
1589988429.3467872,-1.552890857952503,-3.504395288345634,8.698613572440628,1.0355555555555556,-0.4222222222222222,-0.9911111111111112,-0.0029571486632478947,-0.018853030930506873,0.19742749951950983
1589988429.3567872,-1.5221842340213225,-3.4260921170106613,8.646552702063968,1.0355555555555556,-0.4222222222222222,-0.9911111111111112,-0.0020438826651502577,-0.022430920491098672,0.21128242476282819
1589988429.3667872,-1.5385356039845144,-3.3833113663056245,8.699683326808474,1.0355555555555556,-0.4222222222222222,-0.9911111111111112,0.0014937771918644106,-0.024199750419606005,0.2201463448596001
1589988429.3767872,-1.5469132628466755,-3.334726676736189,8.83,0.851740349148197,-0.20847139648566523,-0.8503611816334766,-0.004184433472143506,-0.023423046880700082,0.21834504615713352
1589988429.3867872,-1.481287529517598,-3.294060047228157,8.68643764758799,0.6466666666666666,0.03,-0.6933333333333334,0.0017603185156422636,-0.020866232550549545,0.21802570881617434
1589988429.3967872,-1.5375737690181361,-3.270343169202418,8.605857923006045,0.6466666666666666,0.03,-0.6933333333333334,-0.006504927668693835,-0.020800652773353155,0.21978368569655576
1589988429.4067872,-1.61,-3.369565326161736,8.647060062126046,0.6466666666666666,0.03,-0.6933333333333334,-0.012816687477116144,-0.02151172336354619,0.21925698728178766
1589988429.4167871,-1.5747582839204743,-3.5881733519358217,8.732931635856296,0.6466666666666666,0.03,-0.6933333333333334,-0.004378390063709877,-0.01990954514727583,0.21980616940646688
1589988429.4267871,-1.472351238228113,-3.873450122078828,8.915801360306942,0.6466666666666666,0.03,-0.6933333333333334,-0.010761747651466954,-0.02070746484574546,0.22140200880340613
1589988429.4367871,-1.6265674514766428,-3.6434920776373714,8.980148822785036,0.6,0.15555555555555556,-0.7088888888888889,-0.0033374285375109038,-0.018934790309114206,0.22358784231676268
1589988429.446787,-1.5345716206064919,-3.6519191080536118,8.918348159569842,0.6,0.15555555555555556,-0.7088888888888889,-0.033234823144424996,-0.03193689279218402,0.20279433972582425
1589988429.456787,-1.4421881038174316,-3.276564311452295,8.415579055477222,0.6,0.15555555555555556,-0.7088888888888889,0.014242911466160224,-0.013970730700649338,0.1983832442362567
1589988429.466787,-1.455575267585349,-3.3956364767110734,8.717331674904258,0.6,0.15555555555555556,-0.7088888888888889,-0.01084221742601196,-0.023112394509134347,0.17875071377181165
1589988429.476787,-1.3884329240934863,-3.500359750377289,8.55216462046743,0.5957296751007237,0.15555555555555556,-0.71898238410536,-0.0007888579260783186,-0.0159946394884401,0.14935202848788587
1589988429.486787,-1.4264573242024385,-3.6600628027392683,8.903291464840487,0.5877777777777777,0.15555555555555556,-0.7377777777777778,0.013739548462240146,-0.005847450609842703,0.11187321459018973
1589988429.496787,-1.309847427081693,-3.652994768428604,8.859136878204119,0.5877777777777777,0.15555555555555556,-0.7377777777777778,3.3286247172917977e-05,-0.007696681212701361,0.05145164398301194
1589988429.506787,-1.2076292069491894,-3.5876292069491895,8.81994257468925,0.5877777777777777,0.15555555555555556,-0.7377777777777778,0.013657309235037223,0.002465331487532788,-0.004250568795995127
1589988429.516787,-1.1176475327996636,-3.4827458879994393,8.771766364798824,0.5877777777777777,0.15555555555555556,-0.7377777777777778,0.014779420529875343,0.007699749331601786,-0.09496577245772445
1589988429.526787,-1.1044157294408552,-3.444415729440855,8.627792135279574,0.5766550565880549,0.1395496884776617,-0.7215006248172077,0.03706275299243063,0.02804427882749822,-0.1752527499632196
1589988429.536787,-1.1604929577464789,-3.4419718309859153,8.614383802816901,0.5422222222222223,0.09,-0.6711111111111111,0.022805661165748968,0.02530420139115018,-0.3191717096236197
1589988429.546787,-7.795264756505011,-9.200242482535181,3.3626182039080694,0.5422222222222223,0.09,-0.6711111111111111,0.014678283948879493,0.022747913672952442,-0.43298284291945377
1589988429.556787,-7.2334756309079875,-10.822541843725608,-1.869762379672188,0.5422222222222223,0.09,-0.6711111111111111,-0.7193874576321442,0.878605425148816,-2.355769547700369
1589988429.566787,2.7036623824963266,-3.5230022626017585,-0.19275874134029997,0.5422222222222223,0.09,-0.6711111111111111,-1.4701756792085385,0.5186305605788708,-6.989423088541264
1589988429.576787,0.4886944694080785,-3.2495176216268735,0.15951762162687327,0.5356950820291522,0.13854560518595882,-0.660912454559439,-1.202122255892002,-1.7225157572743892,-10.694757649105195
1589988429.586787,-0.2726605797150098,-4.084656685856229,2.543964015374028,0.5244444444444445,0.2222222222222222,-0.6433333333333333,-1.3409217685476476,-1.244131788037464,-10.51190135398128
1589988429.596787,-1.2300543797519343,-5.65450093150501,8.203850892062905,0.5244444444444445,0.2222222222222222,-0.6433333333333333,-1.3647269108047044,-0.7849229148206864,-10.28613645644661
1589988429.606787,-0.5762177718062315,-2.8248189774130292,1.9950795264725107,0.5244444444444445,0.2222222222222222,-0.6433333333333333,-0.5481550449628918,0.552092600256954,-9.507030079688949
1589988429.616787,-0.6599880165589368,-2.9999749437141405,2.969860556322173,0.5244444444444445,0.2222222222222222,-0.6433333333333333,0.29004108311178844,1.7549746552144734,-8.943802156166024
1589988429.626787,-1.3735013446952529,-2.75531079080168,5.6630178587616715,0.46883671269855665,0.30437000775592016,-0.6378568142977534,1.255311174469032,2.8813157416067363,-8.171172336306329
1589988429.636787,0.17984163885372295,-0.5359231211877087,13.947885142133734,0.37777777777777777,0.4388888888888889,-0.6288888888888889,2.3175068438672435,3.1520747477530504,-7.497103255771124
1589988429.646787,1.6157635522994793,0.3712485760871993,10.480351343503608,0.37777777777777777,0.4388888888888889,-0.6288888888888889,2.4806240964022654,1.4351681564085366,-6.6690579922082165
1589988429.656787,0.12521169735918344,-0.6070475779013879,-0.6947883026408166,0.37777777777777777,0.4388888888888889,-0.6288888888888889,1.2569345553848077,-0.43488999753369856,-5.781614839212471
1589988429.666787,0.17080333447812918,-0.5305838458896625,-0.17233756907802317,0.37777777777777777,0.4388888888888889,-0.6288888888888889,0.1646055442906213,-0.2126016219141038,-5.3301104556590015
1589988429.676787,0.0005641762153048568,-0.5698698054887757,0.567548003371944,0.37777777777777777,0.4388888888888889,-0.6288888888888889,-0.4789237053695963,0.23522616891492654,-5.032987072908002
1589988429.686787,-1.1028331517451253,0.24412180185595672,1.7876962091896156,0.2766666666666667,0.5288888888888889,-0.6166666666666667,-0.8018761137754282,1.3483323371754037,-4.438677090949722
1589988429.6967869,0.3292587275464827,-0.3762894359046185,2.596727826604572,0.2766666666666667,0.5288888888888889,-0.6166666666666667,0.16772240405009955,1.280224391195085,-4.049437536763705
1589988429.7067869,1.8143506252033652,-2.1657274671129083,11.780220099474736,0.2766666666666667,0.5288888888888889,-0.6166666666666667,0.015959123594957825,-0.1710730754521702,-3.495281186550266
1589988429.7167869,1.263270524899058,-2.47508017688906,11.210443376273792,0.2766666666666667,0.5288888888888889,-0.6166666666666667,-0.39888730747022155,-0.05418679365558332,-3.164872253481258
1589988429.7267869,1.4010716167470514,-2.6569294370364367,12.770968670206297,0.2514534331275304,0.5359047451780399,-0.6138164750491991,-0.19573248069326826,0.3258448116695876,-2.9044929145263993
1589988429.7367868,1.0673160790707155,-1.1741865362407444,5.2715026153114595,0.14888888888888888,0.5644444444444444,-0.6022222222222222,0.5362942348947837,0.2850923040862416,-2.679593620614337
1589988429.7467868,0.8398212115271515,-1.0736651636933936,4.955643991374241,0.14888888888888888,0.5644444444444444,-0.6022222222222222,0.5644905380752894,0.21332989054268914,-2.4138170435461226
1589988429.7567868,1.0470966387534697,-2.2953929229549113,10.258476825826316,0.14888888888888888,0.5644444444444444,-0.6022222222222222,-0.3623515133706895,0.13031358004464236,-2.0153407221077897
1589988429.7667868,1.2575595199481024,-2.426463833927992,10.82895167045086,0.14888888888888888,0.5644444444444444,-0.6022222222222222,-0.2061549879707777,0.1569613148677262,-1.758474771313853
1589988429.7767868,5.895164704718567,-7.150626174695815,5.316806805816599,0.12234092832569438,0.5818665435640409,-0.6101036480144206,0.3564396679398586,0.14817839306645844,-1.4895084456082
1589988429.7867868,14.28,-16.77,3.7,0.07777777777777778,0.6111111111111112,-0.6233333333333333,0.4036073895236887,0.16253378659197193,-1.2926344772583005
1589988429.7967868,-1.1605796130329171,-1.7847952089789754,12.132867074294328,0.07777777777777778,0.6111111111111112,-0.6233333333333333,-0.25226926001633054,-0.3010872952708186,-0.7158677742266145
1589988429.8067868,-1.2608421681819613,0.8408667065152421,9.338981659168843,0.07777777777777778,0.6111111111111112,-0.6233333333333333,-0.009725130308403884,0.25444853972400383,0.07778882565663058
1589988429.8167868,-0.022721103822664457,-0.3385478398552365,5.7768265098394025,0.07777777777777778,0.6111111111111112,-0.6233333333333333,0.4784582189760541,0.08852630923518964,0.4709238130103649
1589988429.8267868,1.2272660957817951,-1.975965746907707,12.082927370758007,0.07125770870775629,0.6117038446629313,-0.6254079007647038,-0.08869080460147287,-0.10487509385145201,0.687743725829372
1589988429.8367867,0.5668258685346352,-1.825334323922734,8.280797247576594,0.05333333333333334,0.6133333333333333,-0.6311111111111111,-0.46194038183048824,-0.1606358506306341,0.8792929685952848
1589988429.8467867,1.8148143824422134,-2.9697198225542842,10.181220328430227,0.05333333333333334,0.6133333333333333,-0.6311111111111111,-0.1424910762420867,-0.02417350289280145,1.0415952534818385
1589988429.8567867,6.784261575954509,-5.911857955204827,7.924506904955321,0.05333333333333334,0.6133333333333333,-0.6311111111111111,0.13720175132617574,-0.134747363076976,1.1586111361817202
1589988429.8667867,-2.0522042570609904,-0.9823823168235776,8.554470937372084,0.05333333333333334,0.6133333333333333,-0.6311111111111111,0.00011732123950100072,-0.07192595704460232,0.9780078246207382
1589988429.8767867,0.057281954804978885,-2.303455472185155,8.13919519611489,0.056035895454004093,0.6135790207988489,-0.6325852359042042,-0.03968731267291155,0.07720890399395793,0.8370156279171138
1589988429.8867867,3.107443436659025,-4.74477457722848,10.506196219143494,0.06555555555555556,0.6144444444444445,-0.6377777777777778,-0.08726646259971647,-0.1810779098944117,1.0188359508516898
1589988429.8967867,2.8789558383233533,-4.438844498502994,8.646897922904191,0.06555555555555556,0.6144444444444445,-0.6377777777777778,-0.06175089161346364,-0.1216962174173142,1.029042179246191
1589988429.9067867,1.3698739050502864,-3.365452579214881,8.522912728452471,0.06555555555555556,0.6144444444444445,-0.6377777777777778,-0.046945218634476385,-0.06358532494093844,1.080133704432402
1589988429.9167867,2.3610263587590388,-3.931400852471531,8.387559005025764,0.06555555555555556,0.6144444444444445,-0.6377777777777778,-0.058752052955040365,-0.09218654731555184,1.1611628935134075
1589988429.9267867,2.2792661662817553,-4.246043013856813,9.667398383371824,0.07514453425712087,0.6144444444444445,-0.6372730946882217,-0.009070302043152473,-0.07462003684634858,1.2303932914205484
1589988429.9367867,1.5788742082235911,-3.653020613395442,9.096510306697722,0.10777777777777778,0.6144444444444445,-0.6355555555555555,-0.03697567550847725,-0.09519084094042232,1.3315769058750024
1589988429.9467866,1.8260733895080186,-3.7139266104919817,8.792926882304975,0.10777777777777778,0.6144444444444445,-0.6355555555555555,-0.057774003705082747,-0.11093348780316661,1.431530236540415
1589988429.9567866,1.84,-3.7,8.02,0.10777777777777778,0.6144444444444445,-0.6355555555555555,-0.05017821599483697,-0.11017390903214204,1.4998923259326271
1589988429.9667866,1.8325241509433963,-3.8495169811320755,8.984384528301888,0.10777777777777778,0.6144444444444445,-0.6355555555555555,-0.05017821599483697,-0.10854293177689397,1.584703143205528
1589988429.9767866,1.6166745853877185,-3.8051887046167634,9.167783056925146,0.10777777777777778,0.6144444444444445,-0.6355555555555555,-0.04845449800263033,-0.1166108374281823,1.7115906528680365
1589988429.9867866,1.3844029288252395,-3.741757295143749,8.897631097232692,0.11333333333333333,0.5955555555555555,-0.6355555555555555,-0.04729122021547007,-0.12958487105266342,1.897696594358004
1589988429.9967866,1.151060083988371,-3.5460503930225045,8.476108538817702,0.11333333333333333,0.5955555555555555,-0.6355555555555555,-0.06042864256506236,-0.14518556009280426,2.0019748842578933
1589988430.0067866,1.2658043348985994,-3.6754809604855745,8.299991797732073,0.11333333333333333,0.5955555555555555,-0.6355555555555555,-0.08121398128138603,-0.16886757059286794,2.1774723784233405
1589988430.0167866,1.3931614386598783,-3.8568656593857775,8.816010839218263,0.11333333333333333,0.5955555555555555,-0.6355555555555555,-0.0887332349813374,-0.17350425869375144,2.2957518234643963
1589988430.0267866,1.1325039264078975,-3.7282925734799193,8.651056764639891,0.11928277615735547,0.5944299852915513,-0.6349123725475532,-0.06593762477108317,-0.17688664286496322,2.4483813167254938
1589988430.0367866,0.9072517480221909,-3.598745034960444,8.497569510553786,0.15444444444444444,0.5877777777777777,-0.6311111111111111,-0.07376147404654022,-0.18421350679229057,2.5793408766502615
1589988430.0467865,0.4717782606674723,-3.591778260667472,8.644895649344612,0.15444444444444444,0.5877777777777777,-0.6311111111111111,-0.07005742054862979,-0.18830300329539656,2.762677872262504
1589988430.0567865,0.47665217997582965,-3.5966521799758295,8.713130519661615,0.15444444444444444,0.5877777777777777,-0.6311111111111111,-0.08866559479398989,-0.20212621844909265,2.9200498601661207
1589988430.0667865,0.45806322295068275,-3.6630682340167873,8.75451580573767,0.15444444444444444,0.5877777777777777,-0.6311111111111111,-0.09725963322919293,-0.215210568555436,3.0721163624114247
1589988430.0767865,0.3782850577492895,-3.782227127048437,8.753028965350426,0.16723213265875175,0.5865713920971827,-0.6311111111111111,-0.08712312491510835,-0.22684300066451862,3.2230818753100636
1589988430.0867865,0.2818939650310209,-3.6425908629441626,8.785515172024818,0.21333333333333332,0.5822222222222222,-0.6311111111111111,-0.09211900457065542,-0.23926876710708672,3.3983212594320102
1589988430.0967865,0.25,-3.7423638537146906,8.729740104489506,0.21333333333333332,0.5822222222222222,-0.6311111111111111,-0.10183404743176586,-0.2525698514513913,3.5293067120235944
1589988430.1067865,0.20341365461847388,-3.7804730031236056,8.634118697010264,0.21333333333333332,0.5822222222222222,-0.6311111111111111,-0.11978597304907983,-0.26567497668368173,3.654718285450388
1589988430.1167865,0.06313684990242305,-3.690642013646529,8.573726300195155,0.21333333333333332,0.5822222222222222,-0.6311111111111111,-0.12600703014144224,-0.2722105045221705,3.756089762695967
1589988430.1267865,0.03923804504209342,-3.9714529707554025,8.621523909915814,0.21333333333333332,0.5822222222222222,-0.6311111111111111,-0.12796224654193147,-0.27807615372363825,3.821915381512439
1589988430.1367865,-0.06666919863273832,-4.075824154956323,8.810829851879985,0.2977777777777777,0.5344444444444445,-0.6666666666666666,-0.12062711711742855,-0.28925203154064016,4.007352689453617
1589988430.1467865,-0.13038815039878465,-3.8448429548044056,8.723216293201672,0.2977777777777777,0.5344444444444445,-0.6666666666666666,-0.10585696588928137,-0.29098969639101047,4.108137250775092
1589988430.1567864,3.1949408459551893,-9.933353109513506,8.289380714734417,0.2977777777777777,0.5344444444444445,-0.6666666666666666,-0.18611823411396705,-0.3295744547309324,3.8912862664265937
1589988430.1667864,15.00028373002024,-28.66966915613876,7.53553674879598,0.2977777777777777,0.5344444444444445,-0.6666666666666666,-0.3785242583683464,-0.42697501472692523,2.8039128015532957
1589988430.1767864,-1.4950544072018528,-1.186947297120133,5.4127601276056465,0.3072105444604679,0.5288895929535269,-0.6666666666666666,-0.2389050744297216,0.0769915450036131,-1.5984793696616133
1589988430.1867864,-4.474008762322015,-3.693028155402358,10.609398234649829,0.3977777777777778,0.4755555555555556,-0.6666666666666666,0.7532376663135237,0.42671752624518844,-1.534533881471786
1589988430.1967864,-1.5048711840927136,-0.3817564576892538,4.563124186981568,0.3977777777777778,0.4755555555555556,-0.6666666666666666,0.4215629105388151,0.2190853085432588,-0.47571104072094644
1589988430.2067864,-1.044293919889176,-1.1611949048029329,7.48247546162553,0.3977777777777778,0.4755555555555556,-0.6666666666666666,-0.1828772011131471,-0.09472886707144279,-0.11474744463211478
1589988430.2167864,-0.9605721176256004,-3.969662566118801,10.882938816042802,0.3977777777777778,0.4755555555555556,-0.6666666666666666,-0.34604405259920523,-0.12039411116965378,0.34901838644876115
1589988430.2267864,-0.5672033316695781,-2.912169328674819,8.405812640379336,0.3980885187033802,0.4751826664448327,-0.6670395557773895,0.059766474290396665,-0.03181713420659265,0.7707869315252254
1589988430.2367864,-0.23328628413623814,-3.3644548823376685,7.9191450893384,0.4033333333333333,0.4688888888888889,-0.6733333333333333,0.02896647884877146,-0.06137056671149792,1.0987040127223298
1589988430.2467864,0.52,-4.9,8.6,0.4033333333333333,0.4688888888888889,-0.6733333333333333,-0.13853550937704992,-0.1308996938995747,1.205368014658584
1589988430.2567863,-1.6776510710860066,-2.5238825535543,9.710545934136205,0.4033333333333333,0.4688888888888889,-0.6733333333333333,-0.0924233497200381,-0.06083822990061612,0.10747607047958821
1589988430.2667863,-2.1731203050307304,-2.6287514227179605,7.438125995902572,0.4033333333333333,0.4688888888888889,-0.6733333333333333,0.2535493126703652,0.1460913997104058,-0.34682617714674324
1589988430.2767863,-0.9915937286592305,-2.9867897791941727,7.68875284543592,0.4033333333333333,0.4688888888888889,-0.6733333333333333,0.08560883063012784,0.049102516671664084,-0.0454446144156197
1589988430.2867863,0.7306395541941912,-4.822034911613832,9.056526183710373,0.42020227741488403,0.44935642732077763,-0.6617914242249039,-0.14381446693696825,-0.07713703782378839,0.1561410117795861
1589988430.2967863,-0.10404568740407041,-3.905628201805968,8.334274124424423,0.4244444444444445,0.4444444444444444,-0.6588888888888889,0.04374356030877619,0.007868932801994188,-0.012219796625296923
1589988430.3067863,-0.1374883887814699,-4.3654653457452115,8.53493033268882,0.4244444444444445,0.4444444444444444,-0.6588888888888889,0.04465556851158379,0.01881303123568539,-0.01404381303091212
1589988430.3167863,-0.06429772494430261,-4.475702275055697,8.701404550111395,0.4244444444444445,0.4444444444444444,-0.6588888888888889,0.01306901950697683,0.0017429734988530683,-0.005922962978877094
1589988430.3267863,-0.054473307058402004,-4.4924213543532785,8.727948047294875,0.4244444444444445,0.4444444444444444,-0.6588888888888889,-0.007710426583307716,-0.004214100918320776,0.0011654418883289797
1589988430.3367863,-0.04786567925323164,-4.524268641493537,8.648353251590875,0.42854339273088304,0.45182255136003385,-0.6588888888888889,-0.009531472873979145,-0.002986488179000408,0.0005720083369779201
1589988430.3467863,-0.05953444061664004,-4.57720664369984,8.60093111876672,0.43,0.4544444444444444,-0.6588888888888889,-0.0016738150585438026,-0.00416018452740618,0.0022832308662827337
1589988430.3567863,-0.05146211435939876,-4.528772686156392,8.617075771281202,0.43,0.4544444444444444,-0.6588888888888889,0.007131726909209397,-0.0006379677403049,0.004044339259833374
1589988430.3667862,-0.08935714411759516,-4.443857135294429,8.75614286470557,0.43,0.4544444444444444,-0.6588888888888889,0.011227766923701279,0.00014024939704722472,0.0019011627708984625
1589988430.3767862,-0.0819557429988177,-4.488265542007094,8.711734457992906,0.43,0.4544444444444444,-0.6588888888888889,0.0023467231323384997,0.0017549846318404576,-0.0013283076986880032
1589988430.3867862,-0.07,-4.545287872326098,8.665385288770173,0.4244444444444445,0.4688888888888889,-0.6444444444444445,-0.004363323129985824,0.001017400297957234,-0.0007971088443395687
1589988430.3967862,-0.06989260307083803,-4.479785206141677,8.738818633779218,0.4244444444444445,0.4688888888888889,-0.6444444444444445,-0.004269601628965445,-1.1715187627547294e-05,0.003225631596979179
1589988430.4067862,-0.0613609644087256,-4.461360964408725,8.634082893226177,0.4244444444444445,0.4688888888888889,-0.6444444444444445,0.004214864942893826,-0.0007939144083124608,-0.0012392889695884536
1589988430.4167862,-0.07086353369180642,-4.472590601075419,8.663454134767226,0.4244444444444445,0.4688888888888889,-0.6444444444444445,0.0028015077811167403,0.0007140431293983537,-0.0018990708251693353
1589988430.4267862,-0.079247606292602,-4.497742818877806,8.696990425170407,0.4244444444444445,0.4688888888888889,-0.6444444444444445,-0.0017712944566997246,-0.0029441986608548174,0.0008446105175205433
1589988430.4367862,-0.07056692691847788,-4.55,8.620566926918476,0.43666666666666665,0.4755555555555556,-0.68,-0.010599097157913795,-0.003210650214079215,0.0010289886490863031
1589988430.4467862,-0.07930981595092025,-4.54965490797546,8.626894171779142,0.43666666666666665,0.4755555555555556,-0.68,-0.005341222811533644,-0.0021063741643604877,-7.528740063242411e-05
1589988430.4567862,-0.06238093316112367,-4.541190466580562,8.550714199225055,0.43666666666666665,0.4755555555555556,-0.68,-0.0025712408424759556,-0.000259719518322029,-0.001921942046670883
1589988430.4667861,-0.050254674593364336,-4.519235976219907,8.571528047560186,0.43666666666666665,0.4755555555555556,-0.68,0.007594144444580954,0.001104721126794535,0.0021399905320986746
1589988430.4767861,-0.06671355975435087,-4.469859320736948,8.670281358526104,0.43666666666666665,0.4755555555555556,-0.68,0.00490106565770422,0.0020024140557534467,-0.0005530882547780604
1589988430.4867861,-0.0483315761161915,-4.488891231845078,8.718891231845078,0.4230235849620465,0.4755555555555556,-0.675184794692487,0.0012117786259005277,0.0006058893129502639,0.0004849414695461921
1589988430.496786,-0.07,-4.5381451782055215,8.705362945513803,0.4177777777777778,0.4755555555555556,-0.6733333333333333,-0.005352989077009141,-0.00015174725320970723,-0.001040248364759887
1589988430.506786,-0.07,-4.51107600961616,8.6376900240404,0.4177777777777778,0.4755555555555556,-0.6733333333333333,-0.003876594959316089,-0.0023663384297492865,-0.00030205130591336063
1589988430.516786,-0.07,-4.519888443017656,8.61,0.4177777777777778,0.4755555555555556,-0.6733333333333333,0.0032359854103865575,-1.8253468551405333e-05,0.0010847462929793209
1589988430.526786,-0.07,-4.4929913425507175,8.684273807985528,0.4177777777777778,0.4755555555555556,-0.6733333333333333,0.004745586094468365,0.0,0.0018273776559859546
1589988430.536786,-0.07,-4.497031981279251,8.702968018720748,0.4281862107817646,0.4642009013693881,-0.6610324579649852,-0.002906400347357465,0.0,-0.0033920412749002516
1589988430.546786,-0.06,-4.492695478335093,8.636293717289249,0.43,0.4622222222222222,-0.6588888888888889,-0.006471476926441945,-0.003235738463220973,3.675388426839515e-05
1589988430.556786,-0.06,-4.56806644354096,8.53265864013118,0.43,0.4622222222222222,-0.6588888888888889,-0.0044160527026162145,-0.0022080263513081073,0.0010644659961812604
1589988430.566786,-0.0698460463547439,-4.52076976822628,8.598922324483206,0.43,0.4622222222222222,-0.6588888888888889,0.005303010274691668,0.003188523659827918,0.001090830782496456
1589988430.576786,-0.07832205029013539,-4.52,8.658254352030948,0.43,0.4622222222222222,-0.6588888888888889,0.00545415391248228,0.0041802872104856935,-0.0016325538064925198
1589988430.586786,-0.0726901665724351,-4.490760666289741,8.743098334275649,0.43,0.46709544450726553,-0.6588888888888889,0.00545415391248228,0.001971185734673009,-0.002181661564992912
1589988430.596786,-0.0881378802747792,-4.498137880274779,8.679310598626104,0.43,0.4688888888888889,-0.6588888888888889,-0.00048145352740704746,0.00010156287584823479,0.0007861421549517516
1589988430.606786,-0.05811685651069409,-4.515941571744652,8.574350569532083,0.43,0.4688888888888889,-0.6588888888888889,-0.0019603086415186147,-0.0017389557180443175,0.001090830782496456
1589988430.616786,-0.06030356584009867,-4.528482170799507,8.622732092560888,0.43,0.4688888888888889,-0.6588888888888889,0.0011239446787858589,0.001090830782496456,-0.001057716886207053
1589988430.626786,-0.06802488908525249,-4.489875554573738,8.692224001767272,0.43,0.4688888888888889,-0.6588888888888889,0.0019662103865277793,0.001090830782496456,-0.00021545117846513272
1589988430.636786,-0.07,-4.48,8.696008651023106,0.41600865102310675,0.45878402573891036,-0.6689937520388674,0.0014185518573606392,-0.0011984983404003623,0.0015262194152645455
1589988430.646786,-0.0698630453435417,-4.520136954656458,8.717397861527292,0.41,0.4544444444444444,-0.6733333333333333,-0.0054690933479893756,0.0011356490890177446,0.0
1589988430.656786,-0.0629422150353112,-4.527057784964689,8.585902085670913,0.41,0.4544444444444444,-0.6733333333333333,-0.0062240388220546,0.003400485511213418,0.0
1589988430.666786,-0.06,-4.520612785174803,8.595710503776376,0.41,0.4544444444444444,-0.6733333333333333,-0.002449039537686118,0.00026737797269320556,-0.0010239862893231546
1589988430.676786,-0.06,-4.525828869283972,8.629144346419857,0.41,0.4544444444444444,-0.6733333333333333,0.00290498646869026,-0.0006358310042103965,0.00018083122592433697
1589988430.686786,-0.06,-4.503065813905509,8.687707860532289,0.4177809870939642,0.4622254315384086,-0.6733333333333333,0.006544984694978735,-0.002853669140098012,0.002853669140098012
1589988430.696786,-0.07676412086864118,-4.496764120868641,8.686471758262718,0.4244444444444445,0.4688888888888889,-0.6733333333333333,0.0010589389694772283,-0.0016203002672350699,-0.0011227225955156841
1589988430.706786,-0.07021869057321381,-4.519562618853572,8.582186905732138,0.4244444444444445,0.4688888888888889,-0.6733333333333333,-0.0032009260247583453,-0.001090830782496456,-4.7710881820681866e-05
1589988430.716786,-0.06065894641235241,-4.52,8.561317892824706,0.4244444444444445,0.4688888888888889,-0.6733333333333333,-0.0053103941063603576,0.0019660218558100297,0.0
1589988430.726786,-0.06745526763037792,-4.527455267630378,8.656918479194912,0.4244444444444445,0.4688888888888889,-0.6733333333333333,-0.001387936200999463,0.0013684180226963484,-0.0008132435422965634
1589988430.736786,-0.07,-4.524127316382441,8.678254632764883,0.43162216886590465,0.4688888888888889,-0.6733333333333333,0.001281220813179055,0.001090830782496456,0.00019039003068259896
1589988430.7467859,-0.06129059283491582,-4.511290592834915,8.722256442990506,0.43666666666666665,0.4688888888888889,-0.6733333333333333,0.0012316126216960106,0.00394097761238716,0.001090830782496456
1589988430.7567859,-0.06,-4.526816404552958,8.61228516812929,0.43666666666666665,0.4688888888888889,-0.6733333333333333,-0.0034951321518237304,0.0016117453693937117,-0.0007435543912316185
1589988430.7667859,-0.06,-4.539390683920675,8.599390683920674,0.43666666666666665,0.4688888888888889,-0.6733333333333333,-0.004363323129985824,6.646607355977963e-05,-6.646607355977963e-05
1589988430.7767859,-0.06738892508143322,-4.54,8.629555700325733,0.43666666666666665,0.4688888888888889,-0.6733333333333333,-0.0019453030514695754,0.0024180200785162485,0.0
1589988430.7867858,-0.06072683785669202,-4.521453675713384,8.695638972859847,0.41193823428451204,0.4627067807933502,-0.6516959549989481,0.005989984719404351,-0.0007736879393110928,0.0010115450717001152
1589988430.7967858,-0.06928963663979437,-4.482841453440823,8.681420726720411,0.41,0.4622222222222222,-0.65,0.0035049582135103442,-0.00210417294298592,0.001090830782496456
1589988430.8067858,-0.07,-4.498287214039486,8.643425571921027,0.41,0.4622222222222222,-0.65,0.0026075504808102763,-0.0015167196983138203,0.001090830782496456
1589988430.8167858,-0.06335518869765445,-4.5232896226046915,8.606710377395308,0.41,0.4622222222222222,-0.65,-0.000717684319998644,-0.000365994311248567,-0.000358842159999322
1589988430.8267858,-0.06,-4.537410057554276,8.637050287771382,0.41,0.4622222222222222,-0.65,-0.002181661564992912,0.0,0.0005257929935586015
1589988430.8367858,-0.0517718011409943,-4.515315403422982,8.682912795436023,0.4163997102236711,0.4512512904102146,-0.6691991306710133,-0.0003865470450117841,0.0017951145199811278,0.0019883880424870198
1589988430.8467858,-0.06647641641082892,-4.518238208205414,8.69,0.4177777777777778,0.4488888888888889,-0.6733333333333333,0.002695947330924293,0.0003843633443767166,0.0003843633443767166
1589988430.8567858,-0.06294914141517756,-4.52,8.619491414151776,0.4177777777777778,0.4488888888888889,-0.6733333333333333,0.0009651042712832542,-0.0015382587174707424,0.0
1589988430.8667858,-0.07108840801222749,-4.531088408012227,8.623265224036682,0.4177777777777778,0.4488888888888889,-0.6733333333333333,-0.0018143365182927138,-0.0009721038861311029,0.0018143365182927138
1589988430.8767858,-0.07453970969700315,-4.54,8.644539709697003,0.4177777777777778,0.4488888888888889,-0.6733333333333333,-0.002676867073101781,0.000595625274387587,0.0008899912499390201
1589988430.8867857,-0.06455520194792713,-4.534555201947927,8.656334394156218,0.4135429348483878,0.451913776695596,-0.6697034679652847,0.000788015094846006,0.001090830782496456,-0.001090830782496456
1589988430.8967857,-0.06,-4.501137167057506,8.698862832942496,0.41,0.4544444444444444,-0.6666666666666666,0.003272492347489368,-0.00048339254968981235,-0.001090830782496456
1589988430.9067857,-0.06801509255983965,-4.49,8.621833981841764,0.41,0.4544444444444444,-0.6666666666666666,0.004146803316372508,-0.001090830782496456,0.0006577911552698237
1589988430.9167857,-0.07,-4.498455698756589,8.642278493782946,0.41,0.4544444444444444,-0.6666666666666666,-0.0011709187647367947,-0.00016845713337601954,0.001090830782496456
1589988430.9267857,-0.06344172250906295,-4.513116554981874,8.643441722509063,0.41,0.4544444444444444,-0.6666666666666666,-0.003612455758446464,-0.0014307941934535522,0.0025216249759500084
1589988430.9367857,-0.06735041920731707,-4.52,8.669401676829269,0.42470083841463413,0.4601614371612466,-0.6609496739498645,-0.004363323129985824,0.0010255638492449532,-0.0007365394203079634
1589988430.9467857,-0.062219880982703125,-4.535560238034594,8.65665964294811,0.43,0.4622222222222222,-0.6588888888888889,-0.0018172851353197724,-0.00036437642967313954,0.00036437642967313954
1589988430.9567857,-0.06868081453062538,-4.496595927346873,8.615276741877498,0.43,0.4622222222222222,-0.6588888888888889,-0.0001439008117815866,0.0008030291589332828,0.002984690723926195
1589988430.9667857,-0.07795932844644124,-4.505918656892883,8.633877985339325,0.43,0.4622222222222222,-0.6588888888888889,-0.0017364560954755597,0.001090830782496456,0.0015360362520138082
1589988430.9767857,-0.07530709936801308,-4.519385801263974,8.644692900631988,0.43,0.4622222222222222,-0.6588888888888889,-0.0032054936587065943,-0.00044491735807406754,0.0021146628762101385
1589988430.9867857,-0.06784106341824767,-4.5321589365817525,8.656476809745257,0.4256821268364953,0.4605430493253037,-0.6620073528403089,-0.0036568127857358867,-0.0017106546688262871,0.0023304785551561185
1589988430.9967856,-0.06768404444593643,-4.524631911108127,8.687684044445936,0.41,0.4544444444444444,-0.6733333333333333,0.0014237668822130554,0.0,0.0005855676606432182
1589988431.0067856,-0.07,-4.492458887557223,8.628032497003753,0.41,0.4544444444444444,-0.6733333333333333,0.005185930888670598,-0.0007510673309194216,0.001090830782496456
1589988431.0167856,-0.07,-4.4847907600213,8.638326080170403,0.41,0.4544444444444444,-0.6733333333333333,0.005499802994421159,0.001522123468897486,0.0005682399322176675
1589988431.0267856,-0.06119257721256165,-4.498807422787438,8.67559628860628,0.41,0.4544444444444444,-0.6733333333333333,0.0014811007626862726,0.0038829527354358987,-0.0004803703945499252
1589988431.0367856,-0.05,-4.519150130620866,8.67,0.419150130620866,0.4544444444444444,-0.6702832897930446,-0.003678848186758516,0.0027734301402341666,-9.270636798605321e-05
1589988431.0467856,-0.059889105818039835,-4.52011089418196,8.65516634127294,0.43,0.4544444444444444,-0.6666666666666666,-0.0032966857049457512,2.4193357456383548e-05,0.0005514637306123239
1589988431.0567856,-0.06463394773854468,-4.515366052261455,8.607803686431268,0.43,0.4544444444444444,-0.6666666666666666,0.0006652057136876011,-0.002181661564992912,0.0
1589988431.0667856,-0.06594464373637195,-4.508110712527256,8.603778574945487,0.43,0.4544444444444444,-0.6666666666666666,0.0034785816407147657,-0.00023628145141013114,0.0
1589988431.0767856,-0.05280901416943021,-4.4942696713898105,8.642921314440759,0.43,0.4544444444444444,-0.6666666666666666,0.0018629955932596997,-0.0007844148700481375,0.0
1589988431.0867856,-0.06203603534968765,-4.497345345116563,8.674690690233126,0.43,0.4601574906462153,-0.6666666666666666,0.0016025057122412891,-0.0029829144211135565,0.0008012528561206446
1589988431.0967855,-0.053303177141765926,-4.516696822858234,8.68,0.43,0.4622222222222222,-0.6666666666666666,0.00036032073062769324,0.00037018932124106927,0.002001501199679065
1589988431.1067855,-0.05778017193504676,-4.527780171935047,8.594418108714486,0.43,0.4622222222222222,-0.6666666666666666,0.0033947404159456094,-0.0006065394254763487,0.0013329764610065095
1589988431.1167855,-0.07334140638049107,-4.496646484048773,8.636707031902455,0.43,0.4622222222222222,-0.6666666666666666,0.004363323129985824,0.0010921517317486857,0.002546152458659884
1589988431.1267855,-0.0722509203094028,-4.483874539845299,8.681623619535895,0.43,0.4622222222222222,-0.6666666666666666,0.003095382930607594,0.0013363680987407587,0.0028498456143632913
1589988431.1367855,-0.059655369772290585,-4.491378520910838,8.69965536977229,0.4298085387623837,0.46195417648955933,-0.6659008217162012,0.0009404574781107788,0.0,0.001956101608414396
1589988431.1467855,-0.06272657823459962,-4.53,8.6836367108827,0.4244444444444445,0.4544444444444444,-0.6444444444444445,-0.0018842380180743006,0.0020823814941226012,-0.004363323129985824
1589988431.1567855,-0.07,-4.518416093054073,8.622080465270365,0.4244444444444445,0.4544444444444444,-0.6444444444444445,0.0008045815592323034,0.0007452758918510224,-0.0037315190160762375
1589988431.1667855,-0.06226850913806379,-4.51,8.591597236292904,0.4244444444444445,0.4544444444444444,-0.6444444444444445,0.0013382867423139039,-0.0006691433711569519,-0.00242911752481036
1589988431.1767855,-0.05738153982412855,-4.51,8.639526159296514,0.4244444444444445,0.4544444444444444,-0.6444444444444445,0.0008052010862382898,0.0004026005431191449,-0.001090830782496456
1589988431.1867855,-0.06571200218327843,-4.51,8.69,0.42968533066488196,0.4544444444444444,-0.659690658903899,0.002181661564992912,0.001558578783872205,-0.001558578783872205
1589988431.1967854,-0.06445387921922345,-4.514453879219223,8.672184483123106,0.43666666666666665,0.4544444444444444,-0.68,-0.0007333955673172214,-0.00024755271193219967,-0.002181661564992912
1589988431.2067854,-0.07,-4.52,8.608159365518711,0.43666666666666665,0.4544444444444444,-0.68,-0.0013205863265608876,-0.0017511239457769,-0.0016745387644220892
1589988431.2167854,-0.06549489620369309,-4.506484688611079,8.57351531138892,0.43666666666666665,0.4544444444444444,-0.68,0.002181661564992912,0.0,-0.00010796960262581044
1589988431.2267854,-0.055163921486081145,-4.49,8.638360785139188,0.43666666666666665,0.4544444444444444,-0.68,0.0037642645578586324,0.0015826029928657209,0.0005632964515412158
1589988431.2367854,-0.060151822684095156,-4.505227734026143,8.695075911342046,0.4270788341316879,0.45162449369886243,-0.6732321182106032,0.0037930658101437615,0.003272492347489368,-0.0005536960341128394
1589988431.2467854,-0.07690691316838107,-4.52,8.706906913168382,0.4177777777777778,0.4488888888888889,-0.6666666666666666,-0.0023389025326672,0.001012210298659312,0.0004160239167235811
1589988431.2567854,-0.07250556997195357,-4.527494430028047,8.612572409635396,0.4177777777777778,0.4488888888888889,-0.6666666666666666,-0.00354580763279994,0.0,-0.0005442002118753123
1589988431.2667854,-0.06459130841433677,-4.519182616828673,8.61245214951398,0.4177777777777778,0.4488888888888889,-0.6666666666666666,-0.002092498892555165,-0.0011799934549342028,-0.001090830782496456
1589988431.2767854,-0.06382233153496245,-4.502355336930075,8.651466994604888,0.4177777777777778,0.4488888888888889,-0.6666666666666666,0.000993927667125526,-0.0009308064952197226,-0.0006738790925720595
1589988431.2867854,-0.06582663373006963,-4.4983467325398605,8.67417336626993,0.4205600219577314,0.45120742570551686,-0.675477106569853,0.002997592211824081,-0.00027490013566528696,0.0
1589988431.2967854,-0.06604298881837413,-4.5160429888183735,8.64978505590813,0.4244444444444445,0.4544444444444444,-0.6877777777777778,0.0004316429603600172,-0.0002040980985835955,-0.0006591878221364388
1589988431.3067853,-0.06287361007314808,-4.527126389926852,8.580115270512037,0.4244444444444445,0.4544444444444444,-0.6877777777777778,-0.0015547371000565473,0.0026455678825530035,-0.0003134622324681823
1589988431.3167853,-0.06,-4.5195517697060605,8.596568806028788,0.4244444444444445,0.4544444444444444,-0.6877777777777778,9.778868045523439e-05,0.003842354908851405,-0.0011397251227240732
1589988431.3267853,-0.06414593562465903,-4.51,8.638291871249319,0.4244444444444445,0.4544444444444444,-0.6877777777777778,0.0030861644053182605,0.0030065688694978013,-0.0017294101448302379
1589988431.3367853,-0.07,-4.503700753498386,8.694094725511302,0.42794402583423036,0.4593438583901447,-0.6786788661643345,0.003676181930936388,-0.0016577340137012883,0.0016577340137012883
1589988431.3467853,-0.07590080492424242,-4.511801609848485,8.696396780303031,0.43,0.4622222222222222,-0.6733333333333333,5.4102521054215716e-05,-0.0026288143822023376,0.0006977804863412462
1589988431.3567853,-0.07625272215435279,-4.527494555691294,8.635032665852233,0.43,0.4622222222222222,-0.6733333333333333,-0.0034079553723726057,-0.0025904261674528097,-0.001090830782496456
1589988431.3667853,-0.07,-4.53214469161168,8.575710616776641,0.43,0.4622222222222222,-0.6733333333333333,-0.004882899766083448,-0.002129984054691705,-0.0016620849288952876
1589988431.3767853,-0.0747465616455128,-4.505253438354487,8.63898624658205,0.43,0.4622222222222222,-0.6733333333333333,-0.0022369532367008905,5.529167170797858e-05,-0.0027547227920951293
1589988431.3867853,-0.06857445157649714,-4.5057127742117515,8.671425548423503,0.4147659354353295,0.45777895339085994,-0.6695248171921657,0.0007786702065926598,-0.001090830782496456,-0.0028048285613559505
1589988431.3967853,-0.06487041972563319,-4.51,8.684870419725632,0.4033333333333333,0.4544444444444444,-0.6666666666666666,0.0005878204368733252,-2.827003041673136e-05,-0.0022099315954096435
1589988431.4067852,-0.06542242237907592,-4.514577577620924,8.639646646169835,0.4033333333333333,0.4544444444444444,-0.6666666666666666,-0.0005914945246793669,0.001090830782496456,-9.215826686227789e-05
1589988431.4167852,-0.05015789649750778,-4.52,8.609526310507476,0.4033333333333333,0.4544444444444444,-0.6666666666666666,-0.000536803473251735,0.000554027309244721,1.7223835992986013e-05
1589988431.4267852,-0.046398629417778885,-4.52,8.64639862941778,0.4033333333333333,0.4544444444444444,-0.6666666666666666,0.0006541247011786892,0.0006979821934700582,-0.0014398218792314851
1589988431.4367852,-0.06,-4.512819025522042,8.685133410672854,0.4109132508378448,0.45963070378963644,-0.6690603248259861,0.003971661729541911,0.0025733229654368254,-0.002181661564992912
1589988431.4467852,-0.06411050508069337,-4.5041105050806935,8.713557979677226,0.4244444444444445,0.4688888888888889,-0.6733333333333333,0.002824105800126528,0.0014789461580380077,-0.0017332750176300717
1589988431.4567852,-0.06370494168570398,-4.516295058314296,8.614459300228448,0.4244444444444445,0.4688888888888889,-0.6733333333333333,0.00012160854893960736,0.0002825378948724138,0.0002825378948724138
1589988431.4667852,-0.06,-4.513496237837308,8.596015048650768,0.4244444444444445,0.4688888888888889,-0.6733333333333333,-0.002509731576316508,0.002509731576316508,-0.00032807001132359524
1589988431.4767852,-0.07042898321370034,-4.5256434748205505,8.64650144124795,0.4244444444444445,0.4688888888888889,-0.6733333333333333,-0.003272492347489368,0.002134866755525054,-0.00222845637446077
1589988431.4867852,-0.07523010380622838,-4.535230103806229,8.694309688581315,0.42126451364859674,0.46199903883121873,-0.6802231833910035,-0.00119123250849786,0.000570515822748579,-0.002231862427993614
1589988431.4967852,-0.06501789414202298,-4.510071576568092,8.719964211715954,0.4177777777777778,0.4544444444444444,-0.6877777777777778,0.000547367339342731,0.00108692688630745,-0.001090830782496456
1589988431.5067852,-0.06476654109407333,-4.50429962328222,8.677568047965194,0.4177777777777778,0.4544444444444444,-0.6877777777777778,-0.0010398979502899042,0.0016617125898479598,-0.001610779757641408
1589988431.5167851,-0.07,-4.52,8.638440340319567,0.4177777777777778,0.4544444444444444,-0.6877777777777778,-0.001175897021978126,0.0025994775970186353,-0.001678779293485519
1589988431.5267851,-0.06742019386106624,-4.52,8.657420193861066,0.4177777777777778,0.4544444444444444,-0.6877777777777778,0.0005628263898444558,0.0035190835452191403,-0.001090830782496456
1589988431.5367851,-0.06064426494345719,-4.52,8.650644264943457,0.4177777777777778,0.4544444444444444,-0.6877777777777778,0.002041104758511624,0.0013016659922183882,-0.001090830782496456
1589988431.546785,-0.055099075874423795,-4.52,8.679801848251152,0.4177777777777778,0.4688888888888889,-0.6733333333333333,0.0029943809011840432,0.002181661564992912,-0.001625438672382262
1589988431.556785,-0.06692500784436775,-4.513850015688735,8.637700031377472,0.4177777777777778,0.4688888888888889,-0.6733333333333333,0.0018462319550630322,0.0011753727352032727,-0.0006708592198597595
1589988431.566785,-0.06,-4.5,8.61,0.4177777777777778,0.4688888888888889,-0.6733333333333333,-0.001192222527037284,-0.001090830782496456,-0.003094882888806408
1589988431.576785,-0.062282877721849886,-4.5045657554437,8.61684863316555,0.4177777777777778,0.4688888888888889,-0.6733333333333333,-0.0033672298133181292,-0.0003437607949956851,-0.003616253142485053
1589988431.586785,-0.07,-4.52,8.657305898491083,0.4230656912056089,0.4660045724737083,-0.676217649748514,0.0,0.0012377712253512597,-0.0006188856126756299
1589988431.596785,-0.06421899003914962,-4.508437980078299,8.68578100996085,0.43,0.4622222222222222,-0.68,0.0,0.0,-0.0006306103619214236
1589988431.606785,-0.06597147992810067,-4.5059714799281005,8.636256680647094,0.43,0.4622222222222222,-0.68,0.0013027748245263845,0.001954162236789577,-0.001090830782496456
1589988431.616785,-0.07,-4.515917920463375,8.6236716818535,0.43,0.4622222222222222,-0.68,-0.0004005183589331483,0.0019814023855263376,-0.0004452858015149409
