time,acc_x,acc_y,acc_z,mag_x,mag_y,mag_z,gyr_x,gyr_y,gyr_z
1589988466.9191074,-3.86,-0.86,8.85,0.3244444444444444,-0.3555555555555556,-0.6222222222222222,0.0,0.00545415391248228,0.001090830782496456
1589988466.9291074,-3.8682759984183472,-0.8644826677211018,8.901034664557796,0.3244444444444444,-0.3555555555555556,-0.6222222222222222,0.004062399335631655,0.00236972096442686,0.0024825853593470814
1589988466.9391074,-3.8857808716707023,-0.8485936238902341,8.93,0.3255382925298179,-0.35368038740920105,-0.6214409021612411,0.003272492347489368,-0.00015341183523003024,0.0028122568417992774
1589988466.9491074,-3.865284197056942,-0.84,8.908863211772234,0.3322222222222222,-0.3422222222222222,-0.6166666666666667,0.0009668264232936602,-0.0028200802256432367,0.0
1589988466.9591074,-3.8595405417426503,-0.845229729128675,8.83770270871325,0.3322222222222222,-0.3422222222222222,-0.6166666666666667,-0.0033727305895672795,-0.00493379808175353,0.0011409499035354117
1589988466.9691074,-3.85,-0.8585744769874477,8.815723430962343,0.3322222222222222,-0.3422222222222222,-0.6166666666666667,-0.006389484256653822,-0.007324814600825366,0.0007786660487355977
1589988466.9791074,-3.85,-0.87,8.8565431786007,0.3322222222222222,-0.3422222222222222,-0.6166666666666667,-0.007397898789707989,-0.009103726979166497,-0.001090830782496456
1589988466.9891074,-3.85,-0.87,8.87529424036957,0.3322222222222222,-0.3422222222222222,-0.6166666666666667,-0.006716090943642139,-0.0070583034409689455,-0.001090830782496456
1589988466.9991074,-3.865764158942721,-0.87,8.905647788076372,0.3388888888888889,-0.33,-0.6,-0.0018736225106567588,-0.004838075803809973,0.00015401952716807656
1589988467.0091074,-3.842874422645996,-0.8671255773540038,8.908381350894041,0.3388888888888889,-0.33,-0.6,0.0006271017408315245,-0.0007772799120806937,0.001090830782496456
1589988467.0191073,-3.854342921601805,-0.86,8.836514382402708,0.3388888888888889,-0.33,-0.6,0.0024185311934537893,-0.0011843481423043868,0.0008539611540355786
1589988467.0291073,-3.8691196065536273,-0.8617607868927458,8.865282360678236,0.3388888888888889,-0.33,-0.6,0.003080420293087024,-0.005262081858079935,0.00019207205440234399
1589988467.0391073,-3.857958682050865,-0.8779586820508654,8.926123953847403,0.3388888888888889,-0.331134065527297,-0.6045362621091881,0.00020013780018501642,-0.003940512084222947,0.0015136418282593322
1589988467.0491073,-3.8521597968353194,-0.87,8.94352060949404,0.3388888888888889,-0.33555555555555555,-0.6222222222222222,-0.0031546937038941267,-0.0060737901205977695,-0.000855233495305973
1589988467.0591073,-3.8628807435138106,-0.8664403717569052,8.854403717569053,0.3388888888888889,-0.33555555555555555,-0.6222222222222222,-0.0017933663588117592,-0.0037348423897175225,0.001090830782496456
1589988467.0691073,-3.85,-0.86,8.795521895620876,0.3388888888888889,-0.33555555555555555,-0.6222222222222222,-0.0013920034685456426,-0.005039121264732803,0.0007896580964472695
1589988467.0791073,-3.8574449889813507,-0.86,8.847224944906753,0.3388888888888889,-0.33555555555555555,-0.6222222222222222,-0.0017756004071827077,-0.0006847696246862517,0.0
1589988467.0891073,-3.87,-0.86,8.91,0.3388888888888889,-0.33555555555555555,-0.6222222222222222,-0.0007986100721824308,0.0,0.0
1589988467.0991073,-3.87,-0.86,8.918719235067677,0.3388888888888889,-0.33555555555555555,-0.6222222222222222,-0.0008114112198323942,-0.0019022420023288502,0.0
1589988467.1091073,-3.8745636182430827,-0.8645636182430829,8.879800199326088,0.3388888888888889,-0.33555555555555555,-0.6222222222222222,-0.0017790517697541983,-0.0038655096040741007,-0.0004978135259117233
1589988467.1191072,-3.88,-0.87,8.84660841604921,0.3388888888888889,-0.33555555555555555,-0.6222222222222222,-0.000414646847142159,-0.002857845500347209,-0.000676183935354297
1589988467.1291072,-3.877576612813618,-0.8724233871863819,8.894846774372764,0.3388888888888889,-0.33555555555555555,-0.6222222222222222,-0.001090830782496456,-0.0019173110309116245,-0.0002643505340812874
1589988467.1391072,-3.8666664543118645,-0.8783332271559321,8.916667091376272,0.3364813281141242,-0.33759272236497184,-0.6185182825687381,-0.0007271973573487766,-0.0012726474950702955,-0.000545380644774937
1589988467.1491072,-3.852091366627952,-0.868954316686024,8.942680216802167,0.3244444444444444,-0.3477777777777778,-0.6,0.0012048971372592484,-0.0013831970816533651,0.0018394625007045347
1589988467.1591072,-3.860764548511401,-0.8553822742557003,8.843058194045604,0.3244444444444444,-0.3477777777777778,-0.6,0.002181661564992912,0.00746901686728564,0.0004203164336060638
1589988467.1691072,-3.8431269424268963,-0.856873057573104,8.806873057573105,0.3244444444444444,-0.3477777777777778,-0.6,0.0010570601494010884,0.011691812735121144,0.001806794426462304
1589988467.1791072,-3.834144119040321,-0.8668919107197592,8.823108089280241,0.3244444444444444,-0.3477777777777778,-0.6,-0.0018819239902110258,0.01538464427033818,0.0009778174671086603
1589988467.1891072,-3.873901640653068,-0.8419508203265338,8.865606562612271,0.32357741318820715,-0.3477777777777778,-0.5986994531156441,-0.008939447746301942,0.01572405727845596,0.00021280148633029343
1589988467.1991072,-3.89,-0.8523890532544378,8.928805473372782,0.32,-0.3477777777777778,-0.5933333333333334,-0.009491720438597584,0.012503607502990533,0.001090830782496456
1589988467.2091072,-3.8781287880602737,-0.8860429293534245,8.870429293534245,0.32,-0.3477777777777778,-0.5933333333333334,-0.0026367253420667516,-0.00018070322834877646,0.0015224802294762241
1589988467.2191072,-3.8637335298584126,-0.8762664701415874,8.821200589575238,0.32,-0.3477777777777778,-0.5933333333333334,0.00040726492969261137,-0.003825094193711834,0.002181661564992912
1589988467.2291071,-3.8671182746595814,-0.8671182746595816,8.863053802723348,0.32,-0.3477777777777778,-0.5933333333333334,0.001090830782496456,-0.00014778837008789364,0.002181661564992912
1589988467.2391071,-3.857524512183283,-0.8624754878167168,8.922475487816717,0.3230255962204317,-0.34640250676849066,-0.5969090379574798,0.0008207969512794903,0.0024516953962098777,0.0019116277337759462
1589988467.2491071,-3.862723806930356,-0.8657587310232147,8.917276193069643,0.3322222222222222,-0.3422222222222222,-0.6077777777777778,0.0009253013513449412,0.0018845403204719564,0.0015534814581689266
1589988467.259107,-3.8684345256102954,-0.8522896837401969,8.861448418700984,0.3322222222222222,-0.3422222222222222,-0.6077777777777778,7.899898524886453e-05,-0.00042053251594880944,0.0017611290490441025
1589988467.269107,-3.856273670610086,-0.843136835305043,8.80941050591513,0.3322222222222222,-0.3422222222222222,-0.6077777777777778,-0.004641194951634394,-0.002801709037677739,0.001090830782496456
1589988467.279107,-3.87,-0.8516153095654295,8.838076547827148,0.3322222222222222,-0.3422222222222222,-0.6077777777777778,-0.007988221356921484,-0.006897390574425027,0.00091462784277331
1589988467.289107,-3.8697904776322765,-0.8602095223677239,8.880209522367725,0.3322222222222222,-0.3422804228799233,-0.6077777777777778,-0.009783194025217896,-0.00874950160480512,0.0
1589988467.299107,-3.8570910604799034,-0.8729089395200968,8.892908939520098,0.3322222222222222,-0.34580803875558247,-0.6077777777777778,-0.007705256752782097,-0.01013479311976232,0.0
1589988467.309107,-3.84189258983674,-0.8759462949183701,8.86351665426533,0.3322222222222222,-0.3477777777777778,-0.6077777777777778,-0.004334031551876593,-0.010023926567723702,0.001326571885861285
1589988467.319107,-3.832938298126268,-0.867061701873732,8.818814894378804,0.3322222222222222,-0.3477777777777778,-0.6077777777777778,-0.0007703121780679712,-0.008085609051114677,0.0026314551386323985
1589988467.329107,-3.8444473853802243,-0.8614824617934081,8.854824617934081,0.3322222222222222,-0.3477777777777778,-0.6077777777777778,0.0006468459832498318,-0.006059850207541362,0.001414253774121372
1589988467.339107,-3.868507137672393,-0.868507137672393,8.94,0.33437857891765466,-0.3469484098179961,-0.6091047665134285,0.004363323129985824,-0.0031096463293910585,0.00262110827509613
1589988467.349107,-3.86,-0.8627287810851917,8.934542437829617,0.3466666666666667,-0.3422222222222222,-0.6166666666666667,0.004065659289343705,-0.002181661564992912,-0.0007931669418543373
1589988467.359107,-3.86,-0.87,8.909633745093512,0.3466666666666667,-0.3422222222222222,-0.6166666666666667,0.002787871063866419,-0.0020201211371185957,0.00048462128362294926
1589988467.369107,-3.8625772597170944,-0.8674227402829053,8.85,0.3466666666666667,-0.3422222222222222,-0.6166666666666667,0.0005622708467789838,-0.000809695359106964,0.0027102215007103843
1589988467.379107,-3.871386760994953,-0.8627735219899063,8.852773521989906,0.3466666666666667,-0.3422222222222222,-0.6166666666666667,0.0020303894068668827,-0.00015127215812602934,0.0007882864662443973
1589988467.389107,-3.875210461157536,-0.8771262766945218,8.870957907768492,0.34453798273668285,-0.3422222222222222,-0.6158151930946731,0.000881847726363585,-0.001299813838629327,-0.001299813838629327
1589988467.399107,-3.835162620676727,-0.8525813103383635,8.874837379323274,0.3244444444444444,-0.3422222222222222,-0.6077777777777778,-0.0009500421436832945,-0.0025685491534235606,-0.0027093377922367224
1589988467.409107,-3.866612990908239,-0.8683064954541194,8.843387009091762,0.3244444444444444,-0.3422222222222222,-0.6077777777777778,-9.23663444472114e-05,0.0017198298427568556,0.0007213654047076102
1589988467.419107,-3.86,-0.87,8.807772124019822,0.3244444444444444,-0.3422222222222222,-0.6077777777777778,0.0024586098500095745,-0.0005369342124631305,0.00027694828501666273
1589988467.429107,-3.86,-0.87,8.862425686980037,0.3244444444444444,-0.3422222222222222,-0.6077777777777778,0.003272492347489368,0.0009585300811701376,0.0012231314838227743
1589988467.439107,-3.8604064971511183,-0.8691870056977634,8.900812994302237,0.3246025266698793,-0.3422222222222222,-0.6076648619024672,0.0032503213672175207,-0.001157343723311998,0.0032281503869456734
1589988467.449107,-3.878240921847096,-0.8335181563058083,8.93648184369419,0.3315381362738706,-0.3422222222222222,-0.6027108550424733,0.0022776043948931554,-0.004075494640285095,0.0012827164422969423
1589988467.459107,-3.86,-0.8641032011466794,8.886412804586717,0.3322222222222222,-0.3422222222222222,-0.6022222222222222,-0.0014124512678660513,-0.004041702644616229,-0.0006432409707391905
1589988467.469107,-3.8628904087282203,-0.8557808174564403,8.83578081745644,0.3322222222222222,-0.3422222222222222,-0.6022222222222222,-0.0028122509279407083,-0.0029571976660154697,-0.0018663668835190135
1589988467.479107,-3.87,-0.8722341532360967,8.852234153236097,0.3322222222222222,-0.3422222222222222,-0.6022222222222222,-0.004119614817710993,-0.001937953252718081,-0.000603414157946794
1589988467.489107,-3.870794095104802,-0.88,8.862382285314405,0.33336924848471383,-0.3426633861693344,-0.6026633861693343,-0.003099247670579837,-0.0007443414286773944,0.001090830782496456
1589988467.499107,-3.8737513093575417,-0.88,8.896248690642459,0.3466666666666667,-0.3477777777777778,-0.6077777777777778,-0.001090830782496456,0.0025908659371802825,0.001090830782496456
1589988467.5091069,-3.86,-0.88,8.888087714233222,0.3466666666666667,-0.3477777777777778,-0.6077777777777778,-0.0007920483346307041,0.0013896132303622079,-0.00010429900896655186
1589988467.5191069,-3.866904088392447,-0.873095911607553,8.843808176784894,0.3466666666666667,-0.3477777777777778,-0.6077777777777778,0.0003765596071778825,0.0018051019578150295,-0.0021428135259557203
1589988467.5291069,-3.875920944276695,-0.86,8.87815811144661,0.3466666666666667,-0.3477777777777778,-0.6077777777777778,0.0008683528051714857,0.0006458748278465154,0.0002224779773249703
1589988467.5391068,-3.8644076310732913,-0.86,8.901184737853418,0.3466666666666667,-0.3477777777777778,-0.6077777777777778,0.00024039898263169906,-0.0006100328172330579,0.0008504317998647569
1589988467.5491068,-3.8597235409103603,-0.8505529181792795,8.92834124546216,0.3388888888888889,-0.3422222222222222,-0.5933333333333334,0.0010606737739884556,-0.0031518643134573667,9.047102552400097e-05
1589988467.5591068,-3.8507138100659466,-0.8685723798681073,8.874282860395677,0.3388888888888889,-0.3422222222222222,-0.5933333333333334,7.786459927900942e-05,0.0007793723853804181,0.00303889854965234
1589988467.5691068,-3.865725128591143,-0.8757251285911429,8.776412307113285,0.3388888888888889,-0.3422222222222222,-0.5933333333333334,0.0017153454325933794,0.0004663161323995325,0.0004663161323995325
1589988467.5791068,-3.8525702546731906,-0.8625702546731903,8.796144617990215,0.3388888888888889,-0.3422222222222222,-0.5933333333333334,0.0002803712916371363,0.0019012902733557757,0.0019012902733557757
1589988467.5891068,-3.87,-0.8799774953666931,8.890135027799841,0.3388888888888889,-0.3422222222222222,-0.5933658400258878,-0.0032798569715173425,0.0043731426286897895,-0.001085921033144473
1589988467.5991068,-3.87,-0.8707234577707175,8.945659253375695,0.3388888888888889,-0.3422222222222222,-0.6067327832200747,-0.006308233693138262,0.008410978257517684,0.0009329967812694736
1589988467.6091068,-3.864233360280248,-0.867116680140124,8.894050121261115,0.3388888888888889,-0.3422222222222222,-0.6077777777777778,-0.00046178797070922455,0.0032525040712269694,0.0018671401590992962
1589988467.6191068,-3.852500182922368,-0.8625001829223677,8.840000731689472,0.3388888888888889,-0.3422222222222222,-0.6077777777777778,0.001090830782496456,-0.0016362062662747747,0.001090830782496456
1589988467.6291068,-3.857871041369472,-0.87,8.874257917261055,0.3388888888888889,-0.3422222222222222,-0.6077777777777778,0.0013230641433805803,0.0004644667217682485,0.000161897338959959
1589988467.6391068,-3.85,-0.8698010214939349,8.890198978506065,0.3388888888888889,-0.34208956988484546,-0.6079546475609467,0.002203366752940011,0.0021382511890987136,-0.0032290819715951697
1589988467.6491067,-3.8523475949865476,-0.86,8.883566835094166,0.3388888888888889,-0.33555555555555555,-0.6166666666666667,0.002760326572257257,-0.0002560828876160556,-0.0008347478948804003
1589988467.6591067,-3.859228459872695,-0.86,8.835400780891135,0.3388888888888889,-0.33555555555555555,-0.6166666666666667,0.0012591547266555488,-0.0010066688104169094,-8.416197207954655e-05
1589988467.6691067,-3.86,-0.8674126244840774,8.78164318982165,0.3388888888888889,-0.33555555555555555,-0.6166666666666667,0.0008085918966318536,0.002181661564992912,0.0
1589988467.6791067,-3.86,-0.8515305388314589,8.853112575258434,0.3388888888888889,-0.33555555555555555,-0.6166666666666667,-0.0009238748953802956,0.002181661564992912,0.0
1589988467.6891067,-3.8697889870344544,-0.8793669611033628,8.889366961103363,0.3388888888888889,-0.33555555555555555,-0.6166666666666667,-0.001090830782496456,0.0011138487263287718,0.0
1589988467.6991067,-3.8518640442749104,-0.8618640442749101,8.92627191145018,0.3217604862596374,-0.34663863960977714,-0.6015533702290917,-0.001090830782496456,0.001090830782496456,0.0
1589988467.7091067,-3.857197984655903,-0.8743959693118057,8.908406046032292,0.32,-0.3477777777777778,-0.6,-0.00030565245903685183,0.0026611874294156642,0.0007851783234596041
1589988467.7191067,-3.8696311605723372,-0.870368839427663,8.794057233704292,0.32,-0.3477777777777778,-0.6,0.0010505966423471431,0.0011712990627950814,0.001090830782496456
1589988467.7291067,-3.8620003034210724,-0.8440006068421452,8.860001517105363,0.32,-0.3477777777777778,-0.6,-1.6549052302139433e-07,-0.0008726315278925604,0.002836093838281577
1589988467.7391067,-3.8699542972009406,-0.8599085944018812,8.899771486004703,0.32,-0.3477777777777778,-0.6,-0.004338396119955705,-4.985402006023841e-06,0.0011008015865085034
1589988467.7491066,-3.865633418395651,-0.8565498724065239,8.896549872406524,0.3466666666666667,-0.3477777777777778,-0.6222222222222222,-0.003372461972069649,0.0006145106196657612,-0.00013819045683506636
1589988467.7591066,-3.854996280868789,-0.8716728652186849,8.896684022612318,0.3466666666666667,-0.3477777777777778,-0.6222222222222222,-0.0072724756794969765,-0.0007274909845182404,0.0030908224485002604
1589988467.7691066,-3.878011033889804,-0.8419337966611736,8.799889661101956,0.3466666666666667,-0.3477777777777778,-0.6222222222222222,-0.006538966641654079,0.0017417184199995358,0.001964699019158552
1589988467.7791066,-3.8684383714445065,-0.8884383714445064,8.883123257110988,0.3466666666666667,-0.3477777777777778,-0.6222222222222222,-0.01090830782496456,0.004533670379901612,0.0009204835325806681
1589988467.7891066,-3.8606408254322364,-0.8806408254322364,8.898718349135528,0.3466666666666667,-0.3477777777777778,-0.6222222222222222,-0.01090830782496456,0.005384250701713266,6.99032107690145e-05
1589988467.7991066,-3.87469731561366,-0.8776513421931701,8.94295402657951,0.3388888888888889,-0.3477777777777778,-0.6,-0.005710352735806349,0.002437860388316982,0.002950258034965121
1589988467.8091066,-3.89,-0.8676410579639097,8.886974811494735,0.3388888888888889,-0.3477777777777778,-0.6,-0.00628766403626952,0.00250053037136172,0.005711474571191495
1589988467.8191066,-3.896462801412634,-0.8621542671375447,8.803696938512992,0.3388888888888889,-0.3477777777777778,-0.6,-0.006394130275424007,-0.0007049822722062953,0.010539884237481076
1589988467.8291066,-3.924789072451094,-0.8652109275489059,8.886807285032605,0.3388888888888889,-0.3477777777777778,-0.6,-0.009991612630776744,-0.003969034700723926,0.02979076888175175
1589988467.8391066,-3.9487104807893387,-0.8412895192106614,8.870859679473774,0.3388888888888889,-0.3477777777777778,-0.6,-0.010861419583310893,-0.007448262510860528,0.053275556600173815
1589988467.8491066,-3.9252364112911615,-0.8069818817215485,8.919527177417677,0.3388888888888889,-0.3431919280168817,-0.6064201896652545,-0.011808737319920654,-0.010337103962343478,0.08695700094324224
1589988467.8591065,-3.9016203779786363,-0.781620377978636,8.917746918652425,0.3388888888888889,-0.3422222222222222,-0.6077777777777778,-0.014672346270334827,-0.01090830782496456,0.12588993924918096
1589988467.8691065,-3.8576775551570908,-0.8023224448429095,8.837274499103454,0.3388888888888889,-0.3422222222222222,-0.6077777777777778,-0.015481003792442102,-0.01090830782496456,0.2008217174448188
1589988467.8791065,-3.723875933371626,-0.7324186099942561,8.848868236645606,0.3388888888888889,-0.3422222222222222,-0.6077777777777778,-0.011787739235827297,-0.01606311922472685,0.2536359134751566
1589988467.8891065,-3.4749100227127134,-0.7712224098771184,8.955050084444702,0.3385148085596516,-0.34253395582991997,-0.6089623654870291,-0.02120452814254147,-0.02417097673633701,0.24663924761487527
1589988467.8991065,-2.38,-0.96,9.04,0.3322222222222222,-0.3477777777777778,-0.6288888888888889,-0.01090830782496456,-0.008726646259971648,0.2301652951067522
1589988467.9091065,-2.276670094454601,-0.8323571755027422,8.863731337599024,0.3322222222222222,-0.3477777777777778,-0.6288888888888889,0.005004460418052756,0.022435858215937257,0.19701369460046614
1589988467.9191065,-2.2633929475282604,-0.6699105787076093,8.72330352623587,0.3322222222222222,-0.3477777777777778,-0.6288888888888889,0.010175397265896481,0.01560516530379115,0.1326697863170465
1589988467.9291065,-2.3521250424160165,-0.6248998982015609,8.9,0.3322222222222222,-0.3477777777777778,-0.6288888888888889,-0.023627387345881837,-0.010769224124074488,0.07705625686358406
1589988467.9391065,-2.396601416694944,-0.5181565999321344,8.9,0.3322222222222222,-0.3477777777777778,-0.6288888888888889,-0.015864795640715763,-0.007858252234637209,0.04600589004291975
1589988467.9491065,-1.9906899833025118,-0.9971720200369858,8.74220604341347,0.32,-0.3555555555555556,-0.6077777777777778,0.016663523747762213,0.021418019889199315,0.012191013738547389
1589988467.9591064,-2.0659956550622116,-0.9068052139253461,8.546411296838249,0.32,-0.3555555555555556,-0.6077777777777778,0.049521821688584045,0.04934757313889787,0.021227045672273397
1589988467.9691064,-2.228788893980816,-0.9,8.786132488424645,0.32,-0.3555555555555556,-0.6077777777777778,-0.0067281889672938435,-0.0009714928847511148,0.011210849995025009
1589988467.9791064,-2.314953619569855,-0.9,8.951833883788183,0.32,-0.3555555555555556,-0.6077777777777778,-0.017573319933203557,-0.015431667505964072,0.00759580633972177
1589988467.9891064,-2.330352174336025,-0.8807043486720498,8.855282615040373,0.32,-0.3555555555555556,-0.6077777777777778,0.01084665078783736,0.012989896092176146,0.008649813738663404
1589988467.9991064,-2.3629984250696605,-0.88,8.907747243871906,0.34199895004644026,-0.334473228427717,-0.5958616798359561,0.011099246161463808,0.011481122834462305,0.005127076475982817
1589988468.0091064,-2.387707413123304,-0.8888537065616519,8.990829652493215,0.3466666666666667,-0.33,-0.5933333333333334,-0.0006811669630042792,-0.005510114791324626,-0.005294572526654876
1589988468.0191064,-2.426661633627198,-0.8808345915932005,8.80752642345721,0.3466666666666667,-0.33,-0.5933333333333334,0.0038170842095802886,0.001362303184384607,-0.019542267206554
1589988468.0291064,-2.4495195621325765,-0.8604804378674235,8.829039124265153,0.3466666666666667,-0.33,-0.5933333333333334,0.008621830976999152,0.006440169412006239,-0.03669518929373264
1589988468.0391064,-2.467506138571581,-0.8687530692857905,8.82124693071421,0.3466666666666667,-0.33,-0.5933333333333334,0.0049073992926658115,0.006544984694978735,-0.0628681636341939
1589988468.0491064,-2.4431502560493166,-0.8412601024197267,8.831260102419726,0.32,-0.3411111111111111,-0.6,0.003066308571208942,0.008726646259971648,-0.09798621869706557
1589988468.0591063,-2.486663132414428,-0.8606673735171144,8.846663132414427,0.32,-0.3411111111111111,-0.6,7.279915758913672e-05,0.008799445417560784,-0.130102372910116
1589988468.0691063,-2.4447092243983435,-0.8690581551203312,8.804709224398344,0.32,-0.3411111111111111,-0.6,0.0009880914437885256,0.009714737703760174,-0.1612223106408952
1589988468.0791063,-2.439839556949139,-0.88,8.870641772203443,0.32,-0.3411111111111111,-0.6,0.007662067910282758,0.010969563501515548,-0.2010803980386538
1589988468.0891063,-2.4227597019179865,-0.88,8.938961192328053,0.32,-0.3411111111111111,-0.6,0.010456752654566396,0.0174904945715107,-0.24020598445862476
1589988468.0991063,-2.3946939027836653,-0.8904823724742122,8.956623392680514,0.3244444444444444,-0.3477777777777778,-0.6077777777777778,0.011013545173664496,0.019845428782336083,-0.2960644142090451
1589988468.1091063,-2.313202274975272,-0.8978907022749752,8.904765084075173,0.3244444444444444,-0.3477777777777778,-0.6077777777777778,0.012629792012376127,0.023077922459759342,-0.33647058517683587
1589988468.1191063,-2.331400752567019,-0.9101273411424563,8.781528093709474,0.3244444444444444,-0.3477777777777778,-0.6077777777777778,0.006489421639750913,0.025102998761225438,-0.4065530430980641
1589988468.1291063,-2.429483832564468,-0.9190439847785881,8.888527817343055,0.3244444444444444,-0.3477777777777778,-0.6077777777777778,0.0025988018978134707,0.0260756536967098,-0.460049064549704
1589988468.1391063,-2.4477801786827342,-0.9122198213172658,8.853318927903594,0.3244444444444444,-0.3477777777777778,-0.6077777777777778,0.010668519965442172,0.038061540540543906,-0.5133111511685026
1589988468.1491063,-2.4563795179493457,-0.8908614461519623,8.820861446151962,0.3464183396033026,-0.3527396250717135,-0.6226633196595849,0.015177661756948024,0.04701874938017347,-0.5672333203742723
1589988468.1591063,-2.479095822320407,-0.9563832892816284,8.857739555801018,0.3588888888888889,-0.3555555555555556,-0.6311111111111111,0.009071852955982795,0.04497063829379122,-0.6536719012833407
1589988468.1691062,-2.5175714877745543,-0.9693928719436385,8.78485702445089,0.3588888888888889,-0.3555555555555556,-0.6311111111111111,0.015898869956489474,0.04779787223800519,-0.7161071274054427
1589988468.1791062,-2.491756844147446,-0.9605856147158152,8.81765754113674,0.3588888888888889,-0.3555555555555556,-0.6311111111111111,0.026631963003717275,0.05518520531623336,-0.7836192242985376
1589988468.1891062,-2.5147429525997076,-1.0012382543328462,8.877733556065985,0.3588888888888889,-0.3555555555555556,-0.6311111111111111,0.025471411272703942,0.05563236990731925,-0.8406608945088111
1589988468.1991062,-2.5394721247903096,-1.0315836256290714,8.92841637437093,0.3588888888888889,-0.3411111111111111,-0.6222222222222222,0.031691674945201934,0.061432017336629785,-0.9198679569709151
1589988468.2091062,-2.530334415372214,-1.0589967538833578,8.901003246116643,0.3588888888888889,-0.3411111111111111,-0.6222222222222222,0.032688444416678564,0.06741263416548958,-0.981667664202466
1589988468.2191062,-2.5485907846610383,-1.0785907846610385,8.807046076694808,0.3588888888888889,-0.3411111111111111,-0.6222222222222222,0.03475286349279604,0.07270135855953617,-1.04983741639363
1589988468.2291062,-2.531166896752161,-1.127082758119596,8.847082758119596,0.3588888888888889,-0.3411111111111111,-0.6222222222222222,0.0369609579151542,0.07616722174016397,-1.1174917393697352
1589988468.2391062,-2.5657009120736882,-1.1657009120736883,8.85595015201228,0.3588888888888889,-0.3411111111111111,-0.6222222222222222,0.036439185707326516,0.07895439836496382,-1.1596686373619824
1589988468.2491062,-2.60265945354271,-1.1773405464572895,8.866329726771355,0.3835044929997147,-0.3453309289586812,-0.6412114025362878,0.035997415822383035,0.08693567263102528,-1.2271610254155645
1589988468.2591062,-2.5798931906365925,-1.2405340468170383,8.878931906365924,0.3977777777777778,-0.3477777777777778,-0.6522222222222223,0.036032369104822215,0.09055060604135222,-1.3162060360570702
1589988468.2691061,-2.5709512642305885,-1.2852436788470558,8.789512642305889,0.3977777777777778,-0.3477777777777778,-0.6522222222222223,0.03895860767836819,0.0915260188992009,-1.3718045689544436
1589988468.2791061,-2.604556644001383,-1.3418349660020745,8.814556644001383,0.3977777777777778,-0.3477777777777778,-0.6522222222222223,0.04209706699610841,0.0953993308313503,-1.424838592063624
1589988468.2891061,-2.5947334420604493,-1.3728998369093257,8.858166394848876,0.3977777777777778,-0.3477777777777778,-0.6522222222222223,0.04670570835316863,0.0993237551283336,-1.4747265573430766
1589988468.2991061,-2.583448246491919,-1.4062070140323233,8.87,0.41379317524197534,-0.3222987363574634,-0.623103317741863,0.050855296192221545,0.10250048831145706,-1.5236274593548844
1589988468.309106,-2.597266722548198,-1.4977002514668902,8.861366638725901,0.4222222222222222,-0.3088888888888889,-0.6077777777777778,0.05424338480666987,0.10833769245426328,-1.5876389003741482
1589988468.319106,-2.582486008972758,-1.527513991027242,8.78118704037741,0.4222222222222222,-0.3088888888888889,-0.6077777777777778,0.057407259205355145,0.11194879833017796,-1.6377804052178038
1589988468.329106,-2.5985009233259975,-1.5485009233259974,8.760749538337,0.4222222222222222,-0.3088888888888889,-0.6077777777777778,0.05781403147231216,0.11941905243114657,-1.6882810178930892
1589988468.339106,-2.6078712491417955,-1.605098743992569,8.822969993134365,0.4222222222222222,-0.3088888888888889,-0.6077777777777778,0.056096791300198276,0.1191327659885532,-1.7262233470942807
1589988468.349106,-2.5821737460861347,-1.6942033437703077,8.877101671885155,0.44695667014565815,-0.27281781900054486,-0.649001857650171,0.051585205329878335,0.12193592872519439,-1.7769952118706307
1589988468.359106,-2.6071732648286616,-1.7271732648286617,8.852826735171337,0.4488888888888889,-0.27,-0.6522222222222223,0.05324514235973559,0.12513719101320636,-1.8167936053086564
1589988468.369106,-2.601479754988065,-1.755560735035806,8.781838039904518,0.4488888888888889,-0.27,-0.6522222222222223,0.057168366555698714,0.12916319820046482,-1.8549849144602792
1589988468.379106,-2.571795662343185,-1.8258101211992346,8.788802891771208,0.4488888888888889,-0.27,-0.6522222222222223,0.05883957012951142,0.12570670848828128,-1.8968511679409275
1589988468.389106,-2.5589489364071722,-1.8465765953892417,8.806576595389242,0.4488888888888889,-0.27,-0.6522222222222223,0.05890486225480863,0.12785650805636892,-1.9190268788978606
1589988468.399106,-2.565865976044027,-1.8837989640660409,8.83189948203302,0.4568218769109025,-0.25457474551275133,-0.6548665515628934,0.05977021700796744,0.13153957262339588,-1.9507101937055713
1589988468.409106,-2.531071562032885,-1.9705100896860985,8.75739816890882,0.4688888888888889,-0.2311111111111111,-0.6588888888888889,0.06567802054115596,0.14060028165696029,-2.00011609795817
1589988468.419106,-2.52,-2.009482944775463,8.732629263806135,0.4688888888888889,-0.2311111111111111,-0.6588888888888889,0.06573665513929086,0.14019995653855338,-2.0242435204603164
1589988468.429106,-2.52,-2.065377608270819,8.802604173233311,0.4688888888888889,-0.2311111111111111,-0.6588888888888889,0.058519946078484854,0.14061632599830384,-2.050926633783551
1589988468.439106,-2.504960289922122,-2.085039710077878,8.734801449610611,0.4688888888888889,-0.2311111111111111,-0.6588888888888889,0.06519663189305935,0.14317803774895851,-2.065247866692909
1589988468.449106,-2.4709131104575555,-2.148173779084889,8.808895424444312,0.49603665246183704,-0.20008509559917037,-0.6795728992301827,0.06065115612918629,0.1433550857999327,-2.0826321216773653
1589988468.459106,-2.475464412524209,-2.2324406875403486,8.803606762427371,0.5155555555555555,-0.17777777777777778,-0.6944444444444444,0.05933601857926534,0.1419729203390492,-2.100546650340081
1589988468.469106,-2.4608729907025655,-2.2782540185948688,8.713491962810261,0.5155555555555555,-0.17777777777777778,-0.6944444444444444,0.06347308145709464,0.1473718231962026,-2.1075947393423333
1589988468.479106,-2.395197368421053,-2.362631578947368,8.779605263157896,0.5155555555555555,-0.17777777777777778,-0.6944444444444444,0.06288782991458186,0.14968064230610909,-2.1158815982010526
1589988468.489106,-2.3722100726828326,-2.4189496365858365,8.739890654145494,0.5155555555555555,-0.17777777777777778,-0.6944444444444444,0.0630271038533956,0.1511433157042097,-2.1224010443322068
1589988468.499106,-2.34071375671172,-2.48857248657656,8.798096648768746,0.5415877718118044,-0.1257133452652801,-0.7226460120553807,0.06539794109696351,0.15694986804743005,-2.129171922801022
1589988468.509106,-2.3045478498975323,-2.518361720081974,8.792909569979505,0.5422222222222223,-0.12444444444444445,-0.7233333333333334,0.06390295508428909,0.15939997047773705,-2.134715808962326
1589988468.519106,-2.2642974415104664,-2.5814051169790666,8.687189766041866,0.5422222222222223,-0.12444444444444445,-0.7233333333333334,0.06700647098336762,0.16222126782626559,-2.1416103599087735
1589988468.529106,-2.217002125882621,-2.6114989370586894,8.734496811176069,0.5422222222222223,-0.12444444444444445,-0.7233333333333334,0.06606806169247545,0.16018861635851467,-2.1470819972899537
1589988468.539106,-2.195151308468249,-2.6587895322540116,8.769697383063502,0.5422222222222223,-0.12444444444444445,-0.7233333333333334,0.06227638576318874,0.15979020444224898,-2.154225743495682
1589988468.549106,-2.19,-2.7116982465438806,8.762452630184178,0.5461216377368491,-0.08675009446971817,-0.7233333333333334,0.061457023741068165,0.1609901653985439,-2.166225353058632
1589988468.5591059,-2.1088768134004683,-2.760561593299766,8.741887681340048,0.5488888888888889,-0.06,-0.7233333333333334,0.06061343531128526,0.1605580391183057,-2.1778325906973053
1589988468.5691059,-2.083162376158835,-2.804188119205825,8.67162376158835,0.5488888888888889,-0.06,-0.7233333333333334,0.05850395492429019,0.16482733936602367,-2.1854468558799782
1589988468.5791059,-2.08,-2.827587241479755,8.677936207398776,0.5488888888888889,-0.06,-0.7233333333333334,0.05781403147231216,0.16938002869006308,-2.191517108312031
1589988468.5891058,-2.003062857142857,-2.8649714285714287,8.669017142857143,0.5488888888888889,-0.06,-0.7233333333333334,0.05705107325644035,0.17474735136467798,-2.1933328310337483
1589988468.5991058,-1.9650513273061267,-2.909692036163239,8.72433274502035,0.5593360867981766,-0.06,-0.7486265493242406,0.0567232006898157,0.17779421966582115,-2.1931208871496755
1589988468.6091058,-1.96,-2.9447852739608087,8.770858904156766,0.57,-0.06,-0.7744444444444445,0.05098128413677404,0.17628628625985437,-2.1930918652317892
1589988468.6191058,-1.9318550800735101,-2.964072459963245,8.66556524022053,0.57,-0.06,-0.7744444444444445,0.048817574752583096,0.17702391800338635,-2.189055501846366
1589988468.6291058,-1.873050375299853,-3.0024580205834557,8.614916041166913,0.57,-0.06,-0.7744444444444445,0.04806117030572435,0.18254778390439405,-2.1779637305179755
1589988468.6391058,-1.835119261529789,-3.0885688616425324,8.655357784589366,0.57,-0.06,-0.7744444444444445,0.04145156973486533,0.18488280821836314,-2.1585079197093195
1589988468.6491058,-1.8015292817679558,-3.155694143646409,8.702635580110497,0.588347796193984,-0.056203904235727443,-0.770648348680172,0.0377247614331897,0.17922988585493813,-2.1301357812468806
1589988468.6591058,-1.7682773308092758,-3.1951680075721725,8.685525319451019,0.6022222222222222,-0.05333333333333334,-0.7677777777777778,0.03170972293832043,0.16877857341661384,-2.0953759724768415
1589988468.6691058,-1.76,-3.242214596907892,8.62519026872807,0.6022222222222222,-0.05333333333333334,-0.7677777777777778,0.02783694005221235,0.16390770261936888,-2.0460059043968095
1589988468.6791058,-1.7219469600363109,-3.25,8.589557568029049,0.6022222222222222,-0.05333333333333334,-0.7677777777777778,0.023950015373614617,0.15449254335527723,-2.0003616789207235
1589988468.6891057,-1.7224568478786901,-3.3122842393934504,8.673426359090175,0.6022222222222222,-0.05333333333333334,-0.7677777777777778,0.02902218733595346,0.14619015351942705,-1.956383980132106
1589988468.6991057,-1.6795102268847573,-3.393276948384494,8.751638474192246,0.6006193722820558,-0.06295043297433192,-0.8038419014315225,0.029577734976872615,0.13660445551099362,-1.896884782705946
1589988468.7091057,-1.6285069386390236,-3.3863802039792676,8.673394081257316,0.6,-0.06666666666666668,-0.8177777777777778,0.035232320498428414,0.133313346227874,-1.8344468987509328
1589988468.7191057,-1.6063283125051726,-3.3868358437474138,8.595313250020691,0.6,-0.06666666666666668,-0.8177777777777778,0.04156229587528839,0.13009865595096168,-1.7799296135785987
1589988468.7291057,-1.551286068677373,-3.376081733907821,8.632632197414805,0.6,-0.06666666666666668,-0.8177777777777778,0.03604199475369541,0.11960854847918641,-1.7226447002184657
1589988468.7391057,-1.53,-3.4361383977297533,8.69006290805898,0.6,-0.06666666666666668,-0.8177777777777778,0.03600427802710317,0.11825154658639192,-1.6667070891979432
1589988468.7491057,-1.492674296940061,-3.4146800196451066,8.705334287117507,0.5611190593125637,-0.051114290391692116,-0.753494622507883,0.03665222641702208,0.11439293251664594,-1.6105814277910437
1589988468.7591057,-1.4900573529907897,-3.437282142977632,8.740057352990789,0.5166666666666667,-0.03333333333333333,-0.68,0.036155036288677445,0.10174999122319486,-1.5406696201168397
1589988468.7691057,-1.4832684824902724,-3.5237743190661477,8.636848249027237,0.5166666666666667,-0.03333333333333333,-0.68,0.03658739823003677,0.09658309126734185,-1.4830205268648313
1589988468.7791057,-1.4345142815184668,-3.529028563036934,8.515657170129966,0.5166666666666667,-0.03333333333333333,-0.68,0.03928861064345438,0.09629230838887642,-1.4284896458390022
1589988468.7891057,-1.4119174836899078,-3.528288807085323,8.670618872325692,0.5166666666666667,-0.03333333333333333,-0.68,0.039179896838765806,0.09003061356932197,-1.3545417978672785
1589988468.7991056,-1.37591611670719,-3.5780279610976033,8.691762330670372,0.5175586623441781,0.012158446219752234,-0.6568081123847015,0.030120654968592325,0.08050636183083626,-1.287081195661389
1589988468.8091056,-1.3795680993090524,-3.6889202482726313,9.223089588944841,0.5188888888888888,0.08,-0.6222222222222222,0.03096183740374405,0.07749609861411508,-1.196440243678626
1589988468.8191056,-0.6931445603576751,-2.5854694485842025,7.932086438152012,0.5188888888888888,0.08,-0.6222222222222222,0.0386423959760667,0.08212118774636136,-1.1115809525527671
1589988468.8291056,-0.8781213594691789,-2.7819181482044266,7.955380134731297,0.5188888888888888,0.08,-0.6222222222222222,0.08587103018099945,0.20202282229481203,-1.0279303512365816
1589988468.8391056,-1.285886439584921,-3.4670683590314826,9.794816497625607,0.5188888888888888,0.08,-0.6222222222222222,0.14196557967189646,0.07717175325132575,-0.9828600229312191
1589988468.8491056,-1.1300517487508923,-3.252145491315727,9.242927670711396,0.5296277130092262,0.13534624738943082,-0.6057009543447802,-0.1496672130135857,-0.05438717995092564,-0.9625924380024043
1589988468.8591056,-1.201243604420251,-3.490325210849707,8.633405602411045,0.5333333333333333,0.15444444444444444,-0.6,-0.0004063059870883512,0.02852681904366552,-0.8636252798399608
1589988468.8691056,-1.109178537855232,-3.3440039048376597,8.088890736857328,0.5333333333333333,0.15444444444444444,-0.6,0.07308566242726255,0.09678159280659929,-0.7686324673726255
1589988468.8791056,-1.2335602726111032,-3.6204862984523642,8.903573051256567,0.5333333333333333,0.15444444444444444,-0.6,-0.01527302488893341,0.010162011058606604,-0.7298598840339835
1589988468.8891056,-1.1426378521550686,-3.438734649650855,8.401614495545388,0.5333333333333333,0.15444444444444444,-0.6,0.01029906583122496,0.023553460954349487,-0.6686572061534168
1589988468.8991055,-1.260944222594358,-3.7434925286615996,9.191357400489501,0.5501293529133926,0.20129649906250446,-0.5893919876336468,0.033616782675783156,0.025853975272547153,-0.5220649309359214
1589988468.9091055,-1.2773550990462217,-3.811032648569332,9.189873440939104,0.5544444444444444,0.21333333333333332,-0.5866666666666667,0.03272492347489368,0.02072578486743266,-0.4919646829059016
1589988468.9191055,-1.2550937088440888,-3.7616695370276565,8.977325498936278,0.5544444444444444,0.21333333333333332,-0.5866666666666667,0.031795766832280956,0.019564339064166755,-0.4754721524995258
1589988468.9291055,-1.201148854112586,-3.618851145887414,8.47067937402655,0.5544444444444444,0.21333333333333332,-0.5866666666666667,0.0277349976296045,0.013767784438222347,-0.39596825697567417
1589988468.9391055,-1.2068579971143985,-3.616284005771203,8.661420028856016,0.5544444444444444,0.21333333333333332,-0.5866666666666667,0.02256470708579489,0.003895358298146339,-0.22393989707556952
1589988468.9491055,-1.2026674043403769,-3.6406696173615076,8.765565391205026,0.5526661748841931,0.2155067739069738,-0.5878521797068342,0.02084672006197985,0.006568930330730996,-0.15307790811735947
1589988468.9591055,-1.1936587181809035,-3.6740136834691617,8.862396015695744,0.5344444444444445,0.23777777777777775,-0.6,0.010187540754352756,-0.004723706665291726,-0.05115066765649626
1589988468.9691055,-1.1467593021460554,-3.610312644742937,8.554143893777983,0.5344444444444445,0.23777777777777775,-0.6,0.007632026116257626,-0.010197507868576372,0.026620599385504252
1589988468.9791055,-1.1823872508823843,-3.7239521908089417,8.914323505294306,0.5344444444444445,0.23777777777777775,-0.6,0.007855720025217578,-0.01723338797220091,0.0987621677699991
1589988468.9891055,-1.1537285918173168,-3.6368642959086586,8.748642959086583,0.5344444444444445,0.23777777777777775,-0.6,0.007487785277329085,-0.01725927046532585,0.15195890349476854
1589988468.9991055,-1.131448460387284,-3.6086211509682102,8.645793841549136,0.5382451287167627,0.24632931739049374,-0.6071262830105967,0.0023320706618221022,-0.02353186308255761,0.21281685115800758
1589988469.0091054,-1.1408829414707353,-3.6269866183091546,8.746180590295149,0.5433333333333333,0.2577777777777778,-0.6166666666666667,0.002037190604679787,-0.030310866932664306,0.26665267075346444
1589988469.0191054,-1.16,-3.6222265283720514,8.742651269069649,0.5433333333333333,0.2577777777777778,-0.6166666666666667,-0.001090830782496456,-0.03317978859699294,0.31642936341676675
1589988469.0291054,-1.114224854331837,-3.5213372814977553,8.667165679625562,0.5433333333333333,0.2577777777777778,-0.6166666666666667,-0.006708286303906768,-0.03428823225750764,0.3617240043842613
1589988469.0391054,-1.1098651420048473,-3.559595426014542,8.704887618337374,0.5433333333333333,0.2577777777777778,-0.6166666666666667,-0.006021635391587235,-0.03545935579375373,0.407853026851772
1589988469.0491054,-1.1451842521530258,-3.6137102349288184,8.70407873923487,0.5675265100474545,0.2537455816587576,-0.6195468067516811,-0.010139057714887234,-0.04060192445668322,0.4556401903980175
1589988469.0591054,-1.1613768875605022,-3.6027537751210046,8.611738674636987,0.59,0.25,-0.6222222222222222,-0.01358001963844098,-0.04132110702534899,0.5016637654044482
1589988469.0691054,-1.1642854615753961,-3.62,8.651432614793663,0.59,0.25,-0.6222222222222222,-0.01293427425312646,-0.04332184102619621,0.5457281322764411
1589988469.0791054,-1.1868378877717625,-3.6575730428804674,8.682426957119533,0.59,0.25,-0.6222222222222222,-0.015857142837322858,-0.049753090076961486,0.592649596786919
1589988469.0891054,-1.2133565558245631,-3.6530778859298056,8.686922114070194,0.59,0.25,-0.6222222222222222,-0.017827035504087336,-0.05309976398563405,0.632055960559399
1589988469.0991054,-1.2207356174422865,-3.5873561744228657,8.758528765115427,0.5982552624078824,0.2514712348845731,-0.6259820447050202,-0.0211270019425264,-0.0568836875198532,0.6642531907936022
1589988469.1091053,-1.2353131575084406,-3.642807897440916,8.755939472525322,0.7022222222222222,0.27,-0.6733333333333333,-0.020963758593701705,-0.06354146686477595,0.7278597085425471
1589988469.1191053,-1.22858216621151,-3.5472019141633053,8.61015032696114,0.7022222222222222,0.27,-0.6733333333333333,-0.02258992402040333,-0.06264953868841508,0.7738425121526904
1589988469.1291053,-1.2450603382984096,-3.5334137843978795,8.586064630143904,0.7022222222222222,0.27,-0.6733333333333333,-0.028637598984195396,-0.06300535052016061,0.8121695907798994
1589988469.1391053,-1.28,-3.5626567481402764,8.717832093517535,0.7022222222222222,0.27,-0.6733333333333333,-0.031016225734830156,-0.06848585738481203,0.8483081482383624
1589988469.1491053,-1.2770836802664447,-3.497083680266445,8.715832639467111,0.8639159496715699,0.288470024979184,-0.7387885095753539,-0.03145243894010805,-0.06826775078217309,0.893616342719007
1589988469.1591053,-1.277052108987139,-3.4988151362339237,8.722947891012861,1.2566666666666666,0.3333333333333333,-0.8977777777777778,-0.0295154989796115,-0.07000548651889046,0.9270076229178789
1589988469.1691053,-1.3001377371417773,-3.549862262858223,8.655482079996219,1.2566666666666666,0.3333333333333333,-0.8977777777777778,-0.035444488035427636,-0.07090400086226964,0.9701061711379181
1589988469.1791053,-1.3155454976185132,-3.590654597142216,8.625109099523703,1.2566666666666666,0.3333333333333333,-0.8977777777777778,-0.033210834306736624,-0.07146131716539891,0.993403742965001
1589988469.1891053,-1.344118786313751,-3.62,8.658831504196256,1.2566666666666666,0.3333333333333333,-0.8977777777777778,-0.030543261909900768,-0.07379199120379187,1.0024734891142428
1589988469.1991053,-1.35,-3.565117511790155,8.707840355458549,1.1930726723917666,0.06545452183289807,-0.9204276935469203,-0.029688011801910795,-0.07593052972075694,0.999480113736278
1589988469.2091053,-1.367749629429996,-3.471125185285002,8.786561110362484,1.0944444444444446,-0.35,-0.9555555555555556,-0.029329692452915085,-0.0762354161002627,0.9817684301786702
1589988469.2191052,-1.3784210184674304,-3.4426315277011454,8.768683911590015,1.0944444444444446,-0.35,-0.9555555555555556,-0.025490978115626832,-0.07460707592296928,0.9565437458693842
1589988469.2291052,-1.3594169308441941,-3.371749207467418,8.595335446753552,1.0944444444444446,-0.35,-0.9555555555555556,-0.019253336214849738,-0.06917235022100335,0.9127565828102654
1589988469.2391052,-1.385987644151565,-3.37197528830313,8.723966021416803,1.0944444444444446,-0.35,-0.9555555555555556,-0.023127971263392784,-0.06872402406475381,0.8678804704149695
1589988469.2491052,-1.41,-3.403280616912822,8.759347797673506,0.9740029625756983,-0.2391566824961152,-0.8862010775642981,-0.019759991151496053,-0.06453794606299512,0.8237755606931306
1589988469.2591052,-1.4243435032654255,-3.3772122039185106,8.688606101959255,0.6622222222222223,0.04777777777777778,-0.7066666666666667,-0.023220373130240866,-0.06123857450885212,0.7725593434673073
1589988469.2691052,-1.440398500110286,-3.3660958753032864,8.602191750606574,0.6622222222222223,0.04777777777777778,-0.7066666666666667,-0.02186008526864194,-0.05569757433538849,0.7116998359935303
1589988469.2791052,-1.427493883629401,-3.3324816508882034,8.602408254441016,0.6622222222222223,0.04777777777777778,-0.7066666666666667,-0.020861137926445762,-0.053177333454169584,0.6684219074029542
1589988469.2891052,-1.443739491088443,-3.351302544557785,8.763823562380898,0.6622222222222223,0.04777777777777778,-0.7066666666666667,-0.021275785636367655,-0.05331779352777936,0.6286829153981335
1589988469.2991052,-1.4640659686193127,-3.314725654812439,8.698791623431752,0.6441512505808327,0.08798568967986947,-0.7066666666666667,-0.017729027156942603,-0.04710949768372189,0.57369292322701
1589988469.3091052,-1.4797210634980829,-3.360557873003834,8.784581595247124,0.6177777777777778,0.14666666666666667,-0.7066666666666667,-0.017605428781269857,-0.04369408580438886,0.5274189584865638
1589988469.3191051,-1.4530717429809026,-3.3984697402802375,8.710756712203848,0.6177777777777778,0.14666666666666667,-0.7066666666666667,-0.010320701961612163,-0.04111588240569556,0.49985119261911704
1589988469.3291051,-1.3743638163943703,-3.532618289836622,8.534437371808473,0.6177777777777778,0.14666666666666667,-0.7066666666666667,-0.0073066143353214055,-0.04026553524732604,0.4793346847391738
1589988469.3391051,-1.3771456885982836,-3.543517572537801,8.78340702901512,0.6177777777777778,0.14666666666666667,-0.7066666666666667,-0.0077202244716172855,-0.03639318189050743,0.41765770903817917
1589988469.3491051,-1.2675709325570792,-3.506795847508154,8.773204152491845,0.6156416761165472,0.14631064972312824,-0.7112948869326662,0.006587259026499747,-0.03229085599485984,0.3430900580155339
1589988469.359105,-1.1691774366792558,-3.445268008731506,8.819094279477495,0.6111111111111112,0.14555555555555555,-0.7211111111111111,0.01076010965102157,-0.02405674764978298,0.22030344554293518
1589988469.369105,-1.0488073742508157,-3.2982110613762234,8.89287269554662,0.6111111111111112,0.14555555555555555,-0.7211111111111111,0.031116814958841794,0.00690274673676101,0.09145218745497069
1589988469.379105,-0.9851583899237453,-3.0563557039341402,9.014859061421147,0.6111111111111112,0.14555555555555555,-0.7211111111111111,0.06340069572910013,0.048559247481538136,-0.11729110501091677
1589988469.389105,-1.06,-2.921026270627063,8.857583630363036,0.6111111111111112,0.14555555555555555,-0.7211111111111111,0.06821011684271039,0.06941093792905778,-0.2878387210112717
1589988469.399105,-1.0553157060389435,-2.908370173182185,8.352423055065355,0.5861282099854768,0.10547881833318379,-0.7122630002957823,0.05973137873200779,0.03736848306558785,-0.5253000318020775
1589988469.409105,-1.05,-3.02,8.48,0.5577777777777778,0.06,-0.7022222222222222,0.04581489286485115,-0.031634092692397225,-0.643590161672909
1589988469.419105,-4.961319088027809,-6.684915448318168,2.4256170125754015,0.5577777777777778,0.06,-0.7022222222222222,-0.2651944466561944,0.547343666908116,-1.3178605385530204
1589988469.429105,-8.787616229923922,-8.806647967417199,-6.695874894336433,0.5577777777777778,0.06,-0.7022222222222222,-1.234130891185449,1.6818732120192352,-3.9190987447125565
1589988469.439105,-2.8483440348624236,-3.1449337908675608,-0.21376939432854045,0.5577777777777778,0.06,-0.7022222222222222,-1.026462282042241,-1.576068166533314,-8.981811584264733
1589988469.449105,-1.6505560978495577,-2.095607122785222,-0.3399239802407786,0.5526972060355679,0.1255855624903455,-0.6874423771539753,-1.0491225979417842,-0.8420532819459599,-8.917371441555266
1589988469.459105,-0.24067589871583273,-2.096013848073749,-0.04185097218308444,0.5455555555555556,0.21777777777777774,-0.6666666666666666,-1.0161767406872182,-0.6044614541946801,-8.579896036433267
1589988469.469105,-0.26291615564722937,-3.4565219087969674,4.3294269149292,0.5455555555555556,0.21777777777777774,-0.6666666666666666,-0.8510000382743312,-0.16576170435123685,-8.209350683853074
1589988469.479105,-0.46379017956107293,-4.772455109731767,9.221441476391044,0.5455555555555556,0.21777777777777774,-0.6666666666666666,-0.05079019116726058,0.9657511701709938,-7.688054023989773
1589988469.489105,-0.46678343826039936,-3.072038159978371,5.724155884284114,0.5455555555555556,0.21777777777777774,-0.6666666666666666,1.0306145302244218,2.374075124129262,-7.149561993733174
1589988469.499105,-0.4505836004789309,-2.326845622030821,3.5290778648951378,0.5455555555555556,0.21777777777777774,-0.6666666666666666,1.5404310079466725,2.9201177293846357,-6.760793795816727
1589988469.509105,-1.4580577575416764,-0.6503747709833656,16.91209606907686,0.44,0.42777777777777776,-0.5933333333333334,2.628979495952458,2.261240447765071,-5.831958396072567
1589988469.519105,1.3624433849821216,2.7589654350417163,1.8904410011918953,0.44,0.42777777777777776,-0.5933333333333334,2.2729598109734646,-0.15241701366615382,-5.000553709192103
1589988469.529105,0.3832937053326003,-0.05871581225948323,-0.7849702789994503,0.44,0.42777777777777776,-0.5933333333333334,0.4744387720296813,-0.2320693952588886,-4.242378410130009
1589988469.539105,0.1821629065338412,-0.1312370348666862,-0.3106375622619396,0.44,0.42777777777777776,-0.5933333333333334,-0.20612476537807506,0.18381614125859574,-3.9330890500655267
1589988469.549105,1.3265109306956693,-0.827383198021752,9.260601790051863,0.409274058836831,0.44006815424304535,-0.6003564055992006,-1.1318612448099583,0.9521111087434742,-3.519538820067721
1589988469.559105,2.5099606432370942,-2.1923826215293793,23.871999508040464,0.3233333333333333,0.4744444444444445,-0.62,-0.742762084856057,1.1585744832741716,-3.2807307477787706
1589988469.569105,-0.3798455497837001,-1.2181097656317865,8.776784864226272,0.3233333333333333,0.4744444444444445,-0.62,0.26646087525966594,0.3800279599455212,-3.0972366869623356
1589988469.579105,2.1066353773009876,-2.65679019870779,15.20540899670852,0.3233333333333333,0.4744444444444445,-0.62,0.38385288687439006,-0.3661206033777703,-2.9413836489100773
1589988469.589105,0.8801143051154369,-1.9995314622000904,8.111914327750114,0.3233333333333333,0.4744444444444445,-0.62,0.021665756073626426,-0.527722167806399,-2.6312278553157866
1589988469.599105,0.7058603870395591,-1.5113961296044087,6.846182497703734,0.3045358375827447,0.49001112061290064,-0.6170628912889705,0.2020867241150959,0.24535867148588292,-2.365970957000156
1589988469.6091049,0.7952755334075186,-1.8034636412018,7.996964052445691,0.25222222222222224,0.5333333333333333,-0.6088888888888889,0.008164474432831859,0.8203521942195916,-2.0420696876763174
1589988469.6191049,0.8847257981173193,-2.742088697175979,11.630594909123587,0.25222222222222224,0.5333333333333333,-0.6088888888888889,-0.2700206753485583,0.1921235549102978,-1.932538468535405
1589988469.6291049,0.9509875976113918,-2.568642627468994,9.956504363803399,0.25222222222222224,0.5333333333333333,-0.6088888888888889,0.02354004811497115,-0.20719095574393467,-1.8442045191732275
1589988469.6391048,0.9331001438440811,-2.1506383840839565,8.48161125630584,0.25222222222222224,0.5333333333333333,-0.6088888888888889,0.21886230450975816,0.18994738804618166,-1.6455628441184158
1589988469.6491048,0.7615404618668736,-2.304682320978071,8.996962546089657,0.24798762317528086,0.5407803868296785,-0.6107871574271729,0.03287018411586962,0.4375541789556112,-1.4435251429431801
1589988469.6591048,0.97,-2.6,9.77,0.22,0.59,-0.6233333333333333,-0.13199052468207118,-0.11671889372712077,-1.3809917706405133
1589988469.6691048,0.8758834265390645,-2.437435009476566,8.92295083885158,0.22,0.59,-0.6233333333333333,-0.017192102651742758,0.07181184814382507,-1.2157940413773578
1589988469.6791048,1.0376037903464614,-2.5328113710393843,8.860830322771692,0.22,0.59,-0.6233333333333333,0.05276229301403009,0.062438740527437496,-1.0076118609204272
1589988469.6891048,1.0210435297601421,-2.4831305892804263,8.728348238081137,0.22,0.59,-0.6233333333333333,0.010310854281788531,0.06424518472880948,-0.8621931027099827
1589988469.6991048,5.048248697151365,-8.699162650366365,3.835289761372987,0.21123739055853785,0.5921493192969624,-0.6258133171375208,-0.16335172802331255,-0.2336927677070915,-0.37651432181379985
1589988469.7091048,-2.306279926335173,0.3070534069981594,9.110828729281767,0.1628463269899734,0.6040188254552895,-0.6395089011663597,-0.6859376992328083,-0.09654756428504546,0.8273157971130488
1589988469.7191048,-1.1764629600253806,-0.7741366592639594,11.997349698604062,0.16111111111111112,0.6044444444444445,-0.64,0.2802965313177301,0.06020891896238935,1.4820806719674822
1589988469.7291048,-1.8830142302716688,-0.45252263906856405,7.566610608020699,0.16111111111111112,0.6044444444444445,-0.64,0.966522641746999,0.22773526844768507,1.5929022313328098
1589988469.7391047,0.2431611745250676,-0.6032918565724196,3.6453619973379587,0.16111111111111112,0.6044444444444445,-0.64,-0.13026615145402323,-0.18054437383649438,1.4485051677837124
1589988469.7491047,0.9413230549801338,-2.0813009814242536,10.27146636329677,0.16111111111111112,0.6047176282813189,-0.64,-0.6269607247784189,-0.22278204472164836,1.4208137065320812
1589988469.7591047,0.7,-2.3,10.46,0.16111111111111112,0.6055555555555555,-0.64,-0.2279836335417593,-0.17671458676442586,1.4693490640227262
1589988469.7691047,0.1595517189156444,-2.395451310010601,8.43461456913524,0.16111111111111112,0.6055555555555555,-0.64,0.40610004441717623,0.010239981923012505,1.5768575165562786
1589988469.7791047,1.0464852204056776,-3.6732508080760766,9.84670679720804,0.16111111111111112,0.6055555555555555,-0.64,-0.15532478350550258,-0.15363393702768252,1.712001476776498
1589988469.7891047,3.7761887880322567,-8.18769955978028,8.434412715727142,0.16111111111111112,0.6055555555555555,-0.64,-0.26958121966092696,-0.23257316307850925,1.8720761481329042
1589988469.7991047,6.856583189720992,-14.008938941122576,8.356233502759538,0.16571487436041002,0.6048130130959912,-0.6428216613463446,-0.07101265323357217,-0.1678368361335013,2.186679848234096
1589988469.8091047,-0.4856492885444928,-2.2752208537466085,8.917349755040696,0.1955555555555556,0.6,-0.6611111111111111,0.02921658445479655,-0.15157729595396133,2.780154508604038
1589988469.8191047,-0.4037821326098413,-2.3734614408681907,7.7384627095817144,0.1955555555555556,0.6,-0.6611111111111111,0.0658309021000682,-0.13014452464941206,2.9578679040042597
1589988469.8291047,0.13190595716198128,-2.6342185408299863,8.876398929049532,0.1955555555555556,0.6,-0.6611111111111111,-0.18594576051482922,-0.2664224586204827,3.044983853259328
1589988469.8391047,0.3775560575635877,-2.8096828982597053,9.774776439089692,0.1955555555555556,0.6,-0.6611111111111111,-0.1706336067296054,-0.271781712445311,3.0901547069257393
1589988469.8491046,0.09550601556970983,-2.916798183533852,8.718090351497993,0.2040264344316008,0.5968413671987628,-0.6611111111111111,-0.011594998540485152,-0.19012950226681488,3.1830199054409722
1589988469.8591046,0.19445152158527956,-3.023989148384053,8.833526775182825,0.2580799979030694,0.5766858011585542,-0.6611111111111111,-0.09254460135408892,-0.22700654354856772,3.2315896671291346
1589988469.8691046,0.35620946636856793,-6.41539558744519,8.59923152914262,0.2611111111111111,0.5755555555555556,-0.6611111111111111,-0.15422062340872572,-0.2643057520225831,3.409106883799663
1589988469.8791046,0.27624742196571866,-6.299087159222863,9.100811625851401,0.2611111111111111,0.5755555555555556,-0.6611111111111111,-0.16294312935532335,-0.26906348253890916,3.70329322072582
1589988469.8891046,-0.1509457215453254,-3.12,8.55209291158994,0.2611111111111111,0.5755555555555556,-0.6611111111111111,-0.07115091800356096,-0.285572724676853,4.0941940524596765
1589988469.8991046,-0.11032347049357985,-3.1404282289579983,8.400637745886835,0.270429250635812,0.5713743391021642,-0.6649339375827833,-0.08055647949469606,-0.2721441361393603,4.128794511749087
1589988469.9091046,3.9672375477076196,-8.978896081936325,8.175912362916083,0.3477777777777778,0.5366666666666666,-0.6966666666666667,-0.14384384326077873,-0.3142728331804335,4.1332041052026165
1589988469.9191046,15.321438716846227,-25.081463355717666,5.6362457123532534,0.3477777777777778,0.5366666666666666,-0.6966666666666667,-0.12174001432689358,-0.2929057985443445,4.145729608265151
1589988469.9291046,-0.18172506848754957,-5.035305229586621,7.546746943615324,0.3477777777777778,0.5366666666666666,-0.6966666666666667,-0.4272674498753949,-0.4586442783099748,2.242085615508039
1589988469.9391046,-1.8881193523326654,-0.7393075602077115,9.647584127243734,0.3477777777777778,0.5366666666666666,-0.6966666666666667,-0.3150229828264955,0.016523965530365836,-1.1514387716036842
1589988469.9491045,-3.6085445061857833,-3.0522627909414974,12.941453921157477,0.3540133617576478,0.5320246208149856,-0.6961816768015656,0.784342557597234,0.48457318355959733,-1.4546869224730623
1589988469.9591045,-0.9579237181106339,-1.0084516291992929,8.150012629451881,0.4477777777777778,0.4622222222222222,-0.6888888888888889,0.41260019959671707,0.18942129128485752,-0.4987909856683037
1589988469.9691045,-1.2182098421541316,-3.728376973073352,10.97266295264624,0.4477777777777778,0.4622222222222222,-0.6888888888888889,-0.3592068291608599,-0.058663198165018776,0.06931951091228129
1589988469.9791045,-0.465074333534092,-4.276085206200273,8.996005959362222,0.4477777777777778,0.4622222222222222,-0.6888888888888889,-0.3320168779201224,-0.2779391329210683,0.3338493712839663
1589988469.9891045,-0.4365253681511954,-3.5440557244778317,9.128704465510046,0.4477777777777778,0.4622222222222222,-0.6888888888888889,0.03517468067547422,-0.0035405879830769926,0.8762032629325177
1589988469.9991045,0.6892391270796678,-5.04694601351977,8.402199586381455,0.4444680062968793,0.4622222222222222,-0.6862686531331776,0.06442410169689444,-0.06907453517914582,1.1144811736835125
1589988470.0091045,6.4,-14.27,8.7,0.4211111111111111,0.4622222222222222,-0.6677777777777778,-0.13526301702956053,-0.12544553998709246,1.189005552921137
1589988470.0191045,1.375342669845054,-7.22189958283671,8.910492401668654,0.4211111111111111,0.4622222222222222,-0.6677777777777778,-0.13674438213421716,-0.09359619023697524,0.36684791983671605
1589988470.0291045,-0.5935057601084255,-3.1146498757623675,7.5722148181612825,0.4211111111111111,0.4622222222222222,-0.6677777777777778,0.16884111456914674,0.09718447249948264,-0.26898021817613227
1589988470.0391045,0.822075279971209,-4.714466414039842,8.661914389144103,0.4211111111111111,0.4622222222222222,-0.6677777777777778,0.00018000774709570067,-0.0052161834398945645,0.16329970281364267
1589988470.0491045,-0.05196612642329284,-6.41799835072473,9.185425798471249,0.4211111111111111,0.46169713244596683,-0.6681453406211566,-0.14020799663819558,-0.08423324792331549,0.14051730004761287
1589988470.0591044,0.08895853218793084,-4.2483741648106905,8.721562201718104,0.4211111111111111,0.4511111111111111,-0.6755555555555556,0.02835928656660157,0.00349970537716622,-0.016764712095993894
1589988470.0691044,0.014820235443843463,-4.559755011135858,8.832769646834235,0.4211111111111111,0.4511111111111111,-0.6755555555555556,0.04372503045415996,0.019674172627227676,-0.014338542008484672
1589988470.0791044,-0.05,-4.443741441294962,8.505543692302133,0.4211111111111111,0.4511111111111111,-0.6755555555555556,-0.0049050040816683,-0.006411431676840993,0.0030684283807170015
1589988470.0891044,-0.05,-4.4588961754557115,8.64951366682926,0.4211111111111111,0.4511111111111111,-0.6755555555555556,-0.011517504290907019,-0.001452056519911953,0.0022418658545621615
1589988470.0991044,-0.03154572079401236,-4.547681418808981,8.549274324764074,0.42205571826300753,0.4517980981306721,-0.6749544419134397,-0.013253434269664471,-0.0012594427648218113,0.001760131609179524
1589988470.1091044,-0.04810602617162269,-4.52,8.658106026171623,0.43333333333333335,0.46,-0.6677777777777778,-0.0007354580977272701,-0.003065891852165705,-0.002652690861518379
1589988470.1191044,-0.04183238216502581,-4.505340942679793,8.653664764330053,0.43333333333333335,0.46,-0.6677777777777778,0.006453563347936105,-0.0015820159037206166,0.00019988188709076508
1589988470.1291044,-0.04721237094309922,-4.451150516227603,8.656061854715496,0.43333333333333335,0.46,-0.6677777777777778,0.009083808873695197,0.0006347060446791153,0.001242872361768903
1589988470.1391044,-0.031853356924811886,-4.519073321537594,8.578340106161654,0.43333333333333335,0.46,-0.6677777777777778,-0.0023838314434466894,-0.001878406747312246,0.002181661564992912
1589988470.1491044,-0.04816375337831269,-4.5109181233108435,8.651736890202407,0.43333333333333335,0.46,-0.6677777777777778,-0.00416301969606666,0.0007903756316177102,0.002181661564992912
1589988470.1591043,-0.0355158388918586,-4.53712970925233,8.587354451855811,0.42777777777777776,0.46,-0.6822222222222222,-0.0019565843881736234,-0.0004891460970434058,0.0004011231236353668
1589988470.1691043,-0.057515331283096466,-4.477515331283096,8.617515331283096,0.42777777777777776,0.46,-0.6822222222222222,0.008862163916006865,0.0019106262529224771,0.0016395909408520421
1589988470.1791043,-0.042250286608556405,-4.4622502866085565,8.602250286608555,0.42777777777777776,0.46,-0.6822222222222222,0.009694742947365461,0.0002454681902052877,-0.0016907251845823365
1589988470.1891043,-0.030972004735897337,-4.471944009471795,8.689307947905128,0.42777777777777776,0.46,-0.6822222222222222,0.0006972518036840963,-0.0014089185884912023,-0.0018635737589981656
1589988470.1991043,-0.03898159110873468,-4.487963182217469,8.601202497803918,0.42777777777777776,0.46,-0.6822222222222222,-0.011534692915093046,-0.004030049599657733,0.000757557252168365
1589988470.2091043,-0.05,-4.557086694577759,8.627572245481467,0.4211111111111111,0.4744444444444445,-0.6822222222222222,-0.009552650106351968,-0.003113596185819686,-5.2965387223227284e-05
1589988470.2191043,-0.05,-4.514257122434392,8.591880935361994,0.4211111111111111,0.4744444444444445,-0.6822222222222222,-0.005659332131757116,-0.0007776054010627752,-0.0008316289821421975
1589988470.2291043,-0.05866714161813902,-4.5,8.606001424854417,0.4211111111111111,0.4744444444444445,-0.6822222222222222,0.008872815692665233,-0.003781753949328873,0.0008000461921679805
1589988470.2391043,-0.04325734492805196,-4.491628672464026,8.601628672464026,0.4211111111111111,0.4744444444444445,-0.6822222222222222,0.006342456941664223,-0.0025369827766656894,0.001090830782496456
1589988470.2491043,-0.05642548749822081,-4.522850974996442,8.649276462494662,0.4211111111111111,0.4744444444444445,-0.6822222222222222,0.002766539805396786,-0.00038991882693591596,-0.00070091195556054
1589988470.2591043,-0.052414910501719425,-4.53,8.599319284013756,0.4354385023856411,0.4634882040580392,-0.6771654958900352,-0.004437577725179128,-0.0008274049112715051,-0.001090830782496456
1589988470.2691042,-0.04110458874854389,-4.4866862337543685,8.660058701263106,0.44,0.46,-0.6755555555555556,0.003392984288380459,-0.0009703388416053649,-0.002790524583925004
1589988470.2791042,-0.0477770088237475,-4.459259002941249,8.587409970587508,0.44,0.46,-0.6755555555555556,0.004686644090555722,-0.00016166048028494896,0.001090830782496456
1589988470.2891042,-0.023392884178652536,-4.454241105223316,8.67491067373202,0.44,0.46,-0.6755555555555556,0.0076163275089158305,-0.0019966084398169424,0.0009983042199084712
1589988470.2991042,-0.05514383043149129,-4.493929788039364,8.627284254352762,0.44,0.46,-0.6755555555555556,-0.0027741453548802766,-0.0002648629625175913,0.00013243148125879564
1589988470.3091042,-0.04933418851913067,-4.473329057404347,8.645339319633916,0.4211111111111111,0.4544444444444444,-0.6755555555555556,-0.007563186711608011,-0.0042180655982514605,0.0010182020166292745
1589988470.3191042,-0.04139025298878992,-4.519304873505605,8.57721949402242,0.4211111111111111,0.4544444444444444,-0.6755555555555556,-0.005862545854945349,-0.0021058350272114244,0.00022747961334446197
1589988470.3291042,-0.055595217936126255,-4.512202391031937,8.548809564127748,0.4211111111111111,0.4544444444444444,-0.6755555555555556,0.0011103000080315804,-0.0013310743757695433,0.002551761567670106
1589988470.3391042,-0.05045357137788627,-4.498639285866341,8.593174999645203,0.4211111111111111,0.4544444444444444,-0.6755555555555556,0.0065944616570845025,0.00019790784842306877,0.00024738481052883596
1589988470.3491042,-0.056406057079602064,-4.480781828761193,8.634842399557215,0.4211111111111111,0.4544444444444444,-0.6755555555555556,0.007243777120664664,0.002795169702743711,0.0034939621284296386
1589988470.3591042,-0.03959690620396136,-4.5040051563267305,8.646397937469308,0.4211111111111111,0.4506660937414743,-0.6800895763991197,0.0024426734976028637,0.0006539360015055894,0.002486644209698092
1589988470.3691041,-0.036672532457375256,-4.506654935085249,8.64,0.4211111111111111,0.4488888888888889,-0.6822222222222222,-0.0036393019008558246,0.001092750358017039,0.001090830782496456
1589988470.3791041,-0.048978099560550395,-4.526934298681652,8.532262805273396,0.4211111111111111,0.4488888888888889,-0.6822222222222222,-0.0025160777017923983,0.00022294409119965773,-0.0008678866912967982
1589988470.3891041,-0.05,-4.473769793482754,8.60434530977587,0.4211111111111111,0.4488888888888889,-0.6822222222222222,0.003952102452521535,0.0007667205021893058,-0.001090830782496456
1589988470.399104,-0.034752647526475264,-4.465247352473525,8.655247352473525,0.4211111111111111,0.4488888888888889,-0.6822222222222222,0.004050142480524597,-0.0005723973604729701,-0.001090830782496456
1589988470.409104,-0.04390611268929717,-4.490859169033945,8.680859169033946,0.43965259469684065,0.46124987794604194,-0.6721789186132854,0.00023864919021938198,-0.00033236999317895943,-0.0026077523611314495
1589988470.419104,-0.030338194116149676,-4.529492708825776,8.562198261754974,0.4477777777777778,0.4666666666666667,-0.6677777777777778,-0.00859752686664731,-0.0010723851548786933,-0.001127722037731981
1589988470.429104,-0.03,-4.5224099692577955,8.514459815546772,0.4477777777777778,0.4666666666666667,-0.6677777777777778,-0.005414870590495143,-0.002746718617234708,0.0013930009696109223
1589988470.439104,-0.04022697281604645,-4.49,8.60136183689628,0.4477777777777778,0.4666666666666667,-0.6677777777777778,0.0023054560322595986,-0.0010660718890431187,-0.001090830782496456
1589988470.449104,-0.04813388379896694,-4.49,8.648803302793802,0.4477777777777778,0.4666666666666667,-0.6677777777777778,0.006618006979574086,-0.00020356169958022133,-0.001090830782496456
1589988470.459104,-0.040157465331462146,-4.490236197997193,8.699370138674151,0.4211111111111111,0.4666666666666667,-0.6755555555555556,0.004320381122302095,0.0010822423809597101,0.0021730731634561663
1589988470.469104,-0.059948208411131854,-4.52,8.619533875700187,0.4211111111111111,0.4666666666666667,-0.6755555555555556,-0.0011077795403199872,-5.649585941177075e-06,0.001090830782496456
1589988470.479104,-0.050625055570374326,-4.52,8.535625500133369,0.4211111111111111,0.4666666666666667,-0.6755555555555556,-0.004158774172905267,-0.001022647796802937,0.001090830782496456
1589988470.489104,-0.020159608788671173,-4.51977654769586,8.570351139335077,0.4211111111111111,0.4666666666666667,-0.6755555555555556,0.002185143688589702,0.002181661564992912,-0.0010838665353028766
1589988470.499104,-0.05576849933779332,-4.46992410092709,8.648690698543145,0.4211111111111111,0.4666666666666667,-0.6755555555555556,0.002962009167420293,0.002181661564992912,0.0004698644223583063
1589988470.509104,-0.04220955043778972,-4.50558089912442,8.689263483187403,0.43243314611793754,0.46049101120839775,-0.6879068664720934,0.002262003086093563,0.0001606830422013028,8.03415211006514e-05
1589988470.519104,-0.05234938548349695,-4.491475921774755,8.659126536291257,0.43333333333333335,0.46,-0.6888888888888889,-0.00253321987561676,-0.0006735544915156674,0.0
1589988470.529104,-0.040032120743034055,-4.519935758513932,8.560128482972136,0.43333333333333335,0.46,-0.6888888888888889,-0.00618020649097131,0.00036127437448160477,0.0007260525784890304
1589988470.539104,-0.03622455655034485,-4.521326330348965,8.576021008953104,0.43333333333333335,0.46,-0.6888888888888889,-0.005186997116477512,-0.0002671567960047675,-0.0002671567960047675
1589988470.549104,-0.05248256264531129,-4.51,8.641206406613279,0.43333333333333335,0.46,-0.6888888888888889,-0.00027841405660204016,-0.0004100126035991587,-0.0004100126035991587
1589988470.559104,-0.05402138771449888,-4.498042775428998,8.677935836856504,0.43333333333333335,0.46398574152366745,-0.6849031473652214,0.005442488723810967,0.0,-0.000652165431763611
1589988470.569104,-0.05929021886979102,-4.4807097811302095,8.634258686781255,0.43333333333333335,0.4666666666666667,-0.6822222222222222,0.0035821927897561993,0.0,0.0019493862332927885
1589988470.579104,-0.05248865482660093,-4.5100453806935965,8.569909238612809,0.43333333333333335,0.4666666666666667,-0.6822222222222222,-0.000824310919060575,-0.0032774426132399542,-0.00027642039493705386
1589988470.589104,-0.031946249447984354,-4.529026875276008,8.559026875276007,0.43333333333333335,0.4666666666666667,-0.6822222222222222,-0.0011969822229103593,-0.0023939644458207186,0.0028478865858337548
1589988470.599104,-0.05378333163317352,-4.498288891155769,8.655133326532694,0.43333333333333335,0.4666666666666667,-0.6822222222222222,0.0006387419012227028,-0.002181661564992912,0.0006781333219106297
1589988470.609104,-0.06,-4.462482036187343,8.67082734539578,0.45269782638668443,0.4666666666666667,-0.6883373252917016,0.003091993582394436,-0.003182242964941902,0.0
1589988470.619104,-0.06926278860285404,-4.487788365808562,8.679262788602854,0.4544444444444444,0.4666666666666667,-0.6888888888888889,0.0002412518655642141,-0.001251665359539265,0.0020208269879501027
1589988470.629104,-0.052667321297060865,-4.507332678702939,8.576003927782365,0.4544444444444444,0.4666666666666667,-0.6888888888888889,-0.0056721058416860275,-0.001090830782496456,0.00029095961776423574
1589988470.639104,-0.05,-4.518326850951521,8.584980552854564,0.4544444444444444,0.4666666666666667,-0.6888888888888889,-0.00563666616106083,-0.0001825122485785499,-0.0009083185339179061
1589988470.6491039,-0.05,-4.509021914429371,8.617445213926572,0.4544444444444444,0.4666666666666667,-0.6888888888888889,-0.0018615838104856035,0.0017962850509983383,-0.0016895924661625688
1589988470.6591039,-0.0451319275577977,-4.4951319275577974,8.654604217326607,0.4344312577376127,0.4607168003484194,-0.6753664654383269,0.00215287943677185,0.0006173707118008833,-0.001119612910717518
1589988470.6691039,-0.049213308148589985,-4.49,8.60550684295987,0.4133333333333333,0.4544444444444444,-0.6611111111111111,0.005282524374910846,-0.002181661564992912,0.0020100320274214776
1589988470.6791039,-0.04065048910732007,-4.49934951089268,8.53455342375124,0.4133333333333333,0.4544444444444444,-0.6611111111111111,0.00035478677097168596,-0.0011617881366907932,0.002181661564992912
1589988470.6891038,-0.05873013597151528,-4.528095203957273,8.56746027194303,0.4133333333333333,0.4544444444444444,-0.6611111111111111,-0.003064711331710955,-6.926033859280443e-05,0.0011600911210892604
1589988470.6991038,-0.04558814358297107,-4.522794071791485,8.606029641042571,0.4133333333333333,0.4544444444444444,-0.6611111111111111,-0.003272492347489368,-0.002358134491892135,-0.0012673037093956791
1589988470.7091038,-0.04504581090016058,-4.509908378199679,8.655320676301123,0.42342495513365447,0.4544444444444444,-0.6683995046335652,-0.0005204294212137147,-0.0038229049327444986,0.0005704013612827415
1589988470.7191038,-0.05,-4.481702689069109,8.677801792712739,0.43333333333333335,0.4544444444444444,-0.6755555555555556,0.0008510435649712368,-0.0017020871299424736,0.0019418743474676928
1589988470.7291038,-0.055617007785253816,-4.498085038926269,8.608212914362209,0.43333333333333335,0.4544444444444444,-0.6755555555555556,-0.0012254409995354205,-0.0012254409995354205,0.001090830782496456
1589988470.7391038,-0.04820099598838014,-4.50820099598838,8.56,0.43333333333333335,0.4544444444444444,-0.6755555555555556,-0.002181661564992912,-0.0008945898871255001,0.00044729494356275006
1589988470.7491038,-0.0529418849744053,-4.506470942487202,8.585883769948811,0.43333333333333335,0.4544444444444444,-0.6755555555555556,-0.002887531890673395,0.0,0.0
1589988470.7591038,-0.03621036613769758,-4.494140244091798,8.647579267724606,0.4289278455810551,0.4641365174994565,-0.6922964090142129,-0.0006774458553574151,-0.0008650154973773176,0.0017300309947546352
1589988470.7691038,-0.0500270607826811,-4.49,8.680027060782681,0.42777777777777776,0.4666666666666667,-0.6966666666666667,0.0036410223974460178,-0.00400364870045327,0.0029098660444821156
1589988470.7791038,-0.04256864988558352,-4.481284324942792,8.559264874141876,0.42777777777777776,0.4666666666666667,-0.6966666666666667,0.004503421248218349,-0.0026019559196904882,-0.0005304383095663542
1589988470.7891037,-0.026811898211829437,-4.493188101788171,8.579564305364512,0.42777777777777776,0.4666666666666667,-0.6966666666666667,0.002205425021000873,-0.0014623621953312616,-0.00037153141283480565
1589988470.7991037,-0.031591819633926,-4.511591819633926,8.611591819633926,0.42777777777777776,0.4666666666666667,-0.6966666666666667,-0.002070347637961864,0.000805876269778536,-0.000632235684091664
1589988470.8091037,-0.027479808482855347,-4.513739904241428,8.632520191517145,0.43125560875476243,0.4666666666666667,-0.6966666666666667,-0.0029975820990205846,0.0014987910495102923,-0.00040796026701383635
1589988470.8191037,-0.05482670174284775,-4.501293324564288,8.64,0.43333333333333335,0.4666666666666667,-0.6966666666666667,0.0006675913085511854,-0.0017584220910476414,0.0
1589988470.8291037,-0.020079400088222323,-4.48403176003529,8.584111160123511,0.43333333333333335,0.4666666666666667,-0.6966666666666667,0.002832695552076152,-0.0004397967954132161,0.0017418647695796958
1589988470.8391037,-0.041220500941074274,-4.519025626176343,8.585610250470538,0.43333333333333335,0.4666666666666667,-0.6966666666666667,0.0007182710871281141,-0.0017028141735741696,-0.00037255969536834207
1589988470.8491037,-0.05,-4.523544094813184,8.615823620747264,0.43333333333333335,0.4666666666666667,-0.6966666666666667,-0.0014084600213314369,-0.0014774315543271935,-0.0017950607931621744
1589988470.8591037,-0.05,-4.514933036660309,8.645200890019073,0.42714037814037814,0.46047371147371147,-0.6893477196204468,0.0005819382273648719,0.0005673290929182142,2.9218268893314858e-05
1589988470.8691037,-0.04255791698233582,-4.51,8.66,0.4211111111111111,0.4544444444444444,-0.6822222222222222,0.004084297671645589,-0.0002537544074757499,0.0005580509166804709
1589988470.8791037,-0.045421142578125004,-4.493736572265625,8.616630859375,0.4211111111111111,0.4544444444444444,-0.6822222222222222,0.004954678050037919,-0.001090830782496456,0.0
1589988470.8891037,-0.04571976760866447,-4.488560464782672,8.58856046478267,0.4211111111111111,0.4544444444444444,-0.6822222222222222,0.0012520455886457851,-0.0015577317073671776,0.0004669009248707216
1589988470.8991036,-0.04939513870064155,-4.509395138700642,8.614092708050963,0.4211111111111111,0.4544444444444444,-0.6822222222222222,-0.0028260471549132905,-0.0016692362399687343,0.0005784054574722782
1589988470.9091036,-0.05545415193708968,-4.51545415193709,8.63909169612582,0.4241416764863846,0.4600004809657792,-0.6822222222222222,-0.001090830782496456,-0.00208258098241135,0.0004958750999574467
1589988470.9191036,-0.055454711839590026,-4.49909057632082,8.62818115264164,0.42777777777777776,0.4666666666666667,-0.6822222222222222,-0.001090830782496456,-0.0014874420722075664,0.0004958140240691887
1589988470.9291036,-0.06,-4.497124881809587,8.57437559095207,0.42777777777777776,0.4666666666666667,-0.6822222222222222,-0.0003136267425418933,-0.0015544080799091253,0.0
1589988470.9391036,-0.054169749914354234,-4.5,8.577490750256937,0.42777777777777776,0.4666666666666667,-0.6822222222222222,-0.0012719632526150006,-0.0015456799386854116,0.0
1589988470.9491036,-0.05,-4.508834010942127,8.603251016413191,0.42777777777777776,0.4666666666666667,-0.6822222222222222,-0.0026634821184220547,-0.001090830782496456,0.0009636411068582857
1589988470.9591036,-0.04524410855707939,-4.515244108557079,8.639023565771682,0.43041993969051145,0.4634960723713863,-0.6853928165175026,-0.0006785559554147239,-0.001090830782496456,0.001662874286577983
1589988470.9691036,-0.04,-4.51,8.653455863318664,0.43333333333333335,0.46,-0.6888888888888889,0.0050370798597390055,0.001764587512249638,0.001090830782496456
1589988470.9791036,-0.04,-4.495082311399533,8.605246934198597,0.43333333333333335,0.46,-0.6888888888888889,0.003290449909161424,0.0016452249545807118,0.00027719708604212804
1589988470.9891036,-0.0475511583011583,-4.482448841698842,8.597551158301158,0.43333333333333335,0.46,-0.6888888888888889,0.003005365156833624,0.001090830782496456,0.0
1589988470.9991035,-0.055849400250202366,-4.491698800500405,8.640945801751416,0.43333333333333335,0.46,-0.6888888888888889,8.213942145775992e-05,0.001090830782496456,-0.0006380705852063216
1589988471.0091035,-0.04671100445663352,-4.504429665181122,8.67,0.4308724082327099,0.46295311012074813,-0.6859357787681407,-0.001698460051420833,0.001090830782496456,-0.0006076292689243771
1589988471.0191035,-0.036616705581080065,-4.51,8.650149883256761,0.42777777777777776,0.4666666666666667,-0.6822222222222222,-0.001090830782496456,-0.00035271044281519055,0.0
1589988471.0291035,-0.05034624560522351,-4.499653754394776,8.598615017579107,0.42777777777777776,0.4666666666666667,-0.6822222222222222,-0.002219431101441104,-0.0016551309419687798,0.0005643001594723237
1589988471.0391035,-0.05130130597014925,-4.49,8.586096082089552,0.42777777777777776,0.4666666666666667,-0.6822222222222222,-0.0009002915436695331,-0.000758341082701011,0.0006163906217324889
1589988471.0491035,-0.035560361586314156,-4.485560361586314,8.624439638413685,0.42777777777777776,0.4666666666666667,-0.6822222222222222,0.0007287932915522345,0.00012225193353600445,-0.00048428942448022576
1589988471.0591035,-0.03759367525910178,-4.490124900345469,8.637593675259103,0.42609029438686624,0.4666666666666667,-0.6822222222222222,-0.0013669446066601218,-0.0005386031341691244,-0.0005386031341691244
1589988471.0691035,-0.0559748050389922,-4.52,8.631823635272946,0.4211111111111111,0.4666666666666667,-0.6822222222222222,-0.00042533893738614043,0.0006517501255947631,0.001090830782496456
1589988471.0791035,-0.04453849692610096,-4.5145384969261,8.573615490778304,0.4211111111111111,0.4666666666666667,-0.6822222222222222,0.0033731766993345307,0.0,0.0016865883496672653
1589988471.0891035,-0.04529532990428178,-4.499409340191437,8.570590659808564,0.4211111111111111,0.4666666666666667,-0.6822222222222222,0.004363323129985824,0.0,0.001026399792379998
1589988471.0991035,-0.04609979300577405,-4.486099793005774,8.611201655953808,0.4211111111111111,0.4666666666666667,-0.6822222222222222,0.0035124299605038952,0.0008508931694819288,-0.0004254465847409644
1589988471.1091034,-0.044395152223771196,-4.4843951522237715,8.66,0.4264829638290537,0.4666666666666667,-0.6851523237047363,0.00026391462921396464,0.002181661564992912,-0.001090830782496456
1589988471.1191034,-0.04440759851447727,-4.49,8.643222795543432,0.43333333333333335,0.4666666666666667,-0.6888888888888889,-0.0027916979338416218,0.0009615888272954923,-0.00048079441364774615
1589988471.1291034,-0.046619339272457316,-4.509858017817372,8.5836646250928,0.43333333333333335,0.4666666666666667,-0.6888888888888889,-0.0011063186360341284,0.0,-0.0014441158076368263
1589988471.1391034,-0.043277911488776466,-4.499833734466329,8.620498796601012,0.43333333333333335,0.4666666666666667,-0.6888888888888889,0.0,0.0007332661070708408,1.8136756219610563e-05
1589988471.1491034,-0.05073745869630519,-4.484631270651848,8.655368729348153,0.43333333333333335,0.4666666666666667,-0.6888888888888889,0.0,0.002262105829667854,-8.044426467494151e-05
1589988471.1591034,-0.06,-4.492441931650402,8.66,0.42089140168293177,0.46251935611653283,-0.6888888888888889,0.0,0.0005580839398943841,-0.001090830782496456
1589988471.1691034,-0.045381397294659044,-4.49269069864733,8.65269069864733,0.4133333333333333,0.46,-0.6888888888888889,-0.0007973210914035941,0.0013011324917143266,0.0005038114003107323
1589988471.1791034,-0.054312445502321303,-4.504312445502321,8.571281549737233,0.4133333333333333,0.46,-0.6888888888888889,0.001251037636513799,0.0006204159523194087,-0.0004704148301770473
1589988471.1891034,-0.05361719400944304,-4.497234388018886,8.584679641933898,0.4133333333333333,0.46,-0.6888888888888889,0.002181661564992912,0.0013925122506404648,-0.00039457465717622356
