time,acc_x,acc_y,acc_z,mag_x,mag_y,mag_z,gyr_x,gyr_y,gyr_z
1589988477.243842,-3.8,-0.81,8.78,0.33,-0.3566666666666667,-0.6088888888888889,0.003272492347489368,0.001090830782496456,0.0
1589988477.2538419,-3.82,-0.796626875544998,8.817529843341251,0.33,-0.3566666666666667,-0.6088888888888889,0.0051847016203871304,0.0019122092728977625,-0.0006374030909659209
1589988477.2638419,-3.8163537701465944,-0.8163537701465943,8.82552360897384,0.33,-0.3566666666666667,-0.6088888888888889,0.0004882985125826446,0.0011932259292457387,-0.0007954839528304924
1589988477.2738419,-3.81,-0.8092897088799457,8.873551455600271,0.33,-0.3566666666666667,-0.6088888888888889,-0.004673246097301495,0.0031175308638315326,-0.0019492193395061585
1589988477.2838418,-3.81,-0.8014786469051308,8.930350528335916,0.3290142353965795,-0.3584739017729376,-0.6110247121963001,-0.008726646259971648,0.0012521261385524303,0.001090830782496456
1589988477.2938418,-3.811775893355667,-0.8153276800670017,8.981120533221665,0.3233333333333333,-0.3688888888888889,-0.6233333333333333,-0.008920366173850922,0.0023753814788721856,0.0008971108686171823
1589988477.3038418,-3.8154064593540644,-0.84,8.884877512248774,0.3233333333333333,-0.3688888888888889,-0.6233333333333333,-0.010318554596191604,0.005276802562383366,0.001002155107446999
1589988477.3138418,-3.8136877359860586,-0.84,8.82368773598606,0.3233333333333333,-0.3688888888888889,-0.6233333333333333,-0.009701499045570744,0.008440354663737736,0.0025839311581241837
1589988477.3238418,-3.8218398296168945,-0.8326406815324215,8.82632034076621,0.3233333333333333,-0.3688888888888889,-0.6233333333333333,-0.006230955531015077,0.008613311374073722,0.0030717980694236376
1589988477.3338418,-3.824316615298403,-0.8,8.81,0.3233333333333333,-0.36004806824196006,-0.615439743470004,0.0009299416471907305,0.003272492347489368,0.0024916421140564887
1589988477.3438418,-3.8132805746758445,-0.8065611493516889,8.823122298703378,0.3233333333333333,-0.3377777777777778,-0.5955555555555555,0.003272492347489368,0.003630347531558309,0.003272492347489368
1589988477.3538418,-3.82,-0.8172899922219341,8.828319937775472,0.3233333333333333,-0.3377777777777778,-0.5955555555555555,0.003272492347489368,0.0034764751584501065,0.003568108338001274
1589988477.3638418,-3.82,-0.813699146014417,8.806991460144168,0.3233333333333333,-0.3377777777777778,-0.5955555555555555,0.002061949645046842,0.0006873165483489471,0.003959808895838315
1589988477.3738418,-3.82,-0.82,8.878195997303642,0.3233333333333333,-0.3377777777777778,-0.5955555555555555,0.00022351115380177724,0.00022351115380177724,0.0028254700398858135
1589988477.3838418,-3.8224113320451285,-0.8224113320451286,8.919645328180515,0.3249408880300858,-0.3393853324745303,-0.5987706649490605,-0.00022434682832681257,0.001090830782496456,0.0013538663046611097
1589988477.3938417,-3.8269455391399454,-0.8330544608600545,8.94389107827989,0.33,-0.34444444444444444,-0.6088888888888889,-0.0040301331369780174,0.002756780747535487,0.0018484715719851057
1589988477.4038417,-3.82,-0.8384042860086544,8.919627859056254,0.33,-0.34444444444444444,-0.6088888888888889,-0.0030984269533073663,0.0061098212095237305,0.001090830782496456
1589988477.4138417,-3.82,-0.8233271700225611,8.8,0.33,-0.34444444444444444,-0.6088888888888889,-0.0003649548866546386,-0.0014497348529499043,0.001090830782496456
1589988477.4238417,-3.8192785360316712,-0.827835608095014,8.801442927936659,0.33,-0.34444444444444444,-0.6088888888888889,0.0014056288245424418,-0.006308886163444246,0.0010121312719849596
1589988477.4338417,-3.811772077375946,-0.8,8.816455845248107,0.32881861508270255,-0.343263059527147,-0.6088888888888889,0.005647457567547043,-0.003659099657618894,0.0003866073101295261
1589988477.4438417,-3.818915383724968,-0.8,8.80542308137516,0.3233333333333333,-0.3377777777777778,-0.6088888888888889,0.006190044848978326,-0.005217527348482007,0.002181661564992912
1589988477.4538417,-3.81,-0.7959317970757834,8.821522579530484,0.3233333333333333,-0.3377777777777778,-0.6088888888888889,0.004160036543324875,-0.0028287202495716145,0.0008503452712396514
1589988477.4638417,-3.8137492554321084,-0.7974985108642167,8.809994043456866,0.3233333333333333,-0.3377777777777778,-0.6088888888888889,0.0038182326177679405,-0.002181661564992912,-0.0002728701351392865
1589988477.4738417,-3.8133735231184294,-0.8033735231184297,8.883192669085496,0.3233333333333333,-0.3377777777777778,-0.6088888888888889,0.00036799428630464683,-0.0032659163092806256,0.001090830782496456
1589988477.4838417,-3.8,-0.7936075816286684,8.93,0.32112870011581374,-0.33857946258414856,-0.6088888888888889,-0.0014843568915884758,-0.0050606278033902595,0.001287593837042466
1589988477.4938416,-3.803017520021411,-0.8160350400428221,8.923964959957178,0.3111111111111111,-0.3422222222222222,-0.6088888888888889,-0.0026141716022584555,-0.0026141716022584555,0.0011941804471465433
1589988477.5038416,-3.81229539605376,-0.8277046039462396,8.887046039462396,0.3111111111111111,-0.3422222222222222,-0.6088888888888889,-0.0003396641804576467,-0.001090830782496456,-0.0008404419151501862
1589988477.5138416,-3.82,-0.8169881332449852,8.816023733510029,0.3111111111111111,-0.3422222222222222,-0.6088888888888889,0.002838748958822474,-0.00010519969175211289,0.000657087393829562
1589988477.5238416,-3.8183817229890527,-0.8116182770109472,8.83485483103284,0.3111111111111111,-0.3422222222222222,-0.6088888888888889,0.004539849767800576,0.0016520816515486543,0.001475555013733902
1589988477.5338416,-3.808703219736567,-0.814812878946268,8.858703219736567,0.3135605849420401,-0.3440953492694032,-0.6080243687132669,0.00545415391248228,-0.0015152011313424273,-0.0020402047820442548
1589988477.5438416,-3.803328197819974,-0.7833281978199746,8.845007703270038,0.33,-0.3566666666666667,-0.6022222222222222,0.005635678944095573,-0.004363323129985824,-0.0005462556876565755
1589988477.5538416,-3.819483110580441,-0.7994831105804414,8.820775334129339,0.33,-0.3566666666666667,-0.6022222222222222,0.006516792750478673,-0.004363323129985824,0.002097085731492725
1589988477.5638416,-3.8052100360829066,-0.8,8.758655198455987,0.33,-0.3566666666666667,-0.6022222222222222,-0.0011366535474303927,0.004124982508062163,0.0008066673956388578
1589988477.5738416,-3.8192884115129644,-0.8,8.836086263321306,0.33,-0.3566666666666667,-0.6022222222222222,-0.004208078604760181,0.006428551301059503,3.8811131306410764e-05
1589988477.5838416,-3.829131473757386,-0.8308685262426138,8.900868526242615,0.3271049125246206,-0.35560513459236087,-0.6034767601282199,-0.00545415391248228,0.006260760146723989,0.0030830093153195372
1589988477.5938416,-3.8200197688564477,-0.8399802311435522,8.909980231143553,0.29673256285482563,-0.34446860638010274,-0.6166381116517978,-0.00545415391248228,0.003278961690633736,0.0010951436779260341
1589988477.6038415,-3.816998705751459,-0.8130012942485412,8.893984469017507,0.2966666666666667,-0.34444444444444444,-0.6166666666666667,-0.0001086595364049852,-0.0017456116132241032,0.0015268807342652647
1589988477.6138415,-3.8070786044556537,-0.8170786044556536,8.827528373266079,0.2966666666666667,-0.34444444444444444,-0.6166666666666667,0.0028190112025171126,-0.002316467891203067,-0.0003186748187621004
1589988477.6238415,-3.8,-0.807437294969929,8.867437294969928,0.2966666666666667,-0.34444444444444444,-0.6166666666666667,0.004642870883311828,0.0002795477533260037,-0.001090830782496456
1589988477.6338415,-3.8,-0.8002709814106069,8.860270981410606,0.2966666666666667,-0.34444444444444444,-0.6166666666666667,0.005424594426064849,0.0010612712960790254,-0.001090830782496456
1589988477.6438415,-3.82,-0.8,8.855254228805926,0.33,-0.35,-0.6177777777777778,0.005132451089879356,0.0025033643875958353,-0.00012572231468768573
1589988477.6538415,-3.8136224430699377,-0.8,8.794489772279752,0.33,-0.35,-0.6177777777777778,0.003319797817520488,0.002576808805845811,0.0025295033358146905
1589988477.6638415,-3.802524254257075,-0.80504850851415,8.7500970170283,0.33,-0.35,-0.6177777777777778,-1.0582916089595757e-05,0.001366184207142969,0.0024464320735498295
1589988477.6738415,-3.811429273011385,-0.8192853634943076,8.788575638068307,0.33,-0.35,-0.6177777777777778,-0.003506356597100856,0.002181661564992912,0.0001559094997409921
1589988477.6838415,-3.823913237592083,-0.8130433812039587,8.863479425552496,0.33,-0.35,-0.6177777777777778,-0.005549040524933976,0.002181661564992912,0.0015176987849630729
1589988477.6938415,-3.8211416560194533,-0.8188583439805465,8.92657503194164,0.3240944373463023,-0.3667324275188101,-0.6099036942395143,-0.0017135075470175749,0.002181661564992912,0.0012153661354006797
1589988477.7038414,-3.8115776912988326,-0.8115776912988326,8.93,0.3233333333333333,-0.3688888888888889,-0.6088888888888889,-0.001090830782496456,-0.0005745325122834531,-0.001665363294779909
1589988477.7138414,-3.8229821241509816,-0.81,8.852982124150982,0.3233333333333333,-0.3688888888888889,-0.6088888888888889,0.0001626496410558447,-0.0020190119239370673,0.001090830782496456
1589988477.7238414,-3.8371554083736017,-0.81,8.867155408373602,0.3233333333333333,-0.3688888888888889,-0.6088888888888889,0.0009356823770111189,-0.001245979187981793,0.001090830782496456
1589988477.7338414,-3.8205070209611303,-0.8002535104805653,8.87,0.3233333333333333,-0.3688888888888889,-0.6088888888888889,2.765370358859525e-05,-0.0032171849403121776,0.001090830782496456
1589988477.7438414,-3.811679294975689,-0.8,8.853358589951377,0.3233333333333333,-0.3531720016207455,-0.6033417522060147,-0.0009076481172591561,0.0003581001215472563,0.001090830782496456
1589988477.7538414,-3.8385197152142467,-0.7970394304284937,8.794078860856988,0.3233333333333333,-0.35,-0.6022222222222222,-0.0031110183263732922,0.003433966368605444,-0.00032294804223215195
1589988477.7638414,-3.8306405800912966,-0.7812811601825935,8.762562320365188,0.3233333333333333,-0.35,-0.6022222222222222,-0.002251538013217001,0.004293446681761735,-0.0020419086685447346
1589988477.7738414,-3.827783600265702,-0.8133508007971068,8.846649199202893,0.3233333333333333,-0.35,-0.6022222222222222,0.0008490590768475625,-0.004605094835634717,-0.0003655156655497756
1589988477.7838414,-3.8200444682264374,-0.7901334046793121,8.869866595320687,0.3233333333333333,-0.35,-0.6022222222222222,4.850731024091124e-06,-0.005449303181458189,0.002167109371920638
1589988477.7938414,-3.79,-0.8024799659757353,8.912479965975736,0.3233333333333333,-0.3566666666666667,-0.5955555555555555,0.002181661564992912,-0.006544984694978735,-0.0005497861373212653
1589988477.8038414,-3.79,-0.8079017217544301,8.894820661053162,0.3233333333333333,-0.3566666666666667,-0.5955555555555555,0.002181661564992912,-0.0060872113948766664,0.0015486040825985253
1589988477.8138413,-3.7951791964505794,-0.8,8.815537589351738,0.3233333333333333,-0.3566666666666667,-0.5955555555555555,0.0016166988733040894,-0.0023859537090749447,0.002707529655800545
1589988477.8238413,-3.812187298606124,-0.8,8.857812701393875,0.3233333333333333,-0.3566666666666667,-0.5955555555555555,-0.000954389060028754,0.002318103287460614,0.00037503898747489044
1589988477.8338413,-3.819910327938279,-0.8,8.85008967206172,0.3233333333333333,-0.3566666666666667,-0.5955555555555555,-0.004324196311883795,-0.0010517039643944265,-0.00215231645141639
1589988477.8438413,-3.803232147551924,-0.7832321475519243,8.866767852448074,0.3130863123928426,-0.3566666666666667,-0.6132549553618577,-0.004363323129985824,-0.0001762863021604785,0.0005619718760150206
1589988477.8538413,-3.780496883706235,-0.7897515581468824,8.850496883706235,0.3111111111111111,-0.3566666666666667,-0.6166666666666667,-0.008618243051555135,0.0,0.0021545607628887836
1589988477.8638413,-3.820354392445203,-0.8103543924452034,8.781771962226015,0.3111111111111111,-0.3566666666666667,-0.6166666666666667,-0.013167285827619868,0.006699617570303528,0.005415495693651081
1589988477.8738413,-3.8276622991950378,-0.8176622991950377,8.81831149597519,0.3111111111111111,-0.3566666666666667,-0.6166666666666667,-0.014761623755286482,0.009888293425636758,0.004618326729817774
1589988477.8838413,-3.8119979805629183,-0.8019979805629182,8.848002019437082,0.3111111111111111,-0.3566666666666667,-0.6166666666666667,-0.008398626022776419,0.00796273428260429,0.005345180977439247
1589988477.8938413,-3.8060678167757285,-0.7878643664485425,8.867864366448543,0.31777777777777777,-0.3644444444444445,-0.5955555555555555,-0.009223068359085144,0.00955401642516081,0.0048597452290993215
1589988477.9038413,-3.844126868867415,-0.7278785678377925,8.80825373773483,0.31777777777777777,-0.3644444444444445,-0.5955555555555555,-0.01285855703940608,0.015285766727811866,0.008126911724300944
1589988477.9138412,-3.930029231599918,-0.8918739875998436,8.980058463199835,0.31777777777777777,-0.3644444444444445,-0.5955555555555555,-0.03074768224589337,0.0382860705647241,0.018349268985150824
1589988477.9238412,-3.8032333226939032,-0.8535333546121928,8.89,0.31777777777777777,-0.3644444444444445,-0.5955555555555555,-0.00938661106949033,0.008472130683206593,0.027512576769064382
1589988477.9338412,-3.8199676827322055,-0.8200646345355889,8.89,0.31777777777777777,-0.3644444444444445,-0.5955555555555555,0.009780461738425924,-0.009782224371951743,0.0174726814887273
1589988477.9438412,-3.86009250597651,-0.8133950039843397,8.911743754980424,0.31777777777777777,-0.35,-0.6166666666666667,-0.008726646259971648,0.006735198855956619,-0.001090830782496456
1589988477.9538412,-3.8164972456085646,-0.7843314970723764,8.87541437134047,0.31777777777777777,-0.35,-0.6166666666666667,-0.008726646259971648,0.0027722778575980933,-0.001090830782496456
1589988477.9638412,-3.8220539912596116,-0.8,8.788215965038447,0.31777777777777777,-0.35,-0.6166666666666667,-0.007441207452163963,0.005513049240452437,0.003496548036785675
1589988477.9738412,-3.8297881285611552,-0.8,8.819152514244621,0.31777777777777777,-0.35,-0.6166666666666667,-0.010815861469995008,0.013949684285030049,0.0043402115412434356
1589988477.9838412,-3.809114364999705,-0.8002952116667651,8.871180846667059,0.3183682011113079,-0.35,-0.6164370575925161,-0.010811700032926731,0.009720869250430277,0.011326941590461811
1589988477.9938412,-3.78,-0.8001232820021346,8.902098625601708,0.3377777777777778,-0.35,-0.6088888888888889,-0.0074203389170330245,0.005898555013652233,0.028536732964493168
1589988478.0038412,-3.78,-0.7630846603507357,8.866915339649264,0.3377777777777778,-0.35,-0.6088888888888889,-0.006320661864036812,0.003272492347489368,0.04512211307319391
1589988478.0138412,-3.78,-0.7884482967143721,8.841551703285628,0.3377777777777778,-0.35,-0.6088888888888889,-0.004476166177270077,0.003272492347489368,0.06633381347101136
1589988478.0238411,-3.787655903927824,-0.7706236157112958,8.871172048036087,0.3377777777777778,-0.35,-0.6088888888888889,-0.00403959599328697,-0.001090830782496456,0.09482605092052564
1589988478.0338411,-3.7706104078190723,-0.7024416312762888,8.879694796090465,0.3377777777777778,-0.35,-0.6088888888888889,-0.009617721550791963,-0.001090830782496456,0.11806824074346307
1589988478.0438411,-3.5826650436775025,-0.7661477874838895,8.948812831161392,0.3233333333333333,-0.35,-0.6088888888888889,-0.011158716208802712,-0.000590014014820151,0.16875634901356204
1589988478.053841,-3.5027293185264905,-0.7463646592632455,8.856970549386038,0.3233333333333333,-0.35,-0.6088888888888889,-0.007900184916176207,-0.007503630758124684,0.20550548059936813
1589988478.063841,-3.3689117099217682,-0.6759411399478454,8.812636036259779,0.3233333333333333,-0.35,-0.6088888888888889,-0.012382534540253511,-0.00545415391248228,0.22917031330745385
1589988478.073841,-3.1387655384615383,-0.5251852307692307,8.84561723076923,0.3233333333333333,-0.35,-0.6088888888888889,-0.01644999671223917,-0.0059793637612362656,0.2281519906865286
1589988478.083841,-3.048426769230769,-0.4864686153846154,8.890786615384615,0.3233333333333333,-0.35,-0.6088888888888889,-0.017153884643166077,-0.010202691346797698,0.21196256827520976
1589988478.093841,-2.5851930780323666,-0.7210222720717834,9.006547027719916,0.3297698018479945,-0.35,-0.6045979098791148,-0.016400127821989057,-0.009892809211552542,0.15452428160753034
1589988478.103841,-2.2331638186459943,-0.8907627229189572,8.933446322419544,0.33,-0.35,-0.6044444444444445,0.004514315267070662,0.007719015641326597,0.09760161825757763
1589988478.113841,-1.664064595834804,-1.035935404165196,8.44,0.33,-0.35,-0.6044444444444445,0.06347553179368055,0.06928373403108536,-0.0471769874264753
1589988478.123841,-1.8029965214169565,-0.92,8.485993042833913,0.33,-0.35,-0.6044444444444445,0.06635577783944356,0.07478730276468631,-0.1197336039653571
1589988478.133841,-1.9497620566864953,-0.92,8.77952411337299,0.33,-0.35,-0.6044444444444445,0.016443382103420882,0.02299142039711563,-0.1668207697540577
1589988478.143841,-2.0376616579828806,-0.92,9.042984973948641,0.32350654385311994,-0.35,-0.6087734152090312,-0.01976217369657179,-0.011092210446650787,-0.21577161648563004
1589988478.153841,-2.163394146158807,-0.85,8.873211707682387,0.3233333333333333,-0.35,-0.6088888888888889,0.008118521316864108,0.020210220902083086,-0.26431843514921355
1589988478.163841,-2.198295021946704,-0.85,8.803409956106593,0.3233333333333333,-0.35,-0.6088888888888889,0.02429867491621154,0.03734214824256861,-0.3014376110535989
1589988478.173841,-2.2621867975866556,-0.8829157301155408,8.93,0.3233333333333333,-0.35,-0.6088888888888889,0.009578934430206814,0.029213888515143022,-0.36168869265910536
1589988478.183841,-2.28699633266296,-0.9159951102172799,8.93,0.3233333333333333,-0.35,-0.6088888888888889,0.006872633974140986,0.026507588059077193,-0.4058916001081805
1589988478.193841,-2.271402426578977,-0.91,8.829298786710511,0.31777777777777777,-0.3644444444444445,-0.6088888888888889,0.01659193324982777,0.03848503940388387,-0.46314077514148383
1589988478.203841,-2.291007956421969,-0.9102015912843938,8.817379313302881,0.31777777777777777,-0.3644444444444445,-0.6088888888888889,0.019568983491386274,0.04258638091306174,-0.5159936294286761
1589988478.213841,-2.335983186429046,-0.9191966372858092,8.700443715284479,0.31777777777777777,-0.3644444444444445,-0.6088888888888889,0.016625361570891586,0.04454879552672485,-0.5660352020770857
1589988478.223841,-2.412038806081106,-0.92,8.73326208972977,0.31777777777777777,-0.3644444444444445,-0.6088888888888889,0.019768393630904907,0.04485750162832339,-0.6262236798694406
1589988478.233841,-2.4510149425714602,-0.92,8.795623908114337,0.31777777777777777,-0.3644444444444445,-0.6088888888888889,0.02231937579889261,0.047408483796311095,-0.6695903767252317
1589988478.243841,-2.4595454830713233,-0.9322725846433839,8.899090966142646,0.31777777777777777,-0.35,-0.6088888888888889,0.022014936072715666,0.04829403506402388,-0.7399797744638293
1589988478.253841,-2.452964950265148,-0.9651752486742603,8.885929900530297,0.31777777777777777,-0.35,-0.6088888888888889,0.024886235172797175,0.05260098371414615,-0.777306662764889
1589988478.263841,-2.45,-0.98,8.835301031887656,0.31777777777777777,-0.35,-0.6088888888888889,0.028130299194425827,0.05941744016110002,-0.842883820020192
1589988478.273841,-2.4305607198631667,-1.0285982003420837,8.868878560273666,0.31777777777777777,-0.35,-0.6088888888888889,0.030482096861190845,0.06529693432801255,-0.9059197547218832
1589988478.283841,-2.438550238833487,-1.03,8.89565071650046,0.31777777777777777,-0.35,-0.6088888888888889,0.028677889166447926,0.06544984694978735,-0.951407470508193
1589988478.293841,-2.4108740367023342,-1.0688346177302213,8.890291345567444,0.355533656126604,-0.3446063030930248,-0.6229125008470243,0.02412540070024706,0.06862699668328295,-1.0107337034614796
1589988478.3038409,-2.401662360180872,-1.110474960051678,8.787862679767448,0.3566666666666667,-0.34444444444444444,-0.6233333333333333,0.030543261909900768,0.07648768003595849,-1.0691408735193721
1589988478.3138409,-2.451572433957774,-1.1247349811307925,8.723692584911433,0.3566666666666667,-0.34444444444444444,-0.6233333333333333,0.030543261909900768,0.08037649752399514,-1.1056957579069167
1589988478.3238409,-2.440662067343499,-1.1713241346869976,8.740882756458,0.3566666666666667,-0.34444444444444444,-0.6233333333333333,0.031634092692397225,0.08186045558312581,-1.1693389997633201
1589988478.3338408,-2.4653237818980047,-1.2206475637960095,8.773765042530673,0.3566666666666667,-0.34444444444444444,-0.6233333333333333,0.031634092692397225,0.0836539060754722,-1.2087949105949407
1589988478.3438408,-2.45,-1.220024331480642,8.85012165740321,0.3644444444444445,-0.3244444444444444,-0.6311111111111111,0.034914547498307046,0.0839939702522271,-1.2665660128962717
1589988478.3538408,-2.450356881932299,-1.2302745245633067,8.899807832805685,0.3644444444444445,-0.3244444444444444,-0.6311111111111111,0.038188061182702154,0.08402092163820567,-1.312377236887151
1589988478.3638408,-2.5710721955323343,-1.3231324581017956,8.834807279328743,0.3644444444444445,-0.3244444444444444,-0.6311111111111111,0.04122682995178596,0.09313722794545712,-1.3488424621161565
1589988478.3738408,-2.5708982049960163,-1.3755089750199183,8.866407180015933,0.3644444444444445,-0.3244444444444444,-0.6311111111111111,0.04443012518476068,0.09976855819448592,-1.3902605603617484
1589988478.3838408,-2.5620767583525645,-1.411692966589742,8.87,0.3644444444444445,-0.3244444444444444,-0.6311111111111111,0.049045520025444975,0.10294930675552812,-1.4243319456321026
1589988478.3938408,-2.5490387348154937,-1.4432042172816868,8.876154939261976,0.4033333333333333,-0.3055555555555556,-0.6166666666666667,0.047926649252950634,0.10359397174871661,-1.4739148021427437
1589988478.4038408,-2.5201987164794866,-1.5393376117350448,8.760794865917946,0.4033333333333333,-0.3055555555555556,-0.6166666666666667,0.04582934393503871,0.10254531908976064,-1.5127149505241146
1589988478.4138408,-2.5626180196034296,-1.548523603920686,8.691811168634512,0.4033333333333333,-0.3055555555555556,-0.6166666666666667,0.04581489286485115,0.10625721736846352,-1.539016162019161
1589988478.4238408,-2.57,-1.5694543723040726,8.686484790768024,0.4033333333333333,-0.3055555555555556,-0.6166666666666667,0.04369275004850826,0.10902355950099557,-1.5647469853959144
1589988478.4338408,-2.57,-1.6112811214548604,8.733793570036804,0.4033333333333333,-0.3055555555555556,-0.6166666666666667,0.04322484872124122,0.10949146082826261,-1.5967239268237623
1589988478.4438407,-2.57656568251892,-1.6628284125945996,8.81909114267028,0.4208418200504531,-0.2880470688384358,-0.6407408359027064,0.046498050739752925,0.11051548796959293,-1.627596730541588
1589988478.4538407,-2.5985476457971606,-1.7263691144929016,8.85927382289858,0.43,-0.2788888888888889,-0.6533333333333333,0.049008171578763256,0.11531120841031528,-1.6606041989523221
1589988478.4638407,-2.6065675729180415,-1.7234324270819585,8.781189124983502,0.43,-0.2788888888888889,-0.6533333333333333,0.05338585163551432,0.11706088508568227,-1.6781871560762363
1589988478.4738407,-2.6016527130558407,-1.7784310086091146,8.815125582497433,0.43,-0.2788888888888889,-0.6533333333333333,0.054721822152417283,0.11689917675471527,-1.708277535857168
1589988478.4838407,-2.584672092881645,-1.874303489150953,8.845327907118355,0.43,-0.2788888888888889,-0.6533333333333333,0.055377546770620206,0.11671889372712077,-1.7284884737895865
1589988478.4938407,-2.58,-1.89046374631823,8.84046374631823,0.4808600196361053,-0.24604179287390415,-0.6607504195302654,0.06083358944020406,0.11775913763369776,-1.748933771985523
1589988478.5038407,-2.58,-1.9449072733852,8.7576390899222,0.4833333333333333,-0.24444444444444444,-0.6611111111111111,0.05609531182050782,0.12180269410905221,-1.766662695921914
1589988478.5138407,-2.5365172837819374,-1.9934827162180626,8.671731110807487,0.4833333333333333,-0.24444444444444444,-0.6611111111111111,0.05373507849303042,0.12217304763960307,-1.7777231554981994
1589988478.5238407,-2.4955917349483436,-2.008602066262914,8.694408265051656,0.4833333333333333,-0.24444444444444444,-0.6611111111111111,0.05251236847506024,0.1249880672414014,-1.7922817643934452
1589988478.5338407,-2.5085768259801817,-2.040961376633636,8.724769101306908,0.4833333333333333,-0.24444444444444444,-0.6611111111111111,0.05100893265181241,0.12341912262506624,-1.8004958892927487
1589988478.5438406,-2.5020682044925477,-2.113795386522357,8.775863591014906,0.49063887965118425,-0.2225278054908916,-0.6737297820237627,0.05474234538399445,0.12412910309209915,-1.8042341142491383
1589988478.5538406,-2.4798248294485505,-2.1601751705514496,8.78982482944855,0.4955555555555556,-0.20777777777777776,-0.6822222222222222,0.05947893986051308,0.12711044837529334,-1.8036791447864045
1589988478.5638406,-2.458956884561892,-2.2031293463143253,8.741349095966621,0.4955555555555556,-0.20777777777777776,-0.6822222222222222,0.058677289768891416,0.12691110679639922,-1.8019386664411867
1589988478.5738406,-2.4587202988076426,-2.2736014940382128,8.771042091653497,0.4955555555555556,-0.20777777777777776,-0.6822222222222222,0.05957691180139881,0.12259182887550935,-1.8000103848644546
1589988478.5838406,-2.423205676821608,-2.3094354585427133,8.794717729271357,0.4955555555555556,-0.20777777777777776,-0.6822222222222222,0.05678478260977605,0.12377850285336756,-1.8006735187260348
1589988478.5938406,-2.372359283335976,-2.357640716664024,8.81505628666561,0.5248316685164632,-0.16762768000281872,-0.6872409844440921,0.05563236990731925,0.12353351615634908,-1.8017828149498956
1589988478.6038406,-2.3371876239587466,-2.3776041253470845,8.812395874652916,0.5344444444444445,-0.15444444444444444,-0.6888888888888889,0.05563236990731925,0.12492284122261181,-1.8037114154846576
1589988478.6138406,-2.304958989663419,-2.4488627784255983,8.697315453485386,0.5344444444444445,-0.15444444444444444,-0.6888888888888889,0.05494948228482038,0.12954286572208565,-1.806282777116635
1589988478.6238406,-2.2972920494140006,-2.5264602470700033,8.666460247070003,0.5344444444444445,-0.15444444444444444,-0.6888888888888889,0.0545415391248228,0.13039964628841574,-1.8106883633839383
1589988478.6338406,-2.294895678889687,-2.54,8.720834568882502,0.5344444444444445,-0.15444444444444444,-0.6888888888888889,0.05732551442026069,0.13203604335342858,-1.8129835198447886
1589988478.6438406,-2.264593601845129,-2.5357656003075215,8.713421603382736,0.5405607995558024,-0.13562489025565094,-0.6950052440002468,0.058609988978320336,0.1304769754231048,-1.8177468021155654
1589988478.6538405,-2.190750655443632,-2.61634855802401,8.744198426935283,0.5488888888888889,-0.11,-0.7033333333333334,0.050729185636930255,0.12544553998709246,-1.829628540469161
1589988478.6638405,-2.1716104942517442,-2.656779011496512,8.677715436769185,0.5488888888888889,-0.11,-0.7033333333333334,0.06098437566850753,0.13276676488319522,-1.836080649371614
1589988478.6738405,-2.1235308922982643,-2.66,8.644510297432756,0.5488888888888889,-0.11,-0.7033333333333334,0.06157852094758791,0.13755151512147717,-1.8420280310356518
1589988478.6838405,-2.0767468942467366,-2.706554348054569,8.759711180711749,0.5488888888888889,-0.11,-0.7033333333333334,0.05020447040902061,0.13563362846750834,-1.849307784238094
1589988478.6938405,-2.044685273508803,-2.7529720897367955,8.797027910263203,0.5437839800584899,-0.06490663866480861,-0.7092890603021322,0.05057108336109379,0.13751334126348644,-1.8589129787118268
1589988478.7038405,-2.0022058627285264,-2.7902353098171786,8.737088207819937,0.5422222222222223,-0.05111111111111112,-0.7111111111111111,0.051535337393157486,0.1418336700437395,-1.857659154272264
1589988478.7138405,-1.996180174426727,-2.8061801744267267,8.66437843015946,0.5422222222222223,-0.05111111111111112,-0.7111111111111111,0.04924658942557213,0.14087637515527443,-1.8599647540619035
1589988478.7238405,-1.9591478307605028,-2.837234779492998,8.664043474366247,0.5422222222222223,-0.05111111111111112,-0.7111111111111111,0.0487392678254807,0.13962634015954636,-1.8575918653476304
1589988478.7338405,-1.9201235850256497,-2.883127358290584,8.68,0.5422222222222223,-0.05111111111111112,-0.7111111111111111,0.04908738521234052,0.14323997437616215,-1.8475531657499171
1589988478.7438405,-1.8726574831396183,-2.8875524943798725,8.68,0.5588188963823919,-0.03036526841089907,-0.7470705717914786,0.047729572982767275,0.1437226818424554,-1.833999336811998
1589988478.7538404,-1.8809510284267084,-2.9480922625387582,8.661429382943975,0.5688888888888889,-0.017777777777777778,-0.7688888888888888,0.04623047695619208,0.1422235858158802,-1.8160779510232608
1589988478.7638404,-1.8726612135528682,-2.9945564644078555,8.627217677960724,0.5688888888888889,-0.017777777777777778,-0.7688888888888888,0.04183862755650071,0.14479020070580212,-1.7976627077811602
1589988478.7738404,-1.8321593083410106,-3.027442420806463,8.631362766635958,0.5688888888888889,-0.017777777777777778,-0.7688888888888888,0.0370882466048795,0.15091884676482467,-1.7739080753920908
1589988478.7838404,-1.8038815094216918,-3.074029622644577,8.675970377355423,0.5688888888888889,-0.017777777777777778,-0.7688888888888888,0.03840693753164432,0.14962320740743745,-1.7445810449763972
1589988478.7938404,-1.7669278918377567,-3.0756426306125855,8.674357369387414,0.5761511712012463,-0.01608324523822771,-0.7720358778909104,0.03798416262311916,0.14299628988916413,-1.719039884187494
1589988478.8038404,-1.706905601806124,-3.1123775927755046,8.676905601806123,0.6022222222222222,-0.01,-0.7833333333333333,0.025881487970367795,0.1408344579543558,-1.6765821315829026
1589988478.8138404,-1.6614941932807963,-3.1014941932807965,8.631494193280796,0.6022222222222222,-0.01,-0.7833333333333333,0.020638011672988735,0.1382847449800368,-1.6365470457771851
1589988478.8238404,-1.65,-3.1515859232175503,8.592006398537476,0.6022222222222222,-0.01,-0.7833333333333333,0.017802777153640745,0.14219986323964084,-1.6079763068842272
1589988478.8338404,-1.6405763433232843,-3.2188473133534314,8.63596559673701,0.6022222222222222,-0.01,-0.7833333333333333,0.010194692865462977,0.1332589370673929,-1.5746236165682062
1589988478.8438404,-1.6252891979238075,-3.2588432083047696,8.719421604152386,0.6132140937333377,-0.005289197923807659,-0.7869972905037051,0.006355705096464662,0.12307459882358546,-1.532337507023127
1589988478.8538404,-1.507632224861441,-3.055264449722882,8.41063895486936,0.6255555555555555,0.0,-0.7911111111111111,-0.007600965895469073,0.10202152515323287,-1.4862389333748458
1589988478.8638403,-1.5037319619679266,-3.1621580869970725,8.68154641311951,0.6255555555555555,0.0,-0.7911111111111111,-0.015166671097798854,0.10563890277555538,-1.4196986429369258
1589988478.8738403,-1.4400722335245846,-3.1560577868196678,8.110613984958968,0.6255555555555555,0.0,-0.7911111111111111,0.0651599777508361,0.1258676892807049,-1.3524624326524792
1589988478.8838403,-1.4941160694330626,-3.251174104149594,8.403225433956642,0.6255555555555555,0.0,-0.7911111111111111,0.017711392688699076,0.10151203161174796,-1.322953486203566
1589988478.8938403,-1.4703868660598178,-3.31226520733998,8.914308987140586,0.5886004350687922,-0.06187834128016183,-0.801424167991138,0.007219917525255495,0.07471288532947161,-1.2720172474698221
1589988478.9038403,-1.431355772748654,-3.334858969668461,8.631974424641545,0.5777777777777777,-0.08,-0.8044444444444444,0.02788715670503566,0.09029875894623068,-1.2185562365467644
1589988478.9138403,-1.4325273431448489,-3.3437363284275756,8.64549217660728,0.5777777777777777,-0.08,-0.8044444444444444,0.01167572544688135,0.07889966375543002,-1.1687714953055879
1589988478.9238403,-1.44,-3.380856233276694,8.715797347708053,0.5777777777777777,-0.08,-0.8044444444444444,0.010551834696456706,0.07245326989358464,-1.1171718287230463
1589988478.9338403,-1.429806098746314,-3.4337857695919345,8.663204065830875,0.5777777777777777,-0.08,-0.8044444444444444,0.02222957905056121,0.07559568201037337,-1.0711857648995808
1589988478.9438403,-1.4093089671500443,-3.4820730985498667,8.657601361349512,0.5723262964059057,-0.07516277005031075,-0.7939253888395646,0.026366209677074,0.07154255170209738,-1.0292477515019045
1589988478.9538403,-1.3795745457865425,-3.469149091573085,8.73446818223318,0.4988888888888889,-0.01,-0.6522222222222223,0.021422032288270124,0.06433581123966178,-0.9483962477259307
1589988478.9638402,-1.3307590900868307,-3.389062726121563,8.610580906295224,0.4988888888888889,-0.01,-0.6522222222222223,0.01943047264529041,0.05497499537800682,-0.8876734650030216
1589988478.9738402,-1.3275785020778592,-3.4303140083114365,8.60591938279197,0.4988888888888889,-0.01,-0.6522222222222223,0.015966245066463474,0.051484281609428854,-0.8381835708723002
1589988478.9838402,-1.3463320451383523,-3.516332045138352,8.664324315968464,0.4988888888888889,-0.01,-0.6522222222222223,0.02003506589212551,0.05294109189606559,-0.7835365845332336
1589988478.9938402,-1.3560104438642298,-3.558031331592689,8.88417232375979,0.5060046417174354,0.03002610966057441,-0.64021438932405,0.027711658870846,0.05498100437218364,-0.723859357780622
1589988479.0038402,-1.3258148747657181,-3.5424701823138522,8.834014738456295,0.5166666666666667,0.09,-0.6222222222222222,0.05136444103514844,0.06899737028218031,-0.662671336525191
1589988479.0138402,-1.2728428201811126,-3.4771070504527812,8.929548835705045,0.5166666666666667,0.09,-0.6222222222222222,-0.01303802086708472,0.007524509813866639,-0.6270726481473292
1589988479.0238402,-1.2831562087186261,-3.4584058784676355,8.826683619550858,0.5166666666666667,0.09,-0.6222222222222222,0.0023730252742604624,0.009429201805554406,-0.5708927744825602
1589988479.0338402,-1.2335017946877243,-3.4167147984822073,8.456931391652137,0.5166666666666667,0.09,-0.6222222222222222,0.02731014731191799,0.03128360834806727,-0.5113594103451263
1589988479.0438402,-1.2983440630593852,-3.562594290738938,8.725188581477877,0.5282674022199193,0.1390800350329917,-0.6106214866689696,-0.0009613753440310437,0.006674440133444148,-0.45910328140326345
1589988479.0538402,-1.32,-3.6,8.8,0.5311111111111111,0.1511111111111111,-0.6077777777777778,-0.006544984694978735,0.001090830782496456,-0.4505131131710362
1589988479.0638402,-1.2849404182879378,-3.6070119163424126,8.617690175097277,0.5311111111111111,0.1511111111111111,-0.6077777777777778,0.001103829495614726,0.011034289230267957,-0.3679059199126269
1589988479.0738401,-1.27,-3.61,8.5891787239335,0.5311111111111111,0.1511111111111111,-0.6077777777777778,0.011739602192687697,0.010577635187776463,-0.3018571307628476
1589988479.0838401,-1.2664692455368616,-3.6241230178525536,8.644715281241968,0.5311111111111111,0.1511111111111111,-0.6077777777777778,0.01674760730282966,0.006865524346709551,-0.2636530399628239
1589988479.0938401,-1.2601289435097425,-3.6494842259610296,8.689097395431801,0.5311111111111111,0.1511111111111111,-0.6077777777777778,0.017439226964980264,0.005482285022408344,-0.22976367651744434
1589988479.10384,-1.289839392430279,-3.6599196962151392,8.704397721613546,0.5311111111111111,0.19,-0.5955555555555555,0.02400703699896972,-0.0005497952832720714,-0.15688691743044053
1589988479.11384,-1.2645940552899606,-3.639188110579921,8.602970276449803,0.5311111111111111,0.19,-0.5955555555555555,0.02214062254832601,-0.0022702249621334475,-0.1094934718718278
1589988479.12384,-1.2637519382776747,-3.626248061722325,8.598759691388375,0.5311111111111111,0.19,-0.5955555555555555,0.01717931622454755,-0.0036817653242208113,-0.0734864780721831
1589988479.13384,-1.27,-3.63066395136414,8.64599592704621,0.5311111111111111,0.19,-0.5955555555555555,0.012217526909128794,-0.006108208091643178,-0.03730885635823216
1589988479.14384,-1.2663191193217767,-3.667361761356447,8.682638238643552,0.5343830050473097,0.19204493371012415,-0.6004633964598535,0.009014433452367588,-0.01090830782496456,0.0035464767968447324
1589988479.15384,-1.26,-3.664311439984284,8.650389299980354,0.54,0.1955555555555556,-0.6088888888888889,0.0072079763725205375,-0.011763986034873868,0.04162461259850213
1589988479.16384,-1.2644279464404082,-3.66656767864245,8.602288214238365,0.54,0.1955555555555556,-0.6088888888888889,0.0046129285828015315,-0.014055997446046074,0.07521873335949411
1589988479.17384,-1.2568820057966965,-3.6562733526556555,8.593117994203304,0.54,0.1955555555555556,-0.6088888888888889,0.0026586452943786936,-0.018610517060650852,0.10641628134066153
1589988479.18384,-1.2601836439651468,-3.63027546594772,8.62513773297386,0.54,0.1955555555555556,-0.6088888888888889,0.003272492347489368,-0.020155328914909218,0.14415993910620367
1589988479.19384,-1.274242119150118,-3.665757880849882,8.680305165949175,0.5585531716273974,0.21346896264407722,-0.6172058278942739,0.003900579714789178,-0.022477991458341774,0.18200449497826604
1589988479.20384,-1.279776666776305,-3.699330000328915,8.719776666776305,0.5722222222222222,0.22666666666666666,-0.6233333333333333,0.003296854223005439,-0.025113469872934557,0.21554598117500903
1589988479.21384,-1.2743816508484325,-3.648003666954271,8.663622016105839,0.5722222222222222,0.22666666666666666,-0.6233333333333333,0.0013298127636775534,-0.02442420161557971,0.25521197144948776
1589988479.22384,-1.2612629586225548,-3.5932092310466057,8.627577751735329,0.5722222222222222,0.22666666666666666,-0.6233333333333333,-0.004300093688613317,-0.030003500784405134,0.31098392804737796
1589988479.23384,-1.2561618206355047,-3.6730636322741588,8.643098188361346,0.5722222222222222,0.22666666666666666,-0.6233333333333333,-0.005623133874208718,-0.03180307265412366,0.3536675655339906
1589988479.24384,-1.252925843814102,-3.712925843814102,8.62908314858173,0.5855071172533824,0.22666666666666666,-0.6287191015892091,-0.006797469428030305,-0.03121491966767478,0.39409485599731875
1589988479.25384,-1.2701948486663612,-3.7203896973327226,8.640974243331806,0.6133333333333333,0.22666666666666666,-0.64,-0.013111224082276999,-0.03633268649345583,0.43391684981807466
1589988479.26384,-1.2781832317298911,-3.651816768270109,8.596366463459782,0.6133333333333333,0.22666666666666666,-0.64,-0.014597484231508093,-0.03926990816987242,0.4784393988845009
1589988479.27384,-1.2804757153432682,-3.6104757153432683,8.608761144549229,0.6133333333333333,0.22666666666666666,-0.64,-0.017027338705747568,-0.038843954355676696,0.5052211436399834
1589988479.28384,-1.2486527382292563,-3.5894308323952058,8.578861664790411,0.6133333333333333,0.22666666666666666,-0.64,-0.017391205965572344,-0.03920782161550147,0.526182031344822
1589988479.29384,-1.257976463453922,-3.614047073092156,8.7,0.6612705692104581,0.22833115402351128,-0.6506527190838055,-0.021056885260527958,-0.04548807153658514,0.556968783600066
1589988479.30384,-1.3039532024588538,-3.5418596073765616,8.703953202458854,0.7733333333333333,0.23222222222222225,-0.6755555555555556,-0.015043255158765619,-0.045802130815244306,0.5780892665246943
1589988479.31384,-1.3303690025152026,-3.593456334171734,8.643960648221848,0.7733333333333333,0.23222222222222225,-0.6755555555555556,-0.017790068160615336,-0.04942416085301255,0.6038882138031335
1589988479.32384,-1.3493167068043594,-3.598633413608719,8.506832931956406,0.7733333333333333,0.23222222222222225,-0.6755555555555556,-0.01662333677539315,-0.04818289374266285,0.620374509571826
1589988479.33384,-1.3339711952035453,-3.5520576095929095,8.71588478081418,0.7733333333333333,0.23222222222222225,-0.6755555555555556,-0.025731038003453784,-0.05258432794806046,0.6524627054244702
1589988479.34384,-1.325799112653034,-3.5021309670747574,8.711598225306068,1.1015316186854365,0.24747502715044498,-0.9117110525476939,-0.03300882986195834,-0.052301764447789084,0.6758501802514764
1589988479.3538399,-1.361175895128155,-3.522548316267745,8.674313789430204,1.4666666666666666,0.2644444444444444,-1.1744444444444444,-0.031976383862086864,-0.0509696309322107,0.6986876571634103
1589988479.3638399,-1.4098788610254347,-3.5502422779491303,8.630484555898262,1.4666666666666666,0.2644444444444444,-1.1744444444444444,-0.029964810988048575,-0.050165001782595385,0.7133504749037158
1589988479.3738399,-1.427794289867948,-3.5338971449339738,8.586102855066025,1.4666666666666666,0.2644444444444444,-1.1744444444444444,-0.03059936064597916,-0.05126904677733343,0.7198922177115825
1589988479.3838398,-1.431063829787234,-3.519148936170213,8.61872340425532,1.4666666666666666,0.2644444444444444,-1.1744444444444444,-0.026945841244220965,-0.052243831731904736,0.7232208087951503
1589988479.3938398,-1.4129551222531722,-3.4670448777468277,8.69817951098731,1.299538085903917,0.09764421059871384,-1.0884175521854258,-0.024245815788034503,-0.05486389295680287,0.7206419781393096
1589988479.4038398,-1.4305001009625091,-3.4626250252406274,8.672625025240627,0.9011111111111112,-0.3,-0.8833333333333333,-0.019348608251205567,-0.05477333240612732,0.7107716666966802
1589988479.4138398,-1.4650032474020782,-3.4800064948041567,8.644977268185452,0.9011111111111112,-0.3,-0.8833333333333333,-0.019635662558166244,-0.052905647187693125,0.6943098964562291
1589988479.4238398,-1.4752197083244118,-3.4847802916755883,8.620439416648823,0.9011111111111112,-0.3,-0.8833333333333333,-0.01958702116424839,-0.05402009019391847,0.6780653504266052
1589988479.4338398,-1.488425395723678,-3.4547238128289663,8.63421269786184,0.9011111111111112,-0.3,-0.8833333333333333,-0.016705987100419383,-0.053622471023812616,0.6594885886602256
1589988479.4438398,-1.5109316565226956,-3.417813668695461,8.66404964434993,0.844266497193094,-0.21886281603154817,-0.8471374039581856,-0.01656571766018083,-0.05164440231351181,0.6416158355473991
1589988479.4538398,-1.5493776123780891,-3.4101244775243824,8.748630747231795,0.6443475267450481,0.0664916118729274,-0.7198385723481052,-0.02495332408209343,-0.049128120386938035,0.6231631014191915
1589988479.4638398,-1.5493332751549,-3.3906667248451,8.66486674229863,0.6411111111111111,0.07111111111111111,-0.7177777777777777,-0.024245534730800926,-0.04933464272821941,0.5914121051092016
1589988479.4738398,-1.6225386159350728,-3.317461384064927,8.569699799284406,0.6411111111111111,0.07111111111111111,-0.7177777777777777,-0.021051349164154704,-0.046140457161573195,0.5714484453176628
1589988479.4838398,-1.4497287009884838,-3.560271299011516,8.624050453459693,0.6411111111111111,0.07111111111111111,-0.7177777777777777,-0.018828815879799194,-0.04506794292231867,0.5448551787913286
1589988479.4938397,-1.4008564270871768,-3.609143572912823,8.452997494805118,0.6411111111111111,0.07111111111111111,-0.7177777777777777,-0.004612447671227513,-0.04151385087017575,0.5421896097522214
1589988479.5038397,-1.5371541488029077,-3.5531620176785053,8.80047424972212,0.6166666666666667,0.14888888888888888,-0.7233333333333334,-0.02076027328046454,-0.04193877630623917,0.4781374274585568
1589988479.5138397,-1.5343057915057916,-3.3594617760617758,8.52045250965251,0.6166666666666667,0.14888888888888888,-0.7233333333333334,-0.00025952506879317215,-0.030156964615033685,0.4487270988790461
1589988479.5238397,-1.5420508006234945,-3.4086833994615278,8.79043060082188,0.6166666666666667,0.14888888888888888,-0.7233333333333334,-0.018270739344285747,-0.03984708857823882,0.3802967940145168
1589988479.5338397,-1.3822387707553012,-3.5581095349042973,8.589137641195034,0.6166666666666667,0.14888888888888888,-0.7233333333333334,-0.004419397629466501,-0.03221658545636575,0.3344128726998039
1589988479.5438397,-1.2933013476759465,-3.7332533691898666,8.633589218592428,0.6140616352073126,0.14405097332151698,-0.7404521114948033,0.0036221462324511782,-0.016367695378398217,0.235446738867839
1589988479.5538397,-1.3058221369161869,-3.6328624440179142,8.68319129878439,0.6088888888888889,0.13444444444444445,-0.7744444444444445,0.0006350966168085573,-0.011783903666116225,0.09489571773851256
1589988479.5638397,-1.33,-3.540162470062787,8.60513539171899,0.6088888888888889,0.13444444444444445,-0.7744444444444445,0.003814953949642222,-0.0027418459017180103,-0.042146592778581654
1589988479.5738397,-1.2602000608372137,-3.4096625874534943,8.737049863116269,0.6088888888888889,0.13444444444444445,-0.7744444444444445,0.009597942785027198,0.009993364795988077,-0.18415399297425683
1589988479.5838397,-1.1971217712177122,-3.2954981549815496,8.80051660516605,0.6088888888888889,0.13444444444444445,-0.7744444444444445,0.030309799971211485,0.03558684482675707,-0.33779527404834897
1589988479.5938396,-1.2621245929126494,-3.4217731273981875,8.752571824718666,0.5715229097475253,0.1024866991261729,-0.7203621062135234,0.02967374178046811,0.04163454144771305,-0.5193730857463548
1589988479.6038396,-1.29,-3.55,8.97,0.5244444444444445,0.06222222222222223,-0.6522222222222223,0.001090830782496456,0.02399827721492203,-0.6185010536754905
1589988479.6138396,-6.4891443677604235,-9.63796868063123,4.067130403196512,0.5244444444444445,0.06222222222222223,-0.6522222222222223,-0.18969295038961645,0.4055658395591479,-0.8176251094343625
1589988479.6238396,-1.6479702111538694,-4.088696588439375,1.9586716647059998,0.5244444444444445,0.06222222222222223,-0.6522222222222223,-1.2024265582313705,1.6483500388932835,-4.445315028922316
1589988479.6338396,-1.3822838238649329,-1.4400809947524527,-0.3058156513803331,0.5244444444444445,0.06222222222222223,-0.6522222222222223,-0.44567542922164866,-2.02697190447959,-7.786851240627523
1589988479.6438396,0.180730093543235,-2.1179186630161992,0.25240360483686963,0.5244444444444445,0.06222222222222223,-0.6522222222222223,-0.5570213031533516,-0.9778849985293254,-7.577207837365488
1589988479.6538396,-0.2844250604421408,-1.5316697684935556,-0.04965961073521994,0.5433333333333333,0.21333333333333332,-0.6377777777777778,-0.4681927000005971,-0.370196563006372,-7.108118833906281
1589988479.6638396,0.09493173081940415,-1.1741989459586384,-0.07884090237072339,0.5433333333333333,0.21333333333333332,-0.6377777777777778,-0.4721716813992237,-0.3121034345864223,-6.874950523946757
1589988479.6738396,1.1081867622183017,-4.848354462612997,8.503516433547354,0.5433333333333333,0.21333333333333332,-0.6377777777777778,-0.0947588286409079,0.2860357950464751,-6.396414550318537
1589988479.6838396,-0.4557403735971912,-0.736370432346896,-1.253863111369796,0.5433333333333333,0.21333333333333332,-0.6377777777777778,1.1992893100745463,1.9279373884134146,-5.924565486233866
1589988479.6938396,3.3152698446878954,2.072480956098086,13.811237382573818,0.511645985303222,0.27441737772872865,-0.6400684294426051,1.8637986544450613,2.913647924809327,-5.338980374597897
1589988479.7038395,-1.6246081173002795,-0.5444231980449954,2.5936772226841005,0.4511111111111111,0.3911111111111111,-0.6444444444444445,0.7178746304487482,2.0243903299599704,-4.696857427591106
1589988479.7138395,-0.6884126392071189,-0.21578479955951052,6.157264702225538,0.4511111111111111,0.3911111111111111,-0.6444444444444445,0.06573024166896266,0.5107054041364418,-4.195351580714953
1589988479.7238395,0.27415726273148144,0.14181893807870372,9.029304108796296,0.4511111111111111,0.3911111111111111,-0.6444444444444445,0.29837614965778025,-0.4264628747241789,-3.9095043829070657
1589988479.7338395,0.07519342927149114,-1.2302429513062085,4.318734858681022,0.4511111111111111,0.3911111111111111,-0.6444444444444445,0.01726574657114261,-0.8661265679289581,-3.5965231100506965
1589988479.7438395,0.9638066576587643,-1.687981410965074,8.367491299185193,0.4393927854890881,0.4024897751209015,-0.6403685050976539,0.17741764401977025,-0.192401682975028,-3.374940844903115
1589988479.7538395,1.4411253071253072,-1.5941675675675675,8.856734152334152,0.3744444444444445,0.4655555555555556,-0.6177777777777778,0.15195178100697376,1.0045992601192415,-2.932644151211293
1589988479.7638395,0.9681746643410538,-2.9119758244432727,12.213827931691883,0.3744444444444445,0.4655555555555556,-0.6177777777777778,-0.3598121685473319,0.8941946955818096,-2.750968774247743
1589988479.7738395,0.6667193392848617,-1.9513734663674989,7.386442449992838,0.3744444444444445,0.4655555555555556,-0.6177777777777778,-0.022936556777936407,0.02381017959777508,-2.5347388105880206
1589988479.7838395,1.31,-3.12,12.79,0.3744444444444445,0.4655555555555556,-0.6177777777777778,0.13962634015954636,0.13199052468207118,-2.4183718447946427
1589988479.7938395,0.664635215468065,-2.2520956345949843,8.821377474430054,0.3744444444444445,0.4655555555555556,-0.6177777777777778,0.12991621915393772,0.35613248456153757,-2.2435896666936865
1589988479.8038394,0.5853687267372898,-2.4871749355801875,9.190481001267946,0.31555555555555553,0.5011111111111111,-0.6088888888888889,0.007169482975587468,-0.1409829965300879,-2.072483676509195
1589988479.8138394,0.47385925804736395,-2.1783794838234694,7.998187451429506,0.31555555555555553,0.5011111111111111,-0.6088888888888889,-0.004058636500116779,0.16779028905177887,-1.8600850830937896
1589988479.8238394,0.6562416698793854,-2.880225257476455,9.874521121330616,0.31555555555555553,0.5011111111111111,-0.6088888888888889,0.05901210094769599,0.16206181618786927,-1.6023421653473209
1589988479.8338394,0.5235874825034993,-2.290787042591482,7.652287342531493,0.31555555555555553,0.5011111111111111,-0.6088888888888889,0.03783603608131074,0.08727451132114701,-1.4204598431307012
1589988479.8438394,0.7078323995896788,-2.8549711986112207,9.255925195297088,0.3079768887486081,0.510773911289969,-0.6113519556011469,0.0484032596651708,0.09362543882622092,-1.252049942832524
1589988479.8538394,0.6002692732581077,-2.490911386412057,8.023086285804466,0.27120317034465224,0.5576604022550129,-0.6233034140824324,0.018618685928916322,0.09272287598572836,-1.0868809430223856
1589988479.8638394,0.6463520169055369,-2.8536053784147652,9.436224202866443,0.27111111111111114,0.5577777777777778,-0.6233333333333333,-0.001200770850454053,0.04809487587377841,-0.8616928526003356
1589988479.8738394,0.6892392508393121,-2.9679713355714994,9.950871010071747,0.27111111111111114,0.5577777777777778,-0.6233333333333333,0.038564536857971315,0.05121372353718433,-0.729921538821436
1589988479.8838394,0.6992281317279324,-2.7676843951837973,8.723925683757276,0.27111111111111114,0.5577777777777778,-0.6233333333333333,0.019030974275710554,0.039789690211977695,-0.5038209984414498
1589988479.8938394,0.5988940275895064,-2.466682082768519,7.8476745076150225,0.27111111111111114,0.5577777777777778,-0.6233333333333333,0.02559782603541456,0.02227808551943368,-0.3907252181354364
1589988479.9038393,5.11446992142213,-10.1996878354588,4.881584868392804,0.21333333333333332,0.5722222222222222,-0.6322222222222222,-0.16390794578716628,-0.11974684025832719,0.17758845983364466
1589988479.9138393,-0.5280150302238197,0.30539454337526545,8.760259761476883,0.21333333333333332,0.5722222222222222,-0.6322222222222222,-0.6695252382578967,-0.48556298001930837,1.8445939621454845
1589988479.9238393,-1.2578168003575545,-1.6522984639269835,11.540665945284749,0.21333333333333332,0.5722222222222222,-0.6322222222222222,0.14905876376355987,-0.02188925901153546,3.083504958588151
1589988479.9338393,-2.273206106870229,-2.181915336571825,10.68791811242193,0.21333333333333332,0.5722222222222222,-0.6322222222222222,0.773698038085675,0.09437843706297408,3.0685334860115154
1589988479.9438393,-1.2840559537894078,-2.7670707773679446,10.905065070638178,0.2134359462113655,0.5738640282707371,-0.6341718669048337,0.3785550246607074,0.07104596297259524,3.0094086201273904
1589988479.9538393,0.7097310656064839,-2.6408648266969577,10.570922850213368,0.21444444444444444,0.59,-0.6533333333333333,-0.584703517326972,-0.4574711152743142,2.828176203371776
1589988479.9638393,0.16610374865824457,-2.6449686235653536,9.096674097927504,0.21444444444444444,0.59,-0.6533333333333333,-0.2844416923674866,-0.30790360616817647,2.885686125345422
1589988479.9738393,-0.39925035437793044,-2.7508995747464833,8.044748119070984,0.21444444444444444,0.59,-0.6533333333333333,0.19447344512018136,-0.0732165002705453,2.9721484284178543
1589988479.9838393,0.15,-3.283881313616286,10.455525254465144,0.21444444444444444,0.59,-0.6533333333333333,-0.08104097822099036,-0.2078033455351295,3.0207006332272295
1589988479.9938393,0.10060125717409127,-2.8638251571467617,8.565355971576935,0.23342636877106676,0.5808520846618688,-0.6592794783031186,-0.24362504838078705,-0.3034517431399211,3.068598328489939
1589988480.0038393,-0.08352216620757758,-2.9404064237825476,7.9774138558287,0.30666666666666664,0.5455555555555556,-0.6822222222222222,-0.02075265736838913,-0.1906482052825123,3.1549875748418703
1589988480.0138392,-0.06633576275446093,-3.1445036441316914,8.614350339281227,0.30666666666666664,0.5455555555555556,-0.6822222222222222,-0.0775657721652764,-0.2116129473952964,3.1870911808544937
1589988480.0238392,-0.013630309122895194,-3.065445463684343,8.245412163860268,0.30666666666666664,0.5455555555555556,-0.6822222222222222,-0.17338699087652892,-0.2585653445638101,3.2139211220936437
1589988480.0338392,-0.026546970313135423,-3.434442659617731,8.281795445302969,0.30666666666666664,0.5455555555555556,-0.6822222222222222,-0.06686360179414566,-0.21686991327521887,3.2622248750236524
1589988480.0438392,-0.18048409848679148,-4.155278917671199,8.943548345729674,0.31409200364765893,0.5408303411131059,-0.6814121854606594,-0.12773162642758337,-0.23748559778223705,3.1833830970833907
1589988480.0538392,-1.63,0.0,8.68,0.36777777777777776,0.5066666666666667,-0.6755555555555556,-0.34143003492139073,-0.2825251726665821,2.515455784436828
1589988480.0638392,-1.1474805974520428,0.7309452335627471,10.557525992092547,0.36777777777777776,0.5066666666666667,-0.6755555555555556,0.1536488428791588,0.002014898153523237,0.8285396502890603
1589988480.0738392,-0.526458812861826,1.121536816163307,8.743630931622143,0.36777777777777776,0.5066666666666667,-0.6755555555555556,0.765945407548811,0.32803395017618153,-0.9679459088687958
1589988480.0838392,-1.3148074851374536,-1.5406122571120775,3.763235646171647,0.36777777777777776,0.5066666666666667,-0.6755555555555556,0.6400011442938709,0.21386911973892359,-0.8333005328608749
1589988480.0938392,-4.128317987873344,-6.964565461486638,14.109373456097014,0.3720335853482047,0.5034488609426854,-0.6748289542630437,-0.2697232825490737,-0.2060366963161984,-0.7165641198924873
1589988480.1038392,-1.810211377059372,-7.059962698165993,8.984003730183401,0.4133333333333333,0.4722222222222222,-0.6677777777777778,-0.6609895399577211,0.0845988947520635,-0.410362605827355
1589988480.1138391,-0.33655436747315925,-1.999136305233128,9.31057884535813,0.4133333333333333,0.4722222222222222,-0.6677777777777778,0.12761584640249513,-0.03371218008957977,0.7843571242332386
1589988480.1238391,0.4703687109386147,-3.4519982306441026,8.508222082703119,0.4133333333333333,0.4722222222222222,-0.6677777777777778,0.24322304481519705,0.08942393605597959,1.2430218645421132
1589988480.1338391,5.59886401343684,-10.512984781139263,8.72316810388972,0.4133333333333333,0.4722222222222222,-0.6677777777777778,-0.20483199527340443,-0.16858897997618064,1.1938930316261127
1589988480.1438391,-0.8859005033666733,-8.598532065110806,7.848188206837942,0.4133333333333333,0.4713120219650912,-0.6668675775206467,-0.2608175545227683,-0.24864552454888494,0.6468686084147461
1589988480.153839,-3.2,-3.34,10.24,0.4133333333333333,0.4655555555555556,-0.6611111111111111,-0.0545415391248228,0.08290313946973066,-0.6086835766330224
1589988480.163839,-1.3158593215564767,-3.144317733692809,8.367041165345459,0.4133333333333333,0.4655555555555556,-0.6611111111111111,0.19733682369350958,0.09327101396830607,-0.3311904650535037
1589988480.173839,0.36818151808372357,-5.406535930182178,8.334807196352308,0.4133333333333333,0.4655555555555556,-0.6611111111111111,0.136552573509089,0.05053977073128306,0.10382692985046879
1589988480.183839,0.24093270036302708,-5.668582798101089,8.919470818207206,0.4133333333333333,0.4655555555555556,-0.6611111111111111,-0.19795304077649456,-0.08342753633989754,0.11869509163313748
1589988480.193839,0.05061723510326818,-4.860061525678564,8.745555511592942,0.4133333333333333,0.4655555555555556,-0.6611111111111111,-0.022402364243924944,-0.006935498144374483,-0.0014881419626923548
1589988480.203839,-0.029293606196370264,-4.6538634292657,8.501898207912522,0.4133333333333333,0.4577777777777778,-0.6966666666666667,0.02417649290544835,0.007879034543851167,-0.010137751719400486
1589988480.213839,-0.021331156503910702,-4.359252790644695,8.748734148378768,0.4133333333333333,0.4577777777777778,-0.6966666666666667,0.0015937113110510888,-0.0016752192076245967,-0.001452066490786155
1589988480.223839,0.02628988720717247,-4.59,8.622285018798804,0.4133333333333333,0.4577777777777778,-0.6966666666666667,0.0024630712992993334,0.0033662955922581753,0.0025247216941936316
1589988480.233839,-0.022033121123416103,-4.587966878876584,8.58323821416143,0.4133333333333333,0.4577777777777778,-0.6966666666666667,-0.006305140813895556,-0.000221779110596606,0.000221779110596606
1589988480.243839,-0.030620460421026712,-4.568211252000492,8.422957035577989,0.414229553941483,0.45701943726318955,-0.6953568057778324,-0.0010231490498387908,-0.0010231490498387908,0.0010231490498387908
1589988480.253839,-0.03922627108211252,-4.404700849439862,8.741372030038162,0.4266601693408292,0.4465012242329735,-0.6771889832710958,-8.440073209393354e-05,-8.440073209393354e-05,8.440073209393354e-05
1589988480.263839,-0.02,-4.4817210119465924,8.597210119465917,0.42777777777777776,0.4455555555555555,-0.6755555555555556,0.0052308517291082685,-0.0018061950033156355,0.0009030975016578178
1589988480.273839,-0.02,-4.513047911719514,8.640050286352842,0.42777777777777776,0.4455555555555555,-0.6755555555555556,-0.001928876501693342,-0.00033521828767875444,0.00016760914383937722
1589988480.283839,-0.01779221805253802,-4.6267533083152275,8.44318171044835,0.42777777777777776,0.4455555555555555,-0.6755555555555556,-0.007508311298711335,-0.002181661564992912,0.001090830782496456
1589988480.293839,-0.0012237803673711238,-4.527342682204226,8.617150306142603,0.42777777777777776,0.4455555555555555,-0.6755555555555556,-0.014737656036653089,-0.002181661564992912,0.001090830782496456
1589988480.303839,-0.027764832582729587,-4.562549441942433,8.616705502251811,0.4211111111111111,0.4566666666666666,-0.6755555555555556,-0.0005219199171784003,-0.0020191156034734675,-8.127298075972225e-05
1589988480.313839,-0.003126297239083607,-4.4804209907969454,8.690621108282748,0.4211111111111111,0.4566666666666666,-0.6755555555555556,0.005749257066799315,-0.00022735075090840563,-0.0009771554070422532
1589988480.323839,-0.0013095059318215948,-4.556944486159082,8.506984031636382,0.4211111111111111,0.4566666666666666,-0.6755555555555556,0.005311308974453009,0.001138445761839546,0.003129647409460098
1589988480.333839,-0.027863194046937607,-4.494985880557146,8.652877313489792,0.4211111111111111,0.4566666666666666,-0.6755555555555556,0.0019485721940106983,0.0019485721940106983,-7.769645699407118e-05
1589988480.343839,-0.003854607899255867,-4.551005914901736,8.57284869299752,0.4211111111111111,0.4566666666666666,-0.6755555555555556,-0.0006703582874002263,-0.0006703582874002263,-0.000950673284131046
1589988480.353839,-0.020908729698856016,-4.542726189096568,8.664547621806864,0.43333333333333335,0.4455555555555555,-0.6611111111111111,-0.001586899367904385,-0.0008925767168002803,0.004065942031441561
1589988480.363839,-0.02785259010314057,-4.563557770309422,8.622884459381156,0.43333333333333335,0.4455555555555555,-0.6611111111111111,0.002957846639106742,0.0006223386188700954,0.001793569027935997
1589988480.373839,-0.010650934675431389,-4.520650934675431,8.523905608052589,0.43333333333333335,0.4455555555555555,-0.6611111111111111,0.002846456598676429,0.0009488188662254763,0.0019686436905864426
1589988480.383839,-0.01795120506460331,-4.534097589870794,8.58614638480619,0.43333333333333335,0.4455555555555555,-0.6611111111111111,-0.0036077256348724003,-0.001090830782496456,-0.0009790863533687786
1589988480.393839,-0.0024230868905260813,-4.565153826218948,8.632730739328423,0.43333333333333335,0.4455555555555555,-0.6611111111111111,-0.006148508029651315,-0.001090830782496456,-0.0001321588884424735
1589988480.4038389,-0.002019706897414095,-4.587475366378232,8.534039413794828,0.4211111111111111,0.4511111111111111,-0.6611111111111111,-0.006159431965297787,5.507896138299267e-05,-0.0009806728597304705
1589988480.4138389,-0.03812435135390131,-4.539062175676951,8.600621756769506,0.4211111111111111,0.4511111111111111,-0.6611111111111111,0.0013977330745432936,0.001090830782496456,0.0009885300184808434
1589988480.4238389,-0.018296133291417795,-4.529148066645709,8.51851933354291,0.4211111111111111,0.4511111111111111,-0.6611111111111111,0.004363323129985824,0.0009978992697468364,0.0
1589988480.4338388,-0.0007994013721793552,-4.520799401372179,8.611598802744359,0.4211111111111111,0.4511111111111111,-0.6611111111111111,0.004014518480248566,-8.720116243431465e-05,-8.720116243431465e-05
1589988480.4438388,-0.008951429515461313,-4.528951429515462,8.627902859030923,0.4211111111111111,0.4511111111111111,-0.6611111111111111,0.0004575251848608101,-0.0009764494862812534,-0.0009764494862812534
1589988480.4538388,-0.028714675960813865,-4.578072013941221,8.581285324039186,0.42777777777777776,0.4633333333333333,-0.6755555555555556,-0.0006001059228970354,0.003062181693375331,0.001090830782496456
1589988480.4638388,-0.01,-4.548609046239133,8.6,0.42777777777777776,0.4633333333333333,-0.6755555555555556,0.0062415256591021855,-0.00010115301195884988,0.001040254276517031
1589988480.4738388,-0.01,-4.522186594431145,8.6,0.42777777777777776,0.4633333333333333,-0.6755555555555556,0.0004770409028657177,-0.0020226479307043394,7.950681714428628e-05
1589988480.4838388,-7.660759885475509e-05,-4.52,8.6,0.42777777777777776,0.4633333333333333,-0.6755555555555556,-0.004329896759184261,-0.005429084134381108,0.0021649483795921306
1589988480.4938388,-0.011953673273152601,-4.549884183182882,8.605976836636575,0.42777777777777776,0.4633333333333333,-0.6755555555555556,-0.006971210084037829,-0.0034982386969432764,0.0015296898264799109
1589988480.5038388,-0.008993076162215627,-4.564496538081108,8.593489614243323,0.41982833278382237,0.4633333333333333,-0.6755555555555556,-0.006325307991401803,-0.002181661564992912,0.001691165349638917
1589988480.5138388,-0.02,-4.568459525973882,8.624865086579607,0.4133333333333333,0.4633333333333333,-0.6755555555555556,0.002517740862458064,0.00016803964873257602,0.001034817566252264
1589988480.5238388,-0.02,-4.540561381726271,8.531871272420902,0.4133333333333333,0.4633333333333333,-0.6755555555555556,0.008604171766422171,0.0032112551007146294,2.0412415591579414e-05
1589988480.5338387,-0.02,-4.5112420114754865,8.635445957923217,0.4133333333333333,0.4633333333333333,-0.6755555555555556,0.004543966376609065,0.0011811524058080764,0.0010456699708406457
1589988480.5438387,-0.0032689103632122622,-4.535096634455182,8.614903365544818,0.4133333333333333,0.4633333333333333,-0.6755555555555556,-0.00019937377014305358,-0.0007342479775550952,0.001090830782496456
1589988480.5538387,-0.0070418026353835355,-4.561125407906151,8.617041802635383,0.4188102909386316,0.45472668566786456,-0.6904215833413653,-0.005699679829861072,0.0012135937411858523,0.001090830782496456
1589988480.5638387,-0.00024574929441729195,-4.539754250705583,8.559631376058375,0.4211111111111111,0.4511111111111111,-0.6966666666666667,-0.001090830782496456,0.0010774272377400977,-0.0032188781684639347
1589988480.5738387,-0.014681971501342329,-4.525318028498657,8.537977042747986,0.4211111111111111,0.4511111111111111,-0.6966666666666667,-0.001090830782496456,0.00029005345942646006,-6.938305520938449e-05
1589988480.5838387,-0.010631586392248392,-4.529368413607751,8.558105240823256,0.4211111111111111,0.4511111111111111,-0.6966666666666667,0.000953040006802371,-0.002043870789298827,6.889538784704248e-05
1589988480.5938387,-0.01,-4.538028028228144,8.608168169368865,0.4211111111111111,0.4511111111111111,-0.6966666666666667,-0.004163501405909635,-0.002181661564992912,0.0
1589988480.6038387,-0.01953285192119105,-4.559065703842382,8.629532851921192,0.4327623745703446,0.4564071399562172,-0.6765417570552633,-0.006494026744543847,-0.0011417887329313442,0.0
1589988480.6138387,-0.00013971221251998442,-4.55006985610626,8.620069856106259,0.43333333333333335,0.4566666666666666,-0.6755555555555556,-0.0043785633681965724,-7.620119105374284e-06,-0.0010832106633910817
1589988480.6238387,0.0,-4.559711401729724,8.552020187891928,0.43333333333333335,0.4566666666666666,-0.6755555555555556,0.0041114736283925915,0.001059349594797302,-3.148118769915405e-05
1589988480.6338387,0.0,-4.540819884556485,8.578770173165273,0.43333333333333335,0.4566666666666666,-0.6755555555555556,0.006455549163748022,0.001090830782496456,0.0
1589988480.6438386,0.0,-4.54,8.635270538327081,0.43333333333333335,0.4566666666666666,-0.6755555555555556,0.0013772014459218366,0.001090830782496456,0.0017225944163522997
1589988480.6538386,-0.029531771154213845,-4.530702343268679,8.657892970193963,0.4211111111111111,0.4566666666666666,-0.6822222222222222,-0.0022327374088165442,0.0,-0.004235633520426743
1589988480.6638386,-0.01171060738034034,-4.557434088929489,8.577697733211531,0.4211111111111111,0.4566666666666666,-0.6822222222222222,-0.004176724811261738,0.0,0.0006243349856862408
1589988480.6738386,-0.018004264212281774,-4.551995735787718,8.505965886301746,0.4211111111111111,0.4566666666666666,-0.6822222222222222,-0.0034901933505866534,-0.0008731297793991708,0.0019639605618956267
1589988480.6838386,-0.038041426032874276,-4.504896434917814,8.55314499111506,0.4211111111111111,0.4566666666666666,-0.6822222222222222,0.0016475433717086782,-0.00010682363865684684,-0.0007703598665259152
1589988480.6938386,-0.017282081608515673,-4.53786319731914,8.613008476246797,0.4211111111111111,0.4566666666666666,-0.6822222222222222,-0.0011225257277635522,0.000826046823189116,0.0005612628638817761
1589988480.7038386,-0.004431685773350874,-4.54443168577335,8.6411366284533,0.42482332059554384,0.4566666666666666,-0.6785100127377894,-0.0033964792780012748,-0.00012398693051190687,-0.0007313957870160887
1589988480.7138386,0.0,-4.5618499861171715,8.628150013882829,0.42777777777777776,0.4566666666666666,-0.6755555555555556,-0.005157811045110171,0.000498145047752239,0.0002018021803801306
1589988480.7238386,0.0,-4.576372848115058,8.556271518849423,0.42777777777777776,0.4566666666666666,-0.6755555555555556,-0.004063814133266379,-0.00029950899671944546,0.0017860006721044067
1589988480.7338386,0.0,-4.543921665229708,8.565097918462865,0.42777777777777776,0.4566666666666666,-0.6755555555555556,0.0026308113748076253,-0.00010694682878029061,0.0011977776112767466
1589988480.7438385,0.0,-4.533794028586222,8.61344179989645,0.42777777777777776,0.4566666666666666,-0.6755555555555556,0.0039494588128336314,0.0006769664653442634,0.0017677972478407195
1589988480.7538385,-0.013305614863093231,-4.53,8.653305614863093,0.42777777777777776,0.4662762774011229,-0.6799907605099199,0.0036376144163506006,0.0018165394961316792,0.0014559528513576887
1589988480.7638385,-0.002072130791374721,-4.538963934604313,8.642072130791375,0.42777777777777776,0.4711111111111111,-0.6822222222222222,-0.0025943891317122816,-0.001729592754474854,0.001090830782496456
1589988480.7738385,-0.019539793983498182,-4.54,8.512991339107261,0.42777777777777776,0.4711111111111111,-0.6822222222222222,-0.003272492347489368,0.0010155297491329174,2.5100344454512778e-05
1589988480.7838385,-0.028871525526304412,-4.54,8.545486102105219,0.42777777777777776,0.4711111111111111,-0.6822222222222222,-0.0013370257211301824,-0.0018123691570423224,0.0019354666263591853
1589988480.7938385,-0.0009787805745445875,-4.554510609712727,8.600787133994547,0.42777777777777776,0.4711111111111111,-0.6822222222222222,0.0004920311922470876,-0.0013902305776211403,0.0013902305776211403
1589988480.8038385,-0.03359807273857631,-4.525121541809138,8.646158843643146,0.40936970262149003,0.4711111111111111,-0.6948172210133665,-0.0008114940095338883,-0.002041993178511628,0.002041993178511628
1589988480.8138385,-0.02245721441491582,-4.546314178377626,8.614914428829831,0.4066666666666667,0.4711111111111111,-0.6966666666666667,-0.00491807288788544,0.0016455805403960727,-0.0016455805403960727
1589988480.8238385,-0.02,-4.565090182836435,8.527003994399605,0.4066666666666667,0.4711111111111111,-0.6966666666666667,-0.003808070317333926,0.0005355779698445577,-0.0005355779698445577
1589988480.8338385,-0.028394854586129753,-4.57839485458613,8.525184563758389,0.4066666666666667,0.4711111111111111,-0.6966666666666667,-0.0005252826083498034,0.0,0.0
1589988480.8438385,-0.008569229858521283,-4.565712819905681,8.587148720377275,0.4066666666666667,0.4711111111111111,-0.6966666666666667,0.004675468752586183,0.0007792447920976971,0.0007792447920976971
1589988480.8538384,0.0,-4.544214821413178,8.633677767880233,0.411928392862274,0.450941160694616,-0.6800045337139099,0.0039621408885222986,0.00022988284701097692,-0.0006310650884745021
1589988480.8638384,-0.008905614739334055,-4.531094385260666,8.657811229478668,0.4133333333333333,0.4455555555555555,-0.6755555555555556,0.00035813673907344676,0.0009714518694719738,-0.00011937891302448214
1589988480.8738384,-0.0037050089355803112,-4.53629499106442,8.578165116162543,0.4133333333333333,0.4455555555555555,-0.6755555555555556,-0.002060031008582738,-0.0002825232232253692,0.0
1589988480.8838384,-0.007087517934002869,-4.547087517934003,8.586700143472022,0.4133333333333333,0.4455555555555555,-0.6755555555555556,-0.004818748894270571,-0.001090830782496456,0.0
1589988480.8938384,-0.004171161700587658,-4.555828838299412,8.598342323401175,0.4133333333333333,0.4455555555555555,-0.6755555555555556,-0.0035466710395242965,-0.00045500315817712824,0.0019074828729579833
1589988480.9038384,0.0,-4.553892159900837,8.608323520297489,0.42215576903212476,0.4489488000550907,-0.6796274489549977,-0.0015153995655195576,-0.001998785998420063,0.0019399683485426592
1589988480.9138384,-0.008541678282687483,-4.532916643434625,8.611458321717311,0.42777777777777776,0.4511111111111111,-0.6822222222222222,-0.0038860884639775476,-0.0014089872265019734,-0.0017044268989846359
1589988480.9238384,-0.01,-4.53874949355323,8.513755570914464,0.42777777777777776,0.4511111111111111,-0.6822222222222222,-0.0015000580602503757,0.0017724342872389922,-0.00027281818516927984
1589988480.9338384,-0.002533420147720105,-4.54,8.52986631940912,0.42777777777777776,0.4511111111111111,-0.6822222222222222,-0.0002763532682129809,0.0013671840507094369,-0.000814477514283475
1589988480.9438384,-0.006485464221313278,-4.5464854642213135,8.585398249549192,0.42777777777777776,0.4511111111111111,-0.6822222222222222,0.0014149088022775863,0.0025057395847740424,-0.001798285183635249
1589988480.9538383,-0.01,-4.544569510103334,8.631721959586663,0.43441504320703583,0.4480941722796301,-0.6822222222222222,0.004551159782320485,0.0009029941301617948,0.00018783665233466137
1589988480.9638383,-0.01,-4.524303342705404,8.65,0.44,0.4455555555555555,-0.6822222222222222,0.003120505303130287,0.0006214089134277685,-0.001242817826855537
1589988480.9738383,0.007622617780787462,-4.537622617780787,8.553075602205668,0.44,0.4455555555555555,-0.6822222222222222,-0.0026241619208701747,0.002051995479669073,0.0016629972236975573
1589988480.9838383,-0.02386578255401852,-4.548466445638504,8.573865782554018,0.44,0.4455555555555555,-0.6822222222222222,-0.003272492347489368,0.0003345696608301695,0.0003345696608301695
1589988480.9938383,-0.010122602482136141,-4.543374200827379,8.613128995863107,0.44,0.4455555555555555,-0.6822222222222222,-0.003272492347489368,0.0,0.0021682877088404547
1589988481.0038383,-0.0052969739775310665,-4.54,8.635296973977532,0.4364686840149793,0.45144108219725665,-0.67103972160299,-0.0021168718937346525,0.0,0.001539061666857295
1589988481.0138383,-0.015122063222171198,-4.537438968388915,8.611828652278058,0.43333333333333335,0.4566666666666666,-0.6611111111111111,-0.001090830782496456,-0.0002793652116318664,0.0
1589988481.0238383,-0.025533243145967006,-4.532233378427017,8.55456716269718,0.43333333333333335,0.4566666666666666,-0.6611111111111111,-0.001090830782496456,-0.0008472069887811453,0.0
1589988481.0338383,-0.02182708605881349,-4.532724304647062,8.538172913941187,0.43333333333333335,0.4566666666666666,-0.6611111111111111,-0.0016851818564791675,-0.0007936552455051003,0.0
1589988481.0438383,-0.007512883226210111,-4.5374957055912635,8.55248711677379,0.43333333333333335,0.4566666666666666,-0.6611111111111111,-0.0027261400615926166,-0.0002731761429483759,0.0
1589988481.0538383,-0.0031277857994852156,-4.54,8.597533429593822,0.4270777617343629,0.4587518571996568,-0.66979940499857,-0.0015665498319224875,0.0006823770062267523,0.0
1589988481.0638382,-0.009710590746437315,-4.54,8.676527088957247,0.41391215184045865,0.4631403938309582,-0.6880849742956592,0.0020238133037301627,0.0021185222604878126,0.0
