time,acc_x,acc_y,acc_z,mag_x,mag_y,mag_z,gyr_x,gyr_y,gyr_z
1589988486.618977,-3.82,-0.8,8.82,0.3088888888888889,-0.35,-0.6022222222222222,-0.01308996938995747,0.002181661564992912,0.001090830782496456
1589988486.628977,-3.8030285085590396,-0.8065142542795198,8.863028508559038,0.32191739744792847,-0.3449333577825957,-0.6159745368123195,-0.009867353879528178,-4.9876837060074813e-05,0.0010409539454363812
1589988486.638977,-3.816253962521568,-0.81,8.888761887564705,0.3288888888888889,-0.3422222222222222,-0.6233333333333333,-0.003951235878197658,0.0017730322656070259,-0.0005471443674493681
1589988486.648977,-3.8252828475438116,-0.81,8.836605829474257,0.3288888888888889,-0.3422222222222222,-0.6233333333333333,0.001790515577516429,0.00045285374898518076,-0.001029123020987758
1589988486.658977,-3.808620352909483,-0.81,8.886898235452586,0.3288888888888889,-0.3422222222222222,-0.6233333333333333,0.0059180949410022905,-0.003422988499021156,-0.0007773859055082334
1589988486.668977,-3.8128154967395473,-0.7971845032604526,8.936407748369774,0.3288888888888889,-0.3422222222222222,-0.6233333333333333,0.005147030861330611,-0.0022663923795136374,-0.001789807699320518
1589988486.678977,-3.8133805748830842,-0.79,8.94,0.32521143049060236,-0.3422222222222222,-0.6049460413419008,0.005085390397982009,-0.00036876351450027055,0.0014286747749880156
1589988486.688977,-3.815204996021174,-0.79,8.94,0.3233333333333333,-0.3422222222222222,-0.5955555555555555,0.0014797149946143492,-0.0017033309648005416,0.002136938370955674
1589988486.698977,-3.82,-0.79,8.845348545931348,0.3233333333333333,-0.3422222222222222,-0.5955555555555555,-0.002789006975029003,-0.002665146937453277,-0.0007312054476118167
1589988486.708977,-3.8124328398784075,-0.8051343202431852,8.807835800607963,0.3233333333333333,-0.3422222222222222,-0.5955555555555555,-0.0049233905868319265,-0.0038325598043354708,-0.0013562124453216323
1589988486.718977,-3.8163966441481834,-0.8163966441481836,8.839189932444551,0.3233333333333333,-0.3422222222222222,-0.5955555555555555,-0.0012675601075736002,-0.0015722605933800376,0.00030470048580643716
1589988486.728977,-3.7946409118686395,-0.80732045593432,8.8816988601642,0.3310819435956934,-0.3394045457631822,-0.5906246217522355,0.004548640026212471,-0.0027662473949728126,0.0003992689337532528
1589988486.738977,-3.816714025026069,-0.8146856100104275,8.86328597497393,0.33555555555555555,-0.3377777777777778,-0.5877777777777777,0.010549863559756848,-0.002761371584074579,-0.0024029273188668674
1589988486.748977,-3.823197206033596,-0.8268027939664038,8.809183236201577,0.33555555555555555,-0.3377777777777778,-0.5877777777777777,0.014225347727121355,4.454755466742899e-05,-0.001788352934382474
1589988486.758977,-3.813258233532934,-0.7962911676646707,8.82370883233533,0.33555555555555555,-0.3377777777777778,-0.5877777777777777,0.013800805676814817,-0.0018508197737746757,-0.0018262434215642388
1589988486.768977,-3.8281367603658665,-0.7920911735772443,8.90045586788622,0.33555555555555555,-0.3377777777777778,-0.5877777777777777,0.01243049817322918,-0.0019535499140327824,-0.0008627191315363268
1589988486.778977,-3.826942359439173,-0.7738847188783459,8.94,0.31814536814111943,-0.35010999386300334,-0.6109913609970259,0.007013851912777453,-0.004651749850127572,-0.00213655144057867
1589988486.788977,-3.8275182333873583,-0.7750364667747164,8.909927066450567,0.3088888888888889,-0.3566666666666667,-0.6233333333333333,0.003543211089093533,-0.004084648572301864,-0.0024523803065970773
1589988486.798977,-3.81479697292184,-0.78760151353908,8.7859772969138,0.3088888888888889,-0.3566666666666667,-0.6233333333333333,-0.0008734901335066807,-0.0049308853398877875,-0.0005232685725944923
1589988486.808977,-3.81,-0.8128712871287128,8.765247524752475,0.3088888888888889,-0.3566666666666667,-0.6233333333333333,-0.00467653196852441,-0.0029592835089507813,0.0
1589988486.8189769,-3.8055085815244825,-0.8110171630489652,8.805931347804139,0.3088888888888889,-0.3566666666666667,-0.6233333333333333,-0.003984340653431969,-0.0007118483059426015,0.0
1589988486.8289769,-3.8010102622576967,-0.8,8.852020524515392,0.30956239706068667,-0.3547583935132396,-0.6218740656277714,-0.00207145904808392,0.001090830782496456,-0.00011020251690899201
1589988486.8389769,-3.8168836911728734,-0.7896744632406902,8.876883691172873,0.31555555555555553,-0.3377777777777778,-0.6088888888888889,0.0007864047746458465,0.0014662778939249165,-0.0003399365596395349
1589988486.8489769,-3.825012309207287,-0.77,8.86256770064008,0.31555555555555553,-0.3377777777777778,-0.6088888888888889,0.0038192504649592804,0.0013655525674530966,0.0016349034475229996
1589988486.8589768,-3.805950700764649,-0.7740492992353508,8.788098598470702,0.31555555555555553,-0.3377777777777778,-0.6088888888888889,0.0017399515396469133,-0.0006491207571504573,0.0015056522461053734
1589988486.8689768,-3.803526318970206,-0.7870526379404121,8.842315827642473,0.31555555555555553,-0.3377777777777778,-0.6088888888888889,0.0007061690543362565,-0.0011539851844805985,6.315440198414253e-05
1589988486.8789768,-3.81,-0.8,8.915821828548157,0.3211264508246793,-0.34288443177447453,-0.6088888888888889,-0.0018230712136872147,-0.0028167245440675645,0.0017258937615711083
1589988486.8889768,-3.8146798219480567,-0.8,8.900640356103887,0.3288888888888889,-0.35,-0.6088888888888889,-0.00487381251374008,-0.002181661564992912,0.0005803413987421999
1589988486.8989768,-3.8058048547637147,-0.7905365698424766,8.83795113413362,0.3288888888888889,-0.35,-0.6088888888888889,-0.008034904143440252,-0.0016655115188013176,-0.0005161500461915942
1589988486.9089768,-3.8029554425518297,-0.7756815191493902,8.801592404253048,0.3288888888888889,-0.35,-0.6088888888888889,-0.009024015086777871,-0.001090830782496456,-0.00014868441340311204
1589988486.9189768,-3.82,-0.7861106055592323,8.85148080741231,0.3288888888888889,-0.35,-0.6088888888888889,-0.005373388397067461,-0.001090830782496456,0.002848225229363368
1589988486.9289768,-3.813904248355827,-0.8,8.89438300657669,0.3288888888888889,-0.3425496368793442,-0.6088888888888889,-0.005693209837169266,-0.00375060419686334,0.0023684930692106604
1589988486.9389768,-3.8029961191400203,-0.7929961191400206,8.92400776171996,0.3288888888888889,-0.3377777777777778,-0.6088888888888889,-0.005780979811078394,-0.00545415391248228,0.001090830782496456
1589988486.9489768,-3.8064943482204083,-0.8159773928816334,8.845573473134692,0.3288888888888889,-0.3377777777777778,-0.6088888888888889,-0.00191203643694603,-0.00474573041737503,0.00038240728738920605
1589988486.9589767,-3.799240949946401,-0.8192409499464006,8.8161385750804,0.3288888888888889,-0.3377777777777778,-0.6088888888888889,0.0017604454483329565,-0.0026028776816528674,0.0
1589988486.9689767,-3.79,-0.81,8.843018264231436,0.3288888888888889,-0.3377777777777778,-0.6088888888888889,0.003627510431447437,-0.0007358126985383873,0.0007100361679161374
1589988486.9789767,-3.79058861344369,-0.8082341596689301,8.872943067218449,0.32810407096396893,-0.3380393837527511,-0.6086272829139155,0.004299115363648996,0.00012841553267365567,0.00224586933132974
1589988486.9889767,-3.8,-0.7746606504440088,8.903981951332026,0.31555555555555553,-0.3422222222222222,-0.6044444444444445,0.0038549250329077706,0.0045113923066665215,0.002107626976652563
1589988486.9989767,-3.8,-0.7641677413516142,8.825845154867757,0.31555555555555553,-0.3422222222222222,-0.6044444444444445,0.0018185202239297013,0.005908783968464705,0.0004546300559824253
1589988487.0089767,-3.8049404549368844,-0.7847022746844217,8.799761819747538,0.31555555555555553,-0.3422222222222222,-0.6044444444444445,-0.0010778400649380032,0.0038373938150752748,-0.0005389200324690016
1589988487.0189767,-3.805869328829558,-0.8058693288295584,8.848914698193092,0.31555555555555553,-0.3422222222222222,-0.6044444444444445,-0.002181661564992912,0.002181661564992912,-0.0015414171090052991
1589988487.0289767,-3.796577529064365,-0.8034224709356351,8.89684494187127,0.3201188501364023,-0.34070112402860664,-0.60596554263806,-0.0014349942352348737,0.002554995229871931,-0.0014349942352348737
1589988487.0389767,-3.796982215763615,-0.8065088921181925,8.906508892118193,0.3288888888888889,-0.3377777777777778,-0.6088888888888889,0.0022849247654949637,0.002510850758991047,-0.0003808207942491606
1589988487.0489767,-3.81,-0.7954103337434025,8.854103337434026,0.3288888888888889,-0.3377777777777778,-0.6088888888888889,0.0070456396183869174,0.0015914857059046374,0.00041113398772808806
1589988487.0589767,-3.8198625718221835,-0.79,8.814793857733276,0.3288888888888889,-0.3377777777777778,-0.6088888888888889,0.006559975783653211,0.002181661564992912,0.0016437417180819214
1589988487.0689766,-3.8159790836480068,-0.79,8.834673638783999,0.3288888888888889,-0.3377777777777778,-0.6088888888888889,0.004944339007296872,0.0011620317546220968,0.0005810158773110484
1589988487.0789766,-3.8082008610397597,-0.7858995694801202,8.85640172207952,0.3234216481957157,-0.3377777777777778,-0.6088888888888889,0.0030214603802139455,-0.0008945751665145856,0.0
1589988487.0889766,-3.82,-0.7860823763879663,8.867835247224068,0.31555555555555553,-0.3377777777777778,-0.6088888888888889,-0.00089962223592049,-0.002181661564992912,-0.0006634843394723153
1589988487.0989766,-3.8261712247324615,-0.79,8.835315101070154,0.31555555555555553,-0.3377777777777778,-0.6088888888888889,-0.006220718707316294,-0.002181661564992912,-0.00041765459210922574
1589988487.1089766,-3.8188744791223743,-0.8011255208776257,8.847813802194064,0.31555555555555553,-0.3377777777777778,-0.6088888888888889,-0.009940252324433753,-0.0015748585327618597,0.0006068030322310522
1589988487.1189766,-3.8184082837875586,-0.8142041418937792,8.895224851362675,0.31555555555555553,-0.3377777777777778,-0.6088888888888889,-0.008156703389934194,0.0012021729133621809,0.0015494315216681835
1589988487.1289766,-3.8237050508995925,-0.8168525254497961,8.936294949100407,0.3180035913168252,-0.3391766553556462,-0.6088888888888889,-0.00401998691733717,0.00401998691733717,0.002524997777641566
1589988487.1389766,-3.819217021559313,-0.7961744676610305,8.926957446101717,0.3233333333333333,-0.3422222222222222,-0.6088888888888889,-0.0002562290955397282,0.005786045057447401,0.004277913431472581
1589988487.1489766,-3.83,-0.78,8.867357453754082,0.3233333333333333,-0.3422222222222222,-0.6088888888888889,0.003272492347489368,0.007709289280996987,0.00392811844402029
1589988487.1589766,-3.8338371451345883,-0.7569771291924704,8.833837145134588,0.3233333333333333,-0.3422222222222222,-0.6088888888888889,-7.604847628293974e-05,0.006544984694978735,0.003018796770935989
1589988487.1689765,-3.84,-0.7427150761294616,8.853629045677677,0.3233333333333333,-0.3422222222222222,-0.6088888888888889,-0.011896513022361768,0.002580456011975974,0.0033721909592351338
1589988487.1789765,-3.828435757274584,-0.7786731820440617,8.875782121362707,0.3233333333333333,-0.3444708249743863,-0.6130648654286223,-0.022473246271693594,-0.0037584905576359033,0.0024970273635215104
1589988487.1889765,-3.8,-0.8053064651553317,8.891326616288833,0.3233333333333333,-0.35,-0.6233333333333333,-0.029452431127404314,-0.006622835758381086,0.0028383581821633226
1589988487.1989765,-3.8109039020712925,-0.84,8.860019025738593,0.3233333333333333,-0.35,-0.6233333333333333,-0.027470045789288827,0.0015859082704923885,0.0003964770676230971
1589988487.2089765,-3.8277290571328426,-0.8331871713985278,8.796812828601471,0.3233333333333333,-0.35,-0.6233333333333333,-0.024245998653400633,0.004363323129985824,0.001090830782496456
1589988487.2189765,-3.8372977673427684,-0.8013511163286159,8.854595534685537,0.3233333333333333,-0.35,-0.6233333333333333,-0.026032554851716166,0.006250216838581185,0.001090830782496456
1589988487.2289765,-3.854380611049998,-0.6663734430999609,8.99552961215003,0.3233333333333333,-0.33876122209999643,-0.6152164381833308,-0.030948651029700822,0.005661745037230461,0.005994672738882355
1589988487.2389765,-3.8132625842050034,-0.5132239937713686,9.05664093971091,0.3233333333333333,-0.33,-0.6088888888888889,-0.02762245272724997,-0.005835304020363815,0.028397381632888595
1589988487.2489765,-3.7612023966690367,-0.4327673403066924,9.037709962425104,0.3233333333333333,-0.33,-0.6088888888888889,-0.01884599330165808,-0.018741861999175425,0.054726759909664274
1589988487.2589765,-3.7617926016830294,-0.4130755610098177,9.034358520336605,0.3233333333333333,-0.33,-0.6088888888888889,-0.0005329656921001721,-0.038261501662841584,0.08494292036194409
1589988487.2689764,-3.8239676465472257,-0.4384919116368064,9.06264509769815,0.3233333333333333,-0.33,-0.6088888888888889,0.024410841092363002,-0.06907418551070675,0.12684773854034495
1589988487.2789764,-3.8417087074545835,-0.46718855711004387,9.123594278555021,0.3253301547527899,-0.33718855711004386,-0.6116844388761282,0.047503482516110494,-0.12780167981046753,0.192211194450191
1589988487.2889764,-3.7009206069638263,-0.5906604796098089,9.034603034819131,0.3288888888888889,-0.35,-0.6166666666666667,0.08007600934457607,-0.2062681794784199,0.25841265453649004
1589988487.2989764,-3.4718235511258766,-0.9565190107050573,8.699309708379475,0.3288888888888889,-0.35,-0.6166666666666667,0.11099052210962555,-0.23445331910188133,0.27472667884428276
1589988487.3089764,-3.1173288108350867,-0.989571938449902,8.540462334838207,0.3288888888888889,-0.35,-0.6166666666666667,0.05242526501023788,-0.12046397541945564,0.2000834066343911
1589988487.3189764,-2.053527222875049,-0.8765881316098707,8.404235017626322,0.3288888888888889,-0.35,-0.6166666666666667,-0.0059290263494844574,0.013449456455704986,0.10931395581068042
1589988487.3289764,-1.0367966530453396,-0.7454823895699553,8.246796653045338,0.32721195217400706,-0.3476522885991654,-0.6186789907245249,-0.05033953753496098,0.1573171998738407,-0.009665282905272153
1589988487.3389764,-1.1432810788350394,-0.6599686473010238,8.506778982359386,0.3233333333333333,-0.3422222222222222,-0.6233333333333333,-0.14075421460439555,0.3844112730405954,-0.2261462019604092
1589988487.3489764,-1.688897221829159,-1.0435433863182555,9.440235051805733,0.3233333333333333,-0.3422222222222222,-0.6233333333333333,-0.180519262801063,0.4386678156106799,-0.5305908426138933
1589988487.3589764,-1.5504127163813028,-1.0699213873559423,9.051159536499851,0.3233333333333333,-0.3422222222222222,-0.6233333333333333,-0.06470417236271786,0.1840184863238838,-0.6780572621161339
1589988487.3689764,-1.6676318739230087,-0.9198735214896357,8.674033928362304,0.3233333333333333,-0.3422222222222222,-0.6233333333333333,0.06460735614166416,-0.003621223136018051,-0.7803050769741617
1589988487.3789763,-2.032518361132953,-0.968992856306359,9.326619376641627,0.3233333333333333,-0.3422222222222222,-0.6233333333333333,-0.031838232239232836,0.1923317183362806,-0.8216389005659747
1589988487.3889763,-1.9485171378274828,-0.9647457802630216,8.630678264471369,0.33555555555555555,-0.3422222222222222,-0.5955555555555555,0.043975266674135885,0.04024981466652321,-0.8728957370855968
1589988487.3989763,-2.208664424218441,-0.9862214747394803,8.973093919008047,0.33555555555555555,-0.3422222222222222,-0.5955555555555555,0.022250012605064234,0.06693162711047176,-0.8807375076271045
1589988487.4089763,-2.238825903683088,-0.9987791937242647,8.890093419917648,0.33555555555555555,-0.3422222222222222,-0.5955555555555555,0.009289895082546757,0.07018720166881726,-0.8868454261696187
1589988487.4189763,-2.315365980049229,-1.026524485036922,8.964512890270761,0.33555555555555555,-0.3422222222222222,-0.5955555555555555,0.026592374281756617,0.03777985508389721,-0.8879827857816445
1589988487.4289763,-2.309521642715203,-1.0042173775307432,8.778434755061486,0.33555555555555555,-0.3422222222222222,-0.6044589081204581,0.02643126056259419,0.06853739788044763,-0.8971229477352811
1589988487.4389763,-2.369397165480072,-1.019698582740036,8.81424645685009,0.33555555555555555,-0.3422222222222222,-0.6166666666666667,0.03837635452270268,0.06416173903196418,-0.899340660884496
1589988487.4489763,-2.4717698296461883,-1.0780998997918754,8.907339859708626,0.33555555555555555,-0.3422222222222222,-0.6166666666666667,0.03425753525879585,0.06460773870291292,-0.9052237344483104
1589988487.4589763,-2.56,-1.13,8.98,0.33555555555555555,-0.3422222222222222,-0.6166666666666667,0.0370882466048795,0.05781403147231216,-0.9097528726020444
1589988487.4689763,-2.504509688537682,-1.1154903114623178,8.88267958471691,0.33555555555555555,-0.3422222222222222,-0.6166666666666667,0.0351062183981729,0.06763150851478028,-0.9109506727517622
1589988487.4789762,-2.4805797128825087,-1.1417391386475253,8.850579712882508,0.3371014565755782,-0.3415136842547118,-0.617504029719179,0.03561799462803302,0.06763150851478028,-0.9168669890885482
1589988487.4889762,-2.4885024556101247,-1.165507366830374,8.858502455610124,0.35822877051588803,-0.33183033203206985,-0.6289479914368468,0.03043257163858284,0.06763150851478028,-0.9246451235727234
1589988487.4989762,-2.486273973575792,-1.2112420088080693,8.833853885495099,0.3622222222222222,-0.33,-0.6311111111111111,0.022907446432425576,0.06558532909378473,-0.9338866319609638
1589988487.5089762,-2.463929002699247,-1.2186903324335843,8.737025678363404,0.3622222222222222,-0.33,-0.6311111111111111,0.022907446432425576,0.06639781516265546,-0.9346991180298344
1589988487.5189762,-2.39788906009245,-1.2439445300462249,8.74788906009245,0.3622222222222222,-0.33,-0.6311111111111111,0.02519667836734109,0.0682920578175863,-0.9419248171440545
1589988487.5289762,-2.4540865545655524,-1.272043277282776,8.804086554565552,0.3622222222222222,-0.33,-0.6311111111111111,0.025962952828221527,0.06522695997406455,-0.9457561894484565
1589988487.5389762,-2.4391627811440895,-1.3008372188559105,8.795860531991373,0.38222222222222224,-0.2911111111111111,-0.6088888888888889,0.028909558804735995,0.06790548774469435,-0.9518437272067091
1589988487.5489762,-2.4305476019307797,-1.3094523980692205,8.856166786484543,0.38222222222222224,-0.2911111111111111,-0.6088888888888889,0.03454818041429733,0.07072479854947501,-0.9584221190845306
1589988487.5589762,-2.5033130411965363,-1.3822188401994226,8.853313041196536,0.38222222222222224,-0.2911111111111111,-0.6088888888888889,0.03272492347489368,0.06726679148957508,-0.9753187580717017
1589988487.5689762,-2.5473361322487533,-1.389556022041459,8.897336132248753,0.38222222222222224,-0.2911111111111111,-0.6088888888888889,0.03272492347489368,0.06966787863259523,-0.9865238314057955
1589988487.5789762,-2.5759028711191414,-1.4140971288808584,8.918634290373047,0.384801895962022,-0.2902006380264759,-0.6079784158042537,0.03272492347489368,0.07526732399225547,-1.005649981238184
1589988487.5889761,-2.55,-1.4439262580966616,8.899202790234181,0.4011111111111111,-0.28444444444444444,-0.6022222222222222,0.03272492347489368,0.07526732399225547,-1.0210844645274186
1589988487.5989761,-2.5663589248413667,-1.4930871398730934,8.780369290190361,0.4011111111111111,-0.28444444444444444,-0.6022222222222222,0.03165423434776315,0.07455353124083511,-1.048524428422609
1589988487.6089761,-2.5899665551839464,-1.52,8.742006688963212,0.4011111111111111,-0.28444444444444444,-0.6022222222222222,0.029233535318207698,0.07330455823645916,-1.067065994144677
1589988487.618976,-2.5476420965888145,-1.5294316136447423,8.747642096588814,0.4011111111111111,-0.28444444444444444,-0.6022222222222222,0.028618807707215314,0.07391928584745155,-1.0912923979170452
1589988487.628976,-2.5333646802613345,-1.5710588662311094,8.757694185969775,0.40872944118143084,-0.28051240311782777,-0.6054170058000983,0.029452431127404314,0.07332692946135065,-1.1150498102290658
1589988487.638976,-2.5299382501304573,-1.617975300052183,8.827975300052183,0.4355555555555555,-0.26666666666666666,-0.6166666666666667,0.033367297385859376,0.07591643376907237,-1.1420661499445335
1589988487.648976,-2.56,-1.6393082785123427,8.824486202479429,0.4355555555555555,-0.26666666666666666,-0.6166666666666667,0.04028528384320381,0.07921673345529909,-1.165231462166779
1589988487.658976,-2.574416557028641,-1.6702975407347433,8.798238032587793,0.4355555555555555,-0.26666666666666666,-0.6166666666666667,0.042767058005711164,0.0816201078581353,-1.1843227414514543
1589988487.668976,-2.63,-1.7113094471973742,8.832182411995625,0.4355555555555555,-0.26666666666666666,-0.6166666666666667,0.04344277992506495,0.08503718819102525,-1.2007708919326714
1589988487.678976,-2.63,-1.7315535105219126,8.865922517536521,0.4355555555555555,-0.26666666666666666,-0.6166666666666667,0.04049840026676977,0.08430109327645144,-1.2140206003949998
1589988487.688976,-2.6117200762816437,-1.7582799237183562,8.852580114422466,0.47109985167458157,-0.2595578074428615,-0.6379932443380822,0.04126393851923942,0.08299695507754361,-1.237495087975341
1589988487.698976,-2.6150258994820104,-1.8121391572168557,8.870799384012319,0.4744444444444445,-0.2588888888888889,-0.64,0.0379457315333014,0.0877331543078656,-1.269173139848958
1589988487.708976,-2.5575555242191355,-1.8224444757808644,8.709555806246914,0.4744444444444445,-0.2588888888888889,-0.64,0.037354897547762896,0.09051472793624298,-1.2927799931463693
1589988487.718976,-2.5501623422407107,-1.8298376577592894,8.768701262074314,0.4744444444444445,-0.2588888888888889,-0.64,0.038161368596029296,0.09374061212930854,-1.3097158851599635
1589988487.728976,-2.551416499626616,-1.9328329992532327,8.735665998506466,0.4754674719525563,-0.2565280561778616,-0.6419673605925227,0.0395016823792886,0.09357967308527904,-1.3332177726148646
1589988487.738976,-2.5679015839327124,-1.9658031678654246,8.80160633573085,0.4873733661736256,-0.2290529156677017,-0.6648633110176561,0.0421990479912594,0.09088230747330822,-1.3485028444160325
1589988487.748976,-2.58,-2.0155486302362657,8.774451369763733,0.4888888888888889,-0.2255555555555556,-0.6677777777777778,0.043752923849843715,0.09490227807719166,-1.3736517870798448
1589988487.758976,-2.4893151650702583,-2.012448096465211,8.783402538046385,0.4888888888888889,-0.2255555555555556,-0.6677777777777778,0.05105405759189806,0.09298766241047607,-1.392775920062539
1589988487.768976,-2.358423775495013,-2.0154068036325743,8.873457644781897,0.4888888888888889,-0.2255555555555556,-0.6677777777777778,0.06525756711556437,0.08966074441213882,-1.4075008099981756
1589988487.778976,-2.635859619116535,-2.1610350952208663,8.978964904779135,0.4896556260895306,-0.22467380777481757,-0.6675477566175853,0.07620631463162376,0.09520402089470295,-1.4234219056078163
1589988487.788976,-2.526256543635279,-2.194171029090186,8.947914485454906,0.5111111111111111,-0.2,-0.6611111111111111,0.01705065517542001,0.12120500850721369,-1.4542173559149838
1589988487.798976,-2.547101583725399,-2.2080677224835994,8.9409661387582,0.5111111111111111,-0.2,-0.6611111111111111,0.037515225428827986,0.07800202686113017,-1.4655865616113217
1589988487.808976,-2.512903232319154,-2.2683870707233855,8.666774141446771,0.5111111111111111,-0.2,-0.6611111111111111,0.05503417593356204,0.1173874738263521,-1.464493104084001
1589988487.818976,-2.4806274118127756,-2.3553137059063873,8.839690152994052,0.5111111111111111,-0.2,-0.6611111111111111,0.04152000974673303,0.09459556084600304,-1.4777005530396414
1589988487.828976,-2.392489974705411,-2.3120749789211756,8.743734962058117,0.5111111111111111,-0.19815557429228847,-0.6622638771784308,0.0321773209036571,0.0920824759057522,-1.4847112330128864
1589988487.838976,-2.4442427046702453,-2.355202253891871,8.821364057005367,0.5111111111111111,-0.15982021876278155,-0.6862234743843727,0.043468015088430706,0.10149138772639688,-1.4865930153770153
1589988487.848976,-2.36333098219009,-2.3995251530342343,8.71333098219009,0.5111111111111111,-0.15555555555555556,-0.6888888888888889,0.05163240056822317,0.10804404523587237,-1.494334576482698
1589988487.858976,-2.315425329644,-2.4336168864293333,8.679892875361332,0.5111111111111111,-0.15555555555555556,-0.6888888888888889,0.04581489286485115,0.1041279434615732,-1.5025613211366877
1589988487.8689759,-2.3348761033219456,-2.446584068881297,8.751212378847134,0.5111111111111111,-0.15555555555555556,-0.6888888888888889,0.04581489286485115,0.10200619319444568,-1.5082193218490274
1589988487.8789759,-2.349818757506278,-2.50090621246861,8.780724969974887,0.5113527677694071,-0.15519307056811152,-0.6890197862454659,0.05126904677733343,0.11018379427670447,-1.5207070780011214
1589988487.8889759,-2.3345539906103285,-2.577230046948357,8.841784037558686,0.5317057902973396,-0.12466353677621284,-0.7000443401147627,0.05126904677733343,0.11101635815759119,-1.5282001529291018
1589988487.8989758,-2.2793442042526406,-2.589016306378961,8.76901630637896,0.5377777777777778,-0.11555555555555555,-0.7033333333333334,0.04676265120969765,0.10806378368597415,-1.543811702107785
1589988487.9089758,-2.2628438796986563,-2.564265819547985,8.744265819547985,0.5377777777777778,-0.11555555555555555,-0.7033333333333334,0.04316283882076404,0.10986368988044092,-1.5510113268856522
1589988487.9189758,-2.20511116481392,-2.6681480586434674,8.761851941356532,0.5377777777777778,-0.11555555555555555,-0.7033333333333334,0.04145156973486533,0.11471499522584547,-1.5689216865569573
1589988487.9289758,-2.1803582682127556,-2.7102388454751702,8.720358268212756,0.5377777777777778,-0.11507786460521524,-0.7035721788085035,0.04146459673469411,0.11571925194342579,-1.581808850618491
1589988487.9389758,-2.203245565528096,-2.736754434471904,8.75,0.5377777777777778,-0.07555555555555556,-0.7233333333333334,0.043033596853382344,0.12252708391806869,-1.5928872625599357
1589988487.9489758,-2.1757860529132897,-2.7698325432023245,8.735953509710965,0.5377777777777778,-0.07555555555555556,-0.7233333333333334,0.04503050896222103,0.11999138607461016,-1.6024121527843294
1589988487.9589758,-2.148037061801509,-2.8378517527939633,8.653925876396983,0.5377777777777778,-0.07555555555555556,-0.7233333333333334,0.04669160030624242,0.1210620027801361,-1.6096177742055882
1589988487.9689758,-2.14,-2.876523655829332,8.679785483743997,0.5377777777777778,-0.07555555555555556,-0.7233333333333334,0.046170703094503524,0.12580135021674482,-1.613671137448371
1589988487.9789758,-2.14,-2.9095418405101157,8.729312760765174,0.5377777777777778,-0.07555555555555556,-0.7233333333333334,0.04797156570610113,0.12760221282834242,-1.6208745878947617
1589988487.9889758,-2.114516235033168,-2.9609675299336633,8.763978353289108,0.5547669544223323,-0.04912794744180422,-0.748817098300165,0.04151024353124162,0.13411351245068778,-1.623754390317706
1589988487.9989758,-2.08,-3.058353640776699,8.716829126213593,0.5577777777777778,-0.04444444444444445,-0.7533333333333333,0.03982196915642178,0.1354426069615429,-1.6237082653412758
1589988488.0089757,-2.076355271441716,-3.0524298190388555,8.646355271441717,0.5577777777777778,-0.04444444444444445,-0.7533333333333333,0.036823194464531514,0.13635384781205698,-1.6191191778072975
1589988488.0189757,-2.056042907646859,-3.0659713949020935,8.626042907646859,0.5577777777777778,-0.04444444444444445,-0.7533333333333333,0.03534603768501842,0.13635384781205698,-1.608779080350706
1589988488.0289757,-2.0149664110338263,-3.1050335889661733,8.67255038344926,0.5577777777777778,-0.04444444444444445,-0.7533333333333333,0.028218834518401348,0.13922002660697924,-1.5971043754500165
1589988488.0389757,-1.9576214096204867,-3.0647571807590266,8.641407313415618,0.5722222222222222,-0.06333333333333334,-0.7377777777777778,0.019116026163951624,0.13687277573304157,-1.5751120857264993
1589988488.0489757,-1.9481603403411671,-3.0855189789764985,8.682405105117509,0.5722222222222222,-0.06333333333333334,-0.7377777777777778,0.017252616781426124,0.13833483363853274,-1.5573666864591194
1589988488.0589757,-1.9380873639244867,-3.11286895411327,8.56573790822654,0.5722222222222222,-0.06333333333333334,-0.7377777777777778,0.016414620795118916,0.13744467859455345,-1.5401963963987062
1589988488.0689757,-1.90506072954192,-3.1624089056871196,8.66481781137424,0.5722222222222222,-0.06333333333333334,-0.7377777777777778,0.017315282530787904,0.13744467859455345,-1.5203818382139889
1589988488.0789757,-1.8835779349886714,-3.1946330975169928,8.63894483747168,0.5722222222222222,-0.06333333333333334,-0.7377777777777778,0.019244661922594806,0.1329662550879247,-1.492266446815449
1589988488.0889757,-1.83111490367805,-3.218919229424399,8.67442548160975,0.6044444444444445,-0.05666666666666665,-0.7888888888888889,0.011881244826192855,0.11501997731885664,-1.4579431176654913
1589988488.0989757,-1.8380985364391682,-3.274788291513345,8.63950731780416,0.6044444444444445,-0.05666666666666665,-0.7888888888888889,0.017975614097775646,0.1112109965241174,-1.434327436738108
1589988488.1089756,-1.836606122489053,-3.3449091837335794,8.603393877510946,0.6044444444444445,-0.05666666666666665,-0.7888888888888889,0.02109599947352901,0.10316615607954288,-1.3933016847466928
1589988488.1189756,-1.803662497300057,-3.2954937459500853,8.636337502699943,0.6044444444444445,-0.05666666666666665,-0.7888888888888889,0.024689591517847255,0.09867416602414507,-1.364552948392147
1589988488.1289756,-1.7813352692317321,-3.3179970961524017,8.667997096152401,0.6044444444444445,-0.05666666666666665,-0.7888888888888889,0.025089107997418484,0.09512076099432572,-1.3267447096782168
1589988488.1389756,-1.7176571428571428,-3.3110938775510204,8.714530612244898,0.5490285714285714,-0.09921814058956915,-0.7572226757369614,0.025089107997418484,0.0968452925811976,-1.2970663668946145
1589988488.1489756,-1.667602046749622,-3.291198976625189,8.640408186998489,0.5422222222222223,-0.10444444444444444,-0.7533333333333333,0.027707660039782925,0.08726646259971647,-1.2516671151169678
1589988488.1589756,-1.65,-3.308649427306584,8.576727332349567,0.5422222222222223,-0.10444444444444444,-0.7533333333333333,0.023536450536224742,0.08653262447861745,-1.2112017990436574
1589988488.1689756,-1.6506834488381572,-3.389316551161843,8.647517937219732,0.5422222222222223,-0.10444444444444444,-0.7533333333333333,0.029452431127404314,0.07963064712224129,-1.1707518138424926
1589988488.1789756,-1.6592327761924173,-3.3807672238075823,8.741560538116593,0.5422222222222223,-0.10444444444444444,-0.7533333333333333,0.029452431127404314,0.07963064712224129,-1.1334483360518293
1589988488.1889756,-1.6217228615796975,-3.39689144631879,8.685168584739092,0.5111111111111111,-0.0011111111111111113,-0.6444444444444445,0.03069441746983997,0.07361268807622466,-1.0805679140174707
1589988488.1989756,-1.629187864831575,-3.422690783484175,8.69538156696835,0.5111111111111111,-0.0011111111111111113,-0.6444444444444445,0.02662288980054791,0.07054964004576326,-1.0376682478942925
1589988488.2089756,-1.629061112034772,-3.405240006650357,8.682226682184167,0.5111111111111111,-0.0011111111111111113,-0.6444444444444445,0.03262250668551505,0.0643661669474246,-0.9820764069553473
1589988488.2189755,-1.6267758361300775,-3.6444260750243855,9.153879180650387,0.5111111111111111,-0.0011111111111111113,-0.6444444444444445,0.04072555148893244,0.055619259090468116,-0.9320654089570483
1589988488.2289755,-1.3840782316861475,-3.3323862978821897,7.940391158430737,0.5111111111111111,-0.0011111111111111113,-0.6444444444444445,0.06114850714513491,0.06167050521082441,-0.8919759034096879
1589988488.2389755,-1.0041911182965841,-2.7507392246568747,8.838410099411785,0.5488888888888889,0.08333333333333333,-0.6022222222222222,-0.07242233104640286,0.05529462549284261,-0.8452325826325734
1589988488.2489755,-1.2711050531457466,-2.952728148326511,9.18467682570259,0.5488888888888889,0.08333333333333333,-0.6022222222222222,-0.018912223814162445,0.0694590656425533,-0.8011654355001403
1589988488.2589755,-1.3223709801903782,-3.3598024183174684,7.755411371237458,0.5488888888888889,0.08333333333333333,-0.6022222222222222,0.19061649122511107,-0.018398080508714214,-0.720241692959115
1589988488.2689755,-1.408695652173913,-3.352608695652174,8.316521739130435,0.5488888888888889,0.08333333333333333,-0.6022222222222222,-0.018117276474506366,0.06635096803098009,-0.6912072967001457
1589988488.2789755,-1.4739326627106273,-3.4857306508425094,9.156237425824262,0.5488888888888889,0.08333333333333333,-0.6022222222222222,-0.0021998345780608747,-0.0065574808049168876,-0.642738245435546
1589988488.2889755,-1.2790060948973436,-3.154395398664531,7.963539616832733,0.5334278192656076,0.11855021414191842,-0.6065169637842448,0.02682985817900099,0.038156182035316816,-0.5743955972302381
1589988488.2989755,-1.58814807219032,-3.805203547990156,9.653425451189499,0.5288888888888889,0.1288888888888889,-0.6077777777777778,0.00638944734847942,0.015867549842742617,-0.5131570798128322
1589988488.3089755,-1.4447826086956521,-3.511304347826087,8.757391304347825,0.5288888888888889,0.1288888888888889,-0.6077777777777778,0.01968238151026214,0.019777236360914004,-0.47327827732748406
1589988488.3189754,-1.4789795098433105,-3.6621976697468863,9.063877059059864,0.5288888888888889,0.1288888888888889,-0.6077777777777778,0.019117806506251667,0.017915657516140066,-0.40963347359734326
1589988488.3289754,-1.3636808272187098,-3.475945951660993,8.372084963312258,0.5288888888888889,0.1288888888888889,-0.6077777777777778,0.03653230142461836,0.022753017215686372,-0.3699671240610636
1589988488.3389754,-1.4341106737149927,-3.612147564953324,9.009328084579913,0.5377777777777778,0.1688888888888889,-0.6166666666666667,0.0198692170807858,0.004597586125835417,-0.3291233387157335
1589988488.3489754,-1.4055917817287686,-3.5711835634575375,8.671509599016456,0.5377777777777778,0.1688888888888889,-0.6166666666666667,0.01764476045377282,0.0015716928011186998,-0.2944975150478512
1589988488.3589754,-1.3840451764272899,-3.5321355292818697,8.460116391406359,0.5377777777777778,0.1688888888888889,-0.6166666666666667,0.023765327107163434,0.0046574966611536124,-0.2514913706223986
1589988488.3689754,-1.4076310031725194,-3.6046697571381685,8.883941034897713,0.5377777777777778,0.1688888888888889,-0.6166666666666667,0.015465444054679305,0.0064157759618261225,-0.2184096870669949
1589988488.3789754,-1.3846887649053714,-3.5530497210370857,8.631576413959086,0.5377777777777778,0.1688888888888889,-0.6166666666666667,0.017342401533767295,0.0051644709757674625,-0.199640112276115
1589988488.3889754,-1.3956310514693393,-3.5840776286733482,8.662232886020044,0.5548651454240039,0.18597625653511507,-0.6244983768378537,0.014350252312863814,0.0022663876351978556,-0.16525558264498544
1589988488.3989754,-1.3663934710887307,-3.547322451814551,8.595573884354922,0.5644444444444444,0.1955555555555556,-0.6288888888888889,0.012791927675031586,-0.0028731145553563976,-0.13131100472509843
1589988488.4089754,-1.4102738694649664,-3.6703651592866215,8.89,0.5644444444444444,0.1955555555555556,-0.6288888888888889,0.0065748592192558485,0.0021119543416796473,-0.0924417876189457
1589988488.4189754,-1.4300108230200932,-3.6966810973601243,8.89,0.5644444444444444,0.1955555555555556,-0.6288888888888889,0.008727826868319369,-0.002911636839468565,-0.07234742289435285
1589988488.4289753,-1.3997701893510275,-3.6496552840265415,8.675441009872149,0.5644444444444444,0.1955555555555556,-0.6288888888888889,0.01201167283396324,-0.0047227553153172345,-0.04535518686750194
1589988488.4389753,-1.3712210828888092,-3.5848843315552363,8.65778917111191,0.5771251024939424,0.20726077837047685,-0.6230362774814283,0.010217075483395885,-0.009151479640921806,-0.01314746405019961
1589988488.4489753,-1.399839372332812,-3.629732287221353,8.779411031886976,0.5788888888888889,0.2088888888888889,-0.6222222222222222,0.00439252606396736,-0.008732486846767955,0.01839226804573576
1589988488.4589753,-1.361828074988569,-3.7540587562871512,8.60822633744856,0.5788888888888889,0.2088888888888889,-0.6222222222222222,0.007486256442206988,-0.013931535113673585,0.046650523112430224
1589988488.4689753,-1.350634027386982,-3.5914124929656723,8.609365972613018,0.5788888888888889,0.2088888888888889,-0.6222222222222222,0.001505800736895783,-0.01520246929588383,0.0755816207624514
1589988488.4789753,-1.3420210256618814,-3.6119158973524748,8.657873846028712,0.5788888888888889,0.2088888888888889,-0.6222222222222222,0.0037019440287271955,-0.014401259872873468,0.10268974693747886
1589988488.4889753,-1.3646372110024674,-3.7431746321849584,8.934648633829847,0.6322222222222222,0.2088888888888889,-0.6222222222222222,-0.0061727186292533385,-0.014127619305921725,0.14084950008978694
1589988488.4989753,-1.2609201594655748,-3.6109858851416874,8.441380239198361,0.6322222222222222,0.2088888888888889,-0.6222222222222222,0.0010334743099333409,-0.013140156303450196,0.16484450022023187
1589988488.5089753,-1.387458679021657,-3.746562870380347,8.631188018532486,0.6322222222222222,0.2088888888888889,-0.6222222222222222,-0.006854074964541195,-0.020041761918615415,0.18259148608779957
1589988488.5189753,-1.4,-3.6395502917953997,8.761184346035016,0.6322222222222222,0.2088888888888889,-0.6222222222222222,-0.0025823443446946646,-0.01870439641432045,0.2075963694526915
1589988488.5289752,-1.3919499390256505,-3.702450548769145,8.866600731692193,0.6322222222222222,0.2088888888888889,-0.6222222222222222,-0.011841041307966064,-0.020300374164798504,0.22524576800054832
1589988488.5389752,-1.3535344924284913,-3.637952607964105,8.47064666292765,0.7770713217423817,0.21294061195238984,-0.6688170374524833,-0.005230818086823094,-0.024703554683268587,0.24995775585739438
1589988488.5489752,-1.4096543027618873,-3.7672048963523403,8.686513501876114,0.7911111111111111,0.21333333333333332,-0.6733333333333333,-0.009569143110868214,-0.027692017987859682,0.2649964607088873
1589988488.5589752,-1.4260801035559278,-3.740400517779639,8.692560724891495,0.7911111111111111,0.21333333333333332,-0.6733333333333333,-0.007219143535010143,-0.027495489175755203,0.28945406201980334
1589988488.5689752,-1.3398936140507638,-3.6161835087817273,8.711449473654818,0.7911111111111111,0.21333333333333332,-0.6733333333333333,-0.011875840279827316,-0.029047721424027596,0.32770036407961434
1589988488.5789752,-1.3147435845296678,-3.556602545853837,8.638461507178006,0.7911111111111111,0.21333333333333332,-0.6733333333333333,-0.00560099395844036,-0.026123997602285592,0.3648968931301098
1589988488.5889752,-1.3686489758365212,-3.5619933659386955,8.683311219795652,1.2603029178032807,0.19052539828579731,-0.927478895291592,-0.016067713988363003,-0.032286420170409905,0.3984371284028643
1589988488.5989752,-1.4345327802742251,-3.6857852287129855,8.58530821523217,1.4311111111111108,0.18222222222222226,-1.02,-0.021697339418498177,-0.03296347593775557,0.4418558457095366
1589988488.6089752,-1.446447452929047,-3.7322372646452355,8.608684717574283,1.4311111111111108,0.18222222222222226,-1.02,-0.016190151550967917,-0.03483484751200412,0.47146887848637586
1589988488.6189752,-1.4247070674510436,-3.6825521798694494,8.655292932548956,1.4311111111111108,0.18222222222222226,-1.02,-0.014929323350224684,-0.03691709280251665,0.5056525917738622
1589988488.6289752,-1.431976581312265,-3.6999414532806623,8.665988290656133,1.4311111111111108,0.18222222222222226,-1.02,-0.01657807331139942,-0.039047910139553055,0.5139905236734166
1589988488.6389751,-1.477981901288148,-3.6668253381965927,8.654807239484741,1.082521661510996,-0.1477982978592425,-0.8933936623728397,-0.014138746351714995,-0.04201801203648302,0.5187110639874342
1589988488.6489751,-1.5365378768685078,-3.6965378768685078,8.743075753737015,0.9722222222222222,-0.25222222222222224,-0.8533333333333334,-0.01816646425397727,-0.04254240051736178,0.5161895555499011
1589988488.6589751,-1.4970414356771917,-3.605491158489822,8.59534916843789,0.9722222222222222,-0.25222222222222224,-0.8533333333333334,-0.010109228922108564,-0.041605190030658316,0.5037792237936786
1589988488.668975,-1.4761056667253487,-3.5622113334506973,8.632524499735931,0.9722222222222222,-0.25222222222222224,-0.8533333333333334,-0.011000101225709815,-0.04372502470060349,0.4904148851196789
1589988488.678975,-1.5107299721620786,-3.570364986081039,8.639635013918962,0.9722222222222222,-0.25222222222222224,-0.8533333333333334,-0.009777663237230064,-0.042502586712123744,0.4720908459895372
1589988488.688975,-1.5469457137109521,-3.6138914274219043,8.714728568554762,0.7010908028469888,0.033030625245471346,-0.738479051514658,-0.011499382182063467,-0.036830343198045616,0.4500725739007997
1589988488.698975,-1.6123214719751107,-3.495357056049779,8.66767852802489,0.6522222222222223,0.08444444444444445,-0.7177777777777777,-0.014912660609215624,-0.03696858982296791,0.4326730108147739
1589988488.708975,-1.5874280990297176,-3.585858678153418,8.627428099029718,0.6522222222222223,0.08444444444444445,-0.7177777777777777,-0.01615989176052064,-0.036199985799309234,0.4193307686136868
1589988488.718975,-1.6367016633528926,-3.488496435672373,8.57139857426895,0.6522222222222223,0.08444444444444445,-0.7177777777777777,-0.006642874339661811,-0.036881014676727136,0.4096285680788935
1589988488.728975,-1.6715314689729184,-3.416937062054163,8.74660606443196,0.6522222222222223,0.08444444444444445,-0.7177777777777777,-0.01532401139906496,-0.0370882466048795,0.3962271180796612
1589988488.738975,-1.7601748688483638,-3.497991506370222,8.730916812390708,0.6284667055264107,0.16066006051017295,-0.7237166569517306,-0.010889232592695076,-0.03125776561005208,0.39355174458117015
1589988488.748975,-1.746035528776231,-3.4780473717016416,8.767928942447538,0.6255555555555555,0.17,-0.7244444444444444,-0.017659831911609414,-0.040999735068755844,0.40337501287683775
1589988488.758975,-1.7472429277054333,-3.5496722047597666,8.562712168837,0.6255555555555555,0.17,-0.7244444444444444,-0.014104388137398047,-0.03731258450267177,0.42475099148024104
1589988488.768975,-1.75,-3.4885399147886536,8.65460561722166,0.6255555555555555,0.17,-0.7244444444444444,-0.014720069779777899,-0.039441470327081396,0.46008527864920434
1589988488.778975,-1.756605143666011,-3.542656580326121,8.736236005662077,0.6255555555555555,0.17,-0.7244444444444444,-0.01671264976168964,-0.041801757759108125,0.49748715787425035
1589988488.788975,-1.7509870618497332,-3.5349353092486657,8.7059223710984,0.6075296792550219,0.1569813115607257,-0.7364616953114669,-0.013520656369924207,-0.0454918776298761,0.552124501018517
1589988488.798975,-1.7142202835332605,-3.5210550708833153,8.753669574700108,0.6055555555555555,0.15555555555555556,-0.7377777777777778,-0.017968671403821797,-0.04874211407316975,0.5885231323646971
1589988488.808975,-1.6098169080287397,-3.494954227007185,8.62642254403832,0.6055555555555555,0.15555555555555556,-0.7377777777777778,-0.013990673277109568,-0.04635531519714241,0.604160084961434
1589988488.818975,-1.59,-3.565212156379198,8.625070718793067,0.6055555555555555,0.15555555555555556,-0.7377777777777778,-0.01308996938995747,-0.04581489286485115,0.5996649371183322
1589988488.828975,-1.490800437098757,-3.569153121158312,8.710023220871467,0.6055555555555555,0.15555555555555556,-0.7377777777777778,-0.011180382269553896,-0.04581489286485115,0.5745881489186256
1589988488.838975,-1.4315693454379996,-3.545784672719,8.731076636405001,0.5843450889192228,0.11442010510933441,-0.7088544141827785,-0.0054004076944813495,-0.03887378388944339,0.5122704484065381
1589988488.848975,-1.220925474914759,-3.3899070778223237,8.726851886545019,0.5688888888888889,0.08444444444444445,-0.6877777777777778,0.004252233240262516,-0.031058370769423523,0.37667982150800533
1589988488.858975,-17.922209602718365,-15.780505969697675,-1.9249319245002,0.5688888888888889,0.08444444444444445,-0.6877777777777778,-0.27050178886170717,0.45717053972920485,0.15370008064875998
1589988488.868975,-0.9024534640878947,-7.439474711704349,-0.7577576500499408,0.5688888888888889,0.08444444444444445,-0.6877777777777778,-1.0506316921264018,1.5230172847956673,-3.492355764578278
1589988488.878975,3.1372850678733033,-1.0791289592760185,-1.2493891402714932,0.5688888888888889,0.08444444444444445,-0.6877777777777778,-0.551778982136615,-1.150195916110847,-5.863602922961102
1589988488.888975,0.33210762331838595,-1.1115695067264575,-0.0029147982062780464,0.5323866467364226,0.1840857000498256,-0.6621275535625312,-0.5669580762980684,-1.1000270240708656,-6.350924431287258
1589988488.898975,-0.14383452222465076,-1.439012458521271,0.1696441274067598,0.5277777777777778,0.19666666666666666,-0.6588888888888889,-0.5861856767190715,-0.7468386488313338,-6.192292119961862
1589988488.908975,0.08376931783105257,-1.25916987344377,0.11092663854305998,0.5277777777777778,0.19666666666666666,-0.6588888888888889,-0.5450321245586438,-0.5984480843455363,-6.007898990394684
1589988488.9189749,2.965400553441716,-3.7472902109996546,8.041970944309925,0.5277777777777778,0.19666666666666666,-0.6588888888888889,-0.4497688881155552,-0.37830490732789535,-5.690357150289713
1589988488.9289749,1.515613594793483,-2.568101578119019,4.360100954244474,0.5277777777777778,0.19666666666666666,-0.6588888888888889,0.4569067547037264,0.7499302553074054,-5.457290095449162
1589988488.9389749,0.3342961608775137,-0.7211787616246721,2.665739607344408,0.5180376052071466,0.2322686767524221,-0.6568736807708273,1.5924178570572876,2.1030490034797693,-5.208094880795873
1589988488.9489748,-0.7307323924362841,2.270112359550562,17.991926897780214,0.4955555555555556,0.3144444444444445,-0.6522222222222223,1.1850568217181108,3.195356912257412,-4.584052245573559
1589988488.9589748,-1.5099603077174892,0.16575251657255086,9.021356084785989,0.4955555555555556,0.3144444444444445,-0.6522222222222223,0.016256717481626715,1.3922038755972264,-3.8794290682965045
1589988488.9689748,-0.4409209755309045,-0.4624935846921663,11.564076498757348,0.4955555555555556,0.3144444444444445,-0.6522222222222223,0.017783510676443737,0.25675352124022566,-3.468033138184113
1589988488.9789748,1.5593124636718425,-0.8066066041130393,12.786628746989953,0.4955555555555556,0.3144444444444445,-0.6522222222222223,0.4086348305061418,-0.6740551038106103,-3.1387653218904568
1589988488.9889748,1.4804787393884755,-0.694302080985651,5.4761293291262865,0.463471940500338,0.3572225978514011,-0.6504397991635991,0.32570970956017004,-0.8110308429206949,-2.862134013503282
1589988488.9989748,0.0461481939825199,-1.9967476216258024,11.761230566942535,0.4355555555555555,0.3944444444444444,-0.6488888888888888,-0.29093635630022885,0.41470772541431655,-2.42790516079794
1589988489.0089748,0.4968645852407985,-1.9470161142647866,9.403294497344808,0.4355555555555555,0.3944444444444444,-0.6488888888888888,0.08711912254186271,1.0047527531679918,-2.114600115935996
1589988489.0189748,0.872884330395445,-2.0222684138002758,6.917346020851207,0.4355555555555555,0.3944444444444444,-0.6488888888888888,0.3179812711932391,0.09490443347691269,-1.9948443644913452
1589988489.0289748,0.422002309356145,-2.441426921888468,8.881823903462408,0.4355555555555555,0.3944444444444444,-0.6488888888888888,-0.08615805122060194,-0.13810683375981356,-1.889851779441904
1589988489.0389748,0.2440251022758867,-2.3748889859792666,8.440004766254916,0.4123820241578513,0.43670206052261096,-0.6434362932658997,-0.10081023353933705,0.2589475522442587,-1.6657791487980786
1589988489.0489748,0.4460681178187499,-2.494410597932211,7.494824977903846,0.3977777777777778,0.4633333333333333,-0.64,0.1739302339611541,0.0812449089671492,-1.5321361278081536
1589988489.0589747,0.4277582524864238,-2.9556483006894867,9.396109585697724,0.3977777777777778,0.4633333333333333,-0.64,-0.09669789909434892,0.06648550055742936,-1.3273612872085827
1589988489.0689747,0.3529886056619288,-3.2924790320686013,9.924433454716317,0.3977777777777778,0.4633333333333333,-0.64,0.0320206053168918,0.17273449595022655,-1.0821904493593655
1589988489.0789747,0.34555764145091256,-3.1999436808253616,9.301986516046885,0.3977777777777778,0.4633333333333333,-0.64,0.06423121420630659,0.07595427066201886,-0.9293468702274202
1589988489.0889747,0.36842247884270646,-3.2703656147079667,9.16844957685413,0.37457910071659184,0.476297299926349,-0.6181659510012368,0.011996182672960563,0.049800083758356456,-0.6786754670602843
1589988489.0989747,0.3486878218177464,-3.209954975452042,8.703304035444857,0.36,0.4844444444444445,-0.6044444444444445,0.009348541285174095,0.03773984524880302,-0.40346939962563705
1589988489.1089747,0.3198689528475199,-3.4284139620330683,9.24142804654011,0.36,0.4844444444444445,-0.6044444444444445,-0.02205963110533158,0.00862658107245299,-0.202625859199748
1589988489.1189747,0.28225588140509184,-3.110545278762488,8.185049951659684,0.36,0.4844444444444445,-0.6044444444444445,-0.005859620952292595,-0.0031461486210216825,0.0012980288692523156
1589988489.1289747,0.27629892236414366,-3.119442240253923,8.228955384339724,0.36,0.4844444444444445,-0.6044444444444445,0.004037249413601316,-0.01661995889556449,0.21791505349094684
1589988489.1389747,0.2981436053387396,-3.3974255786450414,8.853537759756716,0.31294805804283754,0.5079704154230257,-0.644257626100505,-0.006466660132964714,-0.03663739199661809,0.47119109241167734
1589988489.1489747,0.28499886819631653,-3.51750962033131,8.987516411153411,0.3022222222222222,0.5133333333333333,-0.6533333333333333,-0.022636035073414055,-0.04908812597611915,0.6504186568686168
1589988489.1589746,0.2898279928096707,-3.3880101258307636,8.372040503323054,0.3022222222222222,0.5133333333333333,-0.6533333333333333,-0.027289532636213594,-0.056648148394606926,0.7930096930171737
1589988489.1689746,0.27769138034960816,-3.334928270042194,7.985705846895721,0.3022222222222222,0.5133333333333333,-0.6533333333333333,-0.028613431682880212,-0.06838700252869734,0.9729741108392375
1589988489.1789746,0.2439046773879353,-3.563143871344776,8.646003549706716,0.3022222222222222,0.5133333333333333,-0.6533333333333333,-0.020995747837218262,-0.07744898555724837,1.188830527952183
1589988489.1889746,0.20926252169999357,-3.594631260849997,8.848421847875008,0.34320552662223086,0.5312635290083371,-0.6430875072333312,-0.027592555174839467,-0.091698975247283,1.3895028878710622
1589988489.1989746,-2.0735755490334986,-18.719824916506425,8.022058496103632,0.3555555555555556,0.5366666666666666,-0.64,-0.12687451616851475,-0.13562335218532093,1.7391866636359767
1589988489.2089746,-1.2595478260869566,-12.56768695652174,9.598321739130434,0.3555555555555556,0.5366666666666666,-0.64,-0.4485721457895725,-0.42765499126094975,3.9826773727279963
1589988489.2189746,-0.6523724623045583,-3.507898805585542,10.820262910471149,0.3555555555555556,0.5366666666666666,-0.64,-0.15590048551403868,-0.48122810771204994,5.696320967198826
1589988489.2289746,6.571004464937111,-15.019421309131234,5.208291067207517,0.3555555555555556,0.5366666666666666,-0.64,0.22921841438695306,-0.26320498598986153,5.877135223248332
1589988489.2389746,5.540557438156556,-11.072589194946023,7.5427922738054916,0.37485893939638437,0.5096419292895064,-0.6644509528650497,-0.1838369085821734,-0.5482297843054934,2.4929256956445105
1589988489.2489746,-1.852704442501788,0.7676590108347241,12.715291265993802,0.3888888888888889,0.49,-0.6822222222222222,-0.03927106404767855,-0.13136900918576844,-0.6670159326105038
1589988489.2589746,-1.3621858207661641,0.4913451204714855,5.108113562637744,0.3888888888888889,0.49,-0.6822222222222222,0.4010980708408075,0.7637615295592659,-1.0751873566057581
1589988489.2689745,-1.7004381773686053,-0.8061232179621645,7.277198073262634,0.3888888888888889,0.49,-0.6822222222222222,0.16121193341790607,0.39305061540387076,-1.0129092010600487
1589988489.2789745,-1.676466818884879,-2.0894159239890993,10.70843067933515,0.3888888888888889,0.49,-0.6822222222222222,-0.1128265740336272,-0.19560252891702126,-0.9376434695104598
1589988489.2889745,-0.9912408370997758,-2.3221085115272135,9.13587451099548,0.4111477416114888,0.4737695865564375,-0.6701653436641473,-0.10580633924807875,-0.1245767159936122,-0.7998903779637886
1589988489.2989745,-0.6217267217630854,-2.1596022038567493,7.629129476584022,0.44222222222222224,0.4511111111111111,-0.6533333333333333,0.028608134111839014,0.13619409970076907,-0.6225433179602919
1589988489.3089745,-1.083008648156577,-3.1095129722348656,9.10257674606787,0.44222222222222224,0.4511111111111111,-0.6533333333333333,-0.01041852905153598,-0.0019192288520846184,-0.492591994736568
1589988489.3189745,1.7746293949952485,-5.958420969274628,9.677682926829268,0.44222222222222224,0.4511111111111111,-0.6533333333333333,-0.1399613292135946,-0.011207880295165517,-0.09203733558968152
1589988489.3289745,4.382023987019821,-6.7931726890019295,8.510109410629715,0.44222222222222224,0.4511111111111111,-0.6533333333333333,-0.04483482417132463,-0.1427660662889679,1.084280942542557
1589988489.3389745,-0.8668008428620124,-1.2065355892287197,9.286767686157852,0.4340316555283554,0.4689814384431843,-0.6682252727767276,0.09537929471759915,0.00935854457883345,0.4190596594331699
1589988489.3489745,-1.2277890115272263,-1.3345132851720338,9.092379261487869,0.43,0.4777777777777778,-0.6755555555555556,0.14310593561034723,0.1564512443893332,-0.22660206846912484
1589988489.3589745,-1.2535353166029584,-7.129917234502243,8.603003490111352,0.43,0.4777777777777778,-0.6755555555555556,-0.00468453535874222,0.02382637664188511,-0.30228043177183817
1589988489.3689744,-0.53029497299543,-8.334012255920232,8.9395502700457,0.43,0.4777777777777778,-0.6755555555555556,-0.13790002227079495,-0.08467851528627816,-0.14298006699717386
1589988489.3789744,0.3264759807131376,-4.274575867611167,8.85779748794571,0.43,0.4777777777777778,-0.6755555555555556,-0.03931938808273998,-0.027503851120466716,0.038242907773660496
1589988489.3889744,-0.06350378073929536,-3.483767656385125,8.722892210124842,0.4385654872336913,0.4682045861636522,-0.6755555555555556,0.07641192590874064,0.028082924125976617,0.02304979601565709
1589988489.3989744,0.13043284373343314,-4.7637789627966445,8.884251722955062,0.4488888888888889,0.4566666666666666,-0.6755555555555556,-0.02697876558832746,-0.021464503215662706,-0.02849470979861131
1589988489.4089744,-0.025990925964116313,-4.424054444215302,8.615945555784698,0.4488888888888889,0.4566666666666666,-0.6755555555555556,0.0036338905021770437,-0.005203323571693758,-0.0002112373901349083
1589988489.4189744,-0.030588650535315107,-4.494413114239774,8.534998235224911,0.4488888888888889,0.4566666666666666,-0.6755555555555556,0.015495794777072091,0.010876009411662672,0.0029195198863584113
1589988489.4289744,-0.03199243278055064,-4.547988649170826,8.526698196747706,0.4488888888888889,0.4566666666666666,-0.6755555555555556,-0.01672675987793843,-0.0033449392477920225,-0.0005816388413995553
1589988489.4389744,0.0,-4.537660703570357,8.6455151140114,0.44116361636163615,0.4566666666666666,-0.6733023510684402,-0.014894786229741636,-0.0024976727553392168,0.0
1589988489.4489744,-0.003076457229371688,-4.614617713853142,8.603847085541256,0.4222222222222222,0.4566666666666666,-0.6677777777777778,-0.0024335187857812686,-0.003440287059830988,0.00016779471234161988
1589988489.4589744,-0.00930869790671652,-4.535345651046642,8.553963046860074,0.4222222222222222,0.4566666666666666,-0.6677777777777778,0.006846622136321879,-0.0031970829871535824,0.001090830782496456
1589988489.4689744,-0.011723780588332275,-4.522414329117502,8.598618902941661,0.4222222222222222,0.4566666666666666,-0.6677777777777778,0.003874544410821569,-0.0015422285273435491,0.0017302638201458188
1589988489.4789743,-0.015327799716290304,-4.538033201702258,8.635327799716292,0.4222222222222222,0.4566666666666666,-0.6677777777777778,-0.001090830782496456,-0.001090830782496456,0.0011623455867010696
1589988489.4889743,-0.01,-4.578741312741313,8.599405405405406,0.428049764049764,0.45958043758043754,-0.674090948090948,-0.001090830782496456,-0.000614066131613835,0.0
1589988489.4989743,-0.020539693825404937,-4.54784122469838,8.60215877530162,0.4355555555555555,0.4633333333333333,-0.6822222222222222,0.004657680448923312,-0.0005748511231419767,0.0011497022462839534
1589988489.5089743,-0.03,-4.531414759325021,8.602524171181212,0.4355555555555555,0.4633333333333333,-0.6822222222222222,0.008649483108893788,-0.0028428216828579327,0.0010136676314185943
1589988489.5189743,-0.025942219969589456,-4.513479979726305,8.606520020273695,0.4355555555555555,0.4633333333333333,-0.6822222222222222,0.00542263979458958,-0.003478052856831579,0.0
1589988489.5289743,-0.01801878511235955,-4.487737008426966,8.642169066011236,0.4355555555555555,0.4633333333333333,-0.6822222222222222,-0.0008439766956569311,-0.002181661564992912,0.00021611701861784594
1589988489.5389743,-0.013378887184493097,-4.586484451262027,8.576757774368986,0.4355555555555555,0.4633333333333333,-0.6799696307658935,-0.013458548805100255,-0.002181661564992912,0.001090830782496456
1589988489.5489743,-0.012300649480701554,-4.571549025778947,8.59384967525965,0.4355555555555555,0.4633333333333333,-0.6755555555555556,-0.010821324751781597,-0.002601595992576953,0.0002509619273283741
1589988489.5589743,-0.010394225148056834,-4.569211549703886,8.589605774851943,0.4355555555555555,0.4633333333333333,-0.6755555555555556,0.0019157675761221843,-0.0027055753099044094,0.0006099203302584208
1589988489.5689743,-0.02,-4.545089591988921,8.614372856077555,0.4355555555555555,0.4633333333333333,-0.6755555555555556,0.008191003838661413,-0.0005747343010622107,0.0011103767223724444
1589988489.5789742,-0.023834880312652663,-4.551504640937958,8.642330239374695,0.4355555555555555,0.4633333333333333,-0.6755555555555556,0.005962533280582729,0.0015091513317195718,0.0
1589988489.5889742,-0.03,-4.559153884908196,8.622769256605464,0.43073505995919786,0.4589145457033388,-0.6779658033537344,0.00011748535745203679,0.002181661564992912,-0.0003943758737546664
1589988489.5989742,-0.022516184552797826,-4.54,8.598774276829197,0.4222222222222222,0.4511111111111111,-0.6822222222222222,-0.0034132598473996267,0.0017734827519763812,-0.0006826519694799253
1589988489.6089742,-0.01,-4.527342029907731,8.58,0.4222222222222222,0.4511111111111111,-0.6822222222222222,0.0010355777565424515,0.0004004456114681549,0.0006903851710283011
1589988489.6189742,-0.01,-4.519970131188505,8.607958183663907,0.4222222222222222,0.4511111111111111,-0.6822222222222222,0.005450895730580789,-0.001962192135733025,0.0017459808883746276
1589988489.6289742,-0.0082501565435191,-4.548250156543519,8.65174984345648,0.4222222222222222,0.4511111111111111,-0.6822222222222222,0.006626984842404347,-0.0034633706581773047,0.0008999524718085194
1589988489.6389742,-0.0016842517219787106,-4.541684251721978,8.65831574827802,0.4222222222222222,0.4511111111111111,-0.6822222222222222,-0.0012515353613016238,-0.00417959976760512,0.000183723362380704
1589988489.6489742,0.0,-4.587371495856166,8.578685747928082,0.4355555555555555,0.4566666666666666,-0.6677777777777778,-0.008065903462277245,-0.0018949362417915428,-0.00014336266160068454
1589988489.6589742,-0.0013394858765505904,-4.57,8.565981542370348,0.4355555555555555,0.4566666666666666,-0.6677777777777778,-0.009008809670045737,-0.0001461152426860632,-0.0006524850544382664
1589988489.6689742,-0.013236846644816284,-4.54410522684147,8.585315853027428,0.4355555555555555,0.4566666666666666,-0.6677777777777778,0.003978662739166563,-0.001090830782496456,0.0018285763691543145
1589988489.6789742,-0.020798308298089544,-4.495588158086627,8.67840338340382,0.4355555555555555,0.4566666666666666,-0.6677777777777778,0.0056283177655779655,-0.0011779127090442991,0.0008295850028529268
1589988489.6889741,-0.02767751016578042,-4.555355020331561,8.66,0.43710388211170187,0.4600213742049838,-0.6695841587599486,0.005862405095233925,-0.00167497288435255,-0.002181661564992912
1589988489.6989741,-0.017610415812868447,-4.542389584187132,8.652831247438606,0.44222222222222224,0.4711111111111111,-0.6755555555555556,-0.000781989596606961,0.000260663198868987,-0.001660335167254938
1589988489.7089741,-0.018474116387004642,-4.5457629418064975,8.596103534451982,0.44222222222222224,0.4711111111111111,-0.6755555555555556,-0.001885918296079021,0.0001664480815562247,0.0009243827009402313
1589988489.718974,-0.0344207849199621,-4.526737645240114,8.580945494439735,0.44222222222222224,0.4711111111111111,-0.6755555555555556,0.0024111641367453953,-0.001090830782496456,0.0026638943923419913
1589988489.728974,-0.029012241689128485,-4.5136625861036235,8.627325172207247,0.44222222222222224,0.4711111111111111,-0.6755555555555556,0.004655101579406952,-0.00149035694903412,0.00247344001441404
1589988489.738974,-0.012568778194294429,-4.5225687781942945,8.645137556388589,0.4390826044291957,0.4711111111111111,-0.6789805931479481,0.0015912309508441537,-0.002181661564992912,0.001090830782496456
1589988489.748974,-0.02,-4.55745923276181,8.618811150857285,0.43,0.4711111111111111,-0.6888888888888889,-0.006767052922859845,-0.00018476980763835376,9.238490381917688e-05
1589988489.758974,-0.024585219049369385,-4.576244342851892,8.528733028555676,0.43,0.4711111111111111,-0.6888888888888889,-0.008907628591548054,0.0006811521399305328,-0.0015910005908505824
1589988489.768974,-0.023090649267623112,-4.56,8.514546753661884,0.43,0.4711111111111111,-0.6888888888888889,-0.0023996718387111074,-0.0007139841591993989,-0.0010511216951017406
1589988489.778974,-0.012198726939259899,-4.556701909591109,8.58879490775704,0.43,0.4711111111111111,-0.6888888888888889,0.005574075863864725,0.00023984390276489127,0.001090830782496456
1589988489.788974,-0.025127537259374562,-4.537308694110938,8.640510149037498,0.43,0.4711111111111111,-0.6888888888888889,0.006279233077776672,0.0016501583305887852,0.001090830782496456
1589988489.798974,-0.010899148961976187,-4.549550425519012,8.669100851038024,0.43,0.4633333333333333,-0.6755555555555556,0.004118118288542484,-4.9040968288668015e-05,0.00123795368736246
1589988489.808974,-0.027856435343346336,-4.541071782328327,8.652143564656654,0.43,0.4633333333333333,-0.6755555555555556,-0.0005062642045591407,-0.0009739174669089928,0.004012583183223435
1589988489.818974,-0.00456032646632421,-4.546959782355784,8.550640761754755,0.43,0.4633333333333333,-0.6755555555555556,-0.0037000505316258587,-0.0004974544487699738,-0.0029408560483093855
1589988489.828974,-0.027081670276171893,-4.531945553149219,8.603190563977734,0.43,0.4633333333333333,-0.6755555555555556,-0.0004244538528301433,-0.0029541519578667606,-0.0013030577089115278
1589988489.838974,-0.029137810318270018,-4.5391378103182705,8.66,0.4290899108915072,0.46366862932067276,-0.6761303486767088,0.004175222520949447,-0.002181661564992912,0.0009967804779782675
1589988489.848974,-0.01235691852207486,-4.522356918522075,8.66,0.4113767473288568,0.4701945316858598,-0.6873176098741723,0.0005141998551430613,-0.002181661564992912,-0.0008337308549249253
1589988489.858974,0.0,-4.564208287711614,8.553166849153541,0.4088888888888889,0.4711111111111111,-0.6888888888888889,-0.005683680401353817,-0.002181661564992912,0.001090830782496456
1589988489.868974,-0.0043500391542678155,-4.57419994779431,8.503050117462804,0.4088888888888889,0.4711111111111111,-0.6888888888888889,-0.006070469033524717,-0.0018653177906902331,0.0014071745567991348
1589988489.878974,-0.033029643888354186,-4.543029643888354,8.589088931665062,0.4088888888888889,0.4711111111111111,-0.6888888888888889,-0.0006286292967541659,0.0,0.002611526584805567
1589988489.888974,-0.03826639245100411,-4.5447991773530125,8.622135252842972,0.41004462725488616,0.46860701131811705,-0.6852290507298976,0.006210582904167458,0.00037821449584258924,0.001090830782496456
1589988489.898974,-0.03,-4.527873154434745,8.669502460753673,0.4155555555555556,0.4566666666666666,-0.6677777777777778,0.007813545226155462,0.0018953855912339631,0.0008045548087375072
1589988489.908974,-0.03,-4.55,8.636736873331357,0.4155555555555556,0.4566666666666666,-0.6677777777777778,0.0020392808042992185,0.000984045211976186,-3.559519017342336e-05
1589988489.918974,-0.022394406734943514,-4.55,8.559013983162641,0.4155555555555556,0.4566666666666666,-0.6677777777777778,-0.002596482327626479,-0.002181661564992912,-0.000676010019862889
1589988489.928974,-0.007878408641812672,-4.545756817283626,8.600607956790936,0.4155555555555556,0.4566666666666666,-0.6677777777777778,-0.002809632915211528,-0.002875950713409672,-0.00023142971613892007
1589988489.938974,-0.0023530496640758788,-4.534706099328152,8.62823475167962,0.4155555555555556,0.4566666666666666,-0.6677777777777778,-0.0016041865837598387,-0.004684120210587206,-0.0008341528818647645
1589988489.948974,0.0,-4.53,8.689877796188897,0.43218148761852154,0.46220864402098866,-0.6742434180244868,-0.0029044386306942716,-0.0036405460642844646,0.0007227770657013593
1589988489.958974,-0.03068629277684616,-4.537671573194212,8.676985280417366,0.4355555555555555,0.4633333333333333,-0.6755555555555556,-0.003272492347489368,-0.003272492347489368,0.001090830782496456
1589988489.9689739,-0.0006886837346530884,-4.551377367469306,8.494820786142572,0.4355555555555555,0.4633333333333333,-0.6755555555555556,-0.005228782687333016,-0.001090830782496456,7.512374171642101e-05
1589988489.9789739,-0.008672504044922433,-4.567345008089845,8.550707528314458,0.4355555555555555,0.4633333333333333,-0.6755555555555556,-0.002616083600424355,-0.001090830782496456,0.0009460234373526417
1589988489.9889739,-0.011462256558828264,-4.55,8.61365564139707,0.4340932989967272,0.4643894075147093,-0.6755555555555556,0.006624738418292596,-0.00015950744662772095,0.003272492347489368
1589988489.9989738,-0.028339369064863992,-4.55,8.65584842266216,0.4172161864906916,0.4765784332135129,-0.6755555555555556,0.00754524211035458,-0.002000514830751689,0.003272492347489368
1589988490.0089738,-0.022487576118149367,-4.542487576118149,8.620149086582208,0.4155555555555556,0.4777777777777778,-0.6755555555555556,0.001644377585401146,-0.001096251723600764,0.00027135246034803697
1589988490.0189738,-0.024894954681196627,-4.547447477340598,8.537657567978204,0.4155555555555556,0.4777777777777778,-0.6755555555555556,-0.0027156182895103527,0.0019032245360034042,0.001090830782496456
1589988490.0289738,-0.015133923483150336,-4.54,8.575401770449451,0.4155555555555556,0.4777777777777778,-0.6755555555555556,-0.001090830782496456,0.0005308066054562748,0.001090830782496456
1589988490.0389738,-0.028428240288211802,-4.54,8.624715279135364,0.41607947545948504,0.47664261798593077,-0.676079475459485,-0.0010051045886811398,-0.0011765569763117721,0.0011765569763117721
1589988490.0489738,-0.01,-4.54,8.68,0.4222222222222222,0.4633333333333333,-0.6822222222222222,0.0,-0.001999146085690912,0.0014515996477849121
1589988490.0589738,-0.01,-4.54,8.68,0.4222222222222222,0.4633333333333333,-0.6822222222222222,0.0,-0.0011438112534714947,-0.001969739681092757
1589988490.0689738,-0.03738689153706322,-4.55,8.569547566148252,0.4222222222222222,0.4633333333333333,-0.6822222222222222,-0.004363323129985824,-0.00270240051761468,-0.0008057848675591119
1589988490.0789738,-0.027698699225340614,-4.552301300774659,8.556109105422616,0.4222222222222222,0.4633333333333333,-0.6822222222222222,-0.0036102242125514044,-0.0003377318650620365,0.0
1589988490.0889738,-0.02008943959652401,-4.559910560403476,8.609373922824332,0.4222222222222222,0.4633333333333333,-0.6822222222222222,-0.0011200998220151919,0.002152392525474176,0.0
1589988490.0989738,-0.02,-4.532786361447893,8.619071212850702,0.4292776099949908,0.47643619633990364,-0.6882696974560238,0.004846264144777772,0.00020262992256816917,-0.0009895158212123714
1589988490.1089737,-0.026314265025343953,-4.505528602461984,8.618942795076032,0.43,0.4777777777777778,-0.6888888888888889,0.005941907720006944,-0.001090830782496456,0.00040205131664786104
1589988490.1189737,-0.011582213973865555,-4.53,8.574746641921596,0.43,0.4777777777777778,-0.6888888888888889,0.0020643429524573546,-0.0014360163239341742,0.002354254335711771
1589988490.1289737,-0.017962639000867094,-4.53,8.5938879170026,0.43,0.4777777777777778,-0.6888888888888889,-0.0028076318649474857,-0.002828009128906986,0.003050250738198177
1589988490.1389737,-0.019827887027007378,-4.530344225945986,8.611032677837954,0.42963665039034893,0.4775291701501218,-0.6884107972972427,-0.0010720561695957227,-0.0032161685087871684,0.001090830782496456
1589988490.1489737,-0.01220493620733525,-4.54559012758533,8.656770382755989,0.41354375421548556,0.46651824118837315,-0.6672359339092646,-0.00024052122884022753,-0.0007215636865206829,0.001090830782496456
1589988490.1589737,-0.009457867562283824,-4.531626397313149,8.654578675622838,0.4088888888888889,0.4633333333333333,-0.6611111111111111,0.003095079922114174,-0.001945111664492653,5.9137475125064766e-05
1589988490.1689737,-0.004524244704870444,-4.558868938823782,8.56,0.4088888888888889,0.4633333333333333,-0.6611111111111111,-0.0002467592695809637,0.0016881430258309845,0.0008440715129154923
1589988490.1789737,-0.03343700715202641,-4.5532814964239865,8.569844489271961,0.4088888888888889,0.4633333333333333,-0.6611111111111111,-0.002181661564992912,-0.00200268369939607,-0.00055389718570593
1589988490.1889737,-0.0026700898587933217,-4.568664955070604,8.615994865211809,0.4088888888888889,0.4633333333333333,-0.6611111111111111,-0.002181661564992912,-0.0011636461877465403,0.001963215349242659
1589988490.1989737,-0.011877457779228197,-4.556245084441543,8.63,0.43,0.4711111111111111,-0.6677777777777778,0.004568122003827779,0.0,0.0006812330348125456
1589988490.2089736,-0.018721383699110715,-4.542557232601778,8.63,0.43,0.4711111111111111,-0.6677777777777778,0.005314678510481102,0.0,-0.0008118799784940988
1589988490.2189736,-0.011918292498487599,-4.528081707501513,8.55767316999395,0.43,0.4711111111111111,-0.6677777777777778,0.0013446485621199885,0.0008815775317782251,-0.00020925325071823083
1589988490.2289736,-0.019847625529340593,-4.520152374470659,8.589390502117363,0.43,0.4711111111111111,-0.6677777777777778,-0.0021151756597681576,1.6621476306188585e-05,-0.0010742093061902674
1589988490.2389736,-0.038182501270746315,-4.529091250635373,8.635456253176866,0.43,0.4711111111111111,-0.6677777777777778,-0.0031733631694384626,-0.0009917016044455505,-9.91291780509055e-05
1589988490.2489736,-0.015887439449307386,-4.546075040367128,8.64,0.43446528899086895,0.4711111111111111,-0.6793875291540371,-0.003272492347489368,-0.001090830782496456,-0.00087675744311684
1589988490.2589736,-0.02,-4.539252987243662,8.594770910705636,0.4355555555555555,0.4711111111111111,-0.6822222222222222,-0.0006833985277310572,-0.0012538036844026155,0.0011723172334495357
1589988490.2689736,-0.02,-4.5307871790731475,8.53551025351203,0.4355555555555555,0.4711111111111111,-0.6822222222222222,0.003933983547822879,-0.003100756514624191,0.002095793648560323
1589988490.2789736,-0.03622259256284636,-4.552518271624769,8.613777407437153,0.4355555555555555,0.4711111111111111,-0.6822222222222222,-0.0023190119753421865,-0.0012281811928457306,-0.0009534803721471813
1589988490.2889736,-0.010957754397237174,-4.569361497068509,8.639042245602763,0.4355555555555555,0.4711111111111111,-0.6822222222222222,-0.0032376674148701136,-0.002146836632373657,-3.482493261925475e-05
1589988490.2989736,-0.013775876656952148,-4.56,8.648112061671524,0.4222222222222222,0.4633333333333333,-0.6888888888888889,0.0012967729069121167,-0.0039514388811545025,0.001090830782496456
1589988490.3089736,-0.02954836890100592,-4.56,8.640225815549497,0.4222222222222222,0.4633333333333333,-0.6888888888888889,0.00215702890973714,-0.0022309268755044565,0.001090830782496456
1589988490.3189735,-0.03587041780961665,-4.54,8.566882636983973,0.4222222222222222,0.4633333333333333,-0.6888888888888889,0.0060945171577668055,0.000640363245284526,0.001731194027780982
1589988490.3289735,-0.010779723980906349,-4.541559447961813,8.611559447961811,0.4222222222222222,0.4633333333333333,-0.6888888888888889,0.0028472188873777055,-0.0022667162570152444,-0.0009207213984517911
1589988490.3389735,-0.019156763666140726,-4.558313527332281,8.628313527332281,0.4222222222222222,0.4633333333333333,-0.6888888888888889,-0.0017217474900463351,-0.0031805095325000525,0.0009068651525178247
1589988490.3489735,-0.0028133183688739244,-4.55,8.617186681631125,0.43,0.4566666666666666,-0.6533333333333333,-0.0017213334233333526,-0.002028218851106392,0.0017213334233333526
1589988490.3589735,-0.01775746886857998,-4.55,8.60224253113142,0.43,0.4566666666666666,-0.6533333333333333,0.0007238974841675219,-0.0012131418819394343,-0.0007238974841675219
1589988490.3689735,-0.023141134844712356,-4.5484294325776435,8.559423404534138,0.43,0.4566666666666666,-0.6533333333333333,0.00017132232902922323,-0.001090830782496456,0.0012621531115256791
1589988490.3789735,-0.03789407472638068,-4.541403950182413,8.610701975091207,0.43,0.4566666666666666,-0.6533333333333333,0.001090830782496456,-0.001090830782496456,0.0021050879611895375
1589988490.3889735,-0.011511510881871932,-4.5589923260787515,8.619496163039376,0.43,0.4566666666666666,-0.6533333333333333,0.001090830782496456,-0.001090830782496456,0.0011457908690972651
1589988490.3989735,-0.01858847260829992,-4.55,8.638588472608301,0.4155555555555556,0.4566666666666666,-0.6677777777777778,-0.0026565973358080156,0.002181661564992912,-0.0007828832766557797
1589988490.4089735,-0.012443602488790017,-4.548778198755604,8.616560186311656,0.4155555555555556,0.4566666666666666,-0.6677777777777778,0.0016239421454878763,0.0016485502020014916,0.0005577194195050357
1589988490.4189734,-0.027022837081580868,-4.54148858145921,8.536374396051304,0.4155555555555556,0.4566666666666666,-0.6677777777777778,0.004804637721298565,-0.001532145373809197,-0.0026229761563056533
1589988490.4289734,-0.02,-4.54,8.569353261785695,0.4155555555555556,0.4566666666666666,-0.6677777777777778,0.004871135291191821,-0.0009450761271738413,0.0018901522543476827
1589988490.4389734,-0.02,-4.54,8.624343990560208,0.4155555555555556,0.4566666666666666,-0.6677777777777778,0.0014433878798117122,-8.81392743288141e-05,0.0001762785486576282
1589988490.4489734,-0.02,-4.541876877942603,8.656246244114794,0.43,0.4711111111111111,-0.6677777777777778,-0.0019769259415149177,0.0008860951590184616,0.002386397188470906
1589988490.4589734,-0.02,-4.55,8.619018819366254,0.43,0.4711111111111111,-0.6677777777777778,-0.0012815550965665295,0.0001907243140700736,0.002700319405279147
1589988490.4689734,-0.02,-4.548522844131042,8.531817246951666,0.43,0.4711111111111111,-0.6677777777777778,-0.0018593961465118818,0.0007685653640154257,0.00016113270924051514
1589988490.4789734,-0.02,-4.54,8.603871335350219,0.43,0.4711111111111111,-0.6677777777777778,0.0,-0.001090830782496456,0.0009852564882618137
1589988490.4889734,-0.02,-4.54,8.626632117323059,0.43,0.4711111111111111,-0.6677777777777778,0.0,-0.001090830782496456,0.0003645524480202099
1589988490.4989734,-0.02,-4.553393948773504,8.64,0.42032659255246896,0.46143770366357995,-0.6774511852253089,-0.0007305265810659738,-0.001090830782496456,0.0007305265810659738
1589988490.5089734,-0.02859869332805385,-4.56,8.612993466640269,0.4155555555555556,0.4566666666666666,-0.6822222222222222,-0.0010144013598226299,0.0010144013598226299,-0.001090830782496456
1589988490.5189734,-0.011990892892496538,-4.56,8.529954464462483,0.4155555555555556,0.4566666666666666,-0.6822222222222222,-0.0001085863625894315,0.0001085863625894315,-0.001090830782496456
