time,acc_x,acc_y,acc_z,mag_x,mag_y,mag_z,gyr_x,gyr_y,gyr_z
1589988523.1461494,-3.9,-0.8,8.93,0.31222222222222223,-0.3533333333333333,-0.6111111111111112,-0.002181661564992912,-0.004363323129985824,0.0
1589988523.1561494,-3.871500305768839,-0.8094998980770538,8.939499898077054,0.31222222222222223,-0.3533333333333333,-0.6111111111111112,0.0009271728109158232,-0.009544713756500383,0.0
1589988523.1661494,-3.877368553188437,-0.7926314468115631,8.873157234057814,0.31222222222222223,-0.3533333333333333,-0.6111111111111112,-0.0016649234194074738,-0.002181661564992912,-0.001090830782496456
1589988523.1761494,-3.870429322797393,-0.8,8.910214661398697,0.31222222222222223,-0.3533333333333333,-0.6111111111111112,-0.003249076421338187,-0.002158245638841731,-0.0009971670778917323
1589988523.1861494,-3.8890988628999,-0.7981977257997998,8.9245056855005,0.31222222222222223,-0.3533333333333333,-0.6119121218667557,-0.002378259182600681,-0.0013857272089081091,0.0028792971122738307
1589988523.1961493,-3.8828026769417967,-0.7884080308253905,8.97,0.31222222222222223,-0.3533333333333333,-0.62,-0.003446149245534332,-0.0031404246173838348,-0.0007851061543459587
1589988523.2061493,-3.8874739491098893,-0.8074739491098891,8.939687389318669,0.31222222222222223,-0.3533333333333333,-0.62,-0.0002641825617707886,0.0008266482207256674,0.0005510988138171115
1589988523.2161493,-3.880597569646435,-0.797609721414259,8.85119513929287,0.31222222222222223,-0.3533333333333333,-0.62,0.002181661564992912,0.003207307610987657,0.0019861073554877785
1589988523.2261493,-3.8949317802383376,-0.7649317802383374,8.874931780238336,0.31222222222222223,-0.3533333333333333,-0.62,0.002719635334641526,0.002719635334641526,-0.001090830782496456
1589988523.2361493,-3.909200786697658,-0.7815984266046845,8.894795279814053,0.3128438325684884,-0.35386614220156143,-0.6192895881756958,0.00401460054119561,0.003927419893998058,-0.0010036501352989025
1589988523.2461493,-3.897809469142156,-0.7978094691421559,8.943428407426467,0.32,-0.36,-0.6111111111111112,0.00047789969794894414,-0.0015687304804454002,-0.00023894984897447207
1589988523.2561493,-3.8885050772096377,-0.7929898455807246,8.914767770233732,0.32,-0.36,-0.6111111111111112,0.0024262677345703184,-0.003435563127207639,-0.000927760002778185
1589988523.2661493,-3.867628572036513,-0.8205142881460519,8.854742855926974,0.32,-0.36,-0.6111111111111112,0.005195471250377826,-0.005712836574586733,0.0008321481203920025
1589988523.2761493,-3.8612363245174253,-0.79,8.8749452980697,0.32,-0.36,-0.6111111111111112,0.003958736877756995,-0.005735812190521076,-0.00013486208407627648
1589988523.2861493,-3.8697497310573,-0.79,8.9089989242292,0.32,-0.36,-0.6111111111111112,0.0011727311024764507,-0.00016380063995998905,-0.0010635306758364578
1589988523.2961493,-3.892077996058628,-0.79,8.947922003941372,0.32,-0.36,-0.6111111111111112,0.0013175049891622193,0.002819143934157841,0.0024083357716586755
1589988523.3061492,-3.8985355339327503,-0.79,8.941464466067249,0.32,-0.36,-0.6111111111111112,0.0020219130983851665,0.001410327715711947,0.0031127438808816223
1589988523.3161492,-3.8978873162017313,-0.8,8.839014154184417,0.32,-0.36,-0.6111111111111112,-0.004132865077902541,0.003211032869569408,0.0017207454608263455
1589988523.3261492,-3.892519833342846,-0.8,8.91,0.32,-0.36,-0.6111111111111112,-0.003272492347489368,-0.0021903154933512825,0.0002748711777137066
1589988523.3361492,-3.9006988631825563,-0.7993011368174436,8.910698863182557,0.31860227363488725,-0.36,-0.6132077006587803,-0.0029675557585749947,-0.005759090501396653,0.0011670649297250493
1589988523.3461492,-3.9039700524941914,-0.7920099825019363,8.926029947505809,0.3,-0.36,-0.6411111111111111,0.001090830782496456,-0.0104752422780855,0.0019624064864537803
1589988523.3561492,-3.8752074971086468,-0.7976037485543235,8.923641234097557,0.3,-0.36,-0.6411111111111111,0.001090830782496456,-0.01308996938995747,0.00030665933063276274
1589988523.3661492,-3.8609402000136064,-0.7904701000068032,8.845171100074834,0.3,-0.36,-0.6411111111111111,0.001090830782496456,-0.01308996938995747,-0.0020278216975111
1589988523.3761492,-3.8519861644888547,-0.7939723289777095,8.941986164488855,0.3,-0.36,-0.6411111111111111,0.0,-0.0030633815118593782,0.00043331387270881505
1589988523.3861492,-3.859150397130412,-0.808300794260825,8.949150397130412,0.3,-0.36,-0.6411111111111111,0.0,0.0016255977871668936,0.001996306972384239
1589988523.3961492,-3.887894101635724,-0.8,8.973152813085791,0.32,-0.36777777777777776,-0.6255555555555555,0.0024113794410490306,0.0036741695018174675,0.0017222258128806742
1589988523.4061491,-3.88,-0.8,8.894173044768387,0.32,-0.36777777777777776,-0.6255555555555555,0.002409265849497507,0.001378572948493743,0.0
1589988523.4161491,-3.8824671424941677,-0.7975328575058324,8.854934284988335,0.32,-0.36777777777777776,-0.6255555555555555,0.0002691234977443154,0.002181661564992912,-0.0002691234977443154
1589988523.4261491,-3.8882319949978212,-0.79,8.871768005002178,0.32,-0.36777777777777776,-0.6255555555555555,0.0012836902104949104,0.0016030832809975485,-0.000705111926499547
1589988523.4361491,-3.8802847831441727,-0.79,8.879715216855828,0.32,-0.36777777777777776,-0.6255555555555555,0.0021505965429929465,-0.0009976357164965602,0.001028700738496525
1589988523.446149,-3.872512337933919,-0.7675370138017567,8.91,0.2933333333333333,-0.36777777777777776,-0.62,0.003541162463680151,-0.003272492347489368,0.0013648843379316803
1589988523.456149,-3.8787069928154563,-0.7912930071845438,8.900948949708194,0.2933333333333333,-0.36777777777777776,-0.62,0.0013729211902743356,-0.0022851759202667894,0.002040616361103972
1589988523.466149,-3.870197402098797,-0.799802597901203,8.841579216790375,0.2933333333333333,-0.36777777777777776,-0.62,0.003272492347489368,0.004320256672806382,0.001090830782496456
1589988523.476149,-3.8821426946698003,-0.7878573053301995,8.924285389339602,0.2933333333333333,-0.36777777777777776,-0.62,0.0030387606171584118,0.0019479298346619556,0.0008570990521654995
1589988523.486149,-3.890123871032847,-0.78,8.940619355164236,0.29366365608759265,-0.36784659501824846,-0.6198898924152468,0.002181661564992912,0.001117855249634342,1.3512233568942931e-05
1589988523.496149,-3.8974669324152926,-0.78,8.983245153107447,0.32,-0.37333333333333335,-0.6111111111111112,0.0019053467554386366,0.0030882824744531846,0.0009987258459783642
1589988523.506149,-3.873813976377953,-0.7838139763779528,8.896651082677165,0.32,-0.37333333333333335,-0.6111111111111112,-0.0006747904988179356,0.0008828106406571958,0.0006240604255177806
1589988523.516149,-3.8875748031496062,-0.7975748031496064,8.848488188976377,0.32,-0.37333333333333335,-0.6111111111111112,0.000826282844694166,0.000132273968901145,0.002875670440785933
1589988523.526149,-3.8913127624255446,-0.7813127624255444,8.857876574553266,0.32,-0.37333333333333335,-0.6111111111111112,0.001608860899437503,0.003933722630819267,-0.00014320016638885222
1589988523.536149,-3.8995039546919243,-0.7895039546919247,8.907023728151549,0.32,-0.37333333333333335,-0.6111111111111112,-0.0019652209683682863,0.0012531612299649252,-0.0010367206333402996
1589988523.546149,-3.8726555759522716,-0.7853111519045434,8.922655575952271,0.3,-0.3533333333333333,-0.62,0.001090830782496456,-0.0013126263667943242,0.0
1589988523.556149,-3.88,-0.7953894341198581,8.911557736479432,0.3,-0.3533333333333333,-0.62,0.001090830782496456,0.0013422981418357936,0.0
1589988523.566149,-3.88,-0.7820608052588333,8.854121610517666,0.3,-0.3533333333333333,-0.62,0.0017652277264162042,0.002406460546299495,0.0
1589988523.576149,-3.8784825963549445,-0.7930348072901106,8.886691440095607,0.3,-0.3533333333333333,-0.62,0.0040322770088861,0.00343801540803923,0.00016552306054986183
1589988523.586149,-3.870650395876905,-0.8086992082461907,8.972845645354049,0.3,-0.3533333333333333,-0.62,0.0023235559336601944,0.004292375945652183,0.0010198835981628147
1589988523.596149,-3.8799987001169893,-0.8000012998830106,8.97000129988301,0.31222063347632045,-0.36777590016898476,-0.6055574331643485,0.0043630395395055175,0.002181945155473218,0.001090830782496456
1589988523.606149,-3.882230062511839,-0.78,8.961009187346088,0.31222222222222223,-0.36777777777777776,-0.6055555555555555,0.0031470127125829512,0.0008475686990158815,-0.00036104453205473245
1589988523.616149,-3.89,-0.7820685201549861,8.864137040309972,0.31222222222222223,-0.36777777777777776,-0.6055555555555555,-0.000639549690641828,0.00022564054592731398,0.002181661564992912
1589988523.626149,-3.888635478732818,-0.7913645212671819,8.884093563801546,0.31222222222222223,-0.36777777777777776,-0.6055555555555555,0.001090830782496456,0.0013885231428190687,0.0018839692046702995
1589988523.636149,-3.880387587752935,-0.7996124122470651,8.908837236741196,0.31222222222222223,-0.36777777777777776,-0.6055555555555555,0.001090830782496456,0.0031879338171253574,8.455853036401072e-05
1589988523.646149,-3.8867679469348455,-0.7983839734674227,8.916767946934845,0.32666666666666666,-0.3533333333333333,-0.6255555555555555,0.0009145496337898231,-0.0003525622974132656,0.003448773496196001
1589988523.656149,-3.8718102064833637,-0.7909051032416818,8.901810206483365,0.32666666666666666,-0.3533333333333333,-0.6255555555555555,9.873144773638607e-05,-0.00198419866952014,0.004264591682249437
1589988523.666149,-3.8941830108232205,-0.7819389963922598,8.835511971138079,0.32666666666666666,-0.3533333333333333,-0.6255555555555555,0.0,-0.0013023424776791076,0.0008460467807306065
1589988523.676149,-3.887280447425758,-0.78,8.904079328861364,0.32666666666666666,-0.3533333333333333,-0.6255555555555555,-0.0009425021993664159,0.0018850043987328317,0.0012391593656264962
1589988523.686149,-3.8728890528230027,-0.78,8.925666420765495,0.32666666666666666,-0.3533333333333333,-0.6255555555555555,-0.00015757338757947745,0.0003151467751589549,0.0020240881774134345
1589988523.6961489,-3.879727808247004,-0.789727808247004,8.959183424741012,0.32666666666666666,-0.3533333333333333,-0.6255555555555555,-0.0010611392682054696,0.0,-0.0010017562396234976
1589988523.7061489,-3.89,-0.7947361389445557,8.932634157203294,0.32666666666666666,-0.3533333333333333,-0.6255555555555555,-0.004535534001682548,-0.0005166326150901719,0.0
1589988523.7161489,-3.889931386949436,-0.8198627738988712,8.84013722610113,0.32666666666666666,-0.3533333333333333,-0.6255555555555555,-0.005446669389718616,-0.003265007824725705,1.4969045527326163e-05
1589988523.7261488,-3.8814919817300146,-0.8029839634600294,8.85701603653997,0.32666666666666666,-0.3533333333333333,-0.6255555555555555,-0.0045260730897880574,-0.002344411524795146,0.0018561616453884443
1589988523.7361488,-3.8721852296131996,-0.7921852296131997,8.922518163094402,0.32666666666666666,-0.3533333333333333,-0.6255555555555555,-0.003510863920379468,0.00037571606382615693,-0.00037571606382615693
1589988523.7461488,-3.8724946449167903,-0.7875053550832097,8.975032130499258,0.30666666666666664,-0.36777777777777776,-0.6111111111111112,-0.004227261356654168,0.004635446676649135,-0.0001360617733316555
1589988523.7561488,-3.8888840165087704,-0.7722319669824594,8.86776803301754,0.30666666666666664,-0.36777777777777776,-0.6111111111111112,-0.003759432005485863,0.0066667196094778594,-0.0009690958679973322
1589988523.7661488,-3.8790115939204988,-0.7890115939204989,8.852965218238504,0.30666666666666664,-0.36777777777777776,-0.6111111111111112,-0.00752799709976254,0.007959270610613146,0.00010781837771265146
1589988523.7761488,-3.8724752227450194,-0.7808250742483399,8.88165014849668,0.30666666666666664,-0.36777777777777776,-0.6111111111111112,-0.006634986333772158,0.01135831601893167,0.0008208258661161889
1589988523.7861488,-3.8934698167984783,-0.7878232722661594,8.895646544532319,0.30666666666666664,-0.36777777777777776,-0.6111111111111112,-0.007398371315756489,0.015175240928853322,-0.001469329079836802
1589988523.7961488,-3.9,-0.79,8.939833206974981,0.3199444023249937,-0.360032431977087,-0.5900880296520933,-0.013067226519207924,0.010931050695714106,0.001077185060046728
1589988523.8061488,-3.8992175698467406,-0.8192175698467404,8.876870279386962,0.32,-0.36,-0.59,-0.009732127152835215,0.009732127152835215,0.0007494312239648967
1589988523.8161488,-3.890783076809235,-0.8084338463815303,8.843915384046174,0.32,-0.36,-0.59,-0.008897487117686148,0.008128703257970899,-0.003272492347489368
1589988523.8261487,-3.8985422524789106,-0.7929154950421785,8.882711262394555,0.32,-0.36,-0.59,-0.01059027665114215,0.002203939890874888,-0.003272492347489368
1589988523.8361487,-3.854034140746238,-0.79,8.941711591660482,0.32,-0.36,-0.59,-0.010281545647240776,-0.0026697422838462444,-0.0038992545252131516
1589988523.8461487,-3.788745093641359,-0.79,9.005003925086912,0.3074980374565437,-0.36,-0.6122257111883668,-0.012544982159272071,-0.00545415391248228,-0.005045199409186816
1589988523.8561487,-3.6783798046067178,-0.7889198697378117,8.9954094463857,0.3,-0.36,-0.6255555555555555,-0.01524217497147286,-0.006456616744546162,-0.020194617771009175
1589988523.8661487,-3.6195075692937766,-0.7497537846468881,8.83123107676556,0.3,-0.36,-0.6255555555555555,-0.014127084315194403,-0.0031919185616000856,-0.041112760954002174
1589988523.8761487,-3.5989235369500214,-0.74,8.881076463049979,0.3,-0.36,-0.6255555555555555,-0.012116562510574688,0.00023484780622734462,-0.07215652249548214
1589988523.8861487,-3.575553925301339,-0.74,8.904446074698662,0.3,-0.36,-0.6255555555555555,-0.014665791686711727,0.005333306158501421,-0.09934830037427722
1589988523.8961487,-3.5338226375814625,-0.7110581100651702,8.91,0.3192945932898866,-0.3511566447421353,-0.6046530794915118,-0.0160608985660638,0.009702055139432408,-0.1350134875133527
1589988523.9061487,-3.2575982766594453,-0.6120086167027724,8.848398851106296,0.32666666666666666,-0.3477777777777778,-0.5966666666666667,-0.019809612334997347,0.006370326444917598,-0.19853433553589758
1589988523.9161487,-3.226326530612245,-0.7481632653061224,8.83,0.32666666666666666,-0.3477777777777778,-0.5966666666666667,-0.021215545626920868,0.0038624314441456143,-0.25321744358175385
1589988523.9261487,-3.191301623469097,-0.7311156772592261,8.832417300728324,0.32666666666666666,-0.3477777777777778,-0.5966666666666667,-0.015413616049681481,-0.0008879949328806035,-0.2984255947553416
1589988523.9361486,-3.251032469381942,-0.7823135451845221,8.943346014566465,0.32666666666666666,-0.3477777777777778,-0.5966666666666667,-0.021929240588309914,0.008420040122302873,-0.3272805034264104
1589988523.9461486,-3.2763650148335346,-0.7368174925832326,8.986817492583233,0.32666666666666666,-0.3533333333333333,-0.6055555555555555,-0.0186267536443201,0.004198062446225126,-0.34814028030013017
1589988523.9561486,-3.110454895066476,-0.8197725524667618,9.069772552466763,0.32666666666666666,-0.3533333333333333,-0.6055555555555555,-0.01963219734304,0.0021871750487853347,-0.35015116769757
1589988523.9661486,-2.8443879206942775,-1.0069122039558787,9.06016251558127,0.32666666666666666,-0.3533333333333333,-0.6055555555555555,0.006119519898136822,0.05047130028325485,-0.33942565035508193
1589988523.9761486,-2.6130779356004794,-0.7911822950433194,8.74392998172924,0.32666666666666666,-0.3533333333333333,-0.6055555555555555,0.045443117606707925,0.07160216170846459,-0.3675379245649281
1589988523.9861486,-2.1936983824303,-1.0479057075223568,9.08938880852183,0.32666666666666666,-0.3533333333333333,-0.6055555555555555,0.02384969383999164,0.0479826751717948,-0.41700772351095433
1589988523.9961486,-1.9449430181051908,-1.2162327441620435,9.154463080032684,0.3183396646549788,-0.3430847154727944,-0.6055555555555555,0.012448690552958951,0.04554594980907116,-0.4661956879893449
1589988524.0061486,-2.1312720647596604,-0.9631801618991512,8.666536841875587,0.31222222222222223,-0.33555555555555555,-0.6055555555555555,0.09120586333946328,0.08293400956911531,-0.47079174571993426
1589988524.0161486,-2.1495753965656434,-1.0089384914141084,8.904480155353363,0.31222222222222223,-0.33555555555555555,-0.6055555555555555,0.022323723080530017,0.051986961046985865,-0.49574904291519994
1589988524.0261486,-2.183058984910837,-1.0678532235939644,9.091824417009603,0.31222222222222223,-0.33555555555555555,-0.6055555555555555,-0.015335973511393933,0.01430574443903617,-0.5161619731442421
1589988524.0361485,-2.262804891363686,-1.0581585325908942,9.035353641227209,0.31222222222222223,-0.33555555555555555,-0.6055555555555555,0.006477145715427478,0.031958686012040834,-0.522708817749284
1589988524.0461485,-2.3140074898744225,-1.0259925101255776,8.90397004050231,0.3328953385029749,-0.33888992914922533,-0.6228942982426384,0.03643967151992501,0.05192681332106214,-0.5288363973913972
1589988524.0561485,-2.3683111416544973,-1.0195777854136243,8.993244566617989,0.3466666666666667,-0.3411111111111111,-0.6344444444444445,0.019833704371825214,0.04532279615028366,-0.5532209081729244
1589988524.0661485,-2.420909090909091,-1.0127272727272727,8.963636363636363,0.3466666666666667,-0.3411111111111111,-0.6344444444444445,0.002677493738854935,0.03203075843148684,-0.5731819929845015
1589988524.0761485,-2.449542321774715,-1.038626965324144,8.873661425802283,0.3466666666666667,-0.3411111111111111,-0.6344444444444445,0.013382000977862504,0.0408025453892598,-0.5980173754463008
1589988524.0861485,-2.471542155910656,-1.061542155910656,8.862819281363114,0.3466666666666667,-0.3411111111111111,-0.6344444444444445,0.02593022356679467,0.046934633985557674,-0.6160985872355874
1589988524.0961485,-2.441147216093931,-1.0505736080469656,8.908565979882587,0.3466666666666667,-0.3292394271398123,-0.6258104924653181,0.021007354059055627,0.04590874926205881,-0.6514721003580118
1589988524.1061485,-2.375098961968882,-1.0963578843079418,8.91,0.3466666666666667,-0.3288888888888889,-0.6255555555555555,0.016680296290271682,0.04379214857627066,-0.6715328786743953
1589988524.1161485,-2.4784735177549138,-1.1,8.848015132711478,0.3466666666666667,-0.3288888888888889,-0.6255555555555555,0.01720764925353781,0.04701398136422213,-0.6916367181543147
1589988524.1261485,-2.51923486580816,-1.1092348658081599,8.85770459742448,0.3466666666666667,-0.3288888888888889,-0.6255555555555555,0.023497498057402144,0.053033392377726425,-0.7192029569859177
1589988524.1361485,-2.5149355373600524,-1.1201289252798952,8.895451238479632,0.3466666666666667,-0.3288888888888889,-0.6255555555555555,0.024550724389367836,0.052898261167880524,-0.733192985067965
1589988524.1461484,-2.5084873304325566,-1.131512669567443,8.933025339134886,0.3517088985581435,-0.3298973352671843,-0.6233705884025822,0.025089107997418484,0.05268989086541238,-0.7481725508481131
1589988524.1561484,-2.5407915186500887,-1.1644749111900532,8.941841696269982,0.38,-0.33555555555555555,-0.6111111111111112,0.022419309344920778,0.05276167335649099,-0.7817820012274983
1589988524.1661484,-2.55,-1.184883739657359,8.828371952569805,0.38,-0.33555555555555555,-0.6111111111111112,0.02262839771877465,0.053983441697520944,-0.7975748944301312
1589988524.1761484,-2.5573190637126046,-1.1826809362873951,8.848552509700838,0.38,-0.33555555555555555,-0.6111111111111112,0.02530260443145422,0.05853346912320387,-0.8145348011297145
1589988524.1861484,-2.5663567721583393,-1.1990703164750178,8.87635677215834,0.38,-0.33555555555555555,-0.6111111111111112,0.021326024856571903,0.05999569303730508,-0.8247612478529448
1589988524.1961484,-2.57,-1.2301352567994808,8.88,0.3827965634443723,-0.3282844906001875,-0.6155856126221069,0.01854412330243975,0.058897485140787846,-0.8372753310352066
1589988524.2061484,-2.5934769726247984,-1.25,8.8976077294686,0.3855555555555555,-0.3211111111111111,-0.62,0.021105063744335455,0.06037497191420787,-0.8528870383219891
1589988524.2161484,-2.5981578037620743,-1.25,8.844867920691408,0.3855555555555555,-0.3211111111111111,-0.62,0.02419922965129489,0.06282324621173264,-0.8644978027459956
1589988524.2261484,-2.641160499599252,-1.3450123563986107,8.836543213999466,0.3855555555555555,-0.3211111111111111,-0.62,0.028278105015176296,0.062470936130354995,-0.8741756291763122
1589988524.2361484,-2.653735278347847,-1.3361469484349289,8.89385305156507,0.3855555555555555,-0.3211111111111111,-0.62,0.029452431127404314,0.06422747996888015,-0.8807207442000126
1589988524.2461483,-2.642690471387264,-1.3611667002891532,8.92,0.39286508416829174,-0.3073042237314983,-0.62,0.02785773936414206,0.06146311754163172,-0.8891543549935472
1589988524.2561483,-2.64,-1.3971553488842274,8.859956278905203,0.3955555555555556,-0.3022222222222222,-0.62,0.0272707695624114,0.06280273043441233,-0.8968228240938189
1589988524.2661483,-2.623845281256256,-1.4323094374874885,8.825767921884383,0.3955555555555556,-0.3022222222222222,-0.62,0.029032976011236278,0.06326818538479445,-0.905683663014295
1589988524.2761483,-2.612576963374128,-1.44,8.834846073251745,0.3955555555555556,-0.3022222222222222,-0.62,0.030262158812514314,0.062458457699684444,-0.9108101217774913
1589988524.2861483,-2.6051905847342263,-1.4592376610630955,8.86404707632887,0.3955555555555556,-0.3022222222222222,-0.62,0.028444758622814953,0.062177354602297986,-0.9145576632758945
1589988524.2961483,-2.603720325203252,-1.476279674796748,8.886279674796748,0.4108502258355917,-0.2947815718157182,-0.6307476061427281,0.02699158783043588,0.06380065270333987,-0.9198236352310823
1589988524.3061483,-2.602790868524162,-1.5060456573791903,8.858372605572486,0.43666666666666665,-0.2822222222222222,-0.6488888888888888,0.029147994597798682,0.06418149497361134,-0.9286520382918431
1589988524.3161483,-2.6,-1.5261785352156618,8.794393183059043,0.43666666666666665,-0.2822222222222222,-0.6488888888888888,0.029452431127404314,0.0646161326655909,-0.9345224993118662
1589988524.3261483,-2.5939769266017954,-1.5480692201946145,8.784092293592819,0.43666666666666665,-0.2822222222222222,-0.6488888888888888,0.031423477287803515,0.06676387772338682,-0.938337672938055
1589988524.3361483,-2.59,-1.589700471904221,8.859400943808442,0.43666666666666665,-0.2822222222222222,-0.6488888888888888,0.03272492347489368,0.06698354473462437,-0.9437410501905398
1589988524.3461483,-2.5855655112191047,-1.627737955123581,8.908868977561792,0.44011571349625184,-0.2703969188065015,-0.651845214742819,0.033692378848260825,0.06799186079233453,-0.9536133068204937
1589988524.3561482,-2.6047460063375913,-1.6582486687791969,8.928248668779197,0.4444444444444444,-0.25555555555555554,-0.6555555555555556,0.03490658503988659,0.06981317007977318,-0.9621127501618744
1589988524.3661482,-2.6311133779698426,-1.6966598660904724,8.873350334773818,0.4444444444444444,-0.25555555555555554,-0.6555555555555556,0.03490658503988659,0.06932848003662784,-0.9664749605501824
1589988524.3761482,-2.6154038815587604,-1.716211644676281,8.817576710647437,0.4444444444444444,-0.25555555555555554,-0.6555555555555556,0.03290115004960506,0.07022641553998786,-0.9874723483790241
1589988524.3861482,-2.5658503724837534,-1.7441496275162467,8.868921268935535,0.4444444444444444,-0.25555555555555554,-0.6555555555555556,0.03123125866319326,0.07199483164476607,-1.014001942501242
1589988524.3961482,-2.5484136935044472,-1.7195178389733154,8.888413693504448,0.46688096045630423,-0.24059787821431564,-0.6611646845585205,0.032551884279311404,0.07383041481859444,-1.0344384078292308
1589988524.4061482,-2.55,-1.776523800987566,8.847666672098821,0.4711111111111111,-0.23777777777777775,-0.6622222222222223,0.03338461629203827,0.07351680039261442,-1.046615773594154
1589988524.4161482,-2.5433799865279543,-1.806759973055909,8.773659905695682,0.4711111111111111,-0.23777777777777775,-0.6622222222222223,0.03309362280980529,0.07236353097967768,-1.065650071165607
1589988524.4261482,-2.54,-1.8819200307748007,8.772341826574944,0.4711111111111111,-0.23777777777777775,-0.6622222222222223,0.034349666952570225,0.0744319468612809,-1.0860969787542667
1589988524.4361482,-2.5523826831435263,-1.9347653662870528,8.817148049430578,0.4711111111111111,-0.23777777777777775,-0.6622222222222223,0.03895880862274416,0.07931954757511303,-1.1009613414535997
1589988524.4461482,-2.5465322674757846,-1.929798401213677,8.853467732524214,0.4838306362728699,-0.22805108206584457,-0.6719489179341555,0.03924791715368894,0.07887410524566567,-1.1196806088605689
1589988524.4561481,-2.5551389675291105,-1.9805558701164423,8.882708451293666,0.49,-0.22333333333333333,-0.6766666666666666,0.034876267028182334,0.07910039073684519,-1.1381229063833187
1589988524.4661481,-2.56,-2.0,8.821453202555395,0.49,-0.22333333333333333,-0.6766666666666666,0.04295467118667208,0.08544632153178433,-1.1562236099826795
1589988524.4761481,-2.5102091136079903,-2.0640168539325843,8.792887016229713,0.49,-0.22333333333333333,-0.6766666666666666,0.042711268204040385,0.0864905564345138,-1.1707307327238639
1589988524.486148,-2.5085539367307326,-2.0961846455769106,8.833292519038375,0.49,-0.22333333333333333,-0.6766666666666666,0.03807836884780291,0.08617563181722003,-1.1876429161195199
1589988524.496148,-2.5106465785381027,-2.1,8.869353421461897,0.4957159797822706,-0.20514612493519957,-0.6891378952825298,0.03701771582761311,0.08617563181722003,-1.204223087660571
1589988524.506148,-2.4717204676999573,-2.1169677193800256,8.817785028939905,0.5022222222222222,-0.18444444444444444,-0.7033333333333334,0.036945150013476376,0.08926045025196896,-1.2289017894053502
1589988524.516148,-2.45,-2.1568918729892292,8.753864876206462,0.5022222222222222,-0.18444444444444444,-0.7033333333333334,0.03775748479372122,0.0916297857297023,-1.2525950824978376
1589988524.526148,-2.4381829955812893,-2.1977255066280663,8.763634008837421,0.5022222222222222,-0.18444444444444444,-0.7033333333333334,0.03991442577871374,0.09356333855622628,-1.2799395039607706
1589988524.536148,-2.4253021063884246,-2.2240936808347262,8.784697893611575,0.5022222222222222,-0.18444444444444444,-0.7033333333333334,0.041385660345248834,0.09643966016651162,-1.3033302424939237
1589988524.546148,-2.409775852898716,-2.242556036775321,8.820672441303852,0.5042102508252497,-0.17450430142930712,-0.7092974191424157,0.04198475979821915,0.09956887222253762,-1.3238820838220764
1589988524.556148,-2.375507919279627,-2.2859366457629844,8.869571273516643,0.51,-0.14555555555555555,-0.7266666666666667,0.04281078891598976,0.10705899428623256,-1.3562645846507861
1589988524.566148,-2.364291771356784,-2.3014588567839196,8.757209484924624,0.51,-0.14555555555555555,-0.7266666666666667,0.04332420825783192,0.1112647398146385,-1.3837822281541543
1589988524.576148,-2.2883964177922915,-2.285114541586265,8.71,0.51,-0.14555555555555555,-0.7266666666666667,0.03531456039414371,0.10680146029411369,-1.4041241189516516
1589988524.586148,-2.23857082567148,-2.3122849908057757,8.728570825671481,0.51,-0.14555555555555555,-0.7266666666666667,0.03512456705107548,0.10739992434638501,-1.4197939826050545
1589988524.596148,-2.2646868702136236,-2.403131297863765,8.781252519145506,0.5271200848672131,-0.11426712459133861,-0.7378832739934614,0.04298534442564121,0.11678720804909999,-1.4376135990319454
1589988524.606148,-2.2852486949936437,-2.4626243474968224,8.825248694993645,0.5422222222222223,-0.08666666666666667,-0.7477777777777778,0.04076301839194205,0.11849827585254051,-1.4504569181116171
1589988524.616148,-2.266926686788044,-2.4920488754746373,8.75731671697011,0.5422222222222223,-0.08666666666666667,-0.7477777777777778,0.03855686954583145,0.11890055529211367,-1.4649006495070003
1589988524.626148,-2.2105614756652336,-2.4982245902660933,8.72532622920172,0.5422222222222223,-0.08666666666666667,-0.7477777777777778,0.03516149969274143,0.11954280426282637,-1.4782081299477008
1589988524.636148,-2.167313892232109,-2.4843284730580275,8.72731389223211,0.5422222222222223,-0.08666666666666667,-0.7477777777777778,0.03505308949180248,0.12555939462946575,-1.4862975435678365
1589988524.646148,-2.156075561089683,-2.558982294165882,8.788982294165882,0.5516730950283962,-0.08666666666666667,-0.7795057079127903,0.03732289763389588,0.13179708583434752,-1.4940512943246973
1589988524.656148,-2.131561422075886,-2.61,8.77743512856695,0.5577777777777778,-0.08666666666666667,-0.8,0.031974742145366386,0.13370178898876858,-1.5015833017787452
1589988524.666148,-2.1414164172049786,-2.662360695341631,8.735236069534164,0.5577777777777778,-0.08666666666666667,-0.8,0.026128436396979995,0.13702801916064258,-1.5104869790895505
1589988524.676148,-2.146619383484941,-2.7053238766969883,8.693238766969882,0.5577777777777778,-0.08666666666666667,-0.8,0.02967988131492538,0.1355456527662069,-1.5187345583567495
1589988524.686148,-1.9197661070454872,-2.56367054096714,8.141545415411107,0.5577777777777778,-0.08666666666666667,-0.8,0.11483948416973308,0.034701379249119924,-1.5241939508382476
1589988524.696148,-1.609477377654663,-2.30908541089566,7.966402123730378,0.5639687339694265,-0.11086767723402073,-0.8213869395711502,0.15622449386661846,0.06588731239725527,-1.5106011013679215
1589988524.706148,-1.6577031186264695,-2.3429558349093336,8.350857344161382,0.57,-0.13444444444444445,-0.8422222222222222,-0.0036235224780379743,0.24374309848776937,-1.5080076021311661
1589988524.716148,-1.8369800446936135,-2.557065511428235,8.711082447955462,0.57,-0.13444444444444445,-0.8422222222222222,-0.1948422553618846,0.22645462295773938,-1.544756232632489
1589988524.726148,-1.8364127725856698,-2.585070093457944,8.861281931464175,0.57,-0.13444444444444445,-0.8422222222222222,-0.05429873582448208,0.08563565358875058,-1.5466493771602416
1589988524.7361479,-1.7819555474252264,-2.561534802890332,7.785519985365408,0.57,-0.13444444444444445,-0.8422222222222222,0.18169072272401865,0.0989795487189842,-1.4994197955579902
1589988524.7461479,-1.827277863379558,-2.688638931689779,8.081923472008219,0.5560617474176797,-0.14968940820635737,-0.8587738971637277,0.015740990733089266,0.15964171237561514,-1.511281618979355
1589988524.7561479,-1.9070176586003924,-2.866189230433835,9.061165249618487,0.5344444444444445,-0.17333333333333334,-0.8844444444444445,-0.042457859348149336,0.05306533854005132,-1.5394694835838567
1589988524.7661479,-1.9469396110542476,-2.9620489106594534,8.888140078958912,0.5344444444444445,-0.17333333333333334,-0.8844444444444445,0.04991308462062952,0.13469678669210441,-1.4988819237832747
1589988524.7761478,-1.9049481388848022,-2.9863851699279094,8.451762910107401,0.5344444444444445,-0.17333333333333334,-0.8844444444444445,0.04424733516762677,0.12161551547270699,-1.4890421946794814
1589988524.7861478,-1.860521968155154,-3.0383131808930925,8.82623488566982,0.5344444444444445,-0.17333333333333334,-0.8844444444444445,-0.0015584789367068972,0.08359749446440726,-1.4879358907450002
1589988524.7961478,-1.8332574784364104,-3.04325747843641,8.470455129381538,0.48858383801309113,-0.14522521971411678,-0.7498213739524071,0.042486547739179266,0.10577024778457997,-1.4552054990357273
1589988524.8061478,-1.9162673488270832,-3.1712812278887497,8.625097153431666,0.4655555555555556,-0.13111111111111112,-0.6822222222222222,0.03148827652727387,0.0978952498605928,-1.4359404788453098
1589988524.8161478,-2.019548420381779,-3.3474428697156386,8.989096840763558,0.4655555555555556,-0.13111111111111112,-0.6822222222222222,0.02712299047792036,0.09135084608679873,-1.4158164548168177
1589988524.8261478,-1.9596410633875996,-3.3370661586421893,8.590480602701767,0.4655555555555556,-0.13111111111111112,-0.6822222222222222,0.03856447655542112,0.09845564896051003,-1.3914036881154588
1589988524.8361478,-1.921629718394248,-3.3636668663870584,8.583852606351108,0.4655555555555556,-0.13111111111111112,-0.6822222222222222,0.03433894781124778,0.08856938121260245,-1.3695501387181748
1589988524.8461478,-1.9556422207556508,-3.45,9.123531182973107,0.4757237071257035,-0.07784936479128857,-0.656559744449944,0.046650473563652574,0.08927795744224602,-1.3422573342221047
1589988524.8561478,-1.8537293729372937,-3.3184301430143015,9.188204620462047,0.4888888888888889,-0.008888888888888889,-0.6233333333333333,0.11157506857190316,0.15426411322746195,-1.2976240980619769
1589988524.8661478,-1.6327680342212716,-3.164931751895781,8.98555551234688,0.4888888888888889,-0.008888888888888889,-0.6233333333333333,0.11370796321532547,0.15462156227223556,-1.2670435404389127
1589988524.8761477,-1.6831049796843995,-3.3687026363035057,9.709927241802891,0.4888888888888889,-0.008888888888888889,-0.6233333333333333,-0.07295846926978353,-0.03785470391364296,-1.30934677171575
1589988524.8861477,-1.7150193176847937,-3.3256732030908296,9.76207756232687,0.4888888888888889,-0.008888888888888889,-0.6233333333333333,-0.09088935193241292,-0.04647994340060047,-1.3014031091322944
1589988524.8961477,-1.5831964826632943,-3.178519836485016,8.43065905949475,0.5206633401627961,0.026857368794256722,-0.6120798818404912,0.07380339783580864,0.10209580069820483,-1.208036753357084
1589988524.9061477,-1.6102834222241813,-3.344858288887909,8.805931149997797,0.5422222222222223,0.05111111111111112,-0.6044444444444445,0.02521277427205069,0.04791707528833277,-1.1936956877418985
1589988524.9161477,-1.606106801028798,-3.4278776826748745,8.798229118353923,0.5422222222222223,0.05111111111111112,-0.6044444444444445,0.03705986853881717,0.055748871757134305,-1.1617148681194955
1589988524.9261477,-1.5204051708660002,-3.299651086240948,8.494665150517685,0.5422222222222223,0.05111111111111112,-0.6044444444444445,0.05055758146716248,0.06922815992704406,-1.1226355276315756
1589988524.9361477,-1.451196761916269,-3.2663692382045553,8.451156285869631,0.5422222222222223,0.05111111111111112,-0.6044444444444445,0.0405797881592207,0.05572087264041251,-1.095067974404446
1589988524.9461477,-1.4879836709672025,-3.4171608103212865,8.7770791651573,0.536003628673955,0.08406965691692753,-0.6150160534764988,0.04428416732703136,0.07433820134258931,-1.0570732674838974
1589988524.9561477,-1.5054287762739131,-3.47,8.844004301752177,0.5311111111111111,0.11,-0.6233333333333333,0.053076530455615424,0.08165692262151503,-1.0219221363364395
1589988524.9661477,-1.4760114461809377,-3.459719191220402,8.716292254960536,0.5311111111111111,0.11,-0.6233333333333333,0.0488423333237158,0.06457967949309197,-0.9968355462852921
1589988524.9761477,-1.4195015218801457,-3.4452492390599274,8.585015218801457,0.5311111111111111,0.11,-0.6233333333333333,0.03965053686414904,0.056831951745323316,-0.9673238743131745
1589988524.9861476,-1.4313226941770172,-3.5224971602018584,8.762930485465821,0.5311111111111111,0.11,-0.6233333333333333,0.03713675415424733,0.05332259397303704,-0.9411307365558629
1589988524.9961476,-1.4369072948328268,-3.589209726443769,8.919599797365755,0.5325365867387144,0.12511004165259484,-0.62190785770573,0.030995564339218573,0.05141272256428839,-0.9177185897903354
1589988525.0061476,-1.3667368314356185,-3.5130526742575263,8.447053079704025,0.5366666666666666,0.1688888888888889,-0.6177777777777778,0.027775919635219335,0.048765815506718956,-0.8912546720334961
1589988525.0161476,-1.36,-3.587517653918414,8.544681149718185,0.5366666666666666,0.1688888888888889,-0.6177777777777778,0.004672737739614845,0.02899595329676928,-0.8609285663665089
1589988525.0261476,-1.381190280065898,-3.6672446457990118,8.41567957166392,0.5366666666666666,0.1688888888888889,-0.6177777777777778,0.0337155667514195,0.05050843042034558,-0.8207463821519947
1589988525.0361476,-1.4304977598906523,-3.7324887994532614,8.604932796719568,0.5366666666666666,0.1688888888888889,-0.6177777777777778,0.035074363743656536,0.05045458906081005,-0.7923330026810685
1589988525.0461476,-1.44,-3.836516826631029,8.766690560077755,0.5583599940603949,0.18258993776913837,-0.6251991792545796,0.026981065262747045,0.04219252890203064,-0.7317859044872853
1589988525.0561476,-1.434801563439567,-3.9419843656043296,8.73837342152736,0.5788888888888889,0.1955555555555556,-0.6322222222222222,0.02692443242882262,0.043416770591365256,-0.6858770729600949
1589988525.0661476,-1.3776425676734658,-3.9618075364395584,8.71931263014128,0.5788888888888889,0.1955555555555556,-0.6322222222222222,0.023816101660063625,0.03949707197678193,-0.645849026204641
1589988525.0761476,-1.3368758868459982,-3.9246094858557496,8.616094858557497,0.5788888888888889,0.1955555555555556,-0.6322222222222222,0.02459465600428979,0.03793185139081161,-0.5946130681699723
1589988525.0861475,-1.3164718658371988,-3.9150522037264,8.6251566111792,0.5788888888888889,0.1955555555555556,-0.6322222222222222,0.021254116629165536,0.035446305887963034,-0.551753155494058
1589988525.0961475,-1.2112561428742659,-3.891884214311399,8.567586000239723,0.5810522460612356,0.19834698416503527,-0.6335481508117251,0.02842475164155724,0.03749395773014458,-0.5179283644504996
1589988525.1061475,-1.243742194469224,-3.944048840321142,8.799080062444247,0.6133333333333333,0.24,-0.6533333333333333,0.01458901026456567,0.028020289999715498,-0.4690305982106119
1589988525.1161475,-1.2630978525262353,-3.9923007158245882,8.737699284175411,0.6133333333333333,0.24,-0.6533333333333333,0.01569650836967701,0.02844855447010929,-0.4376938993679637
1589988525.1261475,-1.2446536679445868,-3.9488096526095444,8.632272973163676,0.6133333333333333,0.24,-0.6533333333333333,0.01235565916520429,0.023566198723776775,-0.40705226684724866
1589988525.1361475,-1.2727141421505843,-3.8937856903584307,8.62599933003606,0.6133333333333333,0.24,-0.6533333333333333,0.009490264348583622,0.019338887104343363,-0.3906031621974444
1589988525.1461475,-1.2907444024425705,-3.9027507996510615,8.769741203838326,0.6607082162127234,0.2549765758780007,-0.6573067106070887,0.004801051097373177,0.01587176234212203,-0.3769897227763864
1589988525.1561475,-1.2366529125654089,-3.8798762130886795,8.706735437172956,0.7855555555555556,0.29444444444444445,-0.6677777777777778,0.014897518316191889,0.01635796071833555,-0.3584957117452416
1589988525.1661475,-1.2233701601459557,-3.8034254003648895,8.680331441313603,0.7855555555555556,0.29444444444444445,-0.6677777777777778,0.008732672033096122,0.013819198502663265,-0.33784414708910643
1589988525.1761475,-1.21,-3.762654881876755,8.618760944985958,0.7855555555555556,0.29444444444444445,-0.6677777777777778,0.007346212789969524,0.014692425579939048,-0.3059925416566182
1589988525.1861475,-1.2163246541563923,-3.8164088686421196,8.694701383374431,0.7855555555555556,0.29444444444444445,-0.6677777777777778,0.007001864399362413,0.01572851065933406,-0.2697617868980738
1589988525.1961474,-1.2385362542425178,-3.985608762727553,8.679835853131749,0.9828378758270768,0.3567274846583702,-0.8802356611471083,0.0004790096790030724,0.01168875164429587,-0.22943856822444234
1589988525.2061474,-1.26,-4.057977117094127,8.744102973076432,1.4788888888888894,0.5133333333333333,-1.4144444444444444,-0.004804647718608439,0.011343392069057134,-0.18395276006498873
1589988525.2161474,-1.280646758658172,-4.090646758658172,8.669353241341827,1.4788888888888894,0.5133333333333333,-1.4144444444444444,-0.0017312191669307262,0.008846041821025715,-0.14695824864616752
1589988525.2261474,-1.31,-4.12,8.64,1.4788888888888894,0.5133333333333333,-1.4144444444444444,-0.001090830782496456,0.004363323129985824,-0.12326387842209953
1589988525.2361474,-1.3295827641872595,-4.16,8.661529864646715,1.4788888888888894,0.5133333333333333,-1.4144444444444444,7.585561134956107e-05,0.003272492347489368,-0.08891713488526246
1589988525.2461474,-1.3035409164286602,-4.16,8.757016639761579,1.4788888888888894,0.5133333333333333,-1.4144444444444444,0.004810397139377299,0.003272492347489368,-0.05577534418906829
1589988525.2561474,-1.256050238535683,-4.010251192678415,8.677899522928634,0.8311111111111111,-0.25222222222222224,-0.8988888888888888,0.006544984694978735,-0.0023970876344326757,-0.01861262547892794
1589988525.2661474,-1.2392355487294051,-3.928980731639207,8.707451829098018,0.8311111111111111,-0.25222222222222224,-0.8988888888888888,0.006544984694978735,-0.003411473510436592,0.0037450283015099286
1589988525.2761474,-1.2155490711982433,-3.9038726779956083,8.62942174919385,0.8311111111111111,-0.25222222222222224,-0.8988888888888888,0.006544984694978735,-0.008423991376106233,0.027264403559506566
1589988525.2861474,-1.2328171137450614,-3.9498598981077144,8.682817113745061,0.8311111111111111,-0.25222222222222224,-0.8988888888888888,0.005930385816797378,-0.007635815477475192,0.04375631552804542
1589988525.2961473,-1.2556996922550863,-4.017599589673448,8.717099076765258,0.7886800687676906,-0.17221543093786212,-0.8661684333504303,0.0017671682474859238,-0.00805030879498218,0.05905751142483313
1589988525.3061473,-1.28,-4.046039141372888,8.768875420655405,0.6077777777777778,0.1688888888888889,-0.7266666666666667,-0.0005760835354093088,-0.009961497926320432,0.06507912058655253
1589988525.3161473,-1.3092644400038063,-4.017073555999619,8.63,0.6077777777777778,0.1688888888888889,-0.7266666666666667,-0.00468254864987255,-0.011546758864738011,0.06981317007977318
1589988525.3261473,-1.3685605256853417,-4.032878948629317,8.641439474314659,0.6077777777777778,0.1688888888888889,-0.7266666666666667,-0.004384565565224555,-0.012733439940871562,0.06963490535523023
1589988525.3361473,-1.3009100825931121,-4.134850137655187,8.7242397797517,0.6077777777777778,0.1688888888888889,-0.7266666666666667,0.0017518682303487056,-0.01024727037711231,0.06839182057335061
1589988525.3461473,-1.2793606631841927,-4.096803315920963,8.776803315920962,0.6055045802104625,0.17386150856739094,-0.7265245918187094,0.0027145657242365817,-0.009075350399504639,0.06721306354734069
1589988525.3561473,-1.27,-4.056242158320339,8.711273525038981,0.5722222222222222,0.2466666666666667,-0.7244444444444444,-0.002049584689960977,-0.011797601716689013,0.0617674376643058
1589988525.3661473,-1.2633425359233634,-4.085977913783928,8.663342535923363,0.5722222222222222,0.2466666666666667,-0.7244444444444444,0.0032755038880344454,-0.00727120136979468,0.06254196870997851
1589988525.3761473,-1.235548865555474,-4.228872163888685,8.59278948527792,0.5722222222222222,0.2466666666666667,-0.7244444444444444,-0.0028517467640798745,-0.009454961430339536,0.05739000194279192
1589988525.3861473,-1.275345657128387,-4.256239554317549,8.642073942770322,0.5722222222222222,0.2466666666666667,-0.7244444444444444,0.004126041883552688,-0.008802056947138405,0.05170134613783151
1589988525.3961473,-1.2950109279933841,-4.1628696319924385,8.824304447988657,0.5737687137784603,0.2466666666666667,-0.7275374275569207,-0.006507644247317521,-0.014960986782086337,0.03989358063391537
1589988525.4061472,-1.1740139855345695,-4.088237754087683,8.626055942138278,0.5866666666666667,0.2466666666666667,-0.7533333333333333,0.008715204371257976,-0.003929279194729976,0.03446491317882162
1589988525.4161472,-1.1883913207417818,-4.332652452610291,8.683565282967127,0.5866666666666667,0.2466666666666667,-0.7533333333333333,-0.0030472254894648287,-0.006281765166874537,0.028975779243817647
1589988525.4261472,-1.083842810191893,-4.364039297452027,8.629901756369934,0.5866666666666667,0.2466666666666667,-0.7533333333333333,0.006765294194995248,0.0004406190000330244,0.01368659758449038
1589988525.4361472,-1.0245531328409372,-4.378861716789766,8.592845708025585,0.5866666666666667,0.2466666666666667,-0.7533333333333333,0.007573731759229069,0.0020574941285006663,-0.008141216649822786
1589988525.4461472,-1.0193830758991071,-4.3913630625875015,8.70753230359643,0.5843360645077383,0.24008614292381023,-0.7507285426851192,0.0060598177322283096,0.0037435642072918356,-0.052721368130816695
1589988525.4561472,-1.0096597219992938,-4.257958331995763,8.67442361400918,0.5488888888888889,0.14,-0.7111111111111111,0.015123156667839699,0.010796952109631545,-0.11059054749158617
1589988525.4661472,-0.9865496500851144,-4.173099300170229,8.750682050312086,0.5488888888888889,0.14,-0.7111111111111111,0.012620047659256898,0.009592089573809293,-0.20538034877749264
1589988525.4761472,-0.6952268168492516,-4.0125624903564265,8.056199660546213,0.5488888888888889,0.14,-0.7111111111111111,-0.00881816596958165,0.07170979508711176,-0.3353774473031275
1589988525.4861472,4.554392209642942,-3.5099980999129126,-4.173661309476684,0.5488888888888889,0.14,-0.7111111111111111,-1.0190218005741134,0.7188054961052671,-4.969847205387856
1589988525.4961472,1.1739809991291272,-6.777507560763201,0.5947772939593063,0.5488888888888889,0.14,-0.7111111111111111,-1.689139160196949,-1.3821029827122717,-12.614256263485327
1589988525.5061471,-0.2296663184153856,-7.397597279375706,3.1101778213684144,0.4755555555555556,0.2877777777777778,-0.6222222222222222,-1.454572413147371,0.4460771083030214,-15.068773968070099
1589988525.5161471,-1.2843358696303397,-7.738409322389312,1.7781409142651727,0.4755555555555556,0.2877777777777778,-0.6222222222222222,-0.8213672807518652,1.4107420219030702,-14.42886898674533
1589988525.5261471,-6.110667223182875,-11.87452050165961,1.4841390893009758,0.4755555555555556,0.2877777777777778,-0.6222222222222222,-0.26558957651585646,2.470752254160388,-13.197204952569018
1589988525.536147,-8.149806607112115,-13.278945425330452,3.4060682518124605,0.4755555555555556,0.2877777777777778,-0.6222222222222222,-0.041542797467540804,3.01618410966172,-10.755694824771064
1589988525.546147,-0.591931059548175,0.5530900778545025,1.592819978193087,0.4755555555555556,0.2877777777777778,-0.6222222222222222,0.3304162685051769,2.28976993376206,-4.882242373611281
1589988525.556147,1.9545910352411373,1.2833607372885796,13.120575221238937,0.31777777777777777,0.54,-0.5866666666666667,2.3435596857544914,-0.1232434007116987,-2.9499218840034396
1589988525.566147,2.3838684119875992,3.9589011367550815,13.200478815018943,0.31777777777777777,0.54,-0.5866666666666667,2.668327658555382,0.4830011200739823,-2.6377122507583852
1589988525.576147,-0.24598209420007788,0.6729827429609446,-1.0835700012975218,0.31777777777777777,0.54,-0.5866666666666667,2.1217509360921425,0.4114762892275315,-2.281799038215164
1589988525.586147,0.9228978097949224,1.2342345901353629,2.11961056565774,0.31777777777777777,0.54,-0.5866666666666667,0.7066080890689694,-0.06896725287213805,-1.8732559308407746
1589988525.596147,1.562716133424098,1.4837313365100977,11.87060267755843,0.3004023901369034,0.5473845397473717,-0.587825025842725,-0.42696510377468455,0.11419156726815094,-1.5493987168968644
1589988525.606147,0.7974259461543405,-0.4994075692347234,18.898817066118358,0.18444444444444444,0.5966666666666667,-0.5955555555555555,-1.580007584250022,0.1873172965548415,-1.233501047299211
1589988525.616147,1.017471254692682,-1.4239336038113837,9.496628339590243,0.18444444444444444,0.5966666666666667,-0.5955555555555555,-0.7713824909231174,0.007817966460313566,-0.9715460739217535
1589988525.626147,1.2716669753034462,-1.0285180384168617,9.835555967071262,0.18444444444444444,0.5966666666666667,-0.5955555555555555,0.2869200816107107,0.07174745228295383,-0.8182693549012066
1589988525.636147,0.7217564664009579,-0.3528435762436648,3.8624210664436025,0.18444444444444444,0.5966666666666667,-0.5955555555555555,0.8363904276753933,0.26366698084479734,-0.551860433665147
1589988525.646147,1.0175705686496417,-0.9100747921074646,5.836808214010398,0.18444444444444444,0.5966666666666667,-0.5955555555555555,0.2728205913947115,-0.032751241965947364,-0.38976844346990425
1589988525.656147,6.137578320199884,-6.989955794733807,13.136023448010762,0.1288888888888889,0.6022222222222222,-0.62,-0.514089699878347,-0.07473039959595075,-0.03248256322416028
1589988525.666147,17.012700189426553,-18.39902875839504,7.99894954365421,0.1288888888888889,0.6022222222222222,-0.62,-0.3015272683209637,-0.06000085884521254,0.1519847372260266
1589988525.676147,-1.8046285673139235,1.1051606941410843,10.017121426685549,0.1288888888888889,0.6022222222222222,-0.62,0.07311839023078416,-0.20826374426112376,0.5328081176868499
1589988525.686147,-1.1472364957051442,-0.8837475739349334,9.416789138915044,0.1288888888888889,0.6022222222222222,-0.62,0.3205719601739001,0.34210123155575217,0.8493993617462335
1589988525.696147,0.044966897693182996,-1.711280128271439,7.677614565014999,0.12887182051193638,0.6021482592554279,-0.6201080997206992,0.2861153679279143,0.33230054746006266,0.9809640821956004
1589988525.706147,1.0078746710727617,-2.0598904595801972,10.983106909001897,0.12555555555555556,0.5877777777777777,-0.6411111111111111,-0.2843858465430838,-0.3664895040431328,1.0571130234406265
1589988525.716147,2.3597834799834154,-4.659893122034367,9.120053438982817,0.12555555555555556,0.5877777777777777,-0.6411111111111111,-0.16201578393356802,-0.1728497180745553,1.2499433293729838
1589988525.726147,4.008549397361678,-6.983996630919616,7.235158014615165,0.12555555555555556,0.5877777777777777,-0.6411111111111111,0.028805484722591184,-0.053091118257577216,1.4559065700506204
1589988525.736147,-0.4128877588085725,-1.8661218065141059,8.303985954716067,0.12555555555555556,0.5877777777777777,-0.6411111111111111,-0.06013107281113469,-0.1370111991626424,1.7170783328693915
1589988525.746147,0.026115460805584377,-2.426708801056504,9.596827657768134,0.12904799337588696,0.5895842111331215,-0.6411111111111111,-0.06513744602009587,-0.08598835589757625,1.9270966871291437
1589988525.756147,0.915971684660827,-3.6326636789570177,8.101071093909146,0.15777777777777774,0.6044444444444445,-0.6411111111111111,-0.030766605568382573,-0.1554139214086256,2.1027795224384342
1589988525.766147,1.6422328244274809,-4.702729007633588,8.145362595419847,0.15777777777777774,0.6044444444444445,-0.6411111111111111,-0.09075129223692843,-0.17635548693621853,2.245083798999662
1589988525.776147,0.48445508451472197,-3.2876673255179933,8.24541746183206,0.15777777777777774,0.6044444444444445,-0.6411111111111111,-0.10634313912564464,-0.1740167099029111,2.41659411477554
1589988525.7861469,0.23639822014670572,-3.0268204947463486,8.571750556204154,0.15777777777777774,0.6044444444444445,-0.6411111111111111,-0.05196698432625499,-0.18260769692367876,2.686674431383738
1589988525.7961469,0.5287154935316288,-3.7720749719873687,8.4889915452786,0.15824986135162356,0.604246828064695,-0.6409574094824171,-0.08419875798087546,-0.19974059451343734,2.8336721358231585
1589988525.8061469,0.4,-3.98,9.39,0.20555555555555555,0.5844444444444444,-0.6255555555555555,-0.10471975511965977,-0.21162117180431245,3.021601267515183
1589988525.8161469,0.2916464212296767,-3.6982806951971594,8.895907680807326,0.20555555555555555,0.5844444444444444,-0.6255555555555555,-0.08533570638458277,-0.21682177024543067,3.1142664761023804
1589988525.8261468,0.18803194888178915,-3.301476038338658,8.839495207667731,0.20555555555555555,0.5844444444444444,-0.6255555555555555,-0.09837063205399828,-0.23502907606538498,3.396163980549014
1589988525.8361468,0.18705142804025005,-3.679072529106923,8.5758971439195,0.20555555555555555,0.5844444444444444,-0.6255555555555555,-0.11904900420248757,-0.2500229225572492,3.5143780085486322
1589988525.8461468,0.0603383607166926,-4.0689588901024845,8.829323278566616,0.20555555555555555,0.5844444444444444,-0.6255555555555555,-0.1254285048662299,-0.2595921735528626,3.643031271934101
1589988525.8561468,-0.025650625099267126,-3.538475937648901,8.63595875025526,0.27111111111111114,0.5611111111111111,-0.6622222222222223,-0.10417808943602273,-0.27656296431096444,3.8602520853915596
1589988525.8661468,-0.15460257417960308,-3.7596487522106505,8.906635881312635,0.27111111111111114,0.5611111111111111,-0.6622222222222223,-0.08334269240220399,-0.27262099076038443,3.988024905263681
1589988525.8761468,0.8023880597014925,-5.217761194029851,8.451194029850747,0.27111111111111114,0.5611111111111111,-0.6622222222222223,-0.12328015947855471,-0.2928148003462502,4.07918613273018
1589988525.8861468,5.870443063677713,-12.626998659844055,7.809858268356075,0.27111111111111114,0.5611111111111111,-0.6622222222222223,-0.16660045814889948,-0.31000454855431736,4.107611090941165
1589988525.8961468,6.7541354704138765,-20.642193435064225,11.062365792073773,0.27601517424769156,0.5585524694746343,-0.6625953574608752,-0.26138192857115705,-0.35650862391549093,3.5789326887351214
1589988525.9061468,-1.5747090875507943,1.053563908385667,3.8926172885112673,0.37333333333333335,0.5077777777777778,-0.67,-0.4228284968359527,-0.270113899894807,-0.9526837329917099
1589988525.9161468,-3.162872183228666,-1.7586468415219798,6.914000738825267,0.37333333333333335,0.5077777777777778,-0.67,0.2228138129134032,0.45750132090911366,-1.7369194181322882
1589988525.9261467,-1.2263855033210809,-0.18908664904021855,5.464529997205563,0.37333333333333335,0.5077777777777778,-0.67,0.8315968084728352,0.4304451423396766,-1.074507291562743
1589988525.9361467,-0.7000976348792189,-2.4281184243750524,7.736822658025419,0.37333333333333335,0.5077777777777778,-0.67,-0.034466800556412304,-0.028628317239373993,-0.14516037142080163
1589988525.9461467,-0.5118171871054624,-3.6460575709115393,9.043018264455853,0.37333333333333335,0.5077777777777778,-0.67,-0.3566599827541078,-0.040181060824151925,0.008876209709570732
1589988525.9561467,-0.4905015068843934,-3.010395926487679,8.706172710619104,0.4033333333333333,0.4744444444444445,-0.67,-0.22253770915218946,-0.17191361631673588,0.5400019552102081
1589988525.9661467,-0.6474769042882188,-3.1343238718064885,7.508202572537278,0.4033333333333333,0.4744444444444445,-0.67,0.11632456421148316,-0.03492673985057035,0.8941851292312808
1589988525.9761467,0.9473871890821044,-4.988459167950693,8.698604446401056,0.4033333333333333,0.4744444444444445,-0.67,-0.00507285536909589,-0.0704698775836534,1.1714225996874477
1589988525.9861467,-1.8383537573214805,-2.264692809371495,9.835872554313962,0.4033333333333333,0.4744444444444445,-0.67,-0.16723349414906954,-0.13503522629539322,0.7816353341622675
1589988525.9961467,-2.273935114028164,-2.8222369459560506,7.117844888464255,0.4033333333333333,0.4744444444444445,-0.67,0.025675600034881646,0.07022765224516572,-0.3701174843153132
1589988526.0061467,-0.4925762304921968,-3.0466574266070063,7.820246207573939,0.39831811512483783,0.4724383571610462,-0.67,0.21447666512692687,0.09967352882469385,-0.1852679953342645
1589988526.0161467,1.1670905587668592,-5.547894990366089,9.266325867052023,0.3977777777777778,0.4722222222222222,-0.67,-0.13564974701796007,-0.06530902679096798,0.21275968702491657
1589988526.0261467,-0.20686911302982733,-3.822342032967033,8.253982535321821,0.3977777777777778,0.4722222222222222,-0.67,-0.0375554244272497,-0.036968696174733445,0.04303622834609398
1589988526.0361466,-0.11311765263557073,-4.489003918594363,8.590258816837315,0.3977777777777778,0.4722222222222222,-0.67,0.08239366109942645,0.03569540695860314,-0.032791230294832115
1589988526.0461466,-0.013707811907470627,-4.5420225003160155,8.709550625711035,0.3977777777777778,0.4722222222222222,-0.67,0.015161286202871924,0.008224113990118485,-0.007488723613333095
1589988526.0561466,-0.07868636525453898,-4.530394090423639,8.680919544321823,0.4175150508286856,0.465643131205253,-0.67,-0.015171324229738981,-0.0053968357837900485,-0.0010621717181503404
1589988526.0661466,-0.06722108216224641,-4.492778917837754,8.619073694054082,0.4177777777777778,0.4655555555555556,-0.67,0.0023837501729562526,-0.002181661564992912,-0.0019795729570295712
1589988526.0761466,-0.04163835603635599,-4.516723287927288,8.628021916399916,0.4177777777777778,0.4655555555555556,-0.67,0.005614341567988021,-0.002002944645278312,0.0
1589988526.0861466,-0.048915872708381034,-4.5,8.72,0.4177777777777778,0.4655555555555556,-0.67,0.010580019301250033,-0.000617791013759462,0.0001182599421842485
1589988526.0961466,-0.0415293309617315,-4.5,8.72,0.4177777777777778,0.4655555555555556,-0.67,0.0009110587651215054,0.002605195831616714,0.0009240066535282926
1589988526.1061466,-0.050450931237600166,-4.578872671906,8.6213527937128,0.4033333333333333,0.4655555555555556,-0.6844444444444444,-0.005404964945005932,0.002181661564992912,-2.459448373817389e-05
1589988526.1161466,-0.06335230156411006,-4.546619246089725,8.660056904692329,0.4033333333333333,0.4655555555555556,-0.6844444444444444,-0.0039976437561515974,0.002181661564992912,-0.0007282550781653413
1589988526.1261466,-0.0622019791347039,-4.545596041730592,8.594221770481743,0.4033333333333333,0.4655555555555556,-0.6844444444444444,0.004383196734683807,0.000480397324509984,-0.000240198662254992
1589988526.1361465,-0.05321131884411274,-4.461747144973465,8.692196260805972,0.4033333333333333,0.4655555555555556,-0.6844444444444444,0.005063924219499647,0.0007405302377395447,-0.0007405302377395447
1589988526.1461465,-0.05716682549308383,-4.520335556903174,8.706999047041498,0.4033333333333333,0.4655555555555556,-0.6844444444444444,0.0012362055857313503,-0.0004727279896307808,0.0004727279896307808
1589988526.1561465,-0.053228382963478114,-4.519370297780869,8.669685148890434,0.41311455794164276,0.4655555555555556,-0.6851968463373913,-0.0044320129864293,-0.0003521619514249059,0.001090830782496456
1589988526.1661465,-0.05092543108370447,-4.547223706748887,8.562313577709261,0.4177777777777778,0.4655555555555556,-0.6855555555555556,-0.0052522561698455025,-0.001090830782496456,-0.0009898819111780674
1589988526.1761465,-0.06995633395035361,-4.490087332099293,8.610087332099292,0.4177777777777778,0.4655555555555556,-0.6855555555555556,-0.001057488192723438,-0.0010860675553860247,0.0010860675553860247
1589988526.1861465,-0.06000261047035929,-4.509994779059281,8.629994779059283,0.4177777777777778,0.4655555555555556,-0.6855555555555556,0.006542991387981436,-2.84758142471463e-07,2.84758142471463e-07
1589988526.1961465,-0.06792261038789277,-4.502077389612107,8.725071324654714,0.4177777777777778,0.4655555555555556,-0.6855555555555556,0.004816539237210814,0.0017284454577679216,0.0017284454577679216
1589988526.2061465,-0.06972594327821875,-4.53,8.679725943278218,0.4033333333333333,0.4722222222222222,-0.6766666666666666,-0.00017936970496143593,0.00106093583166955,-0.00106093583166955
1589988526.2161465,-0.06018672246355387,-4.53,8.670186722463553,0.4033333333333333,0.4722222222222222,-0.6766666666666666,-0.006422775128361856,2.0368261102812974e-05,-2.0368261102812974e-05
1589988526.2261465,-0.06,-4.500194969920997,8.560714889710324,0.4033333333333333,0.4722222222222222,-0.6766666666666666,-0.0043775017427514756,0.0010837414761136301,0.0010837414761136301
1589988526.2361465,-0.04008303996130177,-4.470415199806508,8.690166079922603,0.4033333333333333,0.4722222222222222,-0.6766666666666666,0.004363323129985824,0.001081772527899928,0.0010727142733033999
1589988526.2461464,-0.04571887345139878,-4.4985943672569935,8.701437746902798,0.4033333333333333,0.4722222222222222,-0.6766666666666666,0.004363323129985824,0.0004669984622977021,-0.00015683385790105173
1589988526.2561464,-0.05,-4.511968773648783,8.71401561317561,0.4060104087837389,0.4753454769143621,-0.6766666666666666,0.0008590395599442358,0.0,-0.001090830782496456
1589988526.2661464,-0.05012685147185017,-4.569809722792225,8.679175465432973,0.41,0.48,-0.6766666666666666,-0.004384079153530695,6.918674514957188e-06,-0.0010839121079814988
1589988526.2761464,-0.06577547289482522,-4.5463367906577625,8.577459426183637,0.41,0.48,-0.6766666666666666,-0.006944578846302896,0.0008604185721056905,-0.0002304122103907655
1589988526.2861464,-0.06413859111791731,-4.522415773353752,8.596891271056663,0.41,0.48,-0.6766666666666666,0.0013155118548483294,0.001090830782496456,0.0012787610474747886
1589988526.2961464,-0.06,-4.5037390634627235,8.68634842883549,0.41,0.48,-0.6766666666666666,0.006269891017051565,0.001090830782496456,0.0014986993347810983
1589988526.3061464,-0.053900836931387995,-4.506099163068612,8.713900836931389,0.405933891287592,0.4711900977897827,-0.6637906557440413,0.0014622610188577698,-0.0009051156643157994,0.001090830782496456
1589988526.3161464,-0.059165197884954335,-4.546660791539817,8.691669604230091,0.4033333333333333,0.4655555555555556,-0.6555555555555556,-0.005089902774728296,-0.001181893566934952,0.001090830782496456
1589988526.3261464,-0.06677816512201344,-4.55,8.574771192925772,0.4033333333333333,0.4655555555555556,-0.6555555555555556,-0.00397538767969506,-0.0033089801316772867,-0.0011273185666843745
1589988526.3361464,-0.07,-4.532134783453098,8.591460866187608,0.4033333333333333,0.4655555555555556,-0.6555555555555556,0.002573886096108457,0.0005086589063456959,-0.002181661564992912
1589988526.3461463,-0.07,-4.500051003839615,8.68235973944106,0.4033333333333333,0.4655555555555556,-0.6555555555555556,0.002455760174573962,-0.0005426335633343562,0.0002685349537533063
1589988526.3561463,-0.05105737597052244,-4.471057375970522,8.728942624029479,0.4033333333333333,0.4718697635653814,-0.6892313316079601,-0.004017297652790443,-0.002123990652127015,5.767091286589692e-05
1589988526.3661463,-0.058035539972508314,-4.51821323983505,8.689822300137457,0.4033333333333333,0.4722222222222222,-0.6911111111111111,-0.005239864565585103,0.0004479627418049275,0.0008765414355992797
1589988526.3761463,-0.05069520577742974,-4.53,8.540428086661446,0.4033333333333333,0.4722222222222222,-0.6911111111111111,-0.0024091671236498337,7.583518621897406e-05,0.001090830782496456
1589988526.3861463,-0.04133997591152962,-4.53866002408847,8.607940216796234,0.4033333333333333,0.4722222222222222,-0.6911111111111111,0.003486310946725671,-0.001889324170572861,0.0001461686972100255
1589988526.3961463,-0.05139603314723799,-4.522905950279143,8.671282149162572,0.4033333333333333,0.4722222222222222,-0.6911111111111111,0.006849551881057258,-0.0009385471894571948,0.0006215571877678586
1589988526.4061463,-0.06,-4.504537386776192,8.720925226447616,0.4033333333333333,0.4764709213962945,-0.6795789276386291,0.005151374265530955,-0.0023835146629604615,-0.0006968052147238904
1589988526.4161463,-0.04207281214950438,-4.517927187850495,8.658291248598017,0.4033333333333333,0.48,-0.67,-0.001729444105190507,0.0005255589577434494,-0.002181661564992912
1589988526.4261463,-0.05543769660782624,-4.5354376966078265,8.588249213568695,0.4033333333333333,0.48,-0.67,-0.0013396658314600127,0.0019328265160293552,-0.0004976700979271134
1589988526.4361463,-0.06536924779927257,-4.523892256602182,8.586107743397818,0.4033333333333333,0.48,-0.67,8.055737316311931e-05,0.002181661564992912,-0.0005856940778297876
1589988526.4461462,-0.059443315725314916,-4.515278342137342,8.64222673709874,0.4033333333333333,0.48,-0.67,0.0028181642076848708,0.0004543281398044969,6.0724834295820644e-05
1589988526.4561462,-0.061016505675670366,-4.50898349432433,8.724066022702681,0.4070055018918901,0.48,-0.6779563652102064,0.003161608779329009,-0.0004899736071680487,-0.00011088356816035859
1589988526.4661462,-0.06321149474282467,-4.51357701051435,8.726057473714123,0.41,0.48,-0.6844444444444444,-0.0015208936858400256,0.0,0.000390191317836719
1589988526.4761462,-0.0541227537422743,-4.525877246257726,8.633595798649566,0.41,0.48,-0.6844444444444444,-0.003913600460913297,0.001282216226847858,0.001090830782496456
1589988526.4861462,-0.051966760158066505,-4.528033239841934,8.593767321106466,0.41,0.48,-0.6844444444444444,-0.00286154136444125,0.002396201817213565,0.0006617502780551491
1589988526.4961462,-0.056339968094756485,-4.523660031905243,8.624379776663295,0.41,0.48,-0.6844444444444444,0.00047775952047822597,0.0028732448007734905,-0.00029233568906470104
1589988526.5061462,-0.06291584960354676,-4.514168300792906,8.658747548810641,0.4044922840821894,0.47578821723932135,-0.6802326616837657,0.005180911450296708,0.0023182827960856987,-0.00013662123109278647
1589988526.5161462,-0.07,-4.494615368259908,8.717692422180642,0.3911111111111111,0.4655555555555556,-0.67,0.00570587160431835,0.0011747444108999297,-0.0007551994622569127
1589988526.5261462,-0.03899766364089012,-4.5210023363591105,8.618240070473783,0.3911111111111111,0.4655555555555556,-0.67,-0.0037365414302266667,0.0013362039942472579,-0.003272492347489368
1589988526.5361462,-0.04610699294453872,-4.53,8.596106992944538,0.3911111111111111,0.4655555555555556,-0.67,-0.003697153540746674,0.00021233059662865278,-0.0006369917898859587
1589988526.5461462,-0.06282422417786013,-4.52358788791107,8.638472672533581,0.3911111111111111,0.4655555555555556,-0.67,-0.0018735864980048555,0.0006994529247422562,-0.0013989058494845124
1589988526.5561461,-0.06458667532106263,-4.514586675321063,8.687066623394687,0.4055466435882774,0.46134519191638207,-0.67,-0.0005003286629531939,-9.017345659006809e-05,-0.0015911594454496498
1589988526.5661461,-0.06,-4.477487894350697,8.71,0.4177777777777778,0.4577777777777778,-0.67,0.0008866301411509162,-0.001090830782496456,0.0015690596409562924
1589988526.5761461,-0.06,-4.486716959727737,8.592981281905843,0.4177777777777778,0.4577777777777778,-0.67,0.001090830782496456,-0.0020025994955349003,-0.0005536445741224213
1589988526.586146,-0.05279857249564279,-4.504402855008714,8.591604282513071,0.4177777777777778,0.4577777777777778,-0.67,-0.0004802769774374387,-0.0006105538050590173,-0.0018763846624634032
1589988526.596146,-0.03805014278515034,-4.51,8.647799428859399,0.4177777777777778,0.4577777777777778,-0.67,-0.0004390671776766875,0.0019552908144593057,-0.000878134355353375
1589988526.606146,-0.05105389664417121,-4.517017965548057,8.694035931096114,0.4177777777777778,0.46323619542626665,-0.6551842949541017,0.0007655412850320264,0.003272492347489368,-0.0007655412850320264
1589988526.616146,-0.06,-4.494381389070843,8.712809305464578,0.4177777777777778,0.4655555555555556,-0.6488888888888888,0.0045840269582870284,0.001875213877173139,-0.0003921915473383415
1589988526.626146,-0.06432023785782919,-4.48432023785783,8.672477383563878,0.4177777777777778,0.4655555555555556,-0.6488888888888888,0.004188660473465424,0.0006195659381937938,-0.0009425296886053245
1589988526.636146,-0.06621968158991345,-4.505121273640347,8.61,0.4177777777777778,0.4655555555555556,-0.6488888888888888,-0.0001462755243116843,0.0,-0.0005321864892487251
1589988526.646146,-0.048644059934128125,-4.524322029967064,8.63838985016468,0.4177777777777778,0.4655555555555556,-0.6488888888888888,-0.0003235502167872309,-0.0006193704494018936,0.0003235502167872309
1589988526.656146,-0.047353228808479766,-4.5273532288084795,8.67470645761696,0.4226799303167643,0.47045770809454207,-0.6750337024301503,0.0002887179489935097,-0.001090830782496456,-0.0002887179489935097
1589988526.666146,-0.05,-4.512635419541816,8.668423613027878,0.4244444444444445,0.4722222222222222,-0.6844444444444444,0.001262787925928222,0.00017195714343176596,0.000631393962964111
1589988526.676146,-0.05,-4.5132057560461085,8.626985609884729,0.4244444444444445,0.4722222222222222,-0.6844444444444444,2.087478480781264e-05,0.001090830782496456,0.0018110930425581555
1589988526.686146,-0.05,-4.52,8.625601307808946,0.4244444444444445,0.4722222222222222,-0.6844444444444444,-0.001090830782496456,0.001090830782496456,0.001330742224732871
1589988526.696146,-0.05,-4.514000073483484,8.635999926516517,0.4244444444444445,0.4722222222222222,-0.6844444444444444,-0.0017453212361896303,-0.00021815012488989277,0.002399811689882805
1589988526.706146,-0.05442574387781971,-4.518851487755639,8.666554463266918,0.4151012073690473,0.46582948106537153,-0.6746094580492895,-0.0007333402677816186,-0.0006080570167593582,0.0018241710502780748
1589988526.716146,-0.05378592628771086,-4.53,8.69378592628771,0.4033333333333333,0.4577777777777778,-0.6622222222222223,0.003124381649516562,0.0006778502890067017,0.0013557005780134035
1589988526.726146,-0.03474581139301101,-4.514745811393011,8.636610339875539,0.4033333333333333,0.4577777777777778,-0.6622222222222223,0.003531336205260308,0.0002588438577709397,0.0013496746402673957
1589988526.736146,-0.0605970576996561,-4.502350735575086,8.665895586549484,0.4033333333333333,0.4577777777777778,-0.6622222222222223,0.0007692764180439876,-0.0008344053098151268,-0.0022467904567640513
1589988526.746146,-0.039065011660852314,-4.50618699766783,8.661439006996511,0.4033333333333333,0.4577777777777778,-0.6622222222222223,-0.0020246902521906733,0.0009338594696942173,-0.0012478020952986948
1589988526.756146,-0.04128586065573771,-4.517095286885246,8.664190573770492,0.4033333333333333,0.46802652550091073,-0.6827197176684882,-0.0009505651439684791,0.000633710095978986,-0.002321927203520889
1589988526.766146,-0.05631660869732316,-4.513683391302677,8.688949826091969,0.4033333333333333,0.4722222222222222,-0.6911111111111111,0.002067105362407483,0.0006890351208024944,-0.0012053869850818851
1589988526.776146,-0.06,-4.516068316858064,8.63931683141936,0.4033333333333333,0.4722222222222222,-0.6911111111111111,0.0019485909821456901,-0.0008950212655190607,0.0
1589988526.786146,-0.04896497138450298,-4.514482485692251,8.627587571538742,0.4033333333333333,0.4722222222222222,-0.6911111111111111,-0.000714771552430553,-0.002783529009968582,0.001805602334927009
1589988526.796146,-0.04672799661160525,-4.516727996611605,8.660091994917408,0.4033333333333333,0.4722222222222222,-0.6911111111111111,-0.0014477509841458258,-0.0021716264762187388,0.0021716264762187388
1589988526.806146,-0.056769033660752415,-4.53,8.67892301122025,0.40273500623347264,0.4715042297023894,-0.6865638251521701,-0.0001174812513353717,0.0,0.0001174812513353717
1589988526.816146,-0.041873995365634714,-4.526042001544789,8.67,0.3977777777777778,0.4655555555555556,-0.6488888888888888,-0.0002273294720928151,0.00043175065520182043,0.0006590801272946356
1589988526.826146,-0.06475598156142533,-4.515244018438574,8.636708129070023,0.3977777777777778,0.4655555555555556,-0.6488888888888888,0.001609627891315287,0.000572033673677625,0.0
1589988526.8361459,-0.06018660695244189,-4.500186606952441,8.629440179142675,0.3977777777777778,0.4655555555555556,-0.6488888888888888,0.002716899125843567,0.0,0.00107047512170131
1589988526.8461459,-0.05,-4.50126462773475,8.667509751823166,0.3977777777777778,0.4655555555555556,-0.6488888888888888,0.002043712078846461,0.0008191868457619379,0.0005432878734690362
1589988526.8561459,-0.0457395522548241,-4.52,8.684260447745176,0.41150588717890013,0.4655555555555556,-0.6517291873856728,-0.0004647427547655488,0.0007874333006962656,-0.002181661564992912
1589988526.8661458,-0.05050329890497081,-4.52,8.69,0.43,0.4655555555555556,-0.6555555555555556,-0.00166369687066163,-0.000517964694331282,-0.0004630633004973899
1589988526.8761458,-0.06,-4.52,8.624679268885954,0.43,0.4655555555555556,-0.6555555555555556,0.0006684930043820802,0.000712538642343748,0.001803369424840204
1589988526.8861458,-0.046907264034172266,-4.500360896051259,8.62273183991457,0.43,0.4655555555555556,-0.6555555555555556,0.0007534656231305765,0.0018049287534276236,0.0007534656231305765
1589988526.8961458,-0.04,-4.500009029182317,8.670027087546952,0.43,0.4655555555555556,-0.6555555555555556,0.0,0.0010898458514952132,0.0005459078567488494
1589988526.9061458,-0.0549910767400357,-4.514997025580011,8.695002974419987,0.4200059488399762,0.46166898010443524,-0.6588869059422302,-0.002725454661799592,-0.0016352727970797556,-0.0005444420145832996
1589988526.9161458,-0.05716169778025448,-4.52,8.670742546670382,0.41,0.4577777777777778,-0.6622222222222223,-0.003353491624038631,0.0009288322293979296,-8.099927654926309e-05
1589988526.9261458,-0.05,-4.52,8.598715980281401,0.41,0.4577777777777778,-0.6622222222222223,-0.0006960950053447395,0.003272492347489368,0.001090830782496456
1589988526.9361458,-0.05,-4.506084250724877,8.590873623912685,0.41,0.4577777777777778,-0.6622222222222223,0.0015179727670807097,0.0009955331968683032,-0.001186128368124609
1589988526.9461458,-0.05536796376744616,-4.505367963767446,8.637575746372123,0.41,0.4577777777777778,-0.6622222222222223,0.0015961075533073201,0.0011711080233711836,-0.00042499952993613633
1589988526.9561458,-0.06,-4.513993567154648,8.681980701463946,0.4157684858900478,0.46354626366782553,-0.66799070811227,0.0006552001840707257,0.0013104003681414513,0.001090830782496456
1589988526.9661458,-0.06316197829078123,-4.526323956581562,8.687352086836874,0.4244444444444445,0.4722222222222222,-0.6766666666666666,0.0,0.0,5.607580654554871e-05
1589988526.9761457,-0.06316128316128317,-4.537720427720428,8.639483849483849,0.4244444444444445,0.4722222222222222,-0.6766666666666666,0.0,0.0,-0.0016843360422963
1589988526.9861457,-0.043758581949819,-4.526241418050181,8.600068655598552,0.4244444444444445,0.4722222222222222,-0.6766666666666666,0.0004099976889398114,-0.0008199953778796228,0.0012299930668194343
1589988526.9961457,-0.0519546183947524,-4.516090763210495,8.655863855184258,0.4244444444444445,0.4722222222222222,-0.6766666666666666,0.001090830782496456,-0.0017552299823869666,0.003059276556186395
