time,acc_x,acc_y,acc_z,mag_x,mag_y,mag_z,gyr_x,gyr_y,gyr_z
1589988532.279093,-3.81,-0.83,9.0,0.3288888888888889,-0.3511111111111111,-0.6266666666666667,0.004363323129985824,0.004363323129985824,-0.035997415822383035
1589988532.289093,-3.821227936161506,-0.838772063838494,9.064386031919247,0.3288888888888889,-0.3566666666666667,-0.6355555555555555,0.0,-0.00047844186305266733,-0.03722219366127062
1589988532.299093,-3.8315938952900748,-0.85,9.021413735597331,0.3288888888888889,-0.3566666666666667,-0.6355555555555555,-0.0011777642848209411,8.693350232448515e-05,-0.0348196515375621
1589988532.309093,-3.8326640856130614,-0.85,8.993001935790204,0.3288888888888889,-0.3566666666666667,-0.6355555555555555,-0.003127189017792718,0.001563594508896359,-0.033342990530990234
1589988532.319093,-3.8053605881602994,-0.85,9.000721176320598,0.3288888888888889,-0.3566666666666667,-0.6355555555555555,-0.0036042011428721985,0.0024347022273641205,-0.03272492347489368
1589988532.329093,-3.787854420308626,-0.85,8.965708840617252,0.33031927534980493,-0.35547467794923665,-0.6336483736076676,-0.0008567843451314539,0.0028043994727593637,-0.03249087703752868
1589988532.339093,-3.8069386799812763,-0.8338367920112342,8.917673584022468,0.33555555555555555,-0.3511111111111111,-0.6266666666666667,0.0005877108272679454,0.0005031199552285106,-0.03222180351966517
1589988532.349093,-3.8358623946527173,-0.8317247893054345,8.84896323743098,0.33555555555555555,-0.3511111111111111,-0.6266666666666667,0.0017303188371291139,0.0019184641638979737,-0.03208543542026102
1589988532.359093,-3.8343751272826014,-0.84,8.86499898173919,0.33555555555555555,-0.3511111111111111,-0.6266666666666667,0.0015680831342166149,0.0026589139167130706,-0.02795262210773944
1589988532.369093,-3.8344727574882285,-0.8355272425117715,8.953673089858743,0.33555555555555555,-0.3511111111111111,-0.6266666666666667,0.0006029286274163334,0.0012058572548326668,-0.025089107997418484
1589988532.379093,-3.836543852721978,-0.8334561472780218,9.02,0.33555555555555555,-0.3511111111111111,-0.6266666666666667,-0.0007540143679415066,-0.0003770071839707533,-0.022450057709623213
1589988532.389093,-3.83,-0.8356342333163524,9.028731533367294,0.33555555555555555,-0.3511111111111111,-0.6266666666666667,-0.002181661564992912,-0.001090830782496456,-0.016024598713627252
1589988532.399093,-3.83,-0.8367828174780293,9.016260138826897,0.33555555555555555,-0.3511111111111111,-0.6266666666666667,-0.002551606869847381,-0.0022006666970598625,-0.013440909562744987
1589988532.409093,-3.83,-0.8496937189294014,8.971071983747095,0.33555555555555555,-0.3511111111111111,-0.6266666666666667,-0.0032557873064941244,-0.004313208007000093,-0.012032548689451503
1589988532.419093,-3.835478817599782,-0.852260591200109,8.98,0.33555555555555555,-0.3511111111111111,-0.6266666666666667,-0.0024282538117648598,-0.004116730883213876,-0.0068960387371593485
1589988532.429093,-3.821195000681106,-0.8594024996594469,8.98,0.33555555555555555,-0.3511111111111111,-0.6266666666666667,-0.003207315171086629,-0.0033376695238921074,-0.004558854659194041
1589988532.4390929,-3.7971789293761167,-0.8492316059358247,8.932052676559708,0.3422222222222222,-0.3644444444444445,-0.6222222222222222,-0.002181661564992912,-0.0017062929177221002,-0.00039154985744181697
1589988532.4490929,-3.81,-0.83,8.88077879965337,0.3422222222222222,-0.3644444444444445,-0.6222222222222222,-0.0006091307888952337,0.0021391846332282412,-0.0005666538571305632
1589988532.4590929,-3.8060162352058393,-0.83,8.883902588764965,0.3422222222222222,-0.3644444444444445,-0.6222222222222222,-0.001081975851351664,0.00240336969395012,-0.00043456132676962403
1589988532.4690928,-3.8,-0.8281316401760435,8.929341799119783,0.3422222222222222,-0.3644444444444445,-0.6222222222222222,-0.0035480973664852628,0.00047941145987103514,-0.001090830782496456
1589988532.4790928,-3.803644894048692,-0.8309346821460775,8.98457957619477,0.3397922928564272,-0.35512971520889697,-0.6189823164011622,-0.001590385050900773,-0.0017840653022677187,-0.0002956382570460695
1589988532.4890928,-3.81,-0.8551582867783984,9.01,0.33555555555555555,-0.3388888888888889,-0.6133333333333333,-0.001549914128575039,-0.001653512582778613,-3.4532818067858125e-05
1589988532.4990928,-3.8045259833079723,-0.8545259833079725,8.955259833079726,0.33555555555555555,-0.3388888888888889,-0.6133333333333333,-0.00010341439981614397,0.0008039513907885879,-0.002285075964809056
1589988532.5090928,-3.7947524636045062,-0.8552475363954938,8.920495072790988,0.33555555555555555,-0.3388888888888889,-0.6133333333333333,5.400406399856629e-05,0.0009828226544993236,-0.0009828226544993236
1589988532.5190928,-3.798284325869462,-0.8475735111958075,8.958995140543115,0.33555555555555555,-0.3388888888888889,-0.6133333333333333,-0.0002646888680996164,-0.00018715101543240761,0.0006389908989644318
1589988532.5290928,-3.806539305019305,-0.83,9.0,0.3263270356070356,-0.3408114972114972,-0.611410725010725,-0.0025591648263702184,0.00033582425974184324,0.0007550065227546127
1589988532.5390928,-3.8041091175248756,-0.8382182350497517,9.004109117524877,0.3088888888888889,-0.34444444444444444,-0.6077777777777778,-0.0028242571589863438,0.00025387478301261727,0.0017334263764898876
1589988532.5490928,-3.8065913803732556,-0.8534086196267444,8.965687944852323,0.3088888888888889,-0.34444444444444444,-0.6077777777777778,-0.0010661934005906065,0.002553484286460347,0.0018344762254313264
1589988532.5590928,-3.7963204362503244,-0.8563204362503246,8.894718254998702,0.3088888888888889,-0.34444444444444444,-0.6077777777777778,0.0006894526420660539,0.0020683579261981623,0.002469736066628564
1589988532.5690928,-3.7948669974013702,-0.85,8.926489329868494,0.3088888888888889,-0.34444444444444444,-0.6077777777777778,0.0005309070583744859,0.0,0.001090830782496456
1589988532.5790927,-3.8146841483581384,-0.85,8.952912197810852,0.3088888888888889,-0.34444444444444444,-0.6077777777777778,0.002692622886876676,0.0,0.001090830782496456
1589988532.5890927,-3.811071867191801,-0.8367843984245966,8.97,0.3422222222222222,-0.3566666666666667,-0.6266666666666667,-0.001090830782496456,0.0030386472019764276,0.0009739082097399858
1589988532.5990927,-3.8199532037437005,-0.8101403887688985,8.97,0.3422222222222222,-0.3566666666666667,-0.6266666666666667,-0.001090830782496456,0.0011010401418718725,5.1046796877083755e-06
1589988532.6090927,-3.7971264047390885,-0.8528735952609112,8.918620785782734,0.3422222222222222,-0.3566666666666667,-0.6266666666666667,0.00031346061670379035,0.0,-0.00031346061670379035
1589988532.6190927,-3.7902899802222905,-0.8597100197777097,8.941739881333742,0.3422222222222222,-0.3566666666666667,-0.6266666666666667,0.001090830782496456,0.0,-0.0011224627177754
1589988532.6290927,-3.8014968415270527,-0.85,9.002993683054106,0.34022643351948484,-0.35483719368915745,-0.6213445634593672,0.001090830782496456,-0.0004898402442685266,-0.0018551014021472275
1589988532.6390927,-3.81,-0.849348728194882,9.02,0.3288888888888889,-0.34444444444444444,-0.5911111111111111,0.000806659849378575,-0.003059364147650957,0.000284170933117881
1589988532.6490927,-3.81,-0.8364592589614201,8.981051848575621,0.3288888888888889,-0.34444444444444444,-0.5911111111111111,-0.004044962211035641,-0.000772469863546273,0.0032046183346664146
1589988532.6590927,-3.807182637652868,-0.83,8.915634724694264,0.3288888888888889,-0.34444444444444444,-0.5911111111111111,-0.0036101945682633753,-0.0018743350076230944,0.0007835042251266385
1589988532.6690927,-3.8034001727913846,-0.8402005183741535,8.940200518374153,0.3288888888888889,-0.34444444444444444,-0.5911111111111111,-0.0003927744761632072,-0.0003490281531666244,0.0003709013146649158
1589988532.6790926,-3.8127082154661585,-0.86,8.957291784533842,0.3288888888888889,-0.3483563112288956,-0.5971293677025744,-0.0020908104290419073,0.00020456934366086044,0.001090830782496456
1589988532.6890926,-3.803694916045865,-0.8681525419770674,8.945923729011465,0.3288888888888889,-0.3588888888888889,-0.6133333333333333,-0.00024312577913047743,-0.0030709659394108674,0.001090830782496456
1589988532.6990926,-3.7878996402106315,-0.8602508994734208,8.936050179894684,0.3288888888888889,-0.3588888888888889,-0.6133333333333333,-0.0017508030293727221,-0.003932464594365634,0.0006599722468762661
1589988532.7090926,-3.803222295771357,-0.83,8.949333774628144,0.3288888888888889,-0.3588888888888889,-0.6133333333333333,-3.6336957185021225e-05,-0.0025694964639484115,0.0
1589988532.7190926,-3.808873902331164,-0.83,8.993378293006508,0.3288888888888889,-0.3588888888888889,-0.6133333333333333,0.002304499765119258,-0.0009679925823701098,-0.00012283820012634614
1589988532.7290926,-3.802249510392318,-0.83,9.013251468823047,0.3288888888888889,-0.3588888888888889,-0.6133333333333333,0.003027108829340764,-0.00024538351814860416,-0.0008454472643478518
1589988532.7390926,-3.7908612887214974,-0.85,9.020430644360749,0.33555555555555555,-0.34444444444444444,-0.6288888888888889,0.0011378067949977633,-0.0008559507199899201,0.004175419079980595
1589988532.7490926,-3.81,-0.8548720469825409,8.993459647630942,0.33555555555555555,-0.34444444444444444,-0.6288888888888889,0.002181661564992912,0.00409759418886959,0.0002657289411162343
1589988532.7590926,-3.8074815022421524,-0.8674815022421525,8.887555493273544,0.33555555555555555,-0.34444444444444444,-0.6288888888888889,0.0016322105890112328,0.0035472178354802077,0.0008161052945056164
1589988532.7690926,-3.8,-0.8594981000633312,8.911505699810007,0.33555555555555555,-0.34444444444444444,-0.6288888888888889,0.0,0.004308574339920691,0.0001094975801302649
1589988532.7790926,-3.8022747782196387,-0.8465878326705414,8.943412167329457,0.3341654133102206,-0.3452027038509908,-0.6254767215594303,0.0,0.003024352536955894,0.0019335217544594377
1589988532.7890925,-3.8183129397369227,-0.8225305903946161,8.967469409605384,0.3243643146052139,-0.3505487576900853,-0.601419479283505,0.0,0.0012748605091855948,0.00018402972668913904
1589988532.7990925,-3.81,-0.8186961488250653,8.933911553524805,0.3233333333333333,-0.3511111111111111,-0.5988888888888889,-0.0015492597764894726,0.0007746298882447363,0.002323889664734209
1589988532.8090925,-3.7981675510051565,-0.84,8.901553197319581,0.3233333333333333,-0.3511111111111111,-0.5988888888888889,-0.0004302399865298156,-0.0012907199595894468,0.0
1589988532.8190925,-3.7889900071377585,-0.8429966690459195,8.961986676183678,0.3233333333333333,-0.3511111111111111,-0.5988888888888889,-0.001090830782496456,-0.002618720579440695,0.0003268858840243365
1589988532.8290925,-3.8097386505251913,-0.8502613494748086,8.991306747374043,0.3236527604692105,-0.3511111111111111,-0.5992663936858347,-0.001090830782496456,-0.001119339587707508,0.0010623219772854038
1589988532.8390925,-3.802640942573254,-0.86,9.034718114853492,0.33555555555555555,-0.3511111111111111,-0.6133333333333333,-0.001090830782496456,-0.0016054972742507519,0.0
1589988532.8490925,-3.81,-0.8604844866029251,9.015639620573674,0.33555555555555555,-0.3511111111111111,-0.6133333333333333,-0.0011436800725142353,-0.00021139716007111697,0.0
1589988532.8590925,-3.81,-0.8506585596603364,8.945473152271731,0.33555555555555555,-0.3511111111111111,-0.6133333333333333,-0.002181661564992912,-0.0026754640499599257,0.0
1589988532.8690925,-3.81,-0.82,8.967127049103722,0.33555555555555555,-0.3511111111111111,-0.6133333333333333,-0.0015548809101406519,0.0,0.00031339032742613
1589988532.8790925,-3.81,-0.8224245634853364,8.960808187828446,0.3328615961274039,-0.3501233259874555,-0.6151293062854344,-0.0001763192322614631,-0.0002644788483921946,0.0009145115502349929
1589988532.8890924,-3.81,-0.849087769113409,8.969695923037804,0.3032358120962122,-0.3392605385093519,-0.6348798289728956,-0.002115322262870416,-0.003172983394305624,-0.0010244914803739602
1589988532.8990924,-3.806665938758674,-0.85,8.91332314262144,0.3022222222222222,-0.3388888888888889,-0.6355555555555555,-0.0025453512282695608,-0.0018179719017162631,-0.0010910689898299462
1589988532.9090924,-3.8,-0.8522600193671321,8.842600193671322,0.3022222222222222,-0.3388888888888889,-0.6355555555555555,-0.0027794326085481967,-0.0013373606519670417,-0.003272492347489368
1589988532.9190924,-3.8,-0.8588109518008309,8.90810951800831,0.3022222222222222,-0.3388888888888889,-0.6355555555555555,-0.0013502408580015795,-0.00205195652724035,-0.003272492347489368
1589988532.9290924,-3.7977038379179704,-0.8388519189589853,8.994592324164058,0.305283771664928,-0.3395267116894526,-0.6330042643533007,0.0024321339930607855,-0.001090830782496456,0.0012160669965303927
1589988532.9390924,-3.7856181743635617,-0.8328090871817808,9.03,0.3288888888888889,-0.34444444444444444,-0.6133333333333333,0.004056899253125541,-0.0004779830287758894,0.002488085441853195
1589988532.9490924,-3.802234123947972,-0.8388829380260138,9.018829380260136,0.3288888888888889,-0.34444444444444444,-0.6133333333333333,0.003150639788771325,0.001456388458650586,0.0030287872300532813
1589988532.9590924,-3.8128629966984335,-0.8407055049523497,8.94070550495235,0.3288888888888889,-0.34444444444444444,-0.6133333333333333,0.0010138721305737776,0.004363323129985824,0.0007015676376900779
1589988532.9690924,-3.8,-0.8576264961469093,8.962373503853092,0.3288888888888889,-0.34444444444444444,-0.6133333333333333,-0.001090830782496456,0.003327686703855724,0.0005178182130650499
1589988532.9790924,-3.8,-0.8507494671257583,8.969250532874243,0.3288888888888889,-0.34444444444444444,-0.6133333333333333,-0.001090830782496456,0.00032701672449852743,0.0020181532027436482
1589988532.9890924,-3.8017756021076043,-0.8282243978923954,8.954673193677188,0.3422222222222222,-0.34444444444444444,-0.6077777777777778,0.0,0.0025690378522810297,0.00019368814364405885
1589988532.9990923,-3.8094225965833473,-0.820577403416653,8.931732210249958,0.3422222222222222,-0.34444444444444444,-0.6077777777777778,0.0,0.004237353245825082,0.0010278458404160847
1589988533.0090923,-3.7944230864749415,-0.8188461729498833,8.832788456762529,0.3422222222222222,-0.34444444444444444,-0.6077777777777778,-0.0018250406833363443,0.008065851931092355,0.0009125203416681724
1589988533.0190923,-3.782415942788677,-0.7972478283660327,8.873823199041485,0.3422222222222222,-0.34444444444444444,-0.6077777777777778,-0.008126215552562616,0.015425138798892757,0.003272492347489368
1589988533.0290923,-3.7905821966539954,-0.82,8.981746589961986,0.34202815667089037,-0.34444444444444444,-0.6081982531389967,-0.013312246701033122,0.02656098559890177,0.0032407384459071324
1589988533.0390923,-3.8076346228121887,-0.82,9.032903868436566,0.3363440146181593,-0.34444444444444444,-0.6205138942532474,-0.019822705680394858,0.037721772420664754,0.002310672877426884
1589988533.0490923,-3.834655017709563,-0.8746550177095631,9.03922266824085,0.33555555555555555,-0.34444444444444444,-0.6222222222222222,-0.014030273251724073,0.029151377285944604,-0.0005830471214306913
1589988533.0590923,-3.822082530108984,-0.8579174698910159,8.906247590326952,0.33555555555555555,-0.34444444444444444,-0.6222222222222222,-0.006727140298133003,0.014090773789091366,-0.0019544927701573645
1589988533.0690923,-3.829882947389803,-0.849765894779606,8.930234105220395,0.33555555555555555,-0.34444444444444444,-0.6222222222222222,-0.0032597238884519196,0.005441385453444831,-0.0011035992415339042
1589988533.0790923,-3.82,-0.8274382899312919,8.951707806712472,0.3338477488430835,-0.3467215200610739,-0.6214631970166791,-0.002274807971618843,0.004270176723359893,-0.0016227831252373266
1589988533.0890923,-3.8238146727355846,-0.8076293454711694,8.96809266363221,0.31555555555555553,-0.3711111111111111,-0.6133333333333333,-0.003272492347489368,0.0026483179807205107,0.004987497496754681
1589988533.0990922,-3.8396273141122914,-0.84,8.956645827010624,0.31555555555555553,-0.3711111111111111,-0.6133333333333333,-0.0031505311759349843,-0.00012196117155438374,0.0077171229251781145
1589988533.1090922,-3.82594911123001,-0.837974555615005,8.87405088876999,0.31555555555555553,-0.3711111111111111,-0.6133333333333333,0.0006628251250161274,-0.006144734555892586,0.010701243875822941
1589988533.1190922,-3.8091972628598394,-0.8308027371401604,8.893612317130723,0.31555555555555553,-0.3711111111111111,-0.6133333333333333,0.003316274866626378,-0.017497075039080306,0.013961887576768877
1589988533.1290922,-3.789291360654819,-0.8507086393451814,8.982125918035544,0.3162641949007369,-0.3701662586508693,-0.6141207103835348,0.0043246728494152255,-0.01858277358301035,0.00826284289312447
1589988533.1390922,-3.7686518362087478,-0.868651836208748,9.038651836208746,0.33555555555555555,-0.34444444444444444,-0.6355555555555555,0.0034195542038238554,-0.020811448935612105,-0.006275127262334156
1589988533.1490922,-3.7611453933710357,-0.8611453933710359,9.031145393371036,0.33555555555555555,-0.34444444444444444,-0.6355555555555555,0.004238380095266493,-0.027362056067153206,-0.016919863851088453
1589988533.1590922,-3.8035559758444486,-0.8727520074324773,8.95181199814188,0.33555555555555555,-0.34444444444444444,-0.6355555555555555,0.011801480272362032,-0.031143656794101818,-0.0370882466048795
1589988533.1690922,-3.8940163580861373,-0.8449180436658039,8.95877048908355,0.33555555555555555,-0.34444444444444444,-0.6355555555555555,0.011042426660472577,-0.025071227898986165,-0.0370882466048795
1589988533.1790922,-3.809402413101404,-0.8694024131014041,9.059551809826054,0.3354559577391229,-0.3445440422608771,-0.6352235628341134,0.003239899038279121,-0.009752290424047612,-0.011770985442989285
1589988533.1890922,-3.767890032439497,-0.8236700973184905,9.013120259515974,0.3288888888888889,-0.3511111111111111,-0.6133333333333333,0.00017018375647013487,-0.004763668642962539,0.0018915218084498864
1589988533.1990921,-3.752571624243808,-0.8092854696952403,8.937000342426662,0.3288888888888889,-0.3511111111111111,-0.6133333333333333,-0.0034750698709594893,-0.001776506518052669,-0.003880224917899732
1589988533.2090921,-3.7094806314831232,-0.8484972330690176,8.87398893227607,0.3288888888888889,-0.3511111111111111,-0.6133333333333333,-0.004199396687262487,0.0009835586563400236,-0.007364616908595422
1589988533.2190921,-3.6421345538498926,-0.84,8.842621815383369,0.3288888888888889,-0.3511111111111111,-0.6133333333333333,-0.003987481579039812,0.009547939467490598,-0.013000123531631637
1589988533.2290921,-3.591168941633926,-0.84,8.85961035278869,0.3288888888888889,-0.3511111111111111,-0.6133333333333333,-0.008620386466869294,0.029006139996374435,-0.019486190374592916
1589988533.239092,-3.3537582609065217,-0.8679865700503623,8.844026859899275,0.33555555555555555,-0.3644444444444445,-0.6266666666666667,-0.02904246845885563,0.07621177265036624,-0.035572803351362196
1589988533.249092,-3.1841834921660475,-0.858826522371184,8.850612178969472,0.33555555555555555,-0.3644444444444445,-0.6266666666666667,-0.047796219330555015,0.12542888944453937,-0.04203037430932839
1589988533.259092,-2.9855586815745436,-0.8522206592127283,8.835516480318207,0.33555555555555555,-0.3644444444444445,-0.6266666666666667,-0.0767176730862977,0.1868869786754926,-0.03769460470204029
1589988533.269092,-2.9299431702861782,-0.8800284148569109,9.060042622285366,0.33555555555555555,-0.3644444444444445,-0.6266666666666667,-0.09671981278467578,0.22506751910162906,-0.034358844963593455
1589988533.279092,-2.7596854069413435,-0.9651572965293281,9.187735944793992,0.33555555555555555,-0.3644444444444445,-0.6266666666666667,-0.09517212604121293,0.20339990469314914,-0.027394254618010625
1589988533.289092,-2.475578002244669,-0.8571043771043771,8.960157126823793,0.3422222222222222,-0.3588888888888889,-0.5988888888888889,-0.02787923521774332,0.028602782908490124,-0.0041392804440185385
1589988533.299092,-2.373796220462887,-0.7616839566839567,8.877459429126096,0.3422222222222222,-0.3588888888888889,-0.5988888888888889,-0.01677656515125286,0.03415411794173534,0.010432974018250184
1589988533.309092,-2.1092729026036645,-0.2916567020250723,8.999205400192864,0.3422222222222222,-0.3588888888888889,-0.5988888888888889,-0.059952354340835595,0.0974020372589897,-0.001076104040977699
1589988533.319092,-1.9107174541947929,-0.13722468659594986,8.984497589199615,0.3422222222222222,-0.3588888888888889,-0.5988888888888889,-0.05915016769210677,0.06290801136365,-0.041185436477419214
1589988533.329092,-1.945347112800074,-1.2134859579201038,9.1948744091204,0.34240316783555264,-0.35855284703556095,-0.5994317257288803,0.009716775637391964,0.004286786017894822,-0.14802348252479597
1589988533.339092,-1.7509685791083511,-0.9413560107516915,8.145230327185097,0.3499623330346752,-0.3445143973800476,-0.6221092213262479,0.09665075172044892,-0.044481054223820045,-0.17982859572591436
1589988533.349092,-2.1821800537215146,-1.0204046443115848,9.028877047049649,0.35,-0.34444444444444444,-0.6222222222222222,-0.0007917762295271477,0.06822243426230369,-0.19080710724267205
1589988533.359092,-2.087689281691361,-0.9695249978338099,8.810821419287757,0.35,-0.34444444444444444,-0.6222222222222222,0.0007939690442012588,0.013514222318673663,-0.2019073241587709
1589988533.369092,-2.1969777400420836,-0.9838262763483333,9.05610912178375,0.35,-0.34444444444444444,-0.6222222222222222,0.00755515786525841,0.0017783735039090037,-0.21221396297228215
1589988533.379092,-2.2821364760603937,-0.952859463250766,8.986433792314223,0.35,-0.34444444444444444,-0.6222222222222222,0.01262209080965453,0.02711303822588962,-0.2206588512129423
1589988533.389092,-2.39,-0.98,9.2,0.35,-0.3511111111111111,-0.5988888888888889,0.02181661564992912,0.017453292519943295,-0.2356194490192345
1589988533.399092,-2.39,-0.9760812344546135,9.154934196228055,0.35,-0.3511111111111111,-0.5988888888888889,0.019038054093837957,0.017880763528572707,-0.24545128221771093
1589988533.409092,-2.373573667711599,-0.9558934169278996,8.933040752351097,0.35,-0.3511111111111111,-0.5988888888888889,0.007635815477475192,0.02187474769789915,-0.29139714904647884
1589988533.419092,-2.3111369242318625,-0.9422738484637245,8.78545230307255,0.35,-0.3511111111111111,-0.5988888888888889,0.007015719502734425,0.03017120432505631,-0.3167890104249275
1589988533.429092,-2.31675961177543,-0.9535192235508606,8.762961552898279,0.35,-0.3511111111111111,-0.5988888888888889,0.003949019176292735,0.028331184129191292,-0.3351892123835776
1589988533.439092,-2.294197248538967,-0.9535493121347417,8.691943809212676,0.35,-0.34681065253427223,-0.6139404939078249,0.0035889833433329255,0.028678091340751416,-0.3683105065048168
1589988533.449092,-2.331186493120733,-0.953559479362198,8.787118958724395,0.35,-0.34444444444444444,-0.6222222222222222,0.008153520765201393,0.02784389505718165,-0.4221332644347713
1589988533.459092,-2.339838280492584,-0.9795148414777533,8.839029682955506,0.35,-0.34444444444444444,-0.6222222222222222,0.011928575160733382,0.024068840661649663,-0.46177133558785716
1589988533.469092,-2.3469454944313197,-1.000836483293959,8.930291427607155,0.35,-0.34444444444444444,-0.6222222222222222,0.01427204634506336,0.027786456777592606,-0.4950905960174642
1589988533.479092,-2.341840799425071,-1.01,9.002636802299715,0.35,-0.34444444444444444,-0.6222222222222222,0.024171938102645705,0.034792615416021494,-0.5485793268757044
1589988533.4890919,-2.4360466521316555,-1.0580233260658278,9.106046652131655,0.3756124405684415,-0.34444444444444444,-0.6222222222222222,0.028275351673933715,0.043331360951448766,-0.6066567328651302
1589988533.4990919,-2.4495711777274747,-1.0708576445450508,9.074854132729696,0.37666666666666665,-0.34444444444444444,-0.6222222222222222,0.02836160034490785,0.051456155791369716,-0.6676053082377645
1589988533.5090919,-2.4406979204129557,-1.0886041591740887,8.968375044955469,0.37666666666666665,-0.34444444444444444,-0.6222222222222222,0.02836160034490785,0.05532784467924539,-0.7130976526703037
1589988533.5190918,-2.4182121468448656,-1.1197765183556083,8.926424293689731,0.37666666666666665,-0.34444444444444444,-0.6222222222222222,0.018446611039629544,0.055729882170129454,-0.7779879326854144
1589988533.5290918,-2.3614461174082217,-1.112680764676028,8.812892234816443,0.37666666666666665,-0.34444444444444444,-0.6222222222222222,0.015350504424150006,0.058825988785609,-0.8197853719943882
1589988533.5390918,-2.3823924955464855,-1.1580860035628113,8.798086003562812,0.38222222222222224,-0.3322222222222222,-0.6288888888888889,0.017609880987288832,0.06747492004743474,-0.8995336917800882
1589988533.5490918,-2.4296820529009855,-1.1202543576792117,8.760254357679212,0.38222222222222224,-0.3322222222222222,-0.6288888888888889,0.020704975278464027,0.06437982575625953,-0.9562770871183002
1589988533.5590918,-2.480560778108712,-1.2116823343261356,8.7895332278481,0.38222222222222224,-0.3322222222222222,-0.6288888888888889,0.02763779797629121,0.06660184913459712,-1.014503391099133
1589988533.5690918,-2.49,-1.2418473656975295,8.951055637541446,0.38222222222222224,-0.3322222222222222,-0.6288888888888889,0.03398848254619527,0.06780423680358542,-1.071745916372672
1589988533.5790918,-2.49,-1.2981175613776186,8.983210035072926,0.38222222222222224,-0.3322222222222222,-0.6288888888888889,0.03924973353919014,0.07306548779658029,-1.1217278008061233
1589988533.5890918,-2.510203545767266,-1.31,8.996734515255755,0.394942973260871,-0.3269842659121903,-0.6243992120517188,0.04623771218930473,0.08078808810131184,-1.171951921580638
1589988533.5990918,-2.5148033707865167,-1.346376404494382,9.005196629213483,0.4011111111111111,-0.3244444444444444,-0.6222222222222222,0.04908738521234052,0.08512769887448467,-1.22349848022047
1589988533.6090918,-2.5237721848225214,-1.4144304620563035,8.920480798653612,0.4011111111111111,-0.3244444444444444,-0.6222222222222222,0.04683391674034499,0.09068256876121109,-1.2961804700563428
1589988533.6190917,-2.5360484924398317,-1.4541939697593271,8.91629095463899,0.4011111111111111,-0.3244444444444444,-0.6222222222222222,0.04185616382021178,0.09338040468630532,-1.3531498496148
1589988533.6290917,-2.5261477296505546,-1.47,8.856886377903328,0.4011111111111111,-0.3244444444444444,-0.6222222222222222,0.03926990816987242,0.09758906802085472,-1.4200286304260106
1589988533.6390917,-2.495237134207871,-1.5133350151362261,8.832381432896065,0.4224346899876667,-0.3038087229510035,-0.6442336584818926,0.03724400094970619,0.09926560120717748,-1.4759474344825394
1589988533.6490917,-2.488655050586157,-1.54,8.796724747069215,0.4355555555555555,-0.2911111111111111,-0.6577777777777778,0.03694153538272745,0.10398619900889955,-1.5497839514087288
1589988533.6590917,-2.503209994865651,-1.54,8.750370015403046,0.4355555555555555,-0.2911111111111111,-0.6577777777777778,0.038529233508486756,0.10399926166785615,-1.5958925103505313
1589988533.6690917,-2.5341252864782278,-1.5882505729564553,8.83454290807232,0.4355555555555555,-0.2911111111111111,-0.6577777777777778,0.04979655022067091,0.10801502519166269,-1.6497319755423465
1589988533.6790917,-2.54,-1.653605915251042,8.913605915251042,0.4355555555555555,-0.2911111111111111,-0.6577777777777778,0.05653666202266795,0.11158914892734843,-1.6914770650973174
1589988533.6890917,-2.54,-1.7179921370401572,8.968393709632126,0.4707497893850042,-0.27937969983462824,-0.6705756809884864,0.062002135504407516,0.11968475265330183,-1.7414830089993774
1589988533.6990917,-2.589656183206107,-1.7448280916030534,8.97,0.4722222222222222,-0.2788888888888889,-0.6711111111111111,0.06488567926142323,0.12360248562011046,-1.7711336119069643
1589988533.7090917,-2.5904843936551254,-1.807093638069248,8.865328330206378,0.4722222222222222,-0.2788888888888889,-0.6711111111111111,0.06129788042374422,0.12643069246761757,-1.8039511271060074
1589988533.7190917,-2.5333139464681023,-1.8666860535318976,8.892392030589656,0.4722222222222222,-0.2788888888888889,-0.6711111111111111,0.05755310141232518,0.127419726371458,-1.8247587682727542
1589988533.7290916,-2.535288554287731,-1.8876442771438653,8.892355722856134,0.4722222222222222,-0.2788888888888889,-0.6711111111111111,0.05588933940796945,0.12429175642470035,-1.840997280192404
1589988533.7390916,-2.527400611620795,-1.9529969418960245,8.852201834862386,0.49392116887529736,-0.2494903160040775,-0.6802106693849813,0.051509229701919804,0.12463825849056602,-1.8562770837834721
1589988533.7490916,-2.4700689061154177,-1.9600413436692505,8.810027562446168,0.5066666666666667,-0.23222222222222225,-0.6855555555555556,0.051266040180861436,0.11890957508152966,-1.8740322513465515
1589988533.7590916,-2.366325222632005,-1.96,8.60265044526401,0.5066666666666667,-0.23222222222222225,-0.6855555555555556,0.056409575801036865,0.11067570885418818,-1.8843283423763184
1589988533.7690916,-2.399044361833953,-2.0576109045848825,8.746177447335812,0.5066666666666667,-0.23222222222222225,-0.6855555555555556,0.05352889130696027,0.12827499553498942,-1.8902794411253019
1589988533.7790916,-2.4161356879885023,-2.1084070639655073,8.766135687988502,0.5066666666666667,-0.23222222222222225,-0.6855555555555556,0.05785103463098051,0.15247979429331435,-1.8939300070972815
1589988533.7890916,-2.4398910385389256,-2.1796731156167777,8.93907382758087,0.5309779359920205,-0.17365416430205163,-0.6910808440385905,0.073008404391963,0.13104826704438152,-1.902367284193273
1589988533.7990916,-2.4135260933868583,-2.2241231776885697,8.948824635537713,0.5311111111111111,-0.17333333333333334,-0.6911111111111111,0.061534241520641936,0.13956325957954016,-1.9062593583093592
1589988533.8090916,-2.364159916477661,-2.2692915001620046,8.877965583036325,0.5311111111111111,-0.17333333333333334,-0.6911111111111111,0.06499607045514263,0.13928849167980353,-1.9096295663282834
1589988533.8190916,-2.34,-2.3465478703588727,8.802301419760752,0.5311111111111111,-0.17333333333333334,-0.6911111111111111,0.06146309274757257,0.14059164796611914,-1.9183320159955328
1589988533.8290915,-2.345820893380031,-2.379104466900155,8.86402982718034,0.5311111111111111,-0.17333333333333334,-0.6911111111111111,0.057911718979517704,0.137542366101759,-1.924485995123777
1589988533.8390915,-2.3012057816660327,-2.4108431596297706,8.850362622036263,0.5347254976543679,-0.14923742304495444,-0.70376146401251,0.05563236990731925,0.13703722487511202,-1.932728641760021
1589988533.8490915,-2.231970447788089,-2.448029552211911,8.872876835750969,0.5377777777777778,-0.1288888888888889,-0.7144444444444444,0.0537978400049786,0.13975852931194366,-1.9423397386056778
1589988533.8590915,-2.1820547509151678,-2.518904185898456,8.74835588094859,0.5377777777777778,-0.1288888888888889,-0.7144444444444444,0.0386422854930103,0.13843090559757287,-1.9608505388229935
1589988533.8690915,-2.182693060531078,-2.54,8.720772242124312,0.5377777777777778,-0.1288888888888889,-0.7144444444444444,0.05280159614441024,0.15059836068837465,-1.9674601998986796
1589988533.8790915,-2.1259798907861662,-2.5335979890786167,8.609155759729566,0.5377777777777778,-0.1288888888888889,-0.7144444444444444,0.07413593098338378,0.16724902721978666,-1.9713504869150682
1589988533.8890915,-2.102403524636706,-2.6292281970936466,8.747061681142352,0.5543158106267189,-0.08409838325633996,-0.7234025455709543,0.08301318374353427,0.16896872701314708,-1.9807544661029333
1589988533.8990915,-2.1187166946492444,-2.707433389298489,8.914866778596977,0.5644444444444444,-0.05666666666666665,-0.7288888888888889,0.0451493578856479,0.1374209493024019,-2.0033780579490843
1589988533.9090915,-2.076493138897695,-2.7448054888818443,8.83298627779539,0.5644444444444444,-0.05666666666666665,-0.7288888888888889,0.044015770503891626,0.13403052793137146,-2.0136311887454132
1589988533.9190915,-2.0243208942043247,-2.78654328463654,8.792592536522594,0.5644444444444444,-0.05666666666666665,-0.7288888888888889,0.05767938750925178,0.1620759640896116,-2.0167575822597072
1589988533.9290915,-2.02,-2.8343568385090783,8.841749644927257,0.5644444444444444,-0.05666666666666665,-0.7288888888888889,0.05325985168781716,0.15907043758997338,-2.0129139664309528
1589988533.9390914,-1.993300800251059,-2.867799466499294,8.79770186725247,0.5842216294436599,-0.038867200167372766,-0.7931647401363391,0.04156094379261133,0.16096287387337851,-1.998871429043326
1589988533.9490914,-1.956388737074525,-2.8868056314627375,8.79,0.5866666666666667,-0.03666666666666667,-0.8011111111111111,0.04036073895236887,0.16144295580947549,-1.997311162751011
1589988533.9590914,-1.9091319908754818,-2.9240566742704317,8.721886651459135,0.5866666666666667,-0.03666666666666667,-0.8011111111111111,0.03590273071513182,0.15549894482649276,-1.9869091435307913
1589988533.9690914,-1.8304323792434811,-2.880432379243481,8.67510809481087,0.5866666666666667,-0.03666666666666667,-0.8011111111111111,0.029754617109809773,0.16165081127418063,-1.943052615179289
1589988533.9790914,-1.8000704584295266,-2.9046829370671303,8.704753395496658,0.5866666666666667,-0.03666666666666667,-0.8011111111111111,0.031611035225253034,0.16688173807719497,-1.9134324798345046
1589988533.9890914,-1.793137321167061,-2.9907851751717924,8.727450715331756,0.5943356739639267,-0.0474729951309877,-0.7937906950546356,0.03456435638952581,0.1673676280351468,-1.886003413949792
1589988533.9990914,-1.7590281143965099,-3.063611245758604,8.765555016965584,0.6111111111111112,-0.07111111111111111,-0.7777777777777778,0.026664811212076478,0.16183688161313997,-1.833444373540196
1589988534.0090914,-1.7274162208694583,-3.0449441472463055,8.674609030724138,0.6111111111111112,-0.07111111111111111,-0.7777777777777778,0.020162091705279293,0.1515889232251971,-1.8025064792208678
1589988534.0190914,-1.687821529846728,-3.0614523134355145,8.650726156717758,0.6111111111111112,-0.07111111111111111,-0.7777777777777778,0.003918595895426265,0.13548252230134614,-1.7756959621256927
1589988534.0290914,-1.6550282433558663,-3.1048587832206684,8.610282433558663,0.6111111111111112,-0.07111111111111111,-0.7777777777777778,0.020559417768740963,0.13086272343319877,-1.733477995252372
1589988534.0390913,-1.639719060596345,-3.1557023485091378,8.652528454632895,0.5939762121050194,-0.07168227441131417,-0.8154745555911795,0.031113115198207964,0.12230474560899514,-1.6892065503277733
1589988534.0490913,-1.6968098854529434,-3.3061964503000043,8.881043091511769,0.5777777777777777,-0.07222222222222223,-0.8511111111111112,0.020377797352670757,0.10637273014210175,-1.6398532430661192
1589988534.0590913,-1.685014902037426,-3.367492548981287,8.749243660526702,0.5777777777777777,-0.07222222222222223,-0.8511111111111112,0.027995822670589532,0.10771872699146771,-1.5974440538084544
1589988534.0690913,-1.6348059655478053,-3.361104474160854,8.695582103356584,0.5777777777777777,-0.07222222222222223,-0.8511111111111112,0.027511728445037693,0.10770895683385909,-1.544928978777579
1589988534.0790913,-1.5421568273454895,-3.2267483099636918,8.681617620509117,0.5777777777777777,-0.07222222222222223,-0.8511111111111112,0.030042408852177526,0.10265573023771636,-1.4889519174726114
1589988534.0890913,-1.5296949070134922,-3.2787796280539685,8.753932174547222,0.5381845684264549,-0.06149906135623894,-0.7282071904163797,0.030295514575867145,0.10116623495601612,-1.42371907009141
1589988534.0990913,-1.5242684216711717,-3.3986578916441412,8.750671054177928,0.5244444444444445,-0.057777777777777775,-0.6855555555555556,0.03460057809690632,0.09715714029758538,-1.3602131684875725
1589988534.1090913,-1.4656849818195175,-3.335509971719249,8.74,0.5244444444444445,-0.057777777777777775,-0.6855555555555556,0.03533909922479277,0.0874349930910145,-1.311626920113248
1589988534.1190913,-1.4558544796265125,-3.344636199066281,8.714145520373487,0.5244444444444445,-0.057777777777777775,-0.6855555555555556,0.03490658503988659,0.0818123086872342,-1.2438516460971214
1589988534.1290913,-1.4655527968242512,-3.433366438108986,8.757813641284734,0.5244444444444445,-0.057777777777777775,-0.6855555555555556,0.03151078275580062,0.07744627717912365,-1.1889865942742641
1589988534.1390913,-1.4569652523136023,-3.5060694953727953,8.822413130784005,0.5222526822264906,-0.040243680034146245,-0.6764513124963623,0.02693972994306814,0.07083619297706467,-1.1412263265728064
1589988534.1490912,-1.4080309593126463,-3.5240154796563234,9.339458212028687,0.51,0.057777777777777775,-0.6255555555555555,0.03555095209801256,0.07482086026788497,-1.0308899679374155
1589988534.1590912,-0.9868213457076566,-2.826171693735499,8.372993039443156,0.51,0.057777777777777775,-0.6255555555555555,0.09855694083803826,0.14292920366571313,-0.9503236787352651
1589988534.1690912,-1.2217701040038067,-3.28328733600707,9.09377336686833,0.51,0.057777777777777775,-0.6255555555555555,-0.018282964576591565,0.005604976413440627,-0.9362681207965773
1589988534.1790912,-1.3209751902084024,-3.435933840555739,9.337396625868342,0.51,0.057777777777777775,-0.6255555555555555,-0.04252435832777368,-0.008805959725400929,-0.8912880627650338
1589988534.1890912,-1.2742061452072129,-3.369682458082885,8.703170278392914,0.5289154935147106,0.09216958416816057,-0.618103997504306,0.02450081512286587,0.04562466177695138,-0.8211008720106406
1589988534.1990912,-1.2929700127169053,-3.4459400254338104,8.648346802313656,0.5466666666666666,0.12444444444444445,-0.6111111111111112,0.012150746052638765,0.030899951090984548,-0.7585415399109283
1589988534.2090912,-1.257324409685667,-3.368795976003075,8.554916361691816,0.5466666666666666,0.12444444444444445,-0.6111111111111112,0.016092492921939525,0.03397263147725886,-0.7089925772345836
1589988534.2190912,-1.2476538026804456,-3.393701760051671,8.629624576134345,0.5466666666666666,0.12444444444444445,-0.6111111111111112,0.020160465733503646,0.03517616626265598,-0.6426346939545735
1589988534.2290912,-1.2819441112017531,-3.4893742502039444,8.777430139002192,0.5466666666666666,0.12444444444444445,-0.6111111111111112,0.02027116298797675,0.025861834328394673,-0.5950183635615488
1589988534.2390912,-1.3189195772058824,-3.574145680147059,8.850452205882354,0.5522724673202615,0.1580792483660131,-0.6076074857026144,0.024116133059115467,0.02153157595189259,-0.5336410359692924
1589988534.2490911,-1.3222975920036348,-3.6077024079963653,8.795273512039982,0.5555555555555556,0.17777777777777778,-0.6055555555555555,0.03130947017420768,0.021565987241610872,-0.4664793371935327
1589988534.2590911,-1.3273355611892141,-3.61,8.7186510716755,0.5555555555555556,0.17777777777777778,-0.6055555555555555,0.0290146406861415,0.01781568767388859,-0.4046836390235429
1589988534.2690911,-1.2858582947913892,-3.5511443930551856,8.648501343923288,0.5555555555555556,0.17777777777777778,-0.6055555555555555,0.025665731867963504,0.01154734865410316,-0.3358837215639093
1589988534.2790911,-1.2639708139828616,-3.53,8.642058372034278,0.5555555555555556,0.17777777777777778,-0.6055555555555555,0.01916996846661577,0.009159794872378913,-0.2753400988207605
1589988534.289091,-1.26,-3.5560015957832634,8.74360574481975,0.5457327304818782,0.18875622933071132,-0.6055555555555555,0.015838897776438664,0.005323045331041967,-0.2135825783373987
1589988534.299091,-1.2741284814376619,-3.6153212035941547,8.787614555687014,0.5366666666666666,0.1988888888888889,-0.6055555555555555,0.011738926998807433,0.002181661564992912,-0.1343922150443009
1589988534.309091,-1.2725857698922785,-3.681899610754051,8.718100389245949,0.5366666666666666,0.1988888888888889,-0.6055555555555555,0.011435011128471041,-0.0010534066070129623,-0.07086381184004857
1589988534.319091,-1.2764975408265378,-3.6805073775203865,8.687004918346924,0.5366666666666666,0.1988888888888889,-0.6055555555555555,0.007746508080992089,-0.007143063845873328,-0.02232009744997932
1589988534.329091,-1.2853875903461685,-3.702325542077011,8.755426264846358,0.5366666666666666,0.1988888888888889,-0.6055555555555555,0.0066295437910985425,-0.012168256799700627,0.023258339017496344
1589988534.339091,-1.2739380451487994,-3.7139380451487995,8.767798646733597,0.5451438095048003,0.211827685852356,-0.6229560066443561,0.007197793608006245,-0.015494865780860767,0.06617868590398127
1589988534.349091,-1.2637666423665732,-3.694588880788858,8.717533284733147,0.5577777777777778,0.2311111111111111,-0.6488888888888888,0.004542707726301666,-0.018955000246451095,0.11392390927962381
1589988534.359091,-1.2623585324123947,-3.708820733793803,8.723537798618592,0.5577777777777778,0.2311111111111111,-0.6488888888888888,0.002181661564992912,-0.020244688470108328,0.1541544145130574
1589988534.369091,-1.2607065611719588,-3.692391251770722,8.678496354904468,0.5577777777777778,0.2311111111111111,-0.6488888888888888,0.001930690961370485,-0.020889807103048344,0.18700438151294535
1589988534.379091,-1.2911320050086774,-3.612955998330441,8.69614265943191,0.5577777777777778,0.2311111111111111,-0.6488888888888888,-0.0026779163633215758,-0.026502388177100246,0.23839801100296168
1589988534.389091,-1.229092450654548,-3.635453774672726,8.731823577290918,0.5832287262504993,0.23656488578383714,-0.6525247386707063,-0.007635815477475192,-0.025387027698003304,0.2833153091331276
1589988534.399091,-1.239023219642262,-3.697069658926786,8.782433951783135,0.6044444444444445,0.2411111111111111,-0.6555555555555556,-0.006944111691876172,-0.026365965360420667,0.32567805546188494
1589988534.409091,-1.2236546018614272,-3.644377456049638,8.698273009307137,0.6044444444444445,0.2411111111111111,-0.6555555555555556,-0.006544984694978735,-0.03195389675324287,0.3622390703697419
1589988534.419091,-1.2754274331246442,-3.671970176437109,8.64308548662493,0.6044444444444445,0.2411111111111111,-0.6555555555555556,-0.008686092437141444,-0.03238834909594833,0.3977071435600742
1589988534.429091,-1.3151659426585578,-3.689336229365769,8.732655082536924,0.6044444444444445,0.2411111111111111,-0.6555555555555556,-0.017143197096804424,-0.03726926196496362,0.42254974661831357
1589988534.439091,-1.299887929188379,-3.690112070811621,8.80195517167535,0.6629929172516081,0.2540722234119336,-0.6613657093455795,-0.01917172670788778,-0.04210362319854049,0.4473139709982284
1589988534.449091,-1.2643378887841659,-3.652054665409991,8.705068331762488,0.75,0.2733333333333333,-0.67,-0.01570498173235119,-0.043922131818125446,0.4878753526161942
1589988534.459091,-1.299566065997912,-3.613188688665971,8.64,0.75,0.2733333333333333,-0.67,-0.022140780196840484,-0.047253555622611444,0.5305790825319281
1589988534.469091,-1.3378674714778456,-3.643823295303794,8.651911647651897,0.75,0.2733333333333333,-0.67,-0.023348597618474985,-0.048646234026291105,0.5690123851307193
1589988534.479091,-1.3549565162723445,-3.6401739349106226,8.724434711540477,0.75,0.2733333333333333,-0.67,-0.024529462589570915,-0.049628057264722296,0.6090250284530134
1589988534.489091,-1.3470044709388973,-3.613502235469449,8.76725782414307,0.9770607716509357,0.287772810067892,-0.8205315449577745,-0.025116744544814076,-0.04946941983810306,0.6482753692960905
1589988534.499091,-1.326456041183002,-3.6,8.72161401029575,1.4488888888888893,0.31777777777777777,-1.1333333333333333,-0.02431593612352224,-0.04817261564123115,0.6870166118877236
1589988534.509091,-1.3693801326450001,-3.621886976171667,8.708113023828334,1.4488888888888893,0.31777777777777777,-1.1333333333333333,-0.029587665205784024,-0.05249809769002919,0.7301804538807269
1589988534.519091,-1.3964844364937388,-3.681347763864043,8.669726654740609,1.4488888888888893,0.31777777777777777,-1.1333333333333333,-0.02491227242405564,-0.05911151517049087,0.7562099513898115
1589988534.529091,-1.4386140777827725,-3.734257281478152,8.722871359260925,1.4488888888888893,0.31777777777777777,-1.1333333333333333,-0.02243219368021086,-0.0554811892456495,0.7782484560557905
1589988534.5390909,-1.4581185187481593,-3.7212543208345608,8.72937283958272,1.4488888888888893,0.31777777777777777,-1.1333333333333333,-0.018886186246806054,-0.057608793705692385,0.786758873895962
1589988534.5490909,-1.46,-3.5946047576228235,8.792383920542793,0.9244444444444444,-0.28444444444444444,-0.8633333333333333,-0.01824985847923708,-0.061536815877670535,0.7956139234195633
1589988534.5590909,-1.4566012967898485,-3.533202593579697,8.676405187159393,0.9244444444444444,-0.28444444444444444,-0.8633333333333333,-0.016754594987831523,-0.05966773651341359,0.7881929535258954
1589988534.5690908,-1.4843337020565726,-3.52,8.701500553084859,0.9244444444444444,-0.28444444444444444,-0.8633333333333333,-0.01776234113091764,-0.0601471637947635,0.7673084523673838
1589988534.5790908,-1.5052688216291845,-3.52,8.773118248595708,0.9244444444444444,-0.28444444444444444,-0.8633333333333333,-0.017394644738320215,-0.05833012297274886,0.7530837743939162
1589988534.5890908,-1.4959127301841473,-3.491389111289031,8.732341873498799,0.8100008896005694,-0.12776576817009166,-0.8074739791833466,-0.019435827248739896,-0.05578389844275812,0.7383496448478283
1589988534.5990908,-1.5741781850501086,-3.410716846976616,8.721013822060131,0.6444444444444445,0.09888888888888887,-0.7266666666666667,-0.02623523419547316,-0.053717690923129204,0.7176560640515516
1589988534.6090908,-1.670168836274681,-3.307594792940765,8.715527258430892,0.6444444444444445,0.09888888888888887,-0.7266666666666667,-0.02461962475940755,-0.0562905518129296,0.7024581895665928
1589988534.6190908,-1.5750332871926702,-3.505610704633841,8.748837914442028,0.6444444444444445,0.09888888888888887,-0.7266666666666667,-0.01730553315945089,-0.055583116787155114,0.6969916168950712
1589988534.6290908,-1.5343771629970913,-3.6827900804688,8.898668973863565,0.6444444444444445,0.09888888888888887,-0.7266666666666667,-0.01605345593477443,-0.05220071942192217,0.6856504325399762
1589988534.6390908,-1.5830487595396432,-3.575658511447572,8.9382682633555,0.6255582548758177,0.11613280110372205,-0.7180447105592501,-0.023784104873365894,-0.05311814026689909,0.6606656478650528
1589988534.6490908,-1.516396096695498,-3.435129740518962,8.709447771124418,0.5933333333333334,0.14555555555555555,-0.7033333333333334,-0.02250367695449553,-0.052526320580091046,0.6370841265800553
1589988534.6590908,-1.5346881712326186,-3.3619698910954514,8.610597844518974,0.5933333333333334,0.14555555555555555,-0.7033333333333334,-0.013519732958974334,-0.04465603159868919,0.6186371146428216
1589988534.6690907,-1.588625979656495,-3.495754543938636,9.032184425546106,0.5933333333333334,0.14555555555555555,-0.7033333333333334,-0.03768522953436981,-0.05929302848623224,0.5830858872002429
1589988534.6790907,-1.3784720237755044,-3.5713888095102018,8.703957678459163,0.5933333333333334,0.14555555555555555,-0.7033333333333334,-0.004022380063072781,-0.04175456096781571,0.5285152603460131
1589988534.6890907,-1.438400868720352,-3.595360347488141,8.901722866777162,0.5933333333333334,0.14555555555555555,-0.7033333333333334,-0.021672881845902964,-0.046984339273839465,0.47687119957402857
1589988534.6990907,-1.4152749759516283,-3.5470875360725573,8.710549951903257,0.6133333333333333,0.12444444444444445,-0.7477777777777778,-0.005751857627479939,-0.026993062662912577,0.3532069600408797
1589988534.7090907,-1.4373265292742095,-3.486478134493083,8.738457722315712,0.6133333333333333,0.12444444444444445,-0.7477777777777778,-0.006284202783364586,-0.021233354817170015,0.23313502392215454
1589988534.7190907,-1.3808737018842112,-3.4840289782973697,8.64194204340526,0.6133333333333333,0.12444444444444445,-0.7477777777777778,0.003081880165484826,-0.009166139614849736,0.1191756202024441
1589988534.7290907,-1.3602616088947026,-3.4338481033355137,8.742303793328974,0.6133333333333333,0.12444444444444445,-0.7477777777777778,0.010097319013975125,-0.0020132034757077743,-0.006219126644026964
1589988534.7390907,-1.4279957716701903,-3.4920676532769557,8.667953488372092,0.6026441155743482,0.11264176650223162,-0.7261766502231618,0.014841294751961293,0.0063263572992479445,-0.1663034948310178
1589988534.7490907,-3.1725407093464195,-4.536100825340174,7.171826901628374,0.56,0.06555555555555556,-0.64,-0.050307178813200376,0.22559222490237157,-0.3592792189611024
1589988534.7590907,-14.266902928416485,-9.178956073752712,-4.726601409978309,0.56,0.06555555555555556,-0.64,-0.8526466980247078,0.30103613920906547,-3.8497500298540173
1589988534.7690907,-3.13760766042884,-1.919164972071353,-0.5124953023243841,0.56,0.06555555555555556,-0.64,-0.6828774505798497,-1.3449103151637758,-7.2775410654846855
1589988534.7790906,-1.1404354804807675,-1.393001547780559,-0.12007777119599489,0.56,0.06555555555555556,-0.64,-0.5748567958821399,-0.6159639805026718,-7.488639845419431
1589988534.7890906,-0.2782498465910926,-1.5625433582017245,0.10909763265833414,0.5864529348649105,0.14167522526886928,-0.64,-0.49428261464712736,-0.5541739207836626,-7.185088693513346
1589988534.7990906,-0.06872143252722909,-1.292247000184604,-0.03519586486985416,0.6144444444444445,0.2222222222222222,-0.64,-0.4329316273935451,-0.39299582311299164,-6.841384421656794
1589988534.8090906,0.1163013698630137,-2.114041095890411,1.903150684931507,0.6144444444444445,0.2222222222222222,-0.64,-0.3982055357172165,-0.25429058686484163,-6.542205317916485
1589988534.8190906,-0.10918577648766323,-1.759820029027576,1.4030769230769233,0.6144444444444445,0.2222222222222222,-0.64,0.7438216784975048,1.260977111398265,-6.001111032345886
1589988534.8290906,1.8797258789532831,-0.7104994782469096,9.121181369401189,0.6144444444444445,0.2222222222222222,-0.64,1.8754937865384826,2.6320448038054525,-5.548254506987724
1589988534.8390906,1.9685159288290648,0.4813661917907589,17.809877284542686,0.5483979598919048,0.27683048877962935,-0.6374171765817442,1.6840669274088476,3.018501938262471,-5.107124278078702
1589988534.8490906,-2.254437876453285,2.338957837232105,12.114674604286314,0.4155555555555556,0.38666666666666666,-0.6322222222222222,0.39779761163541394,2.506097223373089,-4.388009765888958
1589988534.8590906,-0.36424848444176017,-0.7817274008455808,9.9942406549896,0.4155555555555556,0.38666666666666666,-0.6322222222222222,-0.08474217626642994,0.32655210156715614,-3.621654535940027
1589988534.8690906,1.52,-0.9638029310882444,14.443322107888994,0.4155555555555556,0.38666666666666666,-0.6322222222222222,0.42711627249793227,-0.5442038105662035,-3.3146944713884547
1589988534.8790905,1.2742964514539181,-0.5207477000164284,4.059009980285856,0.4155555555555556,0.38666666666666666,-0.6322222222222222,0.3861829940735134,-0.7174955376459226,-3.005089414647285
1589988534.8890905,0.5155263691977616,-1.183023687338726,7.148842886550114,0.3986836501631666,0.4114782922437093,-0.6213051069683234,-0.2045829080593033,0.2630598949362919,-2.631705466906254
1589988534.8990905,0.4174855640580254,-1.869814562696587,11.03942021501338,0.37777777777777777,0.44222222222222224,-0.6077777777777778,-0.05866212539226534,0.9107109662647703,-2.300043871962465
1589988534.9090905,0.9603193189601748,-1.7635788838513977,7.659459375713493,0.37777777777777777,0.44222222222222224,-0.6077777777777778,0.30232187099422775,0.4204319751274866,-2.193798307176853
1589988534.9190905,1.0774330433461232,-2.1089100786384534,7.872144132507693,0.37777777777777777,0.44222222222222224,-0.6077777777777778,0.14235766473783687,-0.17101875351738752,-2.121732797903019
1589988534.9290905,0.31305795840371264,-1.9884463667229701,7.896293016669226,0.37777777777777777,0.44222222222222224,-0.6077777777777778,-0.1915604454955416,0.1298109475900891,-1.9036745692414678
1589988534.9390905,0.6796118454073949,-2.281837878534382,7.849155094529028,0.37447995092298253,0.4451078207201681,-0.6091793541910657,0.14747760247301572,0.48730360330584,-1.7629020851136596
1589988534.9490905,0.5328949640784747,-2.272367193976237,7.757096400939486,0.3333333333333333,0.4811111111111111,-0.6266666666666667,0.10064541624298107,-0.11238558050036304,-1.6851047828962578
1589988534.9590905,0.5046936369180728,-2.446870908721285,8.91014271193332,0.3333333333333333,0.4811111111111111,-0.6266666666666667,-0.14691497029994563,0.12312048928122492,-1.5304667227565067
1589988534.9690905,0.538826150322715,-2.509435352904435,8.518915261295025,0.3333333333333333,0.4811111111111111,-0.6266666666666667,0.053813773528438955,0.19616803096775245,-1.3411334997337816
1589988534.9790905,0.5100229312283642,-2.619994267192909,9.056582585495999,0.3333333333333333,0.4811111111111111,-0.6266666666666667,0.04838809709093064,0.0432273055371481,-1.226496598527504
1589988534.9890904,0.43926598419895846,-2.6307340158010417,9.1044514187276,0.3181474147850403,0.4911492606599828,-0.6256371128667825,-0.03518940662010972,0.15198104687863356,-1.0584063272514754
1589988534.9990904,0.470868350438463,-2.603473401753852,8.30476195745387,0.2677777777777778,0.5244444444444445,-0.6222222222222222,0.010529418469656653,0.02631745063019673,-0.9369533020014081
1589988535.0090904,0.48,-2.692662296319004,8.546366165963168,0.2677777777777778,0.5244444444444445,-0.6222222222222222,0.00861302823544063,0.05712213705894669,-0.7055678037231448
1589988535.0190904,0.4953114171211619,-2.900207611414108,8.898070931388796,0.2677777777777778,0.5244444444444445,-0.6222222222222222,0.019702894761328173,0.03372516668886752,-0.46781165740629005
1589988535.0290904,0.5326865513215158,-2.9409701730177265,8.98,0.2677777777777778,0.5244444444444445,-0.6222222222222222,0.018682488952061156,0.013545823417203893,-0.19932063923370122
1589988535.0390904,1.6058586901986247,-5.5660608564767,7.388593985184311,0.26144854679665647,0.5382896372156474,-0.6269691454580633,-0.0007767134981704542,-0.0027927367083558155,0.04491210749157353
1589988535.0490904,6.12095902994672,-12.576273909404534,3.745944638373446,0.25,0.5633333333333334,-0.6355555555555555,-0.20247974396993207,-0.17650849864120938,0.7288982415419375
1589988535.0590904,7.220311518865973,-12.444787652046397,5.224441728863905,0.25,0.5633333333333334,-0.6355555555555555,-0.5136547448764717,-0.4064869932973391,2.0955577515171466
1589988535.0690904,-0.7435187981877435,-1.996031714490104,12.871859550115252,0.25,0.5633333333333334,-0.6355555555555555,-0.4948677702340105,-0.35716557892790674,3.9919897999302743
1589988535.0790904,-1.5639578921141148,-2.199891615796686,7.330460321415224,0.25,0.5633333333333334,-0.6355555555555555,0.6647595084780604,-0.006360914644537544,4.101540253453658
1589988535.0890903,-0.15314314189610023,-1.0503388563597857,1.9680579606328639,0.25,0.5633333333333334,-0.6355555555555555,0.636260246294026,0.1710469924510767,4.0794533252610305
1589988535.0990903,-0.9978222576611515,-2.970167630162556,10.531900291767093,0.26222222222222225,0.5644444444444444,-0.6644444444444444,-0.5284800856983243,-0.48586454272440616,3.7304462823023465
1589988535.1090903,-0.04777614678899082,-2.934855779816514,9.705067155963302,0.26222222222222225,0.5644444444444444,-0.6644444444444444,-0.5256123891770562,-0.4996442917366265,3.7178568194279955
1589988535.1190903,-0.6072911950070365,-2.632531562952538,7.221290868669564,0.26222222222222225,0.5644444444444444,-0.6644444444444444,0.07913634808504443,-0.1552624935714186,3.8488845607743296
1589988535.1290903,-0.3761426345680253,-3.0236304468010253,8.614424536362266,0.26222222222222225,0.5644444444444444,-0.6644444444444444,-0.06505558100153772,-0.227403733928659,3.8792294021878004
1589988535.1390903,-0.2397786360993438,-3.3648513165545313,10.015660769166875,0.28571720611715634,0.5511848990779965,-0.6658401860619653,-0.2395901672999341,-0.3736388547218014,3.8644346752692167
1589988535.1490903,-0.17056417910447763,-3.1276205638474295,8.017746268656717,0.3744444444444445,0.5011111111111111,-0.6711111111111111,-0.07982866094886162,-0.2569051575082232,3.8877209088173688
1589988535.1590903,4.956475423388525,-12.80096912865815,8.74294281597657,0.3744444444444445,0.5011111111111111,-0.6711111111111111,-0.19042101970404463,-0.31115081708308273,3.45311039608501
1589988535.1690903,6.415815470228159,-18.626160712298272,11.179204229271008,0.3744444444444445,0.5011111111111111,-0.6711111111111111,-0.3879492511809637,-0.32773689741862316,1.0805955725039138
1589988535.1790903,-1.875032388050001,-2.286841569358088,14.000852488138825,0.3744444444444445,0.5011111111111111,-0.6711111111111111,-0.1906723951202539,0.01596998101568725,-2.1803284822909332
1589988535.1890903,0.31258619033899937,-1.4771718044751752,9.083358302122347,0.39023133476317,0.4858982895312483,-0.6754166266525817,0.6613696663369697,0.5627326049065116,-2.351222845315124
1589988535.1990902,-0.46199214410411044,-0.6870234883351848,3.612094112045707,0.4355555555555555,0.44222222222222224,-0.6877777777777778,0.5673523254815304,0.25392912420436015,-2.054803969573756
1589988535.2090902,-2.0506346120721473,-5.6017099338074265,7.509226112847265,0.4355555555555555,0.44222222222222224,-0.6877777777777778,-0.2518236505068327,-0.05546898284137139,-1.8585161183746755
1589988535.2190902,-5.239818415784958,-11.671135258793251,8.471589219330856,0.4355555555555555,0.44222222222222224,-0.6877777777777778,-0.4276761636665044,0.08965244048227733,-1.107013882581076
1589988535.2290902,-0.15783555867884752,-0.4121391426563598,9.23909065354884,0.4355555555555555,0.44222222222222224,-0.6877777777777778,0.10271394498228786,-0.032810472818060654,0.5792173472244622
1589988535.2390902,-0.6631058675579973,-1.6992381771850282,6.992527385246715,0.43157803002724726,0.4466112159086313,-0.6866805293561755,0.24774685058364726,0.01614903910826065,1.5585536582387736
1589988535.2490902,3.044684164259701,-6.248892377244757,9.674789652141152,0.4033333333333333,0.4777777777777778,-0.6788888888888889,-0.16175145146716505,-0.15067547104672446,1.6239348408193388
1589988535.2590902,9.351031333017941,-14.429319116416172,7.639902107063576,0.4033333333333333,0.4777777777777778,-0.6788888888888889,-0.23176527817340384,-0.28407871037439525,1.5614494960553242
1589988535.2690902,-0.36251262626262626,-2.2960718294051627,9.096544612794611,0.4033333333333333,0.4777777777777778,-0.6788888888888889,0.04943599808025957,0.0423598302138379,-0.16482502094600354
1589988535.2790902,-0.9550758152453451,-3.067359736652608,9.212030449542228,0.4033333333333333,0.4777777777777778,-0.6788888888888889,0.20807736882356315,0.182174284040827,-1.0237973064446153
1589988535.2890902,-2.674260440835267,-6.3992287454424925,9.33155286708651,0.408103524472434,0.4742001344234523,-0.6763050353552094,0.07557216545844447,0.1160508186265713,-0.7537611782137484
1589988535.2990901,-0.3964182738514769,-1.8188594861280196,9.551400653552893,0.43,0.4577777777777778,-0.6644444444444444,-0.1369901599440393,-0.01660681006932405,0.12394792794271801
1589988535.3090901,1.9607719513024553,-5.073557777324356,8.142717132557982,0.43,0.4577777777777778,-0.6644444444444444,-0.025170050416224415,-0.14876400475149315,0.5472901245028633
1589988535.3190901,-1.5999613168285134,-4.240594920499413,8.177881496105003,0.43,0.4577777777777778,-0.6644444444444444,-0.05800449907105935,-0.00014588450305876716,0.016653968832427812
1589988535.32909,-0.09024759685406353,-4.468365860763181,8.579067870667055,0.43,0.4577777777777778,-0.6644444444444444,0.023009761466496026,0.05162556065381494,-0.23070387890411065
1589988535.33909,0.6136149053438773,-4.775669781931464,8.66596333572969,0.42927217296376174,0.4566340495779748,-0.6638205926990973,-0.02038753060609779,-0.01960293233299376,0.07582175775445892
1589988535.34909,-0.32,-4.54,8.53,0.4222222222222222,0.4455555555555555,-0.6577777777777778,-0.006544984694978735,-0.008726646259971648,0.02836160034490785
1589988535.35909,-0.15526368551072287,-4.559768357738713,8.602483978375282,0.4222222222222222,0.4455555555555555,-0.6577777777777778,0.009268566274934265,-0.00153866854637483,0.004641273890038353
1589988535.36909,-0.11706194585880826,-4.445876108282384,8.740766115556255,0.4222222222222222,0.4455555555555555,-0.6577777777777778,0.0050878773527276355,-0.0009076925026191341,0.001090830782496456
1589988535.37909,-0.05934259932765841,-4.561314801344683,8.559362455029783,0.4222222222222222,0.4455555555555555,-0.6577777777777778,-0.0021077843549018845,0.0026901383511956263,0.001090830782496456
1589988535.38909,-0.05817801144558693,-4.5145759084353045,8.587246080119108,0.4222222222222222,0.4455555555555555,-0.6577777777777778,-0.005056657672380282,0.001488327022598454,-0.0015854172048399152
1589988535.39909,-0.06482856259458757,-4.552761875315292,8.672752436900947,0.4088888888888889,0.4655555555555556,-0.6644444444444444,0.002181661564992912,-0.0009401938519295827,0.001805584024221079
1589988535.40909,-0.04435224813265855,-4.484507493775529,8.802435761826496,0.4088888888888889,0.4655555555555556,-0.6644444444444444,0.002181661564992912,-0.004662892873121171,0.00031650441574444387
1589988535.41909,-0.08383562716269748,-4.527397247404763,8.599862996539684,0.4088888888888889,0.4655555555555556,-0.6644444444444444,0.003974810630425067,-0.0013598022883250403,0.0020471758120786197
1589988535.42909,-0.05099942067108209,-4.5668006951947016,8.65240092692627,0.4088888888888889,0.4655555555555556,-0.6644444444444444,-0.0039053132302970172,-0.0027925520811836017,0.0013308009156493394
1589988535.43909,-0.05994419695193435,-4.529972098475968,8.550474325908558,0.4089260909209327,0.4655214536928488,-0.664509548000521,-0.010890046320188416,-0.002181661564992912,-0.0010847436142377418
1589988535.44909,-0.040275732708089096,-4.520137866354045,8.717656271981243,0.4220384004168295,0.4535018366549433,-0.6874560896183406,-0.004453556447703232,-0.002181661564992912,0.0010607530099239865
1589988535.45909,-0.06659912816041849,-4.571497820401047,8.665101307759372,0.4222222222222222,0.4533333333333333,-0.6877777777777778,0.010188454611462191,-0.0005564663534911302,0.0012763195669934994
1589988535.46909,-0.05197210113339146,-4.534930252833479,8.687041848299913,0.4222222222222222,0.4533333333333333,-0.6877777777777778,0.011784015745211061,-0.0029498080541144355,0.0020741001338679347
1589988535.47909,-0.08468512037704658,-4.49,8.658858132704923,0.4222222222222222,0.4533333333333333,-0.6877777777777778,0.003328354669889341,-0.0005797634297980743,0.0003865089531987161
1589988535.48909,-0.06255667129768039,-4.49,8.695738881170533,0.4222222222222222,0.4533333333333333,-0.6877777777777778,-0.005522389585825928,-0.002993602772265875,0.0019957351815105833
1589988535.49909,-0.06879793073490503,-4.49519172293962,8.676010346325475,0.4222222222222222,0.4511111111111111,-0.6788888888888889,-0.006324561320416703,0.002050536149287063,-0.0001311254157058489
1589988535.50909,-0.06051632902894602,-4.462065316115784,8.71741835485527,0.4222222222222222,0.4511111111111111,-0.6788888888888889,0.0027092647488185483,0.001147153542363538,-0.001034508022629374
1589988535.51909,-0.06294829703516203,-4.52525851482419,8.601793188140649,0.4222222222222222,0.4511111111111111,-0.6788888888888889,0.0018600522488031346,-0.002790078373204702,0.001090830782496456
1589988535.52909,-0.07411183355006502,-4.460608582574773,8.664111833550065,0.4222222222222222,0.4511111111111111,-0.6788888888888889,-0.0009634489824077931,0.0,0.0007696811216938583
1589988535.53909,-0.04294482630503437,-4.5696931079323795,8.632944826305035,0.4222222222222222,0.4511111111111111,-0.6788888888888889,-0.006063138617583218,0.0,-0.0009302154233646164
1589988535.54909,-0.0661925013218087,-4.483960828486701,8.682385002643617,0.41640166637293147,0.45305129639420805,-0.6992608343614067,-0.00940214336621954,-0.001904772447493869,-0.00013844455874952141
1589988535.55909,-0.07,-4.55460231122123,8.69,0.4155555555555556,0.4533333333333333,-0.7022222222222222,-0.002895966641183319,-0.0006435481424851819,0.000769056711253865
1589988535.56909,-0.07,-4.440722393952776,8.650240797984258,0.4155555555555556,0.4533333333333333,-0.7022222222222222,0.0065624960185515545,0.0010645637971372277,-0.0010820751207100466
1589988535.5790899,-0.07,-4.526076444035777,8.680784711192844,0.4155555555555556,0.4533333333333333,-0.7022222222222222,0.008127455272804562,-0.002096062852540471,8.559871245244069e-05
1589988535.5890899,-0.07,-4.4822506896263485,8.68954986207473,0.4155555555555556,0.4533333333333333,-0.7022222222222222,0.0014345477961736595,-0.0011399332130217709,0.001041728351971141
1589988535.5990899,-0.06228809418553247,-4.502288094185532,8.6865678587217,0.4155555555555556,0.4655555555555556,-0.6788888888888889,-0.007261426941850696,0.0009660346039549573,0.0008412384254134586
1589988535.6090899,-0.07930716223936018,-4.51722864895744,8.6565358111968,0.4155555555555556,0.4655555555555556,-0.6788888888888889,-0.003985438751694912,0.0,-0.001090830782496456
1589988535.6190898,-0.071819480148529,-4.487277920594116,8.619097400742644,0.4155555555555556,0.4655555555555556,-0.6788888888888889,9.845830541813181e-05,0.0,-0.001090830782496456
1589988535.6290898,-0.061118472034400496,-4.512170695759196,8.678881527965599,0.4155555555555556,0.4655555555555556,-0.6788888888888889,0.004600109305342431,-0.0031504859750408182,0.0
1589988535.6390898,-0.06749152902921915,-4.467559296795466,8.672508470970781,0.4155555555555556,0.4655555555555556,-0.6788888888888889,-0.0002662394186443498,-0.002455293300185564,0.0
1589988535.6490898,-0.08,-4.549624137841957,8.679749425227971,0.44222222222222224,0.4511111111111111,-0.6711111111111111,-0.006544984694978735,-0.003204158678827905,0.0021679948312606193
1589988535.6590898,-0.07826656717810009,-4.523466865643799,8.65219955230145,0.44222222222222224,0.4511111111111111,-0.6711111111111111,-0.00588317603644739,0.0019925733768410988,0.0009962866884205494
1589988535.6690898,-0.06137903606671472,-4.553794337699784,8.579653252467004,0.44222222222222224,0.4511111111111111,-0.6711111111111111,0.0015421192800200326,7.521474958726279e-05,7.521474958726279e-05
1589988535.6790898,-0.0792600412371134,-4.475179711340206,8.708520082474228,0.44222222222222224,0.4511111111111111,-0.6711111111111111,0.007555098497841722,0.0010101138028629861,0.001090830782496456
1589988535.6890898,-0.07234160824742268,-4.523608742268041,8.694683216494845,0.44222222222222224,0.4511111111111111,-0.6711111111111111,0.006800414530662359,0.0002554298356836237,0.001090830782496456
1589988535.6990898,-0.07964040025015635,-4.4917979987492185,8.71892120075047,0.4229414217219095,0.44039955527760405,-0.6871784448613717,0.0002353574859044888,0.002103209069691416,-0.0010123782871949598
1589988535.7090898,-0.06599976043395678,-4.511000359349064,8.712999880216978,0.4222222222222222,0.44,-0.6877777777777778,-0.0030543784561929545,0.0006544723368964347,0.00043635844560002126
1589988535.7190897,-0.07967836846559993,-4.4904824473016,8.611608157672,0.4222222222222222,0.44,-0.6877777777777778,-0.0065099001371442195,-0.001073288503579198,-0.00105574622466194
1589988535.7290897,-0.06661964346103677,-4.510070534808444,8.656831247886371,0.4222222222222222,0.44,-0.6877777777777778,-0.0007067027775872004,-0.00255040126184434,0.0003687396968514278
1589988535.7390897,-0.0678956110885534,-4.512104388911446,8.687895611088553,0.4222222222222222,0.44,-0.6877777777777778,0.00045910644059003313,-0.0024112147852879285,0.00022955322029501657
1589988535.7490897,-0.04974439704156343,-4.537007470611249,8.69675186765281,0.41772097712034745,0.4572547728905201,-0.6765246650230908,-0.00220954352250889,-0.0014451470574899487,0.0
1589988535.7590897,-0.07493656450463293,-4.5412658588738415,8.673797576621524,0.4155555555555556,0.4655555555555556,-0.6711111111111111,-0.007083480347122033,-0.0020435777824046224,0.0028582409997244987
1589988535.7690897,-0.07262080498212432,-4.517862414946372,8.603587244839119,0.4155555555555556,0.4655555555555556,-0.6711111111111111,-0.004416034247257882,-0.0005717709498842571,0.001662601732380713
1589988535.7790897,-0.07,-4.546942792923434,8.618152552204176,0.4155555555555556,0.4655555555555556,-0.6711111111111111,0.0033280739406157736,-0.0010352491893700505,-5.558159312640548e-05
1589988535.7890897,-0.07,-4.5013261310904875,8.7397969837587,0.4155555555555556,0.4655555555555556,-0.6711111111111111,0.004157408255984264,-0.00020591487400156054,-0.0008849159084948954
1589988535.7990897,-0.06909509026100955,-4.528491817101683,8.729698363420336,0.4222222222222222,0.4655555555555556,-0.6855555555555556,0.0031408785609998184,-0.0010579273358740685,3.290344662238744e-05
1589988535.8090897,-0.044981602851558014,-4.488302671419263,8.721660534283853,0.4222222222222222,0.4655555555555556,-0.6855555555555556,-0.00036628601760957565,-0.00018113619122172003,0.0009096945912747359
1589988535.8190897,-0.07,-4.537500897666068,8.564998204667864,0.4222222222222222,0.4655555555555556,-0.6855555555555556,-0.004227018242262748,-0.00034076221930769,0.00020445733158461403
1589988535.8290896,-0.07003275922947154,-4.500065518458943,8.64019655537683,0.4222222222222222,0.4655555555555556,-0.6855555555555556,-0.0021745146098092285,-0.005450580434890438,0.0032653453923056847
1589988535.8390896,-0.07826042606614618,-4.516520852132292,8.689562556396877,0.4222222222222222,0.4655555555555556,-0.6855555555555556,-0.0003795161590952399,-0.004553081209533444,0.0014703469415916957
1589988535.8490896,-0.06136934602602377,-4.501369346026023,8.718630653973976,0.44085287619619845,0.45417015590479226,-0.6793453375642301,0.0020322890852853197,0.0017335441258701356,-0.0009414583027888637
1589988535.8590896,-0.07,-4.549105806839836,8.635529034199179,0.44222222222222224,0.4533333333333333,-0.6788888888888889,-0.0022304322362231717,0.0,0.001090830782496456
1589988535.8690896,-0.07,-4.532279811453215,8.551399057266071,0.44222222222222224,0.4533333333333333,-0.6788888888888889,-0.0031481479219166598,0.0,0.001090830782496456
1589988535.8790896,-0.06964759674361548,-4.520352403256384,8.631762016281924,0.44222222222222224,0.4533333333333333,-0.6788888888888889,-0.004094234506044465,-0.005300388984515789,3.844123199162263e-05
1589988535.8890896,-0.06185178989628638,-4.528148210103714,8.670741050518568,0.44222222222222224,0.4533333333333333,-0.6788888888888889,0.0018584997523797926,-0.0018988265511304982,0.0008888318403379454
1589988535.8990896,-0.07853429540119969,-4.483664261497001,8.754137181604799,0.41750982835395606,0.45127396717764445,-0.6850669873559555,0.003272492347489368,-0.001090830782496456,-0.0009309472130546563
1589988535.9090896,-0.08,-4.526107952551414,8.72311363795887,0.4155555555555556,0.4511111111111111,-0.6855555555555556,-0.005780782965485009,-8.491130327708076e-05,-8.491130327708076e-05
1589988535.9190896,-0.07356131721550646,-4.517122634431013,8.62985844101709,0.4155555555555556,0.4511111111111111,-0.6855555555555556,-0.006544984694978735,-0.0007023513380055548,0.0007023513380055548
1589988535.9290895,-0.07,-4.534069223573433,8.628138447146867,0.4155555555555556,0.4511111111111111,-0.6855555555555556,-0.0030442580303533776,-0.0002156491163401163,0.001090830782496456
1589988535.9390895,-0.05539502089481294,-4.510790041789626,8.676512447762967,0.4155555555555556,0.4511111111111111,-0.6855555555555556,-0.0005885054864273526,-0.0007965780392827797,0.0002942527432136763
1589988535.9490895,-0.05930331099724083,-4.518606621994481,8.727213243988963,0.42175776288704947,0.45731331844260503,-0.6876229579993869,0.0,-7.599698100364555e-05,0.002029667602985621
1589988535.9590895,-0.07,-4.511244779392893,8.707012529457058,0.4222222222222222,0.4577777777777778,-0.6877777777777778,-0.004336166256402126,0.0021273478178255156,-0.0010636739089127578
1589988535.9690895,-0.06997239589046104,-4.559889583561843,8.590082812328617,0.4222222222222222,0.4577777777777778,-0.6877777777777778,-0.003260447782525969,0.0,3.011141240849783e-06
1589988535.9790895,-0.06230485174216665,-4.529219406968666,8.6130854447735,0.4222222222222222,0.4577777777777778,-0.6877777777777778,8.514949071806955e-05,0.0,0.0008394104595518594
1589988535.9890895,-0.06747445664636788,-4.5125255433536315,8.657372283231838,0.4222222222222222,0.4577777777777778,-0.6877777777777778,0.001090830782496456,0.0,0.0002754940432671255
1589988535.9990895,-0.06326131319293965,-4.489783939578819,8.717170807649422,0.43569959583634293,0.4577777777777778,-0.6817878339492797,0.004031137583594134,0.0,-0.0007350767002744195
1589988536.0090895,-0.06994246822591563,-4.509827404677747,8.710172595322254,0.44222222222222224,0.4577777777777778,-0.6788888888888889,3.13787150714364e-05,-0.003253665118446506,0.0021628343359500497
1589988536.0190895,-0.050691216559626676,-4.51,8.603801691077946,0.44222222222222224,0.4577777777777778,-0.6788888888888889,-0.00421252306986341,-0.00011310004509181015,7.540003006120677e-05
1589988536.0290895,-0.06911032364753131,-4.51,8.609555161823765,0.44222222222222224,0.4577777777777778,-0.6788888888888889,-0.0033210166650759695,-0.0020846129298197095,0.0
1589988536.0390894,-0.07,-4.51,8.672296866495607,0.44222222222222224,0.4577777777777778,-0.6788888888888889,-0.0015736088568273653,-0.0013322198196619108,0.0008494417453310012
1589988536.0490894,-0.07,-4.5197526648369175,8.719257994510755,0.43030229853265534,0.4577777777777778,-0.6648017063466735,0.0031645720236960764,-2.698008094832293e-05,2.698008094832293e-05
1589988536.0590894,-0.05009084346047407,-4.529909156539526,8.709841023944172,0.43,0.4577777777777778,-0.6644444444444444,-9.90948430736162e-06,-0.0021767068228392313,0.002181661564992912
1589988536.0690894,-0.07532426904102996,-4.5046757309589704,8.665682529178198,0.43,0.4577777777777778,-0.6644444444444444,-0.0027624492214177484,-0.0008004369542840377,0.002181661564992912
1589988536.0790894,-0.06103049812224011,-4.51896950187776,8.64,0.43,0.4577777777777778,-0.6644444444444444,-0.001203240689800886,0.001580041220092469,0.0013916409549466775
1589988536.0890894,-0.06076901933237639,-4.524615490333812,8.661538038664753,0.43,0.4577777777777778,-0.6644444444444444,0.0,0.0010069437864873524,0.0016781896717492357
1589988536.0990894,-0.07,-4.52,8.6885642243742,0.43,0.4558746168057332,-0.6706297176035892,0.0018684239151168967,-0.0009342119575584483,0.0012474496074344637
1589988536.1090894,-0.061925816752640625,-4.495777450257922,8.667703267010562,0.43,0.4533333333333333,-0.6788888888888889,0.003482566367012144,-0.00042014803904555234,0.0008807567629736798
1589988536.1190894,-0.05262858796057118,-4.504742824078858,8.623142939802856,0.43,0.4533333333333333,-0.6788888888888889,-0.0007479892340476,0.001608192632614787,0.0002867344661890625
1589988536.1290894,-0.056106827158171904,-4.516106827158172,8.622213654316344,0.43,0.4533333333333333,-0.6788888888888889,-0.0048462675840006166,-0.00048294445401479355,0.0006661515047519264
1589988536.1390893,-0.06615931307793924,-4.526159313077939,8.654637252311757,0.43,0.4533333333333333,-0.6788888888888889,-0.0058731078645338245,-0.002181661564992912,0.001090830782496456
1589988536.1490893,-0.07,-4.53,8.680412811793536,0.4224796359268899,0.44928390652473554,-0.6788888888888889,-0.0037503615669724176,-0.0010458000013196707,0.0005229000006598353
1589988536.1590893,-0.08321105269399534,-4.510183420959007,8.696605526346998,0.4155555555555556,0.4455555555555555,-0.6788888888888889,-0.0007405592702136273,0.0,-0.0014411022947792846
1589988536.1690893,-0.05322786903318267,-4.509193032741704,8.63564877080807,0.4155555555555556,0.4455555555555555,-0.6788888888888889,-0.0010028043099148877,0.0010028043099148877,0.0008267513647517515
1589988536.1790893,-0.06863180515759312,-4.5379477077363894,8.648631805157594,0.4155555555555556,0.4455555555555555,-0.6788888888888889,-0.001090830782496456,0.001090830782496456,7.462345252751547e-05
