time,acc_x,acc_y,acc_z,mag_x,mag_y,mag_z,gyr_x,gyr_y,gyr_z
1589988552.366104,-3.94,-0.78,8.94,0.33555555555555555,-0.3411111111111111,-0.6311111111111111,0.00545415391248228,-0.007635815477475192,-0.001090830782496456
1589988552.3761039,-3.9227657473372366,-0.79,8.990851378994146,0.33555555555555555,-0.3411111111111111,-0.6311111111111111,0.0020887905235544395,-0.009817477042468105,-0.002181661564992912
1589988552.3861039,-3.912651185292695,-0.7873488147073053,8.986139332365747,0.33555555555555555,-0.3411111111111111,-0.6311111111111111,0.0008675983582119854,-0.008371479778781462,-0.0018924621122555834
1589988552.3961039,-3.920714917169543,-0.7803574585847716,8.921787292923858,0.33555555555555555,-0.3411111111111111,-0.6311111111111111,0.0033114850302630046,-0.004441308495533097,-0.0010518380997228194
1589988552.4061038,-3.94,-0.7924820355754506,8.987374249028154,0.33555555555555555,-0.3411111111111111,-0.6311111111111111,0.0038218269681952635,-0.005461992371397615,-0.0005414961617905603
1589988552.4161038,-3.94,-0.7986581163859112,9.030606814701377,0.33555555555555555,-0.3411111111111111,-0.6311111111111111,0.002474415155548048,-0.0027671687461031844,-0.001888907974437776
1589988552.4261038,-3.93,-0.7973356147641164,9.018667807382057,0.33,-0.3288888888888889,-0.6111111111111112,0.00312717267590282,-0.0040726837868127275,-0.0002906393431730963
1589988552.4361038,-3.9265625,-0.7811458333333333,8.9996875,0.33,-0.3288888888888889,-0.6111111111111112,0.0019316795106708075,-0.0024316436193150166,-0.0019316795106708075
1589988552.4461038,-3.906344622991347,-0.7868276885043264,8.926344622991348,0.33,-0.3288888888888889,-0.6111111111111112,0.0006920910062296426,-0.004709368633100645,-0.0003460455031148213
1589988552.4561038,-3.92,-0.7801427030614785,8.940285406122957,0.33,-0.3288888888888889,-0.6111111111111112,0.0021505285865494723,-0.00534518848793024,-0.0010752642932747361
1589988552.4661038,-3.9213374944271067,-0.79,8.966687472135533,0.33,-0.3288888888888889,-0.6130430475058206,0.0001458980092505291,0.002035763555742383,-0.0002917960185010582
1589988552.4761038,-3.9304229584832857,-0.79,9.010422958483286,0.33,-0.3288888888888889,-0.6255555555555555,0.0012292436224822787,0.0009985555558392409,-0.0020893863383356966
1589988552.4861038,-3.9323172183853297,-0.79,8.973903310311979,0.33,-0.3288888888888889,-0.6255555555555555,0.004363323129985824,-0.0006718000484724542,0.00041903073402400177
1589988552.4961038,-3.92,-0.7862627224984896,8.922423665009063,0.33,-0.3288888888888889,-0.6255555555555555,0.003955649395847922,-0.0012230212024137079,-0.00013219041991725192
1589988552.5061038,-3.923021118813477,-0.7709366435595679,8.96,0.33,-0.3288888888888889,-0.6255555555555555,0.003272492347489368,-0.002942939407557342,-0.0008634498052648072
1589988552.5161037,-3.9276491961414792,-0.7594032154340836,8.971754019292606,0.33,-0.3299336906037871,-0.6221599499821364,0.0022467606624949517,-0.00269452740749012,0.0019252286437443078
1589988552.5261037,-3.92,-0.779406135112529,9.002937423408353,0.33,-0.3333333333333333,-0.6111111111111112,-0.001476034579991849,-0.004363323129985824,0.00032042318750566986
1589988552.5361037,-3.92,-0.7682233790818741,8.973553241836251,0.33,-0.3333333333333333,-0.6111111111111112,-0.001822848963447083,-0.004004510528439995,-0.000732018180950627
1589988552.5461037,-3.92,-0.8079233317557974,8.894153336488406,0.33,-0.3333333333333333,-0.6111111111111112,-9.061174583236027e-05,-0.002272273310825272,0.0010002190366640957
1589988552.5561037,-3.92,-0.79,8.93744397550972,0.33,-0.3333333333333333,-0.6111111111111112,-0.001864521140740985,0.0017251116310003098,-0.001864521140740985
1589988552.5661037,-3.92,-0.7879599761051375,8.990200119474313,0.331133346608257,-0.33628003451480154,-0.6122444577193682,-0.001090830782496456,0.002382364002871591,-0.0008682986963420117
1589988552.5761037,-3.92,-0.78,9.03,0.33555555555555555,-0.3477777777777778,-0.6166666666666667,-0.001090830782496456,-0.001090830782496456,0.0
1589988552.5861037,-3.9046440202739134,-0.78,8.999288040547826,0.33555555555555555,-0.3477777777777778,-0.6166666666666667,-0.001090830782496456,-0.0019283695515267879,0.0008375387690303318
1589988552.5961037,-3.9205939291021012,-0.79,8.921187858204203,0.33555555555555555,-0.3477777777777778,-0.6166666666666667,-0.0008964679383386286,-0.0042337479005472725,6.478761471927582e-05
1589988552.6061037,-3.9294971343663767,-0.79,8.938994268732753,0.33555555555555555,-0.3477777777777778,-0.6166666666666667,0.0020170991712081037,-0.0022913698275161174,0.0010359766512348532
1589988552.6161036,-3.92,-0.79,8.972154699696794,0.3365930035577155,-0.34674032977561786,-0.6161080408193498,0.001946620289363071,0.0011691778743730696,7.834709187661362e-05
1589988552.6261036,-3.92,-0.79,8.999212954002967,0.3496210519273547,-0.3337122814059786,-0.6090929378510825,-0.001004977382416095,0.0021530437649661246,0.0010622129824696689
1589988552.6361036,-3.9151956330597892,-0.7725978165298946,8.922206550410316,0.35,-0.3333333333333333,-0.6088888888888889,0.0008074529586877525,0.0033151728602277258,-0.001614905917375505
1589988552.6461036,-3.9294636672147782,-0.78,8.903754329496554,0.35,-0.3333333333333333,-0.6088888888888889,5.850483117822017e-05,0.006544984694978735,-5.850483117822017e-05
1589988552.6561036,-3.92,-0.7825976313815778,8.985585788289468,0.35,-0.3333333333333333,-0.6088888888888889,0.001090830782496456,0.006544984694978735,-0.0005241155279756837
1589988552.6661036,-3.92,-0.7899133134494969,9.02947988069698,0.35,-0.3333333333333333,-0.6088888888888889,0.001090830782496456,0.006544984694978735,0.001071918710952991
1589988552.6761036,-3.92,-0.79,9.003533654394815,0.33555555555555555,-0.3477777777777778,-0.6255555555555555,0.0017961996661361769,0.0007053688836397209,0.0007053688836397209
1589988552.6861036,-3.9171711209942224,-0.7871711209942226,8.98736896795378,0.33555555555555555,-0.3477777777777778,-0.6255555555555555,0.0007822479525504532,0.0012343313197840109,0.0
1589988552.6961036,-3.9083300774671605,-0.7783300774671607,8.93,0.33555555555555555,-0.3477777777777778,-0.6255555555555555,0.00018216029032056008,0.0036346819687035833,0.00018216029032056008
1589988552.7061036,-3.9022258123794065,-0.7707419374598021,8.932225812379405,0.33555555555555555,-0.3477777777777778,-0.6255555555555555,0.001171763604480397,-8.093282198394122e-05,0.001171763604480397
1589988552.7161036,-3.9214945943462682,-0.7771648647820893,8.951494594346268,0.33555555555555555,-0.3477777777777778,-0.6255555555555555,0.0018723962881692408,-0.0007815655056727847,0.0018723962881692408
1589988552.7261035,-3.93,-0.7704837530463038,8.979032493907393,0.32392458705659355,-0.3477777777777778,-0.6255555555555555,0.0011436000538999197,-0.002128892293589448,0.0011436000538999197
1589988552.7361035,-3.9084301080169546,-0.7828100360056516,8.964709675949136,0.3233333333333333,-0.3477777777777778,-0.6255555555555555,-0.0017038855374740688,-0.0027947163199705245,0.001090830782496456
1589988552.7461035,-3.927993512511585,-0.79,8.910032437442077,0.3233333333333333,-0.3477777777777778,-0.6255555555555555,-0.003053618515783638,-0.003050080139751443,0.0008719569507907259
1589988552.7561035,-3.9198667288435107,-0.79,8.950666355782445,0.3233333333333333,-0.3477777777777778,-0.6255555555555555,-0.002138048681017683,0.002210736820976398,2.907525598348594e-05
1589988552.7661035,-3.9106630759568355,-0.7886738480863293,9.000331537978418,0.32355435865227844,-0.34729888958673005,-0.6255555555555555,0.0010546655992539913,0.00425482758025843,0.002217826748235377
1589988552.7761035,-3.9266282854043357,-0.756743429191329,9.008314142702167,0.3288760951347785,-0.33576846054131326,-0.6255555555555555,0.00018389850353717153,0.0016425262931079707,0.0030885938439521965
1589988552.7861035,-3.9152222317083583,-0.7665277896354478,9.00738888414582,0.33,-0.3333333333333333,-0.6255555555555555,-0.008111541747700445,0.008205472587555813,0.0038421494575699897
1589988552.7961035,-3.943869375907112,-0.8023367198838898,8.993065312046443,0.33,-0.3333333333333333,-0.6255555555555555,-0.0167050680964196,0.011330391259817324,0.006967068129831501
1589988552.8061035,-3.886193244504795,-0.8187613510990409,8.946193244504794,0.33,-0.3333333333333333,-0.6255555555555555,-0.012009044310060278,-0.0032823980500886313,0.00027023126997429813
1589988552.8161035,-3.9305924776337413,-0.8103949850891607,8.990789970178321,0.33052664678554766,-0.3333333333333333,-0.6252702885467172,-0.004449495508762551,0.004471038603456733,0.0022247477543812753
1589988552.8261034,-3.9531210821511054,-0.8277070273837017,9.032292972616297,0.3566666666666667,-0.3333333333333333,-0.6111111111111112,-0.008226397237315735,0.010567850576451975,0.0038630741073299103
1589988552.8361034,-3.9230733474946895,-0.8038378108209421,9.012293389978757,0.3566666666666667,-0.3333333333333333,-0.6111111111111112,-0.005537543925318882,0.011830668427882654,0.002937242142237802
1589988552.8461034,-3.880676169669702,-0.7379226060435639,8.941739309121585,0.3566666666666667,-0.3333333333333333,-0.6111111111111112,-0.002972125150993945,0.007635815477475192,0.008879496118486757
1589988552.8561034,-3.82,-0.6862518986329842,9.014124430410105,0.3566666666666667,-0.3333333333333333,-0.6111111111111112,-0.005904059477642951,0.004936382086511162,0.02503382086686427
1589988552.8661034,-3.82,-0.6024262530977695,9.039272124070669,0.3566666666666667,-0.3333333333333333,-0.6111111111111112,-0.008647247313016413,-0.011522744925729612,0.05795207489134582
1589988552.8761034,-3.829178779888671,-0.4531395217812634,9.095072679332025,0.32607073370442985,-0.3353730621974825,-0.6243693487280804,-0.009727895824803826,-0.024014133385447126,0.12198358483923571
1589988552.8861034,-3.24,-0.7402575932333718,8.904667435601691,0.3233333333333333,-0.33555555555555555,-0.6255555555555555,-0.013078855581523732,-0.031762845114629595,0.2396860544334893
1589988552.8961034,-3.2176345671729836,-0.4174551442756722,8.758960084549967,0.3233333333333333,-0.33555555555555555,-0.6255555555555555,0.0035696650455474405,-0.011221057691695652,0.2968937031919594
1589988552.9061034,-3.116309901486058,-0.42785940891634666,9.056309901486058,0.3233333333333333,-0.33555555555555555,-0.6255555555555555,-0.013979536519981295,-0.030023983472616183,0.249554543610525
1589988552.9161034,-3.061114162198267,-0.366222424253669,9.040532682709612,0.32291902455919,-0.33520043374914704,-0.6247861249750037,-0.014077782774771182,-0.022791233093035726,0.20344920035787586
1589988552.9261034,-2.4930233593706514,-0.8954028981204891,9.048314748501772,0.31686630672084404,-0.33001238988770765,-0.6135453632752184,-0.028508941534520903,-0.021093449709535757,0.1796802329888763
1589988552.9361033,-1.8997420745440894,-1.0579896345450583,8.76090213363687,0.31555555555555553,-0.3288888888888889,-0.6111111111111112,-0.028724268359296257,0.03667778820310557,0.1491232860963491
1589988552.9461033,-1.469547291835085,-0.9232578819725141,8.9035974130962,0.31555555555555553,-0.3288888888888889,-0.6111111111111112,-0.010932999225053405,0.05131842957751112,0.054640304725178154
1589988552.9561033,-1.8739095836697037,-0.9880452081651482,8.675585119528147,0.31555555555555553,-0.3288888888888889,-0.6111111111111112,0.011974481378379098,0.007940436492736489,-0.033638786520677574
1589988552.9661033,-1.9706527505478029,-0.9396736247260985,8.813789643639717,0.31555555555555553,-0.3288888888888889,-0.6111111111111112,0.0383570874850847,0.01547832395179523,-0.056252448897853795
1589988552.9761033,-2.1132013775806238,-0.91,9.083201377580624,0.33555555555555555,-0.3288888888888889,-0.6022222222222222,0.0040141070088519516,0.0205070551956771,-0.09747727737450708
1589988552.9861033,-2.176005577704157,-0.91,9.146005577704157,0.33555555555555555,-0.3288888888888889,-0.6022222222222222,-0.0028367684676298046,-0.005183727841129488,-0.12659349814955453
1589988552.9961033,-2.2552190580503835,-0.8613047645125959,8.911742880613362,0.33555555555555555,-0.3288888888888889,-0.6022222222222222,0.011525409795566335,0.01830725889649241,-0.17282708330489918
1589988553.0061033,-2.283931407447974,-0.8684828518619935,8.976345666757942,0.33555555555555555,-0.3288888888888889,-0.6022222222222222,0.02092150416377188,0.02300530608059518,-0.19944935068148156
1589988553.0161033,-2.2911055172055845,-0.8798157471324025,9.096683448383246,0.3356783908006205,-0.3289707790522655,-0.6027545082841704,0.00973708156257269,0.021736220170033703,-0.25512831808041925
1589988553.0261033,-2.35,-0.8720333711803328,8.914916572049169,0.3422222222222222,-0.3333333333333333,-0.6311111111111111,0.006563185850356324,0.01911684042675436,-0.3114031904081499
1589988553.0361032,-2.3526039613254484,-0.8886980193372759,8.858282174035482,0.3422222222222222,-0.3333333333333333,-0.6311111111111111,0.016220437678935377,0.03424182643292451,-0.36176323129543264
1589988553.0461032,-2.3710787565225084,-0.8789212434774918,8.784315026090033,0.3422222222222222,-0.3333333333333333,-0.6311111111111111,0.015036282790636233,0.0366175502762512,-0.41638910057299244
1589988553.0561032,-2.3810035045012903,-0.8710035045012906,8.827024531509034,0.3422222222222222,-0.3333333333333333,-0.6311111111111111,0.013272411656687725,0.03283438883493183,-0.4700462475317045
1589988553.0661032,-2.4074087675487377,-0.8974087675487378,9.011861372841164,0.3422222222222222,-0.3333333333333333,-0.6311111111111111,0.018073023948699647,0.035714756210138976,-0.5247732276606404
1589988553.0761032,-2.3707284619244544,-0.9,9.036545256345924,0.3422222222222222,-0.3304243305129226,-0.6078390885478249,0.026397867114050635,0.04527911305428681,-0.6051113148586542
1589988553.0861032,-2.4128042457644416,-0.9,9.004111859563176,0.3422222222222222,-0.3288888888888889,-0.5955555555555555,0.030543261909900768,0.05017821599483697,-0.6446809924554054
1589988553.0961032,-2.4395160385453107,-0.9195160385453106,8.95446257672761,0.3422222222222222,-0.3288888888888889,-0.5955555555555555,0.0298336387233137,0.05088783918142405,-0.6815813981579331
1589988553.1061032,-2.4266600472104614,-0.9455599685263592,9.023359811158155,0.3422222222222222,-0.3288888888888889,-0.5955555555555555,0.026057772598758588,0.057209699202463445,-0.7964546319473014
1589988553.1161032,-2.4263492455224935,-0.9690477365674799,9.05,0.3422222222222222,-0.3288888888888889,-0.5955555555555555,0.02716689373588753,0.06375302897790307,-0.8609773840772671
1589988553.1261032,-2.4493396484197105,-0.9993396484197103,9.01132070316058,0.3497431966076651,-0.33533543836212565,-0.6159696288874721,0.026251971963019954,0.06759549192322778,-0.9373324409687182
1589988553.1361032,-2.4690947836560735,-1.0572843509682202,8.943168257203743,0.35,-0.33555555555555555,-0.6166666666666667,0.028262856559630446,0.07283880296406904,-0.9944026248919096
1589988553.1461031,-2.49,-1.0203845339730473,8.790128177991015,0.35,-0.33555555555555555,-0.6166666666666667,0.030557243959724624,0.07528130604207933,-1.0555324691652657
1589988553.1561031,-2.49,-1.0499781274253863,8.799992709141796,0.35,-0.33555555555555555,-0.6166666666666667,0.03163329738314119,0.07635735946549588,-1.1093351403360938
1589988553.1661031,-2.4725381218231814,-1.102385634530456,8.930964086326139,0.35,-0.33555555555555555,-0.6166666666666667,0.034491285827718744,0.07731055248652575,-1.1569947913875878
1589988553.176103,-2.4622223668510683,-1.1411105325957263,9.004443432042521,0.3707403550638175,-0.31481520049173806,-0.6451846548794157,0.04254225852832403,0.08169102638415807,-1.2071852613581975
1589988553.186103,-2.5794789096697177,-1.2005210903302825,9.042704735376045,0.37666666666666665,-0.3088888888888889,-0.6533333333333333,0.04816708084166409,0.09174347000424898,-1.2714783069070454
1589988553.196103,-2.571133704735376,-1.2088662952646239,8.925871866295266,0.37666666666666665,-0.3088888888888889,-0.6533333333333333,0.050898042770250375,0.09356411128997318,-1.3169943390501502
1589988553.206103,-2.5686326398302586,-1.2516408322036896,8.951640832203688,0.37666666666666665,-0.3088888888888889,-0.6533333333333333,0.04472406208235469,0.09062844846104064,-1.3789721874867114
1589988553.216103,-2.5274320740260507,-1.3010815111687393,9.001081511168739,0.37666666666666665,-0.3088888888888889,-0.6533333333333333,0.04472406208235469,0.09332501918717072,-1.4167241776525321
1589988553.226103,-2.5330493160133347,-1.323049316013335,9.008983561328888,0.4033333333333333,-0.29444444444444445,-0.6111111111111112,0.04755304939345672,0.1021125203267514,-1.4757440234333987
1589988553.236103,-2.5619045406266596,-1.352539387502213,8.98603336873783,0.4033333333333333,-0.29444444444444445,-0.6111111111111112,0.04384098445406577,0.10785374536434414,-1.51533683107027
1589988553.246103,-2.589747742963356,-1.389663657284475,8.781849884935387,0.4033333333333333,-0.29444444444444445,-0.6111111111111112,0.04687820667328039,0.10582893055153438,-1.5497586828880356
1589988553.256103,-2.540501577975824,-1.4312486850201465,8.804749211012089,0.4033333333333333,-0.29444444444444445,-0.6111111111111112,0.04780563035449713,0.1076103993164553,-1.5779676498490993
1589988553.266103,-2.5410293505585426,-1.4455146752792714,8.832058701117086,0.4033333333333333,-0.29444444444444445,-0.6111111111111112,0.04859811218485422,0.1085938052221593,-1.6001283555701282
1589988553.276103,-2.600374612887579,-1.4891802544681167,8.917166150516772,0.425100141371176,-0.27267763640660175,-0.6428284599662534,0.05275073043861476,0.11030419332507034,-1.627381550679643
1589988553.286103,-2.633925966227381,-1.550370168863096,8.921407729819046,0.44222222222222224,-0.25555555555555554,-0.6677777777777778,0.05828266711255769,0.11192731411594811,-1.6523418956371785
1589988553.296103,-2.611971423984588,-1.633100016053941,8.899014288007706,0.44222222222222224,-0.25555555555555554,-0.6677777777777778,0.05409585533264852,0.11432218316535381,-1.6770681822878535
1589988553.306103,-2.6243968644608513,-1.6328015677695742,8.914396864460851,0.44222222222222224,-0.25555555555555554,-0.6677777777777778,0.05737684407365781,0.11767814074719303,-1.692922662894839
1589988553.316103,-2.608137768393342,-1.6882992842844216,8.941862231606658,0.44222222222222224,-0.25555555555555554,-0.6677777777777778,0.058109929081121635,0.11890055529211367,-1.7087576596049125
1589988553.326103,-2.6126929626549447,-1.7036535186725277,8.962692962654945,0.4626719953885215,-0.24638841586031796,-0.6445073462437131,0.05642944403380304,0.11820826157285913,-1.7216041468697452
1589988553.336103,-2.570015248767687,-1.783307918720522,8.92834604063974,0.4744444444444445,-0.2411111111111111,-0.6311111111111111,0.05108862779901634,0.12235346661792015,-1.7376901097518167
1589988553.346103,-2.578819842814182,-1.8376396856283643,8.863540471557453,0.4744444444444445,-0.2411111111111111,-0.6311111111111111,0.044019436835800604,0.12736973119479045,-1.7521926563999197
1589988553.356103,-2.5153640284415433,-1.8492337102226368,8.869233710222636,0.4744444444444445,-0.2411111111111111,-0.6311111111111111,0.04866943897361038,0.12259099387833321,-1.761022999749808
1589988553.366103,-2.5177234765234764,-1.9040643356643356,8.862276523476522,0.4744444444444445,-0.2411111111111111,-0.6311111111111111,0.05751239115203742,0.12554305001548183,-1.7667467172955946
1589988553.376103,-2.528663846289441,-1.943340384276397,8.85,0.5077777777777778,-0.19,-0.6755555555555556,0.05988637921748325,0.1241725195048929,-1.7740552317386435
1589988553.386103,-2.4916966331746875,-2.035758417063282,8.85,0.5077777777777778,-0.19,-0.6755555555555556,0.0568620061668322,0.11913189775380785,-1.7841364752408135
1589988553.396103,-2.4996696870846926,-2.07867874833877,8.85,0.5077777777777778,-0.19,-0.6755555555555556,0.05883279915563392,0.1262841499224774,-1.7919827547945655
1589988553.406103,-2.5075618256024153,-2.0951236512048306,8.857561825602415,0.5077777777777778,-0.19,-0.6755555555555556,0.05890486225480863,0.13066070683908107,-1.80130851499456
1589988553.416103,-2.489403858505602,-2.1617884244831935,8.91492304398506,0.5077777777777778,-0.19,-0.6755555555555556,0.05740706857862584,0.13199052468207118,-1.8117230826300519
1589988553.4261029,-2.48,-2.2209578131726215,8.915233749461903,0.5201609030468264,-0.16592170086573876,-0.6796832639785717,0.0594247795352133,0.13401670881611938,-1.8259487374556929
1589988553.4361029,-2.4751631627239,-2.2641841863805006,8.8903263254478,0.5277777777777778,-0.1511111111111111,-0.6822222222222222,0.06055890672073191,0.1342077828314213,-1.8368166513866029
1589988553.4461029,-2.4465233918128657,-2.3310840643274853,8.833046783625731,0.5277777777777778,-0.1511111111111111,-0.6822222222222222,0.058075017521369975,0.13244113029258925,-1.8502855132617146
1589988553.4561028,-2.390993143833997,-2.376717224071144,8.78885518395257,0.5277777777777778,-0.1511111111111111,-0.6822222222222222,0.057938911530795355,0.1350298017845203,-1.8632804014343558
1589988553.4661028,-2.36,-2.408043886933042,8.798043886933042,0.5277777777777778,-0.1511111111111111,-0.6822222222222222,0.05628048528114897,0.13613249010772363,-1.8718736016335036
1589988553.4761028,-2.3331638368012477,-2.441468930559002,8.820734465279502,0.5420903981504457,-0.12308222954796985,-0.6965348425948901,0.0545415391248228,0.1346775427715346,-1.881072975425223
1589988553.4861028,-2.2924698661539598,-2.46584337794868,8.847530133846039,0.5544444444444444,-0.09888888888888887,-0.7088888888888889,0.0545415391248228,0.13289735893902785,-1.892873976605032
1589988553.4961028,-2.2146752486834407,-2.5271591574019894,8.79467524868344,0.5544444444444444,-0.09888888888888887,-0.7088888888888889,0.05632299536469851,0.1417885340013876,-1.9049712838407775
1589988553.5061028,-2.1734406103167787,-2.5311468701055926,8.824265649472036,0.5544444444444444,-0.09888888888888887,-0.7088888888888889,0.06058610733391926,0.14785256993363574,-1.9106351144479083
1589988553.5161028,-2.1468960405213418,-2.5839092387835363,8.853103959478657,0.5544444444444444,-0.09888888888888887,-0.7088888888888889,0.059406356473343455,0.14835298641951802,-1.9153359492999358
1589988553.5261028,-2.099779955425054,-2.65,8.9,0.5666666666666667,-0.03555555555555556,-0.7322222222222222,0.057784027547828104,0.14618932720921554,-1.915522857203364
1589988553.5361028,-2.0701036544380376,-2.65,8.9,0.5666666666666667,-0.03555555555555556,-0.7322222222222222,0.05373754971941963,0.14861721390626062,-1.9187600394660906
1589988553.5461028,-2.025977308366387,-2.6244829812747903,8.763909233465547,0.5666666666666667,-0.03555555555555556,-0.7322222222222222,0.05514335251012962,0.15315511713574745,-1.9170787022434626
1589988553.5561028,-2.0292462474442723,-2.6754774846656364,8.712261257667183,0.5666666666666667,-0.03555555555555556,-0.7322222222222222,0.0475634968394858,0.1477554855311252,-1.9175982939797522
1589988553.5661027,-1.9858905196350654,-2.768218960729869,8.805570540790692,0.5666666666666667,-0.03555555555555556,-0.7322222222222222,0.042094125749148247,0.14646022265398834,-1.9144727836966364
1589988553.5761027,-1.9822066056088659,-2.8183099084132985,8.833896697195566,0.582942140811821,-0.021992660434593594,-0.75799172295205,0.04568687541154674,0.15615783071548361,-1.9033306866378252
1589988553.5861027,-1.997257079233246,-2.83,8.779200445367277,0.5933333333333334,-0.013333333333333334,-0.7744444444444445,0.04987900975420457,0.16015891296637974,-1.8834971135496477
1589988553.5961027,-1.939933606921609,-2.91580913296913,8.777161826593826,0.5933333333333334,-0.013333333333333334,-0.7744444444444445,0.04081789162863114,0.15083700231489733,-1.8643701209095884
1589988553.6061027,-1.9356477757841983,-2.952591103136794,8.740465569510611,0.5933333333333334,-0.013333333333333334,-0.7744444444444445,0.041118138473284944,0.15498850811225204,-1.8466462265263461
1589988553.6161027,-1.9304602308064405,-2.9652301154032203,8.71953976919356,0.5933333333333334,-0.013333333333333334,-0.7744444444444445,0.037339263570238715,0.16030192163390716,-1.821249220096519
1589988553.6261027,-1.8960455390334572,-2.979163568773234,8.787490706319703,0.6029151177199504,-0.027173688558446922,-0.7914787277984304,0.026408040012314296,0.15726211366540915,-1.7964862757219735
1589988553.6361027,-1.8789712222650636,-3.0538273335903816,8.805143888674682,0.6133333333333333,-0.042222222222222223,-0.81,0.02219369767793501,0.15173770100916895,-1.7705215585715075
1589988553.6461027,-1.8620366287339973,-3.1479633712660027,8.68475213371266,0.6133333333333333,-0.042222222222222223,-0.81,0.02094794659898875,0.14545076362462211,-1.7223877074019531
1589988553.6561027,-1.498629216785272,-2.6877815563532548,8.066510065705229,0.6133333333333333,-0.042222222222222223,-0.81,-0.013193265938015526,0.11849529208938005,-1.703738984145612
1589988553.6661026,-1.7188733868154866,-3.0650156958493198,9.457778165329612,0.6133333333333333,-0.042222222222222223,-0.81,-0.04422906004258215,0.10114934840080844,-1.6744739523319758
1589988553.6761026,-1.6499520762188997,-3.0105271615921025,8.031916951244009,0.6355555555555555,-0.042222222222222223,-0.84,0.1477674869803751,0.17436563964539212,-1.5696323085825072
1589988553.6861026,-1.6439339110970814,-3.076726977932103,8.272643556116739,0.6355555555555555,-0.042222222222222223,-0.84,0.0742417295672854,0.15335828038450935,-1.5604415889058711
1589988553.6961026,-1.6512135247799906,-3.198494673459935,8.772012505789716,0.6355555555555555,-0.042222222222222223,-0.84,0.0017158227593135553,0.09681413712349393,-1.5477062331517843
1589988553.7061026,-1.6049493051981472,-3.2128136901698405,8.505221821924858,0.6355555555555555,-0.042222222222222223,-0.84,0.03659260071896751,0.11559833598120015,-1.4926781898173407
1589988553.7161026,-1.5973306460398737,-3.2439838762392417,8.616572611395577,0.6355555555555555,-0.042222222222222223,-0.84,0.04647115016380549,0.11781412158325841,-1.4543774085619665
1589988553.7261026,-1.5932893368892105,-3.280131989332369,9.018690503096325,0.5572644859296759,-0.06011732385099469,-0.7564895257323951,0.007391052832069395,0.08855772854610788,-1.4277823118664934
1589988553.7361026,-1.615824061851782,-3.3502561443208245,8.799855113457792,0.5188888888888888,-0.06888888888888889,-0.7155555555555555,0.046370044755635144,0.10828379391803698,-1.3703433999263945
1589988553.7461026,-1.573263289036545,-3.430105066445183,8.80231561461794,0.5188888888888888,-0.06888888888888889,-0.7155555555555555,0.03354023794430278,0.08880517726703613,-1.3310088441599344
1589988553.7561026,-1.5979081879844963,-3.487908187984496,8.8275816375969,0.5188888888888888,-0.06888888888888889,-0.7155555555555555,0.032232939765869474,0.08346636542172022,-1.287351716961498
1589988553.7661026,-1.56442006397327,-3.5,8.71930586964937,0.5188888888888888,-0.06888888888888889,-0.7155555555555555,0.03523632560830946,0.0839939702522271,-1.2428885887742491
1589988553.7761025,-1.5319302922911857,-3.5484182462528855,8.7729759079234,0.5215787914584936,0.029740871996618665,-0.6581709674039875,0.033356610150025987,0.07607155323515594,-1.1818698094283546
1589988553.7861025,-1.5083769392453208,-3.5311692523270946,8.735130817735962,0.5222222222222223,0.05333333333333334,-0.6444444444444445,0.03272492347489368,0.07417649320975901,-1.1338128999484016
1589988553.7961025,-1.3466082191780822,-3.431194232155732,9.34778687815429,0.5222222222222223,0.05333333333333334,-0.6444444444444445,0.049457371105143415,0.08826697542470616,-1.070756350227483
1589988553.8061025,-1.2553998348358681,-3.270466244580552,8.474730231917968,0.5222222222222223,0.05333333333333334,-0.6444444444444445,0.09580415964218461,0.11942423814523428,-1.0168432385042006
1589988553.8161025,-1.2989853413850199,-3.3658478620824,8.7624702931723,0.5222222222222223,0.05333333333333334,-0.6444444444444445,0.03254284387486414,0.061928286708865896,-0.9934380911006984
1589988553.8261025,-1.33295025728988,-3.4607141743333854,9.139098705753938,0.525103522359097,0.10116291560545419,-0.6409868842801948,-0.013157667916611694,0.015644313045149936,-0.9568110029827643
1589988553.8361025,-1.2937409551374819,-3.3820622286541244,8.54328509406657,0.5277777777777778,0.14555555555555555,-0.6377777777777778,0.042450840191189866,0.05744779016762449,-0.8929981222257403
1589988553.8461025,-1.286637662124446,-3.4492029223444427,8.47230421934001,0.5277777777777778,0.14555555555555555,-0.6377777777777778,0.023882854387911857,0.036692997296560725,-0.8443709899080372
1589988553.8561025,-1.2867090402899617,-3.508987760676577,8.688611125702579,0.5277777777777778,0.14555555555555555,-0.6377777777777778,0.02379130758807026,0.04345399514460012,-0.7959747009733896
1589988553.8661025,-1.321029950714015,-3.5662874383925187,8.876395172500947,0.5277777777777778,0.14555555555555555,-0.6377777777777778,0.023436526243271194,0.04548959425004059,-0.7444312503444434
1589988553.8761024,-1.2477170840352931,-3.497717084035293,8.763858542017646,0.5388859065513073,0.18657018487320307,-0.6155615202307188,0.03238410309791769,0.04035781104929487,-0.680438164486195
1589988553.8861024,-1.3099634608144917,-3.6049451912217374,8.757496955067873,0.5422222222222223,0.1988888888888889,-0.6088888888888889,0.03000116802434586,0.03381974006422212,-0.6348768014357106
1589988553.8961024,-1.1541737235786969,-3.3884667220737215,8.732470181270918,0.5422222222222223,0.1988888888888889,-0.6088888888888889,0.04003367838755918,0.030543261909900768,-0.587167999797841
1589988553.9061024,-1.1706671927684913,-3.45791209316785,8.666310830523472,0.5422222222222223,0.1988888888888889,-0.6088888888888889,0.03922624050528865,0.02615082700352577,-0.5434178173230007
1589988553.9161024,-1.2257855310415597,-3.5673565931246793,8.801994869163673,0.5422222222222223,0.1988888888888889,-0.6088888888888889,0.03284189814577195,0.025260484285566466,-0.5017441012037778
1589988553.9261024,-1.2421247132783961,-3.6345612097527824,8.913937643360802,0.5550205306827515,0.2137079828958174,-0.6088888888888889,0.02988196138624987,0.024857337732613147,-0.45262045256394856
1589988553.9361024,-1.261220585881223,-3.6419485352969425,8.820235312950215,0.5633333333333334,0.22333333333333333,-0.6088888888888889,0.02700447903202768,0.020326349071857083,-0.405387214312914
1589988553.9461024,-1.27,-3.668514611373833,8.707549715047897,0.5633333333333334,0.22333333333333333,-0.6088888888888889,0.019796984848675522,0.017453292519943295,-0.34914431958301967
1589988553.9561024,-1.2132031575592654,-3.6574023681694494,8.68,0.5633333333333334,0.22333333333333333,-0.6088888888888889,0.017136908538483767,0.012806611713721723,-0.2900757882991642
1589988553.9661024,-1.2201960456604215,-3.700392091320843,8.805816856918423,0.5633333333333334,0.22333333333333333,-0.6088888888888889,0.015806353714140478,0.008712389417227472,-0.24798935669432756
1589988553.9761024,-1.2219303349282296,-3.7132172248803825,8.845791004784688,0.5700908452950558,0.23268988835725676,-0.6182454439128123,0.015201441996275681,0.003993380135424346,-0.19796388689888017
1589988553.9861023,-1.2252432874043582,-3.699648698329903,8.758810821851089,0.5777777777777777,0.2433333333333333,-0.6288888888888889,0.015401350168020746,0.002051942351922547,-0.14963542253985654
1589988553.9961023,-1.2649061080059512,-3.7398122160119023,8.719061080059511,0.5777777777777777,0.2433333333333333,-0.6288888888888889,0.014736457591435995,0.0016055200905431574,-0.11022641313148857
1589988554.0061023,-1.2413722310272381,-3.722941653459143,8.66921934318676,0.5777777777777777,0.2433333333333333,-0.6288888888888889,0.01495074634048338,-0.003272492347489368,-0.054562164836791424
1589988554.0161023,-1.2237661972622762,-3.736883098631138,8.775064789049106,0.5777777777777777,0.2433333333333333,-0.6288888888888889,0.01240996699812549,-0.0046324971311533306,-0.01197071574619182
1589988554.0261023,-1.213646029159878,-3.73,8.76010632075866,0.5923618944172898,0.25224584905747954,-0.6321298036976694,0.010510587740817097,-0.009226695814065043,0.03772541901582763
1589988554.0361023,-1.179213496401746,-3.7345318337331395,8.789213496401747,0.6177777777777778,0.2677777777777778,-0.6377777777777778,0.005862706052656737,-0.011504792233734594,0.08670674102002346
1589988554.0461023,-1.13,-3.725603080872914,8.720804107830551,0.6177777777777778,0.2677777777777778,-0.6377777777777778,0.00161431753439437,-0.014049228336352044,0.1317245804173578
1589988554.0561023,-1.1430896734000378,-3.7012735510666412,8.704363224466679,0.6177777777777778,0.2677777777777778,-0.6377777777777778,-0.0001981082146047938,-0.018405200431782377,0.16794683613892916
1589988554.0661023,-1.1705063783447416,-3.705759567517113,8.741519135034226,0.6177777777777778,0.2677777777777778,-0.6377777777777778,-0.003272492347489368,-0.019061920039386285,0.20538695000143803
1589988554.0761023,-1.1974238107857427,-3.72,8.828079369285808,0.6674679048334143,0.2826202832619289,-0.6500389779603374,-0.005806682901286952,-0.021711861494686728,0.23981153036181305
1589988554.0861022,-1.21,-3.696820861857465,8.812052154643663,0.7033333333333334,0.2933333333333333,-0.6588888888888889,-0.008900041347355933,-0.02399827721492203,0.2657150002379852
1589988554.0961022,-1.21,-3.6684263817408818,8.677411053927052,0.7033333333333334,0.2933333333333333,-0.6588888888888889,-0.006661262276990764,-0.025260763121112965,0.2906704310164936
1589988554.1061022,-1.2034945182603645,-3.6665054817396356,8.662043853917083,0.7033333333333334,0.2933333333333333,-0.6588888888888889,-0.005072961103642125,-0.026889576753571245,0.31919143811926953
1589988554.1161022,-1.2096440969178441,-3.679644096917844,8.78161892071952,0.7033333333333334,0.2933333333333333,-0.6588888888888889,-0.011240196695532313,-0.029374785119884138,0.3456981938805833
1589988554.1261022,-1.2023817129876122,-3.6415497107159336,8.774290277925674,0.9357968425245604,0.3417836226173996,-0.770960770162133,-0.012168185822751525,-0.033555949673194224,0.38355605116178637
1589988554.1361022,-1.2087000986672096,-3.596400056381263,8.676900126857841,1.2311111111111108,0.4033333333333333,-0.9133333333333332,-0.013057270605009729,-0.03778638445591891,0.4263076411474172
1589988554.1461022,-1.2534664394123853,-3.632132537943349,8.71786746205665,1.2311111111111108,0.4033333333333333,-0.9133333333333332,-0.023242017451584256,-0.03998260907069998,0.46233708671858587
1589988554.1561022,-1.280392137970903,-3.7211764139127084,8.722352827825416,1.2311111111111108,0.4033333333333333,-0.9133333333333332,-0.02190216688385841,-0.03817907738737596,0.5321328790320317
1589988554.1661022,-1.2806263581746133,-3.7171922536111466,8.756565895436534,1.2311111111111108,0.4033333333333333,-0.9133333333333332,-0.019908254396030806,-0.04073534164918297,0.5740808987502943
1589988554.1761022,-1.2751485148514852,-3.6902970297029705,8.786633663366336,1.176193619361936,0.022915291529152892,-0.9728272827282729,-0.01639486265177842,-0.04587969469351431,0.6124096817811538
1589988554.1861022,-1.2932654366795466,-3.6469382532818138,8.793570971621588,1.1244444444444444,-0.33555555555555555,-1.0288888888888892,-0.017453292519943295,-0.05016710643084011,0.6409745292751038
1589988554.1961021,-1.312767637339484,-3.594464725321032,8.744464725321032,1.1244444444444444,-0.33555555555555555,-1.0288888888888892,-0.01884602570290934,-0.04987631359436739,0.6570062504921741
1589988554.2061021,-1.3080229842100346,-3.5320919368401382,8.724011492105017,1.1244444444444444,-0.33555555555555555,-1.0288888888888892,-0.01375575020717303,-0.049740630087647536,0.6640940196012698
1589988554.2161021,-1.3196583265540984,-3.514743744915574,8.77406039802377,1.1244444444444444,-0.33555555555555555,-1.0288888888888892,-0.011425770122786446,-0.05178650907515531,0.6637984842425197
1589988554.226102,-1.3294649488197876,-3.503662372049469,8.78785979527915,0.8885763541319096,-0.10261386834863534,-0.8685219987012103,-0.011940773577702332,-0.054025306248453905,0.6558137080079455
1589988554.236102,-1.3581094481040943,-3.5371641721561415,8.819867321524173,0.6766666666666666,0.10666666666666667,-0.7244444444444444,-0.015758253052819252,-0.05315584048829288,0.6390495572756485
1589988554.246102,-1.404244577757268,-3.551816566682049,8.787266266728196,0.6766666666666666,0.10666666666666667,-0.7244444444444444,-0.017882955009283327,-0.05235987755982988,0.6254090026232237
1589988554.256102,-1.472035891952206,-3.487964108047794,8.745781765772467,0.6766666666666666,0.10666666666666667,-0.7244444444444444,-0.019976063752660006,-0.049837106327113176,0.6112223231177958
1589988554.266102,-1.4430362598488504,-3.5408793616337033,8.75478312429651,0.6766666666666666,0.10666666666666667,-0.7244444444444444,-0.017120794352702605,-0.04695303858601595,0.5959721267524117
1589988554.276102,-1.4326559175904154,-3.586294927779644,8.818180494905386,0.6418578235608803,0.15340997026586548,-0.7144990606999341,-0.012487331490412345,-0.04483850709894849,0.5829614179194826
1589988554.286102,-1.482522465393241,-3.4787836980898614,8.87626123269662,0.5988888888888889,0.2111111111111111,-0.7022222222222222,-0.017585970476382117,-0.04625589860027261,0.5695229793074744
1589988554.296102,-1.4306248549996132,-3.4009372824994197,8.850312427499807,0.5988888888888889,0.2111111111111111,-0.7022222222222222,-0.026077697119688686,-0.05120940580886812,0.5532471699078035
1589988554.306102,-1.4560187997107736,-3.4460187997107736,8.720269558929862,0.5988888888888889,0.2111111111111111,-0.7022222222222222,-0.013727367923544627,-0.04422207484937418,0.5501261396443555
1589988554.316102,-1.4557207811133779,-3.572372291848829,8.89738365879724,0.5988888888888889,0.2111111111111111,-0.7022222222222222,-0.017895941117274605,-0.042646407253001735,0.5483758633887974
1589988554.326102,-1.4365006299357772,-3.6008173800817382,8.815044710075899,0.601237405552312,0.21392933110721882,-0.721010355529607,-0.010695156211840539,-0.04237383007194573,0.5501158552690459
1589988554.336102,-1.5103321807027328,-3.4683390964863356,8.858820078081429,0.6044444444444445,0.21777777777777774,-0.7466666666666667,-0.015235395661361152,-0.04645089649007245,0.5402711233186639
1589988554.346102,-1.4631734575903024,-3.48392986021091,8.902518480888483,0.6044444444444445,0.21777777777777774,-0.7466666666666667,-0.011081393086286999,-0.04598797812617359,0.5283797161257456
1589988554.356102,-1.3403311359803771,-3.613768204813736,8.78983443200981,0.6044444444444445,0.21777777777777774,-0.7466666666666667,-0.006956032075536192,-0.03993163090578204,0.5125842777462171
1589988554.366102,-1.22835739868049,-3.67,8.790446748350613,0.6044444444444445,0.21777777777777774,-0.7466666666666667,-0.005755165633970792,-0.033864486942677914,0.4647096640763723
1589988554.376102,-1.2186522450722266,-3.655944638155554,8.77567992599445,0.5810188413703677,0.17990638614135374,-0.72324106359259,0.0023877496406727017,-0.026120867960482807,0.40239577793299725
1589988554.386102,-1.170326444963876,-3.510326444963876,8.809611134721631,0.5377777777777778,0.11,-0.68,0.002224080186581703,-0.023311205648163146,0.2770862013754881
1589988554.396102,-1.1,-3.44,8.78,0.5377777777777778,0.11,-0.68,0.00545415391248228,-0.022907446432425576,0.2367102798017309
1589988554.406102,-15.298360228345395,-9.821957117813637,-7.153088506315459,0.5377777777777778,0.11,-0.68,-0.5794488997873221,0.6607046871736466,-1.5148910898356334
1589988554.416102,-0.08108764031974142,-5.666013332179032,0.6172495887801922,0.5377777777777778,0.11,-0.68,-1.5861215659460375,0.8725488474031602,-7.180275690899171
1589988554.426102,0.7288215396490273,-2.557117982247043,0.07070194556062567,0.5429546136751748,0.1506182508872695,-0.6672570193294841,-0.9897280864456108,-1.8647105761758935,-10.0354380785022
1589988554.436102,-0.19545099316183653,-2.767443178117877,0.27853337675024425,0.5522222222222222,0.22333333333333333,-0.6444444444444445,-1.1558930666110816,-0.8916571230204594,-9.75060787228787
1589988554.446102,-0.9088970878292145,-4.71747464903121,6.60539111265808,0.5522222222222222,0.22333333333333333,-0.6444444444444445,-1.0687764343321005,-0.43739117442782927,-9.343070697858856
1589988554.456102,-1.0549530283718076,-4.682725770665156,7.781622055421801,0.5522222222222222,0.22333333333333333,-0.6444444444444445,-0.2288971135611476,0.8236389324846511,-8.7286155022864
1589988554.466102,-0.7111584725922337,-3.0254863970291432,4.089737829983047,0.5522222222222222,0.22333333333333333,-0.6444444444444445,0.6898234617191064,2.047427338680758,-8.149118750504655
1589988554.4761019,-0.620643303854313,-2.590343554563738,4.58116896713227,0.4804573074603655,0.318217146810419,-0.6444444444444445,1.3963501643711496,2.820984723139601,-7.653407614478566
1589988554.4861019,0.10003271483155607,-0.46759958045101513,10.929550483230527,0.38666666666666666,0.44222222222222224,-0.6444444444444445,2.3632825611316073,3.1511324581760016,-7.04395940196947
1589988554.4961019,0.3215370859514708,0.6141200597181434,8.922596262694206,0.38666666666666666,0.44222222222222224,-0.6444444444444445,2.442046682888733,1.7159280757577602,-6.46646893121346
1589988554.5061018,-0.133711500368975,-0.6568310871169456,-0.5549260107973745,0.38666666666666666,0.44222222222222224,-0.6444444444444445,1.6539033376952936,-0.29948081892205947,-5.866759014228825
1589988554.5161018,0.19505362070251323,-0.3526340517562831,0.11788127377134772,0.38666666666666666,0.44222222222222224,-0.6444444444444445,0.23232925477165778,0.11693375704748249,-5.26905963995362
1589988554.5261018,0.08244656573942874,-0.07111641434857185,1.6505884107688868,0.38666666666666666,0.44222222222222224,-0.6444444444444445,-0.36683375839857857,0.4929460808023802,-4.985856165619169
1589988554.5361018,0.052508588605783,-1.4823225021471513,4.99750501002004,0.3111111111111111,0.5244444444444445,-0.6322222222222222,-1.15789095550692,0.7283712601780084,-4.3555665361501665
1589988554.5461018,1.1593568120077393,-2.3998757011354974,10.441763832157445,0.3111111111111111,0.5244444444444445,-0.6322222222222222,-0.11950951205079074,0.10937728085676446,-3.889268968825581
1589988554.5561018,1.1742209544958555,-1.6898562321725978,9.14829814116431,0.3111111111111111,0.5244444444444445,-0.6322222222222222,0.3643145943094298,0.3061727936321085,-3.5737689006805935
1589988554.5661018,1.0445108872278193,-1.3193370165745857,8.861556711082223,0.3111111111111111,0.5244444444444445,-0.6322222222222222,0.3782765049277449,0.7379326666576204,-3.233613110597464
1589988554.5761018,1.2828440697651133,-2.5753919782134203,11.89784837501752,0.2833817257053605,0.5349816108986297,-0.623348818892382,0.004629854642591638,0.2564435722631424,-2.8627376298996947
1589988554.5861018,0.7385524630255036,-1.9173401653662512,7.298654943519273,0.2,0.5666666666666667,-0.5966666666666667,0.038159006202604276,-0.3338912725145836,-2.586539409699522
1589988554.5961018,0.6758756498824869,-1.7548963749020725,7.941549747169005,0.2,0.5666666666666667,-0.5966666666666667,0.1461926893203884,0.25470638513253546,-2.096208595944639
1589988554.6061018,0.828850731436759,-2.2757888655219434,10.045973284647916,0.2,0.5666666666666667,-0.5966666666666667,-0.05100283677379383,0.46296047278824487,-1.7550978230323595
1589988554.6161017,1.0816918894950938,-2.508990187195157,10.637764839698484,0.2,0.5666666666666667,-0.5966666666666667,-0.12170698776411029,0.1479636638640177,-1.519042377544451
1589988554.6261017,0.7005979752916953,-1.6091592312971859,6.703463452299245,0.1777514680088462,0.576619957294288,-0.6060344696103104,0.12831308854633006,-0.01990363761072099,-1.2721386315837806
1589988554.6361017,0.7965332055872119,-2.0038812969593063,8.155732439110484,0.11555555555555555,0.6044444444444445,-0.6322222222222222,-0.001798872425998771,0.10271818432073479,-0.859802272853386
1589988554.6461017,1.7896444610778444,-3.13187125748503,7.76188622754491,0.11555555555555555,0.6044444444444445,-0.6322222222222222,-0.11247089982470054,0.02072578486743266,-0.5448275183714335
1589988554.6561017,5.205937371240214,-6.69164812525752,8.250708693860734,0.11555555555555555,0.6044444444444445,-0.6322222222222222,0.030715853183274744,-0.004352086718958877,-0.2834811665167551
1589988554.6661017,14.877567045105863,-13.288937097269102,3.999187787664928,0.11555555555555555,0.6044444444444445,-0.6322222222222222,-0.14733960830442558,-0.31342286253462515,0.21437860726069852
1589988554.6761017,0.03213884627186303,-0.5348674440012289,4.121451825713409,0.11555555555555555,0.6044444444444445,-0.6322222222222222,-0.42952113078248694,-0.1217921271204192,0.6116789598044367
1589988554.6861017,-1.8381053115658772,-0.17368721873665538,5.0570150773576845,0.0811111111111111,0.6133333333333333,-0.6266666666666667,0.4348976392246318,0.21671543003044993,1.0647871482954794
1589988554.6961017,-0.4789861559961569,-0.7684347977989344,6.104523102454363,0.0811111111111111,0.6133333333333333,-0.6266666666666667,0.42804263264622044,-0.00674821135748771,1.2106773707649958
1589988554.7061017,0.1975689961880559,-1.7460391359593392,8.995494282083863,0.0811111111111111,0.6133333333333333,-0.6266666666666667,-0.33910283684793263,-0.26915477521574194,1.2203923721553418
1589988554.7161016,0.6962508701561309,-2.3867699804422053,10.777101468492061,0.0811111111111111,0.6133333333333333,-0.6266666666666667,-0.7014765126189837,-0.07316745575208793,1.2944236971989211
1589988554.7261016,0.3263110513048917,-2.067808691696833,7.027041487405947,0.08287265697553209,0.6153465286069573,-0.6316996548507267,0.07301400578355137,-0.07516070734147112,1.4533482967404805
1589988554.7361016,1.8096155992744525,-3.32816868982838,7.758730989256314,0.08888888888888889,0.6222222222222222,-0.6488888888888888,0.1729385345391788,-0.04267314192131943,1.590996710816623
1589988554.7461016,10.312960645198107,-10.668820497213398,8.81188005249843,0.08888888888888889,0.6222222222222222,-0.6488888888888888,-0.2520975442558321,-0.22116594633837605,1.7481545022685736
1589988554.7561016,-1.8362393651007163,-1.2498204257322527,7.608155496519487,0.08888888888888889,0.6222222222222222,-0.6488888888888888,-0.09434701340507784,-0.10458648719643922,1.788750861315366
1589988554.7661016,-0.4915517748990579,-2.0425489989905787,7.587821963324361,0.08888888888888889,0.6222222222222222,-0.6488888888888888,0.14656139228860926,-0.031662148001258966,1.9161793845565747
1589988554.7761016,0.9335887874501736,-3.906987270155587,9.81987913077022,0.10704170417041704,0.6225926878402126,-0.6533344763047734,-0.16836623169905277,-0.18400156642396756,2.0304093279273605
1589988554.7861016,2.92,-6.4,8.88,0.14333333333333334,0.6233333333333333,-0.6622222222222223,-0.2825251726665821,-0.2988876344040289,2.10530341021816
1589988554.7961016,1.9380875570099718,-5.114757916978021,8.78931381895952,0.14333333333333334,0.6233333333333333,-0.6622222222222223,-0.20304543565465605,-0.25488383150901406,2.240384851663322
1589988554.8061016,-0.03138512650140557,-2.5631663685152057,8.85341042678252,0.14333333333333334,0.6233333333333333,-0.6622222222222223,-0.05603101238597243,-0.17094096132709286,2.5933206962725026
1589988554.8161016,0.4636447159779871,-3.3341003637720363,9.344191306781084,0.14333333333333334,0.6233333333333333,-0.6622222222222223,-0.10596712383321402,-0.1990058018159924,2.7334529898574567
1589988554.8261015,0.887469452476448,-4.168709075645928,9.115977987128067,0.14333333333333334,0.6233333333333333,-0.6622222222222223,-0.07538280696381906,-0.20540717046307508,2.830896045929715
1589988554.8361015,0.15915204678362574,-3.256754385964912,9.04701754385965,0.1811111111111111,0.6111111111111112,-0.6411111111111111,-0.09821942431636219,-0.21013164556037725,3.100625897536037
1589988554.8461015,0.1,-3.13,8.54,0.1811111111111111,0.6111111111111112,-0.6411111111111111,-0.06872233929727672,-0.22580197197676635,3.2757648398368566
1589988554.8561015,0.3432935700876095,-3.986032931789737,8.413847778473091,0.1811111111111111,0.6111111111111112,-0.6411111111111111,-0.11393729229731772,-0.25234118352026874,3.40944383131524
1589988554.8661015,0.2626049046321526,-3.9230379375393,8.548700901278558,0.1811111111111111,0.6111111111111112,-0.6411111111111111,-0.1297143899920882,-0.2642659320208161,3.5421688550644306
1589988554.8761015,0.11304110854503464,-3.4592273441108548,8.942679538106235,0.19147212727739288,0.6091007646907878,-0.6451318039517577,-0.1080203420280877,-0.2725277816029528,3.7706200378926384
1589988554.8861015,0.07429468822170901,-3.6219623094688225,8.679203879907622,0.24916124198101103,0.5979073543751604,-0.6675186245830126,-0.10210313170805552,-0.2775996761629805,3.8838923497332543
1589988554.8961015,-0.04559064044902056,-3.718818719101959,8.738818719101959,0.25555555555555554,0.5966666666666667,-0.67,-0.12237632906279179,-0.2885147471820776,4.0287047155705
1589988554.9061015,-0.0689763223432331,-3.6720473553135338,8.692047355313534,0.25555555555555554,0.5966666666666667,-0.67,-0.12322665645212103,-0.2953173662967115,4.125642037954034
1589988554.9161015,-0.216958953319862,-4.1396548486518485,8.676958953319863,0.25555555555555554,0.5966666666666667,-0.67,-0.13366950858747143,-0.30581217112377074,4.253644773802579
1589988554.9261014,1.602902043497804,-8.906476262923135,9.212046955499464,0.2808699560872722,0.5841277579920781,-0.6711829159126971,-0.13294036706634585,-0.3116540621995652,4.353621370547889
1589988554.9361014,5.777667862000742,-21.39818462852839,11.77381476443675,0.3744444444444445,0.5377777777777778,-0.6755555555555556,-0.15563548391936274,-0.22350429537042543,3.085423703386595
1589988554.9461014,-0.39423395573142095,-10.831926436368134,13.640944726103623,0.3744444444444445,0.5377777777777778,-0.6755555555555556,-0.22404056910504908,-0.015717420069543686,0.06428482834357752
1589988554.9561014,-3.7414858120135426,-2.840037345991414,12.161711633101811,0.3744444444444445,0.5377777777777778,-0.6755555555555556,0.003179879668056773,0.2185955252525495,-1.8417482078507095
1589988554.9661014,-1.5163153118564798,0.07317929566158243,4.080829290426163,0.3744444444444445,0.5377777777777778,-0.6755555555555556,0.8136054536951863,0.5052386593173175,-1.5479190342132871
1589988554.9761014,-0.9052088647292494,-2.1140543591887937,8.279705624085302,0.38225771830789607,0.530701605222199,-0.6773245986944503,0.4179971420613785,0.16926099453495708,-0.4165096621262753
1589988554.9861014,-1.062964537030586,-4.68584268097262,12.160025778582874,0.43333333333333335,0.4844444444444445,-0.6888888888888889,-0.4363323129985824,-0.07199483164476607,0.29779680362153244
1589988554.9961014,-0.6134229000242072,-3.8265935608811423,8.887722101186153,0.43333333333333335,0.4844444444444445,-0.6888888888888889,-0.2500793603359873,-0.05282705205036309,0.46488197668972453
1589988555.0061014,-0.58,-2.61,7.25,0.43333333333333335,0.4844444444444445,-0.6888888888888889,0.12544553998709246,-0.014180800172453925,0.8017606251348951
1589988555.0161014,-0.36957899124635263,-4.0434931221342225,8.505950395998333,0.43333333333333335,0.4844444444444445,-0.6888888888888889,0.08025609011570685,-0.03283041440508925,0.9896913531714513
1589988555.0261014,6.512849239280774,-13.980248962655601,8.434190871369294,0.4316366989396035,0.4857169202397419,-0.6903027508836638,-0.15160133866670317,-0.13132968943624346,1.1484682894852936
1589988555.0361013,-1.9128021871150396,-2.4765302241144562,7.763651098960472,0.4066666666666667,0.5044444444444445,-0.7111111111111111,0.18013571839102394,0.09503743255572146,-0.28283803418490905
1589988555.0461013,-0.41856163353682374,-3.355679788289778,8.104433284214958,0.4066666666666667,0.5044444444444445,-0.7111111111111111,-0.010266005875628238,0.0011806480826641215,0.08719203036667028
1589988555.0561013,0.754475084954741,-4.743142573602381,9.220710161489189,0.4066666666666667,0.5044444444444445,-0.7111111111111111,-0.1464798462964816,-0.07862139984066409,0.20345535880669155
1589988555.0661013,-0.06725714893164664,-6.078656957584777,8.835809503561178,0.4066666666666667,0.5044444444444445,-0.7111111111111111,0.02240566659166671,0.009817477042468105,-0.017022155191430292
1589988555.0761013,-0.11891777246030019,-4.47151511855558,8.6632466826191,0.4069312111763711,0.5038672564232712,-0.7109427646049357,0.041597978826185815,0.00946331890827712,-0.02129718371978234
1589988555.0861013,-0.07528538785894326,-4.518858448564227,8.783573060705285,0.4188888888888889,0.4777777777777778,-0.7033333333333334,-0.0008986486566975114,-0.005199709814386124,0.0014129330617971337
1589988555.0961013,-0.09010588678711927,-4.459576452851523,8.709470566064404,0.4188888888888889,0.4777777777777778,-0.7033333333333334,-0.0003597601086038404,-0.0014274899777304275,-0.0007426211305775502
1589988555.1061013,-0.10146560423849971,-4.428793625430998,8.661465604238499,0.4188888888888889,0.4777777777777778,-0.7033333333333334,0.000479617865493827,0.0017303212698215587,-0.0013822984558365336
1589988555.1161013,-0.10587471617189471,-4.4552482970313685,8.665874716171894,0.4188888888888889,0.4777777777777778,-0.7033333333333334,0.0019224963716197477,0.0036541592779894523,0.001022499054373334
1589988555.1261013,-0.10888831703551209,-4.482223365928976,8.671111682964488,0.4200005718533768,0.4770984159661463,-0.7037656544861898,0.003454391047195416,0.0052722552127762315,0.00309059364778332
1589988555.1361012,-0.09161893978383942,-4.516762120432321,8.68838106021616,0.43726994910504946,0.4665449076456797,-0.7104815234173958,0.006280086292295705,0.002446559967675942,0.0002648984026830301
1589988555.1461012,-0.106654744873629,-4.478363137815927,8.703309489747259,0.4388888888888889,0.4655555555555556,-0.7111111111111111,0.0058151632415488225,0.0003649107267149565,0.001090830782496456
1589988555.1561012,-0.09174364580486472,-4.513025416780541,8.682205520634053,0.4388888888888889,0.4655555555555556,-0.7111111111111111,0.0008502458025908422,0.001420852557906015,0.0012810330342681803
1589988555.1661012,-0.1,-4.491503593458209,8.718636183577614,0.4388888888888889,0.4655555555555556,-0.7111111111111111,-0.005095626088095464,-0.002181661564992912,0.0018231337406060964
1589988555.1761012,-0.1,-4.546886424084659,8.615782355271348,0.4388888888888889,0.4655555555555556,-0.7111111111111111,-0.0033695319032634855,-0.002181661564992912,9.703955577411742e-05
1589988555.1861012,-0.0969923518164436,-4.57345793499044,8.706015296367113,0.43333333333333335,0.4844444444444445,-0.6755555555555556,-0.002722905519214385,-0.0009267890214193121,-0.0005987054992650242
1589988555.1961012,-0.08095296367112811,-4.485241300191205,8.738094072657743,0.43333333333333335,0.4844444444444445,-0.6755555555555556,0.00602522364144505,-5.197610535336841e-05,0.0020257332489328067
1589988555.2061012,-0.08703289063196364,-4.501098671895891,8.690769765576254,0.43333333333333335,0.4844444444444445,-0.6755555555555556,0.0034763072584679824,0.0007671693591276885,-0.00011984651239015359
1589988555.2161012,-0.09,-4.482829884728289,8.751510345815136,0.43333333333333335,0.4844444444444445,-0.6755555555555556,0.002181661564992912,0.004054630592732495,-0.0001028975124177762
1589988555.2261012,-0.09,-4.543037028721716,8.703266674150456,0.43333333333333335,0.4844444444444445,-0.6755555555555556,0.00011877962399010423,0.002300441188983016,0.0
1589988555.2361012,-0.09,-4.5102778700321045,8.683944425993579,0.43333333333333335,0.47127470878384203,-0.7065431688746202,0.0034724719529154865,-0.0011908205852095152,0.0
1589988555.2461011,-0.09,-4.495627402844041,8.760323312798183,0.43333333333333335,0.4655555555555556,-0.72,0.003749468705207027,-0.0013293189613552856,0.0008523426036376263
1589988555.2561011,-0.09,-4.476803969729155,8.691133994954859,0.43333333333333335,0.4655555555555556,-0.72,0.004340856968921729,0.0018105625838060616,-0.001090830782496456
1589988555.2661011,-0.09,-4.518568773234201,8.698094795539033,0.43333333333333335,0.4655555555555556,-0.72,-0.0024928930243111385,-0.0004673540806048944,-0.001090830782496456
1589988555.276101,-0.09793596623769082,-4.53,8.715871932475382,0.43333333333333335,0.4655555555555556,-0.72,-0.004363323129985824,-0.0019565104085890296,-0.00022515115640388218
1589988555.286101,-0.1,-4.565939150644412,8.684060849355589,0.44211845904641167,0.4655555555555556,-0.7032283963659413,-0.005147393766379854,-0.002181661564992912,0.0007840706363940298
1589988555.296101,-0.09080031780798385,-4.52,8.724397775344114,0.4455555555555555,0.4655555555555556,-0.6966666666666667,0.002443564955211574,-0.0002619033902186621,0.00017460226014577473
1589988555.306101,-0.09980695312332238,-4.52,8.661351328136744,0.4455555555555555,0.4655555555555556,-0.6966666666666667,0.005390979469818856,-0.0032093179048259452,0.0021395452698839633
1589988555.316101,-0.10857000569151963,-4.52928500284576,8.6835749857712,0.4455555555555555,0.4655555555555556,-0.6966666666666667,0.005064183459861001,-0.0010128366919722003,-0.0010128366919722003
1589988555.326101,-0.09365004268639726,-4.521825021343198,8.720874893284007,0.4455555555555555,0.4655555555555556,-0.6966666666666667,0.0009953947299370493,-0.00019907894598740993,-0.00019907894598740993
1589988555.336101,-0.10921183633803376,-4.539211836338033,8.746847345352135,0.4388888888888889,0.4777777777777778,-0.6755555555555556,0.00034390127364716415,0.001090830782496456,0.00401942185633866
1589988555.346101,-0.10089327859423654,-4.530893278594236,8.713573114376947,0.4388888888888889,0.4777777777777778,-0.6755555555555556,0.003973556814810477,0.001090830782496456,0.0003897663151753465
1589988555.356101,-0.09,-4.519311748536416,8.690137650292716,0.4388888888888889,0.4777777777777778,-0.6755555555555556,0.00863655435406263,-1.5015317651502928e-05,-6.006127060601171e-05
1589988555.366101,-0.09,-4.475306670583545,8.69893866588329,0.4388888888888889,0.4777777777777778,-0.6755555555555556,0.0028763031200048188,-0.0009750571899944714,-0.0039002287599778857
1589988555.376101,-0.08431637826093656,-4.48705086521719,8.73410173043438,0.4388888888888889,0.4777777777777778,-0.6755555555555556,0.002181661564992912,0.0007691300822144759,-0.0012633883554676048
1589988555.386101,-0.08560197844619591,-4.52800989223098,8.748796043107609,0.4357766786410023,0.4777777777777778,-0.6792902078530195,-0.0020959058074016073,0.00034841840539526084,0.001090830782496456
1589988555.396101,-0.09,-4.55,8.694424005711646,0.43333333333333335,0.4777777777777778,-0.6822222222222222,-0.0033234811619414512,-0.0018010550326767322,0.00038060653231617976
1589988555.406101,-0.09979829034193162,-4.529394871025795,8.612017096580683,0.43333333333333335,0.4777777777777778,-0.6822222222222222,0.0012448525553999373,-0.001068827672081673,0.001156840113740805
1589988555.416101,-0.09193555038992202,-4.505806651169766,8.69064449610078,0.43333333333333335,0.4777777777777778,-0.6822222222222222,0.00724869569749168,-0.0002111357946399953,0.003729915746065838
1589988555.426101,-0.10586014898046199,-4.5237902234706935,8.725860148980463,0.43333333333333335,0.4777777777777778,-0.6822222222222222,0.004401461579254718,0.0008650369361433861,0.004363323129985824
1589988555.436101,-0.1024217203527083,-4.507265161058125,8.745156559294584,0.4223869293983565,0.4777777777777778,-0.6931686261571991,0.0016191682039629325,0.0002641687107332384,0.001883336914696171
1589988555.446101,-0.1099106745501939,-4.529732023650582,8.710357301799226,0.4188888888888889,0.4777777777777778,-0.6966666666666667,0.001090830782496456,-0.0010810868874655735,0.001090830782496456
1589988555.456101,-0.10130919103842463,-4.503927573115274,8.640473528307398,0.4188888888888889,0.4777777777777778,-0.6966666666666667,0.0029868711705129504,-0.001090830782496456,-0.0017532297995282852
1589988555.466101,-0.1,-4.5182884074187095,8.702139490726612,0.4188888888888889,0.4777777777777778,-0.6966666666666667,0.0031324630068820516,0.000997477888758245,0.0010441543356273506
1589988555.476101,-0.1,-4.4898457261045,8.737692842369375,0.4188888888888889,0.4777777777777778,-0.6966666666666667,0.0008055015833112627,-0.0005538297269556142,0.00026850052777042087
1589988555.486101,-0.1,-4.517159891598916,8.75,0.4188888888888889,0.46642336645588683,-0.6770545016561277,-0.003040136522274676,-7.745194173823067e-05,0.0
1589988555.496101,-0.10836524331359954,-4.5283652433135995,8.766730486627198,0.4188888888888889,0.4655555555555556,-0.6755555555555556,-0.003272492347489368,0.0,0.0009125064909547021
1589988555.506101,-0.09012163538483922,-4.549878364615161,8.620912265386293,0.4188888888888889,0.4655555555555556,-0.6755555555555556,0.0010642940580917705,-0.0021683932027905693,6.6341811011713225e-06
1589988555.516101,-0.09,-4.527170000547035,8.673269998723582,0.4188888888888889,0.4655555555555556,-0.6755555555555556,0.0027510751936744835,0.0011388272573631423,0.0008301222055890136
1589988555.5261009,-0.0947535524710692,-4.52,8.704260657413208,0.4188888888888889,0.4655555555555556,-0.6755555555555556,0.0048280887559856815,0.0016631294288274737,0.0005722986463310178
1589988555.5361009,-0.10450084527093158,-4.510998309458136,8.738003381083727,0.4223895463218357,0.471056588664472,-0.67855611906951,0.006544984694978735,0.001090830782496456,0.0
1589988555.5461009,-0.09203849501103038,-4.517961504988969,8.736051326681373,0.4266666666666667,0.4777777777777778,-0.6822222222222222,0.00262639218659239,0.001090830782496456,0.0006530987513977243
1589988555.5561008,-0.09725117004680188,-4.521374414976599,8.659620904836194,0.4266666666666667,0.4777777777777778,-0.6822222222222222,0.001881810732113231,0.0020317361485530715,-0.0017318853156733907
1589988555.5661008,-0.1,-4.52,8.631274857031453,0.4266666666666667,0.4777777777777778,-0.6822222222222222,0.002181661564992912,0.0008199307412103756,-0.0008199307412103756
1589988555.5761008,-0.1,-4.513655344554254,8.69613586534894,0.4266666666666667,0.4777777777777778,-0.6822222222222222,0.004257945204358615,-0.0006920945464552344,0.0
1589988555.5861008,-0.0997068941791661,-4.500586211641668,8.769120682537498,0.43333333333333335,0.4777777777777778,-0.6888888888888889,-0.0011228036676859076,-0.0011228036676859076,0.002085742909424557
1589988555.5961008,-0.09146159743655272,-4.517076805126894,8.744384792309658,0.43333333333333335,0.4777777777777778,-0.6888888888888889,-0.0020222260174519507,-0.0020222260174519507,-0.0006125241398735729
1589988555.6061008,-0.09,-4.52,8.64696144513346,0.43333333333333335,0.4777777777777778,-0.6888888888888889,-0.0011667683689188298,0.002892804415377499,-0.001090830782496456
1589988555.6161008,-0.09007267577287889,-4.529975774742374,8.670096901030504,0.43333333333333335,0.4777777777777778,-0.6888888888888889,0.0010987584795162577,0.004352752867292755,0.0010855456511499216
1589988555.6261008,-0.11352067532564336,-4.522159774891452,8.701360900434192,0.43333333333333335,0.4777777777777778,-0.6888888888888889,0.0036565384495281204,0.0009423795739436054,-0.0006196409955246532
1589988555.6361008,-0.10189231916480239,-4.52,8.755269202087995,0.43333333333333335,0.48381367138951037,-0.6828529952771563,0.004363323129985824,0.001975241565465469,-0.0001032099997637214
1589988555.6461008,-0.09302253176402836,-4.52,8.718135190584169,0.43333333333333335,0.4844444444444445,-0.6822222222222222,0.0020799519892790914,0.0014205378514240011,0.0015222474271378217
1589988555.6561007,-0.09965337223139227,-4.52,8.661386511074431,0.43333333333333335,0.4844444444444445,-0.6822222222222222,-0.0010152083344833818,0.001090830782496456,0.002181661564992912
1589988555.6661007,-0.10907643312101911,-4.529076433121019,8.669076433121019,0.43333333333333335,0.4844444444444445,-0.6822222222222222,-0.001090830782496456,0.001090830782496456,0.0031717468293607142
1589988555.6761007,-0.09538145926069286,-4.508072188891039,8.69192781110896,0.43333333333333335,0.4844444444444445,-0.6822222222222222,0.0013011223525457537,-0.0005038046408650169,-0.0007140962109143147
1589988555.6861007,-0.09,-4.505828431270656,8.734970587623938,0.4177908499449168,0.4844444444444445,-0.6822222222222222,0.0028174447893625854,-0.0004550475581267824,-0.0015458783406232385
1589988555.6961007,-0.10612730400589826,-4.51,8.765375768001967,0.4066666666666667,0.4844444444444445,-0.6822222222222222,0.0009268710610477386,-0.0011728106432208148,8.19798607243588e-05
1589988555.7061007,-0.11098608566862844,-4.519013914331371,8.65281911369217,0.4066666666666667,0.4844444444444445,-0.6822222222222222,-0.001090830782496456,0.0017514005243855096,-0.0008757002621927548
1589988555.7161007,-0.10395237145356064,-4.526047628546439,8.658142885639318,0.4066666666666667,0.4844444444444445,-0.6822222222222222,-0.00043113684454042006,0.002181661564992912,0.00022855709341561585
1589988555.7261007,-0.1,-4.518326300984529,8.693347398030943,0.4066666666666667,0.4844444444444445,-0.6822222222222222,0.0,0.002181661564992912,-0.00018257224067099614
1589988555.7361007,-0.10917290283645142,-4.519172902836451,8.755864514182257,0.44233906658619987,0.4722139073291759,-0.6954719707637631,0.006003650867310156,-0.002821380824432219,-9.022230461142988e-05
1589988555.7461007,-0.10043036738679362,-4.52,8.76,0.4455555555555555,0.4711111111111111,-0.6966666666666667,0.0044572147286452285,-0.00014083739798910694,0.0010438849831667539
1589988555.7561007,-0.1,-4.512763880634646,8.68040268698111,0.4455555555555555,0.4711111111111111,-0.6966666666666667,-0.0003727059197421575,0.0007893381749546636,0.0018801689574511195
1589988555.7661006,-0.1,-4.52656968413183,8.66656968413183,0.4455555555555555,0.4711111111111111,-0.6966666666666667,-0.00037418941426861163,-0.0007166413682278443,0.002181661564992912
1589988555.7761006,-0.10591605780159118,-4.524083942198408,8.693664231206364,0.4455555555555555,0.4711111111111111,-0.6966666666666667,0.0012906835922007912,0.0008451946058047311,-0.0003997056194086704
1589988555.7861006,-0.10403404043634297,-4.514034040436343,8.733863838254628,0.44157824917978417,0.4677966891313017,-0.6966666666666667,0.0015308763310762899,0.0008800910971596678,-0.0015308763310762899
1589988555.7961006,-0.09416789003069531,-4.515832109969304,8.732503670092086,0.4388888888888889,0.4655555555555556,-0.6966666666666667,0.001727015290638657,0.0019085535244266032,-0.001090830782496456
1589988555.8061006,-0.08277391961426361,-4.52,8.654965276528372,0.4388888888888889,0.4655555555555556,-0.6966666666666667,-0.0009713108036291354,0.002484249255333856,-0.001090830782496456
1589988555.8161006,-0.08695445496282453,-4.526954454962825,8.664772274814123,0.4388888888888889,0.4655555555555556,-0.6966666666666667,-0.0029402749198863356,0.0014230482100994883,0.001185009282183815
1589988555.8261006,-0.09566780929948897,-4.524332190700511,8.714006855796933,0.4388888888888889,0.4655555555555556,-0.6966666666666667,-0.0014177060915286951,-0.000763955473464217,0.0015633994796726877
1589988555.8361006,-0.09683807407407408,-4.516838074074074,8.74,0.43045708641975305,0.46731218106995887,-0.6920994403292181,0.0,-0.001836748951795551,0.0004010055561017342
1589988555.8461006,-0.09062429629629629,-4.510624296296296,8.74,0.413887012345679,0.47076427983539093,-0.6831239835390946,0.0,-0.0011589309442363088,-0.0009546304590167503
1589988555.8561006,-0.09691767510084343,-4.51,8.698493949394939,0.4122222222222222,0.4711111111111111,-0.6822222222222222,-0.0007546012943309275,-0.00033622948816552846,-0.001090830782496456
1589988555.8661005,-0.1077565507237431,-4.5177565507237425,8.687756550723742,0.4122222222222222,0.4711111111111111,-0.6822222222222222,-0.001090830782496456,0.0008461084295454132,-0.001090830782496456
1589988555.8761005,-0.0963151455352738,-4.5131575727676365,8.703684854464727,0.4122222222222222,0.4711111111111111,-0.6822222222222222,-0.0018372238077018258,-0.0004019552679142835,-0.00034443775729108624
1589988555.8861005,-0.1069267910739919,-4.518463395536996,8.718463395536997,0.4122222222222222,0.47205148839299954,-0.6897452404773298,-0.001258448327373081,-0.00016761754487662505,0.0
1589988555.8961005,-0.09571779282303074,-4.512858896411515,8.712858896411516,0.4122222222222222,0.4722222222222222,-0.6911111111111111,0.001246089902098025,0.0,0.0
1589988555.9061005,-0.0980811190483307,-4.51808111904833,8.653432166661686,0.4122222222222222,0.4722222222222222,-0.6911111111111111,0.0004186348820053949,-0.001763026682987517,-0.002644540024481276
1589988555.9161005,-0.09328779547644692,-4.5132877954764465,8.680273227141319,0.4122222222222222,0.4722222222222222,-0.6911111111111111,0.0,-0.0014494736337225455,-0.0010759285536782685
1589988555.9261005,-0.09599692127254068,-4.521993842545082,8.705996921272542,0.4122222222222222,0.4722222222222222,-0.6911111111111111,-0.0006541626324295196,0.0002174944823625832,0.0006541626324295196
1589988555.9361005,-0.10799974961660042,-4.53,8.733999248849802,0.4237774161128673,0.4668890558111553,-0.6911111111111111,0.000654443844313936,-0.003272355784529523,0.00021819346909125997
1589988555.9461005,-0.09806439158679267,-4.518064391586793,8.728064391586793,0.4266666666666667,0.4655555555555556,-0.6911111111111111,0.0017418172357439674,-0.0024103637702432893,0.001301972906495023
1589988555.9561005,-0.09,-4.503232384261008,8.679394305566046,0.4266666666666667,0.4655555555555556,-0.6911111111111111,0.0036581262794330213,-0.0003525984252764014,-3.3035506667251826e-05
1589988555.9661005,-0.09855623334016814,-4.517112466680336,8.702781166700841,0.4266666666666667,0.4655555555555556,-0.6911111111111111,0.0024966425880502494,-0.0018666805419355744,0.002642530301374693
1589988555.9761004,-0.1066982733175915,-4.52,8.730094819952775,0.4266666666666667,0.4655555555555556,-0.6911111111111111,-1.0343252328128341e-05,1.0343252328128341e-05,-0.0003808490147123658
1589988555.9861004,-0.11,-4.51478925127316,8.74,0.41624516921298804,0.4753980809284743,-0.6754788649305932,-0.001090830782496456,-4.5978239721651505e-05,9.195647944330301e-05
1589988555.9961004,-0.09657578730169468,-4.516712106349153,8.746712106349152,0.4066666666666667,0.4844444444444445,-0.6611111111111111,-0.0003586535603918936,-0.002555185226705581,0.002181661564992912
1589988556.0061004,-0.10179185040162479,-4.508208149598375,8.679248897590252,0.4066666666666667,0.4844444444444445,-0.6611111111111111,0.0012862913400685525,-0.0026293466774550914,0.0008953702249243595
1589988556.0161004,-0.10384545024444095,-4.512309099511118,8.679236398044473,0.4066666666666667,0.4844444444444445,-0.6611111111111111,0.002181661564992912,-0.002181661564992912,0.0013427144651539723
1589988556.0261004,-0.1123338100864374,-4.507666189913563,8.71,0.4066666666666667,0.4844444444444445,-0.6611111111111111,-0.0005091583765573283,-0.003527071535768032,0.0008362515942177918
1589988556.0361004,-0.09796717923021514,-4.514688547179857,8.724688547179857,0.4352277306274988,0.47057192766346884,-0.6782477494876105,-0.0013805255942959595,-0.002761051188591919,0.0008011359706969524
1589988556.0461004,-0.09,-4.52,8.723186390291579,0.4455555555555555,0.4655555555555556,-0.6844444444444444,0.00039566825947613335,-0.002181661564992912,0.0003475812615101613
1589988556.0561004,-0.1054556943423953,-4.512272152828802,8.681360764144012,0.4455555555555555,0.4655555555555556,-0.6844444444444444,0.0019338081401735114,-0.002181661564992912,0.0
1589988556.0661004,-0.09360080529191832,-4.51,8.678199597354041,0.4455555555555555,0.4655555555555556,-0.6844444444444444,0.002181661564992912,-0.0039705362045657595,-0.002683311959359272
1589988556.0761003,-0.10769928032899245,-4.51,8.703599040438657,0.4455555555555555,0.4655555555555556,-0.6844444444444444,0.0028252255586895445,-0.002432631148895926,-5.467237900620486e-05
1589988556.0861003,-0.12,-4.514967734818819,8.724967734818819,0.43948387966588837,0.46831540823267703,-0.6833405033735959,0.0016468049295953336,-7.0391705670998575e-06,0.001639765759028234
1589988556.0961003,-0.10732096673503969,-4.5242263444216535,8.734226344421653,0.43333333333333335,0.4711111111111111,-0.6822222222222222,-0.0009220453185143503,0.001090830782496456,0.0006298081232392808
1589988556.1061003,-0.09,-4.526662250270213,8.709960252431923,0.43333333333333335,0.4711111111111111,-0.6822222222222222,-0.0018175695500409028,0.001090830782496456,0.0
1589988556.1161003,-0.09399681445049271,-4.523996814450492,8.665987257801971,0.43333333333333335,0.4711111111111111,-0.6822222222222222,0.00021712368786077577,-0.0006531085113131864,0.0008719696469048212
1589988556.1261003,-0.09728235754150226,-4.53,8.695435284916995,0.43333333333333335,0.4711111111111111,-0.6822222222222222,0.0015887639550831749,-0.003865389957399105,0.002181661564992912
1589988556.1361003,-0.1023153303105091,-4.523842334844745,8.71,0.42922822322983034,0.4676901860248586,-0.6822222222222222,-0.000671697069965748,-0.000752274422722043,0.001509964495027164
1589988556.1461003,-0.1169737452680425,-4.513026254731957,8.675131273659789,0.4266666666666667,0.4655555555555556,-0.6822222222222222,0.0004306044190374946,0.0006602263634589614,0.0003301131817294807
1589988556.1561003,-0.1096277837249706,-4.51,8.644441675587457,0.4266666666666667,0.4655555555555556,-0.6822222222222222,0.001090830782496456,-0.001131433279551279,0.0
1589988556.1661003,-0.11138419297901549,-4.5156920964895075,8.669844675426555,0.4266666666666667,0.4655555555555556,-0.6822222222222222,0.0017117421892659625,-0.002181661564992912,-0.0006209114067695066
1589988556.1761003,-0.12,-4.5139883495145625,8.724046601941748,0.4266666666666667,0.4655555555555556,-0.6822222222222222,0.0015258922246804793,-0.002181661564992912,0.0002207078981284092
1589988556.1861002,-0.10690227036289089,-4.516548864818554,8.74,0.4215731051411243,0.4735597236671223,-0.6822222222222222,-0.0003379098844010196,-3.85505646466988e-05,-0.0010522802178497572
1589988556.1961002,-0.09356528308221765,-4.526434716917782,8.733565283082218,0.4188888888888889,0.4777777777777778,-0.6822222222222222,-0.0024946682406099966,-0.0010149254046738548,-7.590537782260114e-05
1589988556.2061002,-0.09623466506758614,-4.523765334932413,8.673888014391725,0.4188888888888889,0.4777777777777778,-0.6822222222222222,-0.001232202975205876,-0.0001413721927094199,0.0004107343250686254
