time,acc_x,acc_y,acc_z,mag_x,mag_y,mag_z,gyr_x,gyr_y,gyr_z
1589988581.3326645,-3.9,-0.8,8.89,0.3288888888888889,-0.35,-0.6322222222222222,0.0,-0.003272492347489368,0.0
1589988581.3426645,-3.9099769267364417,-0.8,8.929907706945766,0.3288888888888889,-0.35,-0.6322222222222222,0.0021766277597644553,-7.550707842684905e-06,-0.0010883138798822277
1589988581.3526645,-3.91,-0.8,8.979784069954198,0.339030088324003,-0.350921927221374,-0.62023716834436,0.0003714616988597572,-0.0018101998661331547,-0.0019959307155630332
1589988581.3626645,-3.8909949816113194,-0.8,8.939055202275485,0.3411111111111111,-0.3511111111111111,-0.6177777777777778,0.001416437753390012,0.0011993664394609747,-0.001090830782496456
1589988581.3726645,-3.898593764153849,-0.8,8.855468594307661,0.3411111111111111,-0.3511111111111111,-0.6177777777777778,0.0039031335254563664,0.0020282650301497594,-0.001090830782496456
1589988581.3826644,-3.91814500998608,-0.80185499001392,8.933709980027839,0.3411111111111111,-0.3511111111111111,-0.6177777777777778,0.0006861347408149651,0.0013722694816299301,-0.002181661564992912
1589988581.3926644,-3.9090452429488547,-0.8095226214744273,8.950477378525573,0.3401563540599656,-0.3511111111111111,-0.6187325348289233,-0.0011949786206159642,-0.0023899572412319284,-0.002233735484052666
1589988581.4026644,-3.8881250220171206,-0.8,8.967499911931519,0.3211111111111111,-0.3511111111111111,-0.6377777777777778,-0.0034770207175121737,-0.006135927954933124,-0.0034770207175121737
1589988581.4126644,-3.880737309331736,-0.8,8.997050762673055,0.3211111111111111,-0.3511111111111111,-0.6377777777777778,-0.004282895158457833,-0.004524179073041806,-0.004282895158457833
1589988581.4226644,-3.883737350328312,-0.8143939745075318,8.89560602549247,0.3211111111111111,-0.3511111111111111,-0.6377777777777778,-0.0015701390475285023,-0.0037518006125214142,-0.0012946716216512592
1589988581.4326644,-3.8999378138277327,-0.790093279258401,8.919906720741599,0.3211111111111111,-0.3511111111111111,-0.6377777777777778,0.0010806555938532385,-0.0011010059711396734,-0.002178269835445173
1589988581.4426644,-3.90717324497399,-0.7971732449739901,8.948692979895961,0.3211111111111111,-0.3511111111111111,-0.6377777777777778,0.004220749353703002,0.0020390877887100896,0.0009482570062136339
1589988581.4526644,-3.91,-0.8,8.986574647103819,0.33390631156850475,-0.3501268649220808,-0.6249825773203841,0.007386716785470577,0.0023062109109952193,-0.0016834641809836829
1589988581.4626644,-3.90236973060912,-0.79,8.88578161634528,0.33555555555555555,-0.35,-0.6233333333333333,0.007951153731575978,0.0005738357635660097,-0.0041048256205206005
1589988581.4726644,-3.9076018326293935,-0.7876018326293937,8.844796334741213,0.33555555555555555,-0.35,-0.6233333333333333,0.004407755996707886,-0.0021372286982708497,-0.0030108928685457694
1589988581.4826643,-3.9,-0.78,8.870612187637,0.33555555555555555,-0.35,-0.6233333333333333,0.00012615570382400936,-0.006225893975420237,-0.002567531596461891
1589988581.4926643,-3.9,-0.78,8.914743358176239,0.33555555555555555,-0.35,-0.6233333333333333,-0.0038854809038260437,-0.00943520326154028,-0.004172186239521912
1589988581.5026643,-3.9,-0.7888461906814156,8.955384762725663,0.33555555555555555,-0.355897460454277,-0.631196613939036,-0.008223201971234356,-0.01174741646309237,-0.0005034442887372906
1589988581.5126643,-3.8827256952890616,-0.82,8.98364582826563,0.33555555555555555,-0.3566666666666667,-0.6322222222222222,-0.010610980592463133,-0.013586145707451074,0.0
1589988581.5226643,-3.8963291980864345,-0.82,8.902024811481391,0.33555555555555555,-0.3566666666666667,-0.6322222222222222,-0.009127068632348032,-0.010618321787220875,0.0
1589988581.5326643,-3.918357470858354,-0.810821264570823,8.941642529141646,0.33555555555555555,-0.3566666666666667,-0.6322222222222222,-0.0073670572751469415,-0.0053645678450395294,0.0033620784149321183
1589988581.5426643,-3.904888731896856,-0.8175556340515718,8.955111268103144,0.33555555555555555,-0.3566666666666667,-0.6322222222222222,-0.005163240016055285,-0.004629962092008977,0.00409668416796267
1589988581.5526643,-3.891024001704894,-0.8110240017048936,8.997951996590213,0.3288888888888889,-0.3511111111111111,-0.6255555555555555,-0.005342452654379603,-0.0032166417184380297,0.0
1589988581.5626643,-3.906838106662668,-0.828419053331334,8.948933373319338,0.3288888888888889,-0.3511111111111111,-0.6255555555555555,-0.0027551287599895495,-0.0018367525066596995,0.0001724545291666062
1589988581.5726643,-3.89,-0.8213814512350224,8.894144353705068,0.3288888888888889,-0.3511111111111111,-0.6255555555555555,0.00015069295316802068,0.00030138590633604136,0.0009401378293284353
1589988581.5826643,-3.89,-0.8284004953477475,8.915201486043243,0.3288888888888889,-0.3511111111111111,-0.6255555555555555,0.0009163518913541251,0.0018327037827082502,0.00017447889114233087
1589988581.5926642,-3.899390494969119,-0.7924380201235248,8.938780989938238,0.3288888888888889,-0.3511111111111111,-0.6255555555555555,0.004163863075054323,0.005254693857550779,0.0
1589988581.6026642,-3.8831624545685064,-0.79,8.94,0.3391784999859127,-0.35017569192047254,-0.6059117525521465,0.004363323129985824,0.0036174626266467077,0.000918345642917786
1589988581.6126642,-3.8857043769433153,-0.79,8.939260942358286,0.3411111111111111,-0.35,-0.6022222222222222,0.0048319029160091755,0.00775296042398103,0.0012079757290022939
1589988581.6226642,-3.8502388996139,-0.79,8.851194498069498,0.3411111111111111,-0.35,-0.6022222222222222,0.00877876607052529,0.00877876607052529,0.0021295417544392684
1589988581.6326642,-3.8567318435754188,-0.7921787709497207,8.904357541899442,0.3411111111111111,-0.35,-0.6022222222222222,0.01090830782496456,0.011383641908957428,-0.0004753340839928691
1589988581.6426642,-3.831979896136596,-0.8086800692422693,8.937360138484538,0.3411111111111111,-0.35,-0.6022222222222222,0.01090830782496456,0.014983666734691072,-0.0040753589097265105
1589988581.6526642,-3.8828127321784693,-0.8250893520509912,8.985268056152973,0.35200897648127155,-0.34580851331916906,-0.6181498716093796,0.004324335942905631,0.019386613381237212,-0.011770291497302115
1589988581.6626642,-3.942117839990629,-0.8078821600093711,8.964116200070283,0.3555555555555556,-0.34444444444444444,-0.6233333333333333,0.001090830782496456,0.0177355515334767,-0.021932125902638128
1589988581.6726642,-3.9584731960637716,-0.789236598031886,8.836107215744914,0.3555555555555556,-0.34444444444444444,-0.6233333333333333,0.0005911853627540958,0.010408662405222199,-0.02232452677605949
1589988581.6826642,-3.9415227626341207,-0.7807613813170604,8.903908949463517,0.3555555555555556,-0.34444444444444444,-0.6233333333333333,-0.004955831005762001,0.004861646036706102,-0.015853007679457375
1589988581.6926641,-3.94,-0.7868635382955772,8.916863538295576,0.3555555555555556,-0.34444444444444444,-0.6233333333333333,-0.006202849797448159,-0.0008775480647753315,-0.013025543300052745
1589988581.7026641,-3.9311629752543107,-0.8253480989827573,8.937674049491378,0.3319901562337173,-0.3493539026364941,-0.6184238751412837,-0.007508954556806821,-0.006164401932973624,-0.006215319436492504
1589988581.7126641,-3.8996404908456506,-0.8148202454228252,8.917230368134238,0.3288888888888889,-0.35,-0.6177777777777778,-0.01094752419017996,-0.007372911873154928,-0.0037982995561298954
1589988581.722664,-3.89,-0.8190345502196301,8.873861799121478,0.3288888888888889,-0.35,-0.6177777777777778,-0.011893824373522826,-0.01090830782496456,-0.0011961450164346451
1589988581.732664,-3.89,-0.8112934184784615,8.904826326086154,0.3288888888888889,-0.35,-0.6177777777777778,-0.01104939789406011,-0.01090830782496456,-0.0020405714958973606
1589988581.742664,-3.8985892361025742,-0.8357677083077225,8.978713888820593,0.3288888888888889,-0.35,-0.6177777777777778,-0.00997136751108278,-0.008097486883319216,-0.002181661564992912
1589988581.752664,-3.892085300804477,-0.8479146991955229,9.005829398391045,0.35966827464925577,-0.35087941102172476,-0.6292101210601998,-0.007227397787465206,-0.007635815477475192,0.0012717774416776185
1589988581.762664,-3.8986889895247243,-0.8026220209505512,9.00902383239559,0.36777777777777776,-0.3511111111111111,-0.6322222222222222,-0.005168135795961092,-0.00545415391248228,0.0009478217242358621
1589988581.772664,-3.892004411429151,-0.8179955885708491,8.873006617143727,0.36777777777777776,-0.3511111111111111,-0.6322222222222222,-0.002944521294333536,-0.004907535490555894,0.0002186473687705545
1589988581.782664,-3.9063614321962223,-0.8012128559345927,8.902425711869185,0.36777777777777776,-0.3511111111111111,-0.6322222222222222,0.00026460411763742616,-0.00013230205881871308,0.002181661564992912
1589988581.792664,-3.8827115872568365,-0.8090961375810545,8.91819227516211,0.36777777777777776,-0.3511111111111111,-0.6322222222222222,0.0019844693750474007,-0.0009922346875237003,0.002181661564992912
1589988581.802664,-3.9008362312030074,-0.8291637687969925,8.965818843984962,0.33555555555555555,-0.34444444444444444,-0.6255555555555555,0.001090830782496456,0.0015469241512587782,0.0003648746950098578
1589988581.812664,-3.909302727940654,-0.8193027279406536,8.917908183821961,0.33555555555555555,-0.34444444444444444,-0.6255555555555555,0.001242951947718392,0.0063928635297567996,0.00413514138215292
1589988581.822664,-3.9,-0.810553590523978,8.891660771571935,0.33555555555555555,-0.34444444444444444,-0.6255555555555555,0.0032121049890440185,0.004121773696204425,0.0009700560656057568
1589988581.832664,-3.9,-0.8191788681418113,8.917536604425434,0.33555555555555555,-0.34444444444444444,-0.6255555555555555,0.0022712331557329865,0.0003582863629602983,-0.0009116876010163068
1589988581.842664,-3.8880658500919827,-0.8080658500919826,8.949835374770045,0.33555555555555555,-0.34444444444444444,-0.6255555555555555,0.0008798477567336467,0.0006509069041296326,-0.0017417376866260886
1589988581.852664,-3.886453069306931,-0.8,8.957093861386138,0.33555555555555555,-0.34444444444444444,-0.6205365016501649,-0.0028156826566332286,-0.0017248518741367726,0.0013379417557986238
1589988581.862664,-3.8963102821616453,-0.8,8.943689717838355,0.33555555555555555,-0.34444444444444444,-0.6177777777777778,-0.004363323129985824,-0.0012074573390411275,0.0005191123362250473
1589988581.872664,-3.9,-0.8158448734088684,8.852853196251225,0.33555555555555555,-0.34444444444444444,-0.6177777777777778,-0.004363323129985824,0.0,-0.001090830782496456
1589988581.882664,-3.892947560187271,-0.82,8.89347195831456,0.33555555555555555,-0.34444444444444444,-0.6177777777777778,-0.0035940212860429963,-0.0030772073757713105,0.001217074749332027
1589988581.892664,-3.89,-0.82,8.927563129182836,0.33555555555555555,-0.34444444444444444,-0.6177777777777778,-0.004922511172416238,-0.003538313717522389,0.0013566521525294768
1589988581.902664,-3.8969468915702894,-0.8130531084297107,8.957787566281159,0.33941493976127185,-0.34444444444444444,-0.6177777777777778,-0.002423000645467577,-0.003272492347489368,0.001090830782496456
1589988581.912664,-3.891365103003227,-0.8186348969967734,9.00692851824274,0.3411111111111111,-0.34444444444444444,-0.6177777777777778,-0.0022933437932827574,0.0007557840976269191,0.0021444341555629633
1589988581.922664,-3.9211087472963873,-0.7888912527036132,8.940005318583129,0.3411111111111111,-0.34444444444444444,-0.6177777777777778,-0.00472674000167808,-0.006544404527559048,0.001333302086097856
1589988581.932664,-3.93,-0.7898170467065069,8.998536373652055,0.3411111111111111,-0.34444444444444444,-0.6177777777777778,-0.015092016979079102,-0.022648004022833724,0.001090830782496456
1589988581.942664,-3.9029456232843884,-0.8531268790030936,9.090181255718704,0.3411111111111111,-0.34444444444444444,-0.6177777777777778,-0.017239080749793346,-0.029793520714375937,0.0020745556799179363
1589988581.952664,-3.8402220390114112,-0.864666566733497,9.109333133466993,0.3288888888888889,-0.3511111111111111,-0.6022222222222222,0.006035941230831492,-0.02399827721492203,0.006205608759275028
1589988581.962664,-3.6673227903839307,-0.7703578856639622,8.920715771327925,0.3288888888888889,-0.3511111111111111,-0.6022222222222222,0.016323422467560418,-0.02399827721492203,0.00020457803784981916
1589988581.9726639,-2.6799215053991556,-0.8897252688970448,8.780117741901266,0.3288888888888889,-0.3511111111111111,-0.6022222222222222,0.014227893552227358,0.023279912254269997,-0.019930358012605922
1589988581.9826639,-2.662125294354753,-0.827438530241636,8.806812058467871,0.3288888888888889,-0.3511111111111111,-0.6022222222222222,0.024904853702698057,0.10772496071708372,-0.08690401713828576
1589988581.9926639,-2.166866482504604,-0.8880184162062615,8.71647467771639,0.3288888888888889,-0.3511111111111111,-0.6022222222222222,0.025252481502734368,0.05567008693851883,-0.17930089030062385
1589988582.0026639,-2.1156975924247003,-0.8785814445451798,8.79281374030422,0.32333593006726885,-0.34159175313119106,-0.6022222222222222,0.005619091658480787,0.04472406208235469,-0.26581753941165986
1589988582.0126638,-1.9297882220060867,-0.922229159476673,9.012802058168354,0.3211111111111111,-0.3377777777777778,-0.6022222222222222,0.0035156559251142334,0.048522273742426125,-0.35909390949525744
1589988582.0226638,-1.9875775198785415,-0.8229608090373381,8.825921618074677,0.3211111111111111,-0.3377777777777778,-0.6022222222222222,0.01816242656328258,0.05227179369694746,-0.4185898707426442
1589988582.0326638,-2.069863304611028,-0.8599316523055142,8.979726609222057,0.3211111111111111,-0.3377777777777778,-0.6022222222222222,0.014188255749359703,0.0360253742357797,-0.46135059301539605
1589988582.0426638,-2.122542663543584,-0.86,9.032542663543584,0.3211111111111111,-0.3377777777777778,-0.6022222222222222,0.011315042433069154,0.0379079209819729,-0.4891237458100537
1589988582.0526638,-2.2091057875248055,-0.8736423150099221,9.09452016120783,0.3411111111111111,-0.34444444444444444,-0.6233333333333333,0.0050586242631509,0.031337891776375144,-0.5244963047658942
1589988582.0626638,-2.2949121335488223,-0.907964853419529,8.948649372967001,0.3411111111111111,-0.34444444444444444,-0.6233333333333333,0.011610638513508747,0.0388259080624984,-0.5535123678746218
1589988582.0726638,-2.3084840665720554,-0.8930318668558895,8.829707134563282,0.3411111111111111,-0.34444444444444444,-0.6233333333333333,0.021253819585008035,0.045748184854155334,-0.5783695707345636
1589988582.0826638,-2.3285438312119684,-0.9085438312119682,8.800728084394017,0.3411111111111111,-0.34444444444444444,-0.6233333333333333,0.020884628241282222,0.048928541838490956,-0.6148687289114011
1589988582.0926638,-2.3362923133717475,-0.91,8.82516925348699,0.3411111111111111,-0.34444444444444444,-0.6233333333333333,0.016607475396022753,0.04634184556473391,-0.6359426155143386
1589988582.1026638,-2.406052055034616,-0.9512825343966348,8.889539041275961,0.34661544903066244,-0.34994878236399574,-0.6187463850670406,0.015982090544426647,0.04922728801228649,-0.6702794288560439
1589988582.1126637,-2.4283048585741476,-0.9766097171482948,8.883390282851705,0.3477777777777778,-0.3511111111111111,-0.6177777777777778,0.02723349618979837,0.05289597460792484,-0.6978722428077053
1589988582.1226637,-2.439162870464655,-0.9891628704646551,8.815859906747415,0.3477777777777778,-0.3511111111111111,-0.6177777777777778,0.028452917011516966,0.05145168011055166,-0.7264833627090138
1589988582.1326637,-2.485298497012696,-1.0262387976101568,8.891537294622854,0.3477777777777778,-0.3511111111111111,-0.6177777777777778,0.027373340446062402,0.05225730667617888,-0.7514049403810781
1589988582.1426637,-2.504938239987392,-1.0598764799747837,8.989629439924352,0.3477777777777778,-0.3511111111111111,-0.6177777777777778,0.03134454256605304,0.05235987755982988,-0.7725034265218027
1589988582.1526637,-2.490054839594187,-1.0766483868019376,9.033296773603874,0.3655068092496116,-0.34224659537519425,-0.6118681006204999,0.03054924398164465,0.055260783550828585,-0.7940829351552128
1589988582.1626637,-2.488138875626641,-1.112555502506565,9.04,0.3744444444444445,-0.3377777777777778,-0.6088888888888889,0.025901176700024165,0.0567232006898157,-0.8257315925197111
1589988582.1726637,-2.4726518316976,-1.0939777475463999,8.840496064522398,0.3744444444444445,-0.3377777777777778,-0.6088888888888889,0.026981499597837223,0.06240037549107193,-0.8558141470677431
1589988582.1826637,-2.444719373614191,-1.1089604697893571,8.822640313192904,0.3744444444444445,-0.3377777777777778,-0.6088888888888889,0.02313423674304646,0.0618893411116728,-0.8768102100212279
1589988582.1926637,-2.423922668154194,-1.132154663691612,8.866463991074836,0.3744444444444445,-0.3377777777777778,-0.6088888888888889,0.018736982671577286,0.05909772162394616,-0.9040817118670319
1589988582.2026637,-2.457663824099697,-1.17228327779974,8.884619453700044,0.38520553704435784,-0.32701668517786436,-0.6166607890999375,0.020974851838327403,0.06368329700295235,-0.929880190341127
1589988582.2126637,-2.4709201534807237,-1.1936400511602412,8.841840306961448,0.3944444444444444,-0.31777777777777777,-0.6233333333333333,0.030242142387482414,0.06664105090642326,-0.9612093915946193
1589988582.2226636,-2.5097297017130122,-1.2314414180941768,8.82,0.3944444444444444,-0.31777777777777777,-0.6233333333333333,0.029295196804646765,0.06906629291198205,-0.999957683411351
1589988582.2326636,-2.5523016453382086,-1.2642262340036563,8.876527879341864,0.3944444444444444,-0.31777777777777777,-0.6233333333333333,0.03364694470393799,0.07245584225928825,-1.028649140350863
1589988582.2426636,-2.56,-1.3123565832701543,8.925297152725129,0.3944444444444444,-0.31777777777777777,-0.6233333333333333,0.0410671003562144,0.07539585567088547,-1.0533591921701648
1589988582.2526636,-2.577568203936835,-1.3563523059052522,8.97513640787367,0.41103663705145504,-0.3002095738409429,-0.6360214806210474,0.04075864065273701,0.07635815477475191,-1.090124257840264
1589988582.2626636,-2.5676718317384757,-1.3723281682615243,8.992328168261524,0.4133333333333333,-0.2977777777777777,-0.6377777777777778,0.0383435471376489,0.07904774386104521,-1.1136027957195715
1589988582.2726636,-2.5812265467514344,-1.4012265467514342,8.90801829741045,0.4133333333333333,-0.2977777777777777,-0.6377777777777778,0.03863188464505049,0.07917783986456677,-1.1458046620585651
1589988582.2826636,-2.564605787686402,-1.4523236871893301,8.844605787686401,0.4133333333333333,-0.2977777777777777,-0.6377777777777778,0.03742318893727752,0.08315661442123205,-1.1771829582886866
1589988582.2926636,-2.546263729922093,-1.4668681350389534,8.853736270077906,0.4133333333333333,-0.2977777777777777,-0.6377777777777778,0.03334226004546299,0.0817463783165772,-1.1993504729288613
1589988582.3026636,-2.534723878448949,-1.4858283646531518,8.870552243102102,0.4203681620680675,-0.2977777777777777,-0.6301567133151491,0.031634092692397225,0.08072147790473774,-1.2219380657237744
1589988582.3126636,-2.537761908659355,-1.5310476346374202,8.825666639384515,0.4266666666666667,-0.2977777777777777,-0.6233333333333333,0.0367142500303274,0.0824148636840478,-1.256834460917019
1589988582.3226635,-2.524317316994518,-1.547841341502741,8.794317316994517,0.4266666666666667,-0.2977777777777777,-0.6233333333333333,0.03817907738737596,0.08546921247590775,-1.2837106301803127
1589988582.3326635,-2.551076908090205,-1.5810769080902052,8.85215381618041,0.4266666666666667,-0.2977777777777777,-0.6233333333333333,0.039026568586616184,0.0895655966141809,-1.3105492648918164
1589988582.3426635,-2.580038508557457,-1.6100385085574573,8.896718011409943,0.4266666666666667,-0.2977777777777777,-0.6233333333333333,0.04655611549313674,0.09053895494720583,-1.334848272781383
1589988582.3526635,-2.581613747097871,-1.7038625290212877,8.91838625290213,0.4443709783489385,-0.2698236014373485,-0.6429012567716338,0.05109301427638121,0.09602774463647122,-1.36036989310343
1589988582.3626635,-2.58,-1.7126569971626422,8.934686005674715,0.4477777777777778,-0.2644444444444444,-0.6466666666666666,0.05046804942423855,0.09548194493599482,-1.382762414594847
1589988582.3726635,-2.58,-1.7740610275970383,8.851916087054072,0.4477777777777778,-0.2644444444444444,-0.6466666666666666,0.04581073219101169,0.09402878131642661,-1.4106823391588463
1589988582.3826635,-2.572823951059754,-1.804352097880492,8.837176048940245,0.4477777777777778,-0.2644444444444444,-0.6466666666666666,0.04159292005006616,0.09694258932698376,-1.4292057093176262
1589988582.3926635,-2.57,-1.8477623219420853,8.852587440647362,0.4477777777777778,-0.2644444444444444,-0.6466666666666666,0.04310689249856672,0.0988613088112305,-1.4454270931676314
1589988582.4026635,-2.554199095022624,-1.9095022624434388,8.883701357466064,0.49430266465560585,-0.23372046254399198,-0.6633453996983408,0.04213864505126128,0.10012740688420861,-1.4656846623352813
1589988582.4126635,-2.55,-1.902244537815126,8.872244537815126,0.5066666666666667,-0.2255555555555556,-0.6677777777777778,0.04467960385298404,0.10035643198967394,-1.4764507390825874
1589988582.4226635,-2.529180160352146,-1.9455195723942775,8.7697806948593,0.5066666666666667,-0.2255555555555556,-0.6677777777777778,0.048419785112315566,0.10187049345464191,-1.4904325714199949
1589988582.4326634,-2.525909311096502,-2.017274488772015,8.771365177675513,0.5066666666666667,-0.2255555555555556,-0.6677777777777778,0.051021202746564145,0.10318269939940808,-1.4970165953991095
1589988582.4426634,-2.5441680216802167,-2.059445347786811,8.837781391147246,0.5066666666666667,-0.2255555555555556,-0.6677777777777778,0.0528750413656918,0.10362892433716332,-1.5049834608204737
1589988582.4526634,-2.541028616817069,-2.0747428457957326,8.889485691591466,0.5193142554552876,-0.21343494963312717,-0.6746285550382808,0.055002800999512116,0.10725047387059682,-1.5155130140735216
1589988582.4626634,-2.4792272778423796,-2.154749990622304,8.886409092614127,0.5333333333333333,-0.2,-0.6822222222222222,0.05301685565517341,0.10829966378692467,-1.5254574320729908
1589988582.4726634,-2.46,-2.2408504067162553,8.785563530384097,0.5333333333333333,-0.2,-0.6822222222222222,0.0520614637623128,0.10373174874473519,-1.5353856791423492
1589988582.4826634,-2.482720707708973,-2.2524264307636757,8.833309261599567,0.5333333333333333,-0.2,-0.6822222222222222,0.05153372931419482,0.11162572425665258,-1.5455067375307185
1589988582.4926634,-2.4474832916402196,-2.2742952619198746,8.85392618452003,0.5333333333333333,-0.2,-0.6822222222222222,0.04795629433095679,0.10857427775864992,-1.555839486233775
1589988582.5026634,-2.405005556949772,-2.334983329150683,8.872491664575342,0.5583240717503795,-0.1750092615829539,-0.6938845668168437,0.04663271286713007,0.10553757512193869,-1.5683392297729386
1589988582.5126634,-2.4,-2.35,8.863828488170402,0.5666666666666667,-0.16666666666666666,-0.6977777777777778,0.04778774279250918,0.11198471991828719,-1.5813805565368355
1589988582.5226634,-2.356668096790801,-2.3716659516045993,8.780558177449802,0.5666666666666667,-0.16666666666666666,-0.6977777777777778,0.0503599431240816,0.11580979007386893,-1.594915443424629
1589988582.5326633,-2.328789560173997,-2.4024208796520057,8.794841759304012,0.5666666666666667,-0.16666666666666666,-0.6977777777777778,0.050657612134957015,0.11488458979999154,-1.607718012133074
1589988582.5426633,-2.3238194361604836,-2.442916616962901,8.822361127679033,0.5666666666666667,-0.16666666666666666,-0.6977777777777778,0.05101148770196407,0.1142796730867585,-1.6210957317517718
1589988582.5526633,-2.322824614164381,-2.5015261575068575,8.831526157506858,0.5710516246773228,-0.1443432440669626,-0.6997709405098943,0.05314259073440813,0.11601941953191344,-1.637361842836746
1589988582.5626633,-2.2737769405210435,-2.556099137546203,8.845851293680695,0.5788888888888889,-0.10444444444444444,-0.7033333333333334,0.05541961086517492,0.11671889372712077,-1.651983876141585
1589988582.5726633,-2.22,-2.5926026379342373,8.800548021549321,0.5788888888888889,-0.10444444444444444,-0.7033333333333334,0.05431741524493405,0.11740626099708695,-1.6636215074318894
1589988582.5826633,-2.1941243808475512,-2.615687396807925,8.775687396807925,0.5788888888888889,-0.10444444444444444,-0.7033333333333334,0.04955781724380129,0.11937098732357446,-1.6789796047270928
1589988582.5926633,-2.1634167135094624,-2.627083567547311,8.80075042158516,0.5788888888888889,-0.10444444444444444,-0.7033333333333334,0.0490600991135091,0.1222276198372659,-1.6908968572648324
1589988582.6026633,-2.1581008422533605,-2.6917310873243725,8.848100842253361,0.5819738557120917,-0.09122315805928939,-0.7125882338029419,0.04777105481773531,0.12610370518439507,-1.7042736805666108
1589988582.6126633,-2.1217331007023668,-2.7445667248244083,8.807166375877959,0.5866666666666667,-0.07111111111111111,-0.7266666666666667,0.04858923281097498,0.12843445439528567,-1.714004259743767
1589988582.6226633,-2.0864066420327543,-2.75,8.718829889147392,0.5866666666666667,-0.07111111111111111,-0.7266666666666667,0.04799655442984406,0.1290249140204381,-1.7221574703072795
1589988582.6326632,-2.073061503643463,-2.763876992713074,8.717753985426148,0.5866666666666667,-0.07111111111111111,-0.7266666666666667,0.04799655442984406,0.13216843679805546,-1.7276309572908768
1589988582.6426632,-2.058370550606334,-2.781629449393666,8.764888348180998,0.5866666666666667,-0.07111111111111111,-0.7266666666666667,0.04609369022252974,0.1341721862470641,-1.7315039425333016
1589988582.6526632,-2.023975508142911,-2.8095183688928165,8.79,0.5910040819761815,-0.05448435242463775,-0.7591972814880276,0.04685318584359525,0.13630131000830464,-1.7304912817052143
1589988582.6626632,-2.002702108547655,-2.8637873487140695,8.826489457261724,0.5933333333333334,-0.045555555555555564,-0.7766666666666666,0.04401617210807625,0.13744467859455345,-1.7281707137925293
1589988582.6726632,-1.973553489783094,-2.906446510216906,8.767272096903508,0.5933333333333334,-0.045555555555555564,-0.7766666666666666,0.04254240051736178,0.14105076202382946,-1.7206637926158341
1589988582.6826632,-1.96,-2.9658543752178894,8.716898749937746,0.5933333333333334,-0.045555555555555564,-0.7766666666666666,0.04468608754592534,0.14361339484989022,-1.702676404792331
1589988582.6926632,-1.944098833918261,-3.011201554775652,8.741802332163479,0.5933333333333334,-0.045555555555555564,-0.7766666666666666,0.03829851757437975,0.139364201572319,-1.6870564779943693
1589988582.7026632,-1.9233411507191995,-3.0366588492808004,8.77,0.5992523104718227,-0.04814510805364464,-0.7785163470224445,0.028728621583796597,0.13671575258386084,-1.6729789111616153
1589988582.7126632,-1.9067769754487311,-3.05,8.763553950897462,0.6111111111111112,-0.05333333333333334,-0.7822222222222223,0.022204291553772404,0.13945055143988308,-1.65493469090519
1589988582.7226632,-1.888661477517548,-3.0504461741608173,8.726430606713462,0.6111111111111112,-0.05333333333333334,-0.7822222222222223,0.018446783200644943,0.13873018958063954,-1.6316109199720672
1589988582.7326632,-1.8309275653923542,-3.0260821596244134,8.65,0.6111111111111112,-0.05333333333333334,-0.7822222222222223,0.01689101351398243,0.14025607362435777,-1.586573866191226
1589988582.7426631,-1.8162063918028788,-3.0656298284134342,8.709423436610555,0.6111111111111112,-0.05333333333333334,-0.7822222222222223,0.012149763204409782,0.13626611652443488,-1.5555627511709773
1589988582.7526631,-1.8208910097796631,-3.1527724755508424,8.778217980440674,0.6222443213804119,-0.04321223308851446,-0.7882948823691136,0.0066421787844949155,0.12930119687167888,-1.5276273701448009
1589988582.7626631,-1.81,-3.1858018112370625,8.805801811237064,0.6355555555555555,-0.031111111111111114,-0.7955555555555556,0.011782948204103997,0.11774289163546786,-1.4864681921719227
1589988582.772663,-1.7937229088818627,-3.2171284851968958,8.723188847369935,0.6355555555555555,-0.031111111111111114,-0.7955555555555556,0.018729868676268694,0.11335352869271695,-1.4473576771517096
1589988582.782663,-1.7650952577319587,-3.2598729896907215,8.699682474226805,0.6355555555555555,-0.031111111111111114,-0.7955555555555556,0.02072578486743266,0.10585214992867278,-1.4078452805601025
1589988582.792663,-1.7577632918459163,-3.2916449377688743,8.769408229614791,0.6355555555555555,-0.031111111111111114,-0.7955555555555556,0.019455519209578262,0.09545480423361428,-1.3710233017833846
1589988582.802663,-1.7629799040191962,-3.302979904019196,8.7964899520096,0.6244404035859494,-0.04515130307271879,-0.7906804889022195,0.01783617935954032,0.08944812416470939,-1.337145174606391
1589988582.812663,-1.7190650005480652,-3.2918699989038696,8.763597500822097,0.5722222222222222,-0.1111111111111111,-0.7677777777777778,0.02142418918624904,0.0906409475655846,-1.2728353545156454
1589988582.822663,-1.6924814951036733,-3.3450370097926534,8.709123488575237,0.5722222222222222,-0.1111111111111111,-0.7677777777777778,0.020359483178528516,0.08525987759495965,-1.2233384625750194
1589988582.832663,-1.68,-3.3587387536307176,8.702522492738565,0.5722222222222222,-0.1111111111111111,-0.7677777777777778,0.02100094614021768,0.07949306648584878,-1.1735668984038632
1589988582.842663,-1.6751917948717947,-3.35,8.71038358974359,0.5722222222222222,-0.1111111111111111,-0.7677777777777778,0.025529915513627308,0.07749082870726413,-1.1240354477554875
1589988582.852663,-1.648300537061599,-3.35,8.7325491944076,0.5565503878778215,-0.07735639098470956,-0.7283972709636426,0.02638906350017045,0.07320209582317208,-1.0781375974373542
1589988582.862663,-1.600613112553144,-3.359386887446856,8.799386887446856,0.5288888888888889,-0.017777777777777778,-0.6588888888888889,0.02444337229925461,0.06763150851478028,-1.0199959806780077
1589988582.872663,-1.5789177246825954,-3.3478354493651907,8.704718384484654,0.5288888888888889,-0.017777777777777778,-0.6588888888888889,0.02738882748554752,0.06460928675069882,-0.9560210223962533
1589988582.882663,-1.60599193745419,-3.4139811873931105,8.673987906181285,0.5288888888888889,-0.017777777777777778,-0.6588888888888889,0.025089840903514713,0.062177354602297986,-0.8916532901608808
1589988582.892663,-1.6825842007558178,-3.5273645826427105,9.364912318504278,0.5288888888888889,-0.017777777777777778,-0.6588888888888889,0.02134307011813232,0.05644130811655604,-0.8348800282559551
1589988582.902663,-1.3680563504292318,-3.045505172793308,9.071534228483381,0.5331494117934796,0.018010614620784116,-0.6448291633037395,0.023399436807361798,0.0857316639288564,-0.7652803432100246
1589988582.912663,-1.125698282300224,-2.7628304705003734,8.230560119492157,0.54,0.07555555555555556,-0.6222222222222222,0.1162150260355793,0.12888748177652298,-0.6718690739487927
1589988582.922663,-1.5334627837504249,-3.4395404540006798,9.612401302255693,0.54,0.07555555555555556,-0.6222222222222222,0.13396037349740847,0.03804822374396824,-0.6383711189368986
1589988582.932663,-1.6052496735716553,-3.5539256096269893,10.852822105374598,0.54,0.07555555555555556,-0.6222222222222222,-0.05535112596135042,-0.1372102829762939,-0.6475784672116509
1589988582.942663,-1.2920319650778005,-3.0701196930226007,8.8038646764768,0.54,0.07555555555555556,-0.6222222222222222,-0.13403301949511848,0.0170143642708433,-0.5615952926273002
1589988582.952663,-1.5227336413772545,-3.495830600685646,9.104221940676704,0.5409688478163661,0.0774932511882877,-0.6214148490419171,0.11239711289329353,0.04765872857527081,-0.47996745475628755
1589988582.962663,-1.4302732116540076,-3.347893662850017,8.856269130484073,0.5666666666666667,0.1288888888888889,-0.6,0.0014390037864777175,0.017912824000246762,-0.41717964437467514
1589988582.972663,-1.3819527064474413,-3.319915547227574,8.791657121743949,0.5666666666666667,0.1288888888888889,-0.6,-0.015476347053610555,-0.005444020307261023,-0.3699981938386353
1589988582.982663,-1.3693366995639202,-3.3186733991278405,8.44830158365848,0.5666666666666667,0.1288888888888889,-0.6,0.03390638559621586,0.02215610762630396,-0.3193009664790458
1589988582.992663,-1.4701383377724628,-3.513702234059901,9.02588275262271,0.5666666666666667,0.1288888888888889,-0.6,0.03265305920852493,0.01398821342561757,-0.2869790376569186
1589988583.002663,-1.4215192931023803,-3.420839028015773,8.944195140078866,0.5595464899422617,0.14352480771127674,-0.607911307471561,0.008434756634851664,-0.0019763636849995676,-0.2551579473319009
1589988583.012663,-1.3660111317254175,-3.35,8.757532467532467,0.5466666666666666,0.17,-0.6222222222222222,0.029703382921522234,0.00808914775072047,-0.208385107943066
1589988583.0226629,-1.3431807391597883,-3.321967898599647,8.81377529019753,0.5466666666666666,0.17,-0.6222222222222222,0.020561056757019733,-0.0023139619467191304,-0.16608579883376742
1589988583.0326629,-1.408127766479244,-3.445838497427922,8.993345136978109,0.5466666666666666,0.17,-0.6222222222222222,0.01761202999617594,0.00013647455824079358,-0.12392205692845186
1589988583.0426629,-1.3956730343779458,-3.4408605067236104,8.815119947673189,0.5466666666666666,0.17,-0.6222222222222222,0.010106443008397505,-0.0008668978977882024,-0.0821301082942084
1589988583.0526628,-1.3774702559409222,-3.4074519519045667,8.577369583740966,0.5620786302128808,0.17999694932727406,-0.6201395244457069,0.009545518094580263,-0.006136047942831943,-0.03886596306930078
1589988583.0626628,-1.4628492639521058,-3.5520047566326323,8.954167384262107,0.5877777777777777,0.19666666666666666,-0.6166666666666667,0.00545415391248228,-0.006444252709815246,0.008398618723028288
1589988583.0726628,-1.3909688974143162,-3.460924465149054,8.630880032883791,0.5877777777777777,0.19666666666666666,-0.6166666666666667,0.00708797668209274,-0.00894287369316356,0.04568496851104718
1589988583.0826628,-1.4265168047294092,-3.5575280078823486,8.743595226799986,0.5877777777777777,0.19666666666666666,-0.6166666666666667,0.009682650787666969,-0.013715058459677644,0.08785480982320652
1589988583.0926628,-1.4122984168416273,-3.532851954831754,8.653236963059639,0.5877777777777777,0.19666666666666666,-0.6166666666666667,0.0051338620277845606,-0.01867407843084305,0.13344364523191438
1589988583.1026628,-1.4777488225614255,-3.6399526187368783,9.0042891391931,0.5877777777777777,0.19666666666666666,-0.6166666666666667,0.00448481368882058,-0.01672693341395111,0.16070367546840153
1589988583.1126628,-1.4844714731382418,-3.595176175620586,8.808942946276483,0.5822222222222222,0.20444444444444448,-0.6311111111111111,0.005077731798979417,-0.021440193536426257,0.21426009333214172
1589988583.1226628,-1.412223774617696,-3.6192587417941016,8.664447549235392,0.5822222222222222,0.20444444444444448,-0.6311111111111111,0.0033263981654075266,-0.019688859902854367,0.25191376645393737
1589988583.1326628,-1.4004314588951288,-3.6006471883426934,8.734027856807105,0.5822222222222222,0.20444444444444448,-0.6311111111111111,0.00038456096213786064,-0.027749460253386937,0.3148577899866267
1589988583.1426628,-1.3725461940252286,-3.5280812189029045,8.562103557198009,0.5822222222222222,0.20444444444444448,-0.6311111111111111,-0.0038038436178451165,-0.027339209695945818,0.34753226442542284
1589988583.1526628,-1.43,-3.55077791955153,8.739250318990942,0.5986170319083909,0.20521295114848362,-0.6359783202366924,-0.01997438552218216,-0.03608227368169453,0.3702036031743031
1589988583.1626627,-1.460906911987593,-3.539998590109619,8.717269394804553,0.6533333333333333,0.20777777777777776,-0.6522222222222223,-0.008131535800295213,-0.0331215612512228,0.40182205814465943
1589988583.1726627,-1.5583891585207466,-3.5883891585207466,8.84357748308155,0.6533333333333333,0.20777777777777776,-0.6522222222222223,-0.015620787776266923,-0.03490658503988659,0.43441536189075414
1589988583.1826627,-1.4682939850516075,-3.49317594020643,8.671942104638747,0.6533333333333333,0.20777777777777776,-0.6522222222222223,-0.016176364375336278,-0.03546487712621827,0.46047514567489345
1589988583.1926627,-1.457468143384542,-3.375191139692747,8.781329641538646,0.6533333333333333,0.20777777777777776,-0.6522222222222223,-0.016217420345442875,-0.04267354183865869,0.4976394192488566
1589988583.2026627,-1.4945088890201406,-3.336763333530211,8.783699722402693,0.7302640127576634,0.20335256170469682,-0.6675402778598101,-0.018632389687887756,-0.04505825021470417,0.528838641921
1589988583.2126627,-1.497950549967096,-3.3853003666447306,8.812288004136505,0.9044444444444444,0.19333333333333333,-0.7022222222222222,-0.019201318852841983,-0.04676117856998287,0.5696112065655081
1589988583.2226627,-1.4713031908739616,-3.397824467223546,8.754130319087396,0.9044444444444444,0.19333333333333333,-0.7022222222222222,-0.02020415891118693,-0.04889765027025694,0.6047467217192724
1589988583.2326627,-1.5116307985549324,-3.428566235953811,8.712240076242825,0.9044444444444444,0.19333333333333333,-0.7022222222222222,-0.02197301504557108,-0.05017821599483697,0.6347755603964981
1589988583.2426627,-1.488762751765629,-3.348762751765629,8.700102014125033,0.9044444444444444,0.19333333333333333,-0.7022222222222222,-0.02908511152831099,-0.04890372541279385,0.6620104501441681
1589988583.2526627,-1.5119376560645135,-3.373875312129027,8.83705984690327,1.0428792054980192,0.14015543911835204,-0.8245098494048512,-0.02417563936106293,-0.047505816769700955,0.6879328415573308
1589988583.2626626,-1.5281015873015873,-3.4035026455026456,8.71530299823633,1.6188888888888888,-0.0811111111111111,-1.3333333333333333,-0.02886326707302739,-0.05434515110669716,0.7105129187586386
1589988583.2726626,-1.5999391383822859,-3.5131710356860952,8.792866727597524,1.6188888888888888,-0.0811111111111111,-1.3333333333333333,-0.024004916187529556,-0.05309152406323254,0.7290607028771565
1589988583.2826626,-1.5896659296873104,-3.4575835175781724,8.693162613280206,1.6188888888888888,-0.0811111111111111,-1.3333333333333333,-0.023543965368823867,-0.0545415391248228,0.737101570208435
1589988583.2926626,-1.6052596391610954,-3.4205192783221907,8.810865463870318,1.6188888888888888,-0.0811111111111111,-1.3333333333333333,-0.016611567567298924,-0.054809526447292506,0.7379753465977789
1589988583.3026626,-1.5635233302657086,-3.3335233302657086,8.700518298055648,1.4722792017213508,-0.08933221506443098,-1.232331199049689,-0.019764945589748593,-0.05524803419624562,0.730347935860103
1589988583.3126626,-1.5799486988702003,-3.3499486988702003,8.889410037007304,0.7888013636788871,-0.12765807514157845,-0.7614706323875912,-0.015285621167840971,-0.05345630442748256,0.7178058274787616
1589988583.3226626,-1.5472793883402358,-3.265919082510354,8.804080917489646,0.7866666666666666,-0.12777777777777774,-0.76,-0.018692509649724236,-0.05718573518217085,0.6912204416061772
1589988583.3326626,-1.5873650844217904,-3.3260476266326857,8.743952373367314,0.7866666666666666,-0.12777777777777774,-0.76,-0.016506174088546363,-0.0557281781413856,0.6751873141575395
1589988583.3426626,-1.5927657184042059,-3.2076571840420574,8.720422902446263,0.7866666666666666,-0.12777777777777774,-0.76,-0.019147509456644663,-0.051384988303246795,0.6421053748120348
1589988583.3526626,-1.5975150224143961,-3.2824849775856038,8.8,0.7488397856413626,-0.07172772779137829,-0.751164524140075,-0.02072578486743266,-0.052101918085051366,0.6171784824774965
1589988583.3626626,-1.585821692686935,-3.29835661462613,8.779108463434676,0.6344444444444445,0.09777777777777777,-0.7244444444444444,-0.018902654373104157,-0.04609140995310107,0.5834667419416797
1589988583.3726625,-1.5914522272283897,-3.2985477727716104,8.73854777277161,0.6344444444444445,0.09777777777777777,-0.7244444444444444,-0.015113217538559692,-0.04591448076503215,0.5525579033442928
1589988583.3826625,-1.587677738927739,-3.249306891025641,8.714419434731935,0.6344444444444445,0.09777777777777777,-0.7244444444444444,-0.015220577722305133,-0.04193365527954816,0.5225854980532526
1589988583.3926625,-1.5318744025491238,-3.1737488050982474,8.701249601699415,0.6344444444444445,0.09777777777777777,-0.7244444444444444,-0.02011238806762046,-0.040088118152452334,0.49469262881921855
1589988583.4026625,-1.562066967762031,-3.2113972901417225,8.748937548668431,0.6326071397670837,0.10283036564051981,-0.7290377061378464,-0.012712077473965397,-0.035546473410132826,0.44161016038777007
1589988583.4126625,-1.539918743723181,-3.1663210992422166,8.833678900757782,0.6255555555555555,0.12222222222222222,-0.7466666666666667,-0.016353598052644306,-0.03258524574528067,0.3727315900457467
1589988583.4226625,-1.4960639402117502,-3.2676074320116255,8.771808179364749,0.6255555555555555,0.12222222222222222,-0.7466666666666667,-0.00892388803110605,-0.027897368851422754,0.31315505337953553
1589988583.4326625,-1.5016085737179488,-3.4013985710470087,8.728601428952992,0.6255555555555555,0.12222222222222222,-0.7466666666666667,-0.0036005209551932134,-0.02135893434505355,0.24819860135005414
1589988583.4426625,-1.4595983573717948,-3.4084002737713677,8.721599726228632,0.6255555555555555,0.12222222222222222,-0.7466666666666667,0.0002183154756168204,-0.01906763248656753,0.18556968388476963
1589988583.4526625,-1.4250940608687086,-3.3738205456515318,8.790188121737417,0.6239990369567834,0.11811867318909572,-0.7475156768114515,0.002181661564992912,-0.0051763159923073725,0.06409224449064964
1589988583.4626625,-1.4581428149315472,-3.39860711119866,8.856285629863095,0.6139008065486938,0.09149606574958687,-0.7530238024885912,0.002181661564992912,-0.0033737860795624163,-0.02963931097208808
1589988583.4726624,-1.344805424994857,-3.2003891500102863,8.734678662425422,0.6133333333333333,0.09,-0.7533333333333333,0.013826408345808944,0.014393048577568646,-0.19099314722302574
1589988583.4826624,-1.3315300131351977,-3.2269399737296047,8.542185190460364,0.6133333333333333,0.09,-0.7533333333333333,0.02685951346196016,0.028874276484403334,-0.2720880235013
1589988583.4926624,-0.09385306384343917,-2.7165193180255742,5.856114624868233,0.6133333333333333,0.09,-0.7533333333333333,-0.06440048663496041,0.16254503536258755,-0.49262846036129393
1589988583.5026624,3.4912866469573784,-1.0453670854890367,-1.7080493964030552,0.5957965152883852,0.10158091757685253,-0.7126346801346801,-0.5358432100413656,0.9792224538285477,-1.815282303183314
1589988583.5126624,1.87380182742867,-0.8244927161451598,-0.05462654081544695,0.5544444444444444,0.1288888888888889,-0.6166666666666667,-0.6779775419137912,0.3130845370479509,-5.399815311512471
1589988583.5226624,-0.17232458890394609,-1.3140901276268684,0.1703365627717886,0.5544444444444444,0.1288888888888889,-0.6166666666666667,-0.19523132953246952,-1.690661400573441,-6.544037297600033
1589988583.5326624,0.09962540782212914,-1.6198231763805535,0.4516441777097515,0.5544444444444444,0.1288888888888889,-0.6166666666666667,-0.2818202869275242,-0.7142319888017773,-6.33853393015037
1589988583.5426624,-0.07776271800861967,-0.8595883513916301,-0.12275546783743507,0.5544444444444444,0.1288888888888889,-0.6166666666666667,-0.1694057525043083,-0.36869551004189244,-6.056576163482304
1589988583.5526624,-0.05266865329512894,-0.764887564469914,-0.11244378223495702,0.5517857752308182,0.1448409041706463,-0.6211444253422477,-0.19502484094804173,-0.3375589796565054,-5.730680353503153
1589988583.5626624,0.3457908082408875,-1.0659689381933437,1.2062364500792393,0.5333333333333333,0.25555555555555554,-0.6522222222222223,-0.2356054808532716,-0.28112579754484635,-5.439366949226507
1589988583.5726624,3.839874561574435,-0.9060824240062351,10.035950165627435,0.5333333333333333,0.25555555555555554,-0.6522222222222223,0.4298365081501157,0.5609431240619196,-5.077522904244743
1589988583.5826623,1.1807092593882809,3.8233637567059153,10.477151118233122,0.5333333333333333,0.25555555555555554,-0.6522222222222223,1.8235949103014173,2.6246308482544434,-4.782782918612555
1589988583.5926623,-1.352056607813747,1.0597029452414786,8.77402581222869,0.5333333333333333,0.25555555555555554,-0.6522222222222223,1.160928896577131,2.945640705070179,-4.287196366132736
1589988583.6026623,0.29116790862873465,-0.7805390347517237,1.5435065115955153,0.5197841075283794,0.27332791667633927,-0.6476471589634066,-0.9202826297069602,0.8057826220788126,-3.535931893836752
1589988583.6126623,1.8342428302281768,-0.9661285325518106,13.670003349382458,0.4477777777777778,0.36777777777777776,-0.6233333333333333,0.012700220597919532,0.03378985930015019,-3.031003831530271
1589988583.6226623,0.6150227500758336,0.3957481858272861,4.649050796835989,0.4477777777777778,0.36777777777777776,-0.6233333333333333,1.091318992712735,0.4443254349259884,-2.701080633982795
1589988583.6326623,0.10157854940964339,0.22986603074894818,1.880479846449136,0.4477777777777778,0.36777777777777776,-0.6233333333333333,1.1390255852008908,0.25272118605928406,-2.456748895523009
1589988583.6426623,1.2032550882773336,-0.954122964185775,6.696420791979546,0.4477777777777778,0.36777777777777776,-0.6233333333333333,0.10908742637629255,-0.428969704812091,-2.2117345264974024
1589988583.6526623,1.0006033458820687,-2.2798031123548004,11.095652366476758,0.4477777777777778,0.36777777777777776,-0.6233333333333333,-0.742909872900582,-0.2733074955388025,-1.935411078083281
1589988583.6626623,0.1426476444413664,-2.1071019962948214,9.558246792596568,0.43,0.41,-0.6488888888888888,-0.2867986713388995,0.6060589309102052,-1.5785316555329805
1589988583.6726623,0.8397974271516873,-2.441152933843517,8.657761656595737,0.43,0.41,-0.6488888888888888,0.4190148148122462,0.4056427558302503,-1.4850569177486537
1589988583.6826622,0.33596240294237845,-2.996709514433258,11.064170970018948,0.43,0.41,-0.6488888888888888,0.10959957854027672,0.04167450171593726,-1.309227935594931
1589988583.6926622,0.4164699512723335,-2.6209542501353544,8.614920140768815,0.43,0.41,-0.6488888888888888,-0.28263590941358707,0.2049071290089062,-1.1453639056285063
1589988583.7026622,0.25050233208955225,-2.3814603544776123,7.728907182835821,0.424723517827529,0.41723631840796016,-0.6478335924543946,0.09023729749807237,0.06035214641707047,-1.0265316500899393
1589988583.7126622,0.19846171626697487,-3.3719222767986134,11.657172493498988,0.3911111111111111,0.4633333333333333,-0.6411111111111111,0.02534068301347994,0.1018806008949252,-0.8648605055101971
1589988583.7226622,0.2589316270566728,-3.071524192565509,9.33227909811091,0.3911111111111111,0.4633333333333333,-0.6411111111111111,0.004072753994309494,0.04667264082859406,-0.6681276190610782
1589988583.7326622,0.25605233764161484,-2.8531243018988355,8.465359821286102,0.3911111111111111,0.4633333333333333,-0.6411111111111111,0.04073009317615337,0.04637101291432876,-0.4813930061218415
1589988583.7426622,0.18798262703533578,-2.687953672094229,8.005892866717904,0.3911111111111111,0.4633333333333333,-0.6411111111111111,-0.012228675342743696,0.028570606868498303,-0.3193444013598477
1589988583.7526622,0.1430027346333268,-2.568007292355538,7.728516863572182,0.3911111111111111,0.4633333333333333,-0.6411111111111111,-0.0416679460780376,0.004855638776178214,-0.18768544057144995
1589988583.7626622,0.1045029161657985,-3.13290058323316,9.412982503005209,0.3533333333333333,0.4922222222222222,-0.6533333333333333,0.00971796623380708,-0.008127007433940583,0.07567172931373928
1589988583.7726622,0.13761077303413521,-3.0922154606827044,8.937185033754872,0.3533333333333333,0.4922222222222222,-0.6533333333333333,-0.001071875821433299,-0.01695099901685927,0.26325414864802266
1589988583.7826622,0.12071624983632318,-2.9771350006547075,8.242969752520622,0.3533333333333333,0.4922222222222222,-0.6533333333333333,0.007248161327456154,-0.03515540358422453,0.43948882333803363
1589988583.7926621,0.08148712097121158,-3.1340515161151536,8.847098337043342,0.3533333333333333,0.4922222222222222,-0.6533333333333333,-0.03126494587546942,-0.045425565505004685,0.5772801624418341
1589988583.8026621,0.08,-3.0456968300866345,8.526467023887024,0.3533333333333333,0.4922222222222222,-0.6533333333333333,-0.022438043412044383,-0.04801922430689028,0.7052114214599526
1589988583.8126621,0.08750981115620703,-3.1501962231241407,8.765529802435179,0.36251199141314194,0.4972287629930269,-0.6591742975659388,-0.009261359340017372,-0.06629044489018493,1.0341869801495784
1589988583.822662,0.0742357400557154,-3.215764259944285,8.766003790473581,0.3655555555555556,0.4988888888888889,-0.6611111111111111,-0.006544984694978735,-0.07199483164476607,1.1235557059713497
1589988583.832662,0.02,-3.3090960561591647,8.833961126005363,0.3655555555555556,0.4988888888888889,-0.6611111111111111,-0.04515203654132625,-0.10167802727769569,1.4343691938401395
1589988583.842662,0.02,-3.2425151686185973,8.552841823056301,0.3655555555555556,0.4988888888888889,-0.6611111111111111,-0.06774756416738394,-0.10974785857271631,1.5271722537328765
1589988583.852662,-3.4295397471423623,-12.126159291652234,5.984011300658123,0.36591983219797564,0.4991165617904014,-0.6628414251626064,-0.324029593096183,-0.2128715465071099,2.7782558167793336
1589988583.862662,8.102242812608242,-7.8312512989262215,7.845440768964323,0.37399107108494023,0.5041610860947543,-0.701179809875688,-0.615233662199343,-0.7239644024840846,6.329162577782151
1589988583.872662,5.710978375961787,-15.306759335513778,9.00377879479517,0.3744444444444445,0.5044444444444445,-0.7033333333333334,0.03460490548031875,-0.41953497171225584,2.516808857109833
1589988583.882662,1.0132518412197937,-6.153101014141511,12.749130097178757,0.3744444444444445,0.5044444444444445,-0.7033333333333334,0.6358635612716075,0.11120901630046642,0.6414416621439867
1589988583.892662,-2.189805001953888,0.6771916764361079,13.884021492770612,0.3744444444444445,0.5044444444444445,-0.7033333333333334,0.8997834294892518,0.3702173747129646,-0.7715358738778594
1589988583.902662,-0.783475149874299,0.17486237349319925,7.13703796815574,0.3764888946188502,0.5026555505418395,-0.7029180543916572,0.10188899544642055,-0.19841799171624247,-0.7311252359911284
1589988583.912662,-2.302125244774807,-1.4302273908004637,11.744122807017543,0.4455555555555555,0.44222222222222224,-0.6888888888888889,-0.4389148569468162,0.17039990455212023,-0.6121871343428833
1589988583.922662,-1.3657474396855906,-1.7697355058951776,8.538839611004333,0.4455555555555555,0.44222222222222224,-0.6888888888888889,-0.07801413096967803,-0.06687388195994445,-0.4100069885272971
1589988583.932662,-1.2443474050200836,-2.4125911696064266,9.582720720148602,0.4455555555555555,0.44222222222222224,-0.6888888888888889,0.01475081627696896,0.02784078566692643,-0.16815857818683214
1589988583.942662,-0.9113977487418039,-2.306047279597377,8.776982551955165,0.4455555555555555,0.44222222222222224,-0.6888888888888889,-0.03391687609108593,-0.020826906701128453,-0.08825639668704052
1589988583.952662,-0.6595105538872937,-2.320444951011551,8.668709642066501,0.4454715092533736,0.4423013246242758,-0.6888888888888889,-0.03257931359686279,-0.01734165828011961,0.045389013858695766
1589988583.962662,-0.5583832715954672,-2.4123788440041207,8.402101352388051,0.4281062183547772,0.4586451278229548,-0.6888888888888889,-0.0024940174675537607,0.005723735419017308,0.18277853284920698
1589988583.972662,1.2075112392494136,-15.95377638780297,5.917604573885848,0.4266666666666667,0.46,-0.6888888888888889,-0.24605099812065287,-0.08155767134126148,0.5570931015123322
1589988583.982662,-0.884923941964958,1.5714851816523587,12.415380290175209,0.4266666666666667,0.46,-0.6888888888888889,0.18930150019936487,-0.013872719928864186,0.22939891880369903
1589988583.992662,-1.47451378081229,0.20981341098114026,9.46743109593855,0.4266666666666667,0.46,-0.6888888888888889,0.46493410531156243,0.2655881158098916,0.23093021105432235
1589988584.002662,0.12583410941208295,-4.136702015801965,9.474789557484904,0.4266666666666667,0.46,-0.6888888888888889,-0.14396436448326888,-0.1336792200001481,0.18906007651618362
1589988584.012662,0.81411241867245,-6.303454687666655,10.020771500693284,0.44230541630619846,0.4649385525177469,-0.6732501392493571,-0.3385319084694265,-0.21744348643845857,-0.028656772709027056
1589988584.022662,-0.2069013272891416,-4.247321027256487,9.217437813334357,0.4477777777777778,0.4666666666666667,-0.6677777777777778,0.08503901887034418,0.12607375090353293,-0.5701753495796348
1589988584.032662,-2.5996849849215344,-6.342013791513802,7.581966155087302,0.4477777777777778,0.4666666666666667,-0.6677777777777778,0.11755569111788469,0.07773815702205378,-0.3223455773145962
1589988584.042662,0.3045486341211987,-4.4253041013180185,9.105995508430896,0.4477777777777778,0.4666666666666667,-0.6677777777777778,-0.040527644656369134,-0.04161847543886559,0.1757836738147805
1589988584.052662,-0.3980529784257418,-4.556559347617996,8.773996944260364,0.4477777777777778,0.4666666666666667,-0.6677777777777778,-0.001785561719334916,-0.0028763925018313735,-0.004451233761856993
1589988584.062662,-0.08839312393440317,-4.580717487212838,8.410975339672719,0.44222222222222224,0.4666666666666667,-0.7177777777777777,-0.018972954991422854,-0.0049283049496793374,-0.01103508217565562
1589988584.0726619,-0.07364860351888633,-4.403783242226636,8.7869606102684,0.44222222222222224,0.4666666666666667,-0.7177777777777777,-0.0028891782490296433,-0.00010317192696137397,-0.002189004967339354
1589988584.0826619,-0.07131426964590859,-4.493942808937726,8.574971123272263,0.44222222222222224,0.4666666666666667,-0.7177777777777777,-0.00350313565823114,-0.0020382969863671314,-0.0008041016252448946
1589988584.0926619,-0.07963536993229464,-4.521093890203115,8.73453054898442,0.44222222222222224,0.4666666666666667,-0.7177777777777777,0.002181661564992912,-0.001090830782496456,0.001090830782496456
1589988584.1026618,-0.07108185822660903,-4.546754425320173,8.606227873399135,0.44222222222222224,0.4666666666666667,-0.7177777777777777,0.002181661564992912,-0.001090830782496456,0.001090830782496456
1589988584.1126618,-0.07,-4.52724818878079,8.688591181949906,0.437166264173509,0.4573974102440258,-0.6908126681846408,0.004663499168539082,0.00221828602223177,0.001090830782496456
1589988584.1226618,-0.06441257360134374,-4.575874263986562,8.658538309614782,0.4355555555555555,0.4544444444444444,-0.6822222222222222,0.0017971918861297447,0.003272492347489368,-0.0007376502306798119
1589988584.1326618,-0.09237078248384781,-4.4710944005743,8.648844938980616,0.4355555555555555,0.4544444444444444,-0.6822222222222222,0.0031464947359289373,0.0025662714277518025,-6.2998805780215e-05
1589988584.1426618,-0.0849595587518759,-4.496421875304527,8.626179227815783,0.4355555555555555,0.4544444444444444,-0.6822222222222222,0.002722665500407504,0.0008159173589555241,0.001090830782496456
1589988584.1526618,-0.08459244532803181,-4.494333996023856,8.680258449304176,0.4355555555555555,0.4544444444444444,-0.6822222222222222,0.00029493635471077137,-0.0007958944277856846,-0.0005009580730749132
1589988584.1626618,-0.07054551435869649,-4.52836345692391,8.716484828547102,0.43051180001892125,0.45804712697061173,-0.6865454412536229,-0.003536925299194862,-0.001090830782496456,-0.0003834457226574836
1589988584.1726618,-0.07699399656946826,-4.500521012006861,8.753987993138937,0.42777777777777776,0.46,-0.6888888888888889,-0.00545415391248228,-0.0029445882400579724,0.000926878728780758
1589988584.1826618,-0.06519943522767384,-4.519601129544653,8.648995764207553,0.42777777777777776,0.46,-0.6888888888888889,-0.0046469083298829785,-4.35100170921637e-05,-0.0005236603827021462
1589988584.1926618,-0.08,-4.5180355626026385,8.651309624931574,0.42777777777777776,0.46,-0.6888888888888889,0.003201063388045077,0.000947972863607874,-7.142895944429102e-05
1589988584.2026618,-0.08,-4.49428393453763,8.66714404364158,0.42777777777777776,0.46,-0.6888888888888889,0.002337429820454446,-0.0007792942715733877,-0.0009350625270349218
1589988584.2126617,-0.07,-4.578798721612527,8.778798721612526,0.44222222222222224,0.4544444444444444,-0.7055555555555556,0.00431964341520571,-0.001047151067716342,2.1839857390057052e-05
1589988584.2226617,-0.07,-4.536243637654937,8.736243637654937,0.44222222222222224,0.4544444444444444,-0.7055555555555556,0.002772296897450367,0.000500195450039001,0.0007955131162677285
1589988584.2326617,-0.07,-4.529071068317286,8.610464465841357,0.44222222222222224,0.4544444444444444,-0.7055555555555556,-0.0009895000550623515,0.003272492347489368,5.066536371705226e-05
1589988584.2426617,-0.07,-4.490608895002293,8.629695552498854,0.44222222222222224,0.4544444444444444,-0.7055555555555556,0.0032060722063084746,0.003272492347489368,0.002148451494402465
1589988584.2526617,-0.07,-4.5138565566664735,8.661808742221966,0.44222222222222224,0.4544444444444444,-0.7055555555555556,0.001537594589078641,-0.0019322009277428116,0.00044676380658218513
1589988584.2626617,-0.07,-4.461319910048723,8.715640069962104,0.44222222222222224,0.4580666722192146,-0.6903421989015209,-0.0031765057800710933,-0.0046949378683452175,-0.0014224455208558498
1589988584.2726617,-0.07003580489886894,-4.559856780404524,8.729391316719228,0.44222222222222224,0.46,-0.6822222222222222,-0.007624098351720066,-0.0010791136567413308,0.003260775221734243
1589988584.2826617,-0.07998126763569108,-4.520074929457235,8.560318450193252,0.44222222222222224,0.46,-0.6822222222222222,-0.004369453281870956,0.0021755314131077803,6.130151885131666e-06
1589988584.2926617,-0.050330621132248454,-4.598677515471006,8.630881656352663,0.44222222222222224,0.46,-0.6822222222222222,-0.0010427438880430634,-0.0010788090588831078,0.0
1589988584.3026617,-0.0743639697455879,-4.502544121017649,8.694970585988235,0.44222222222222224,0.46,-0.6822222222222222,0.0024527649751434942,-0.00020493184308646847,0.0
1589988584.3126616,-0.08,-4.519556472726152,8.769334709089229,0.44222222222222224,0.46,-0.6976052949490594,0.00435122779990609,0.0021574709048334437,-0.0010787354524167219
1589988584.3226616,-0.07010423359748698,-4.539791532805026,8.700729635182409,0.44222222222222224,0.46,-0.6977777777777778,0.004363323129985824,0.0011022009041673692,-1.1370121670913275e-05
1589988584.3326616,-0.07,-4.556207825679475,8.610856958762886,0.44222222222222224,0.46,-0.6977777777777778,0.0017113238547096167,0.001974830540921858,0.0017679995168508045
1589988584.3426616,-0.08983019564414912,-4.520339608711701,8.659405684754523,0.44222222222222224,0.46,-0.6977777777777778,0.001090830782496456,1.85227818364107e-05,0.0011000921734146613
1589988584.3526616,-0.08267393406593407,-4.490695736263737,8.689304263736263,0.44222222222222224,0.46,-0.6977777777777778,0.0002916809589486787,-0.0015982996470955545,0.0018899806060442333
1589988584.3626616,-0.07101465349196748,-4.4979706930160654,8.744926732540163,0.45320431239870634,0.46,-0.683800572098616,0.0,-0.0012015123087570194,0.0012015123087570194
1589988584.3726616,-0.07599070397389726,-4.494009296026102,8.714055776156616,0.4544444444444444,0.46,-0.6822222222222222,-0.0026139377214203863,0.0002161380782137372,-0.0015231069389239303
1589988584.3826616,-0.08,-4.531659239842726,8.624535480247145,0.4544444444444444,0.46,-0.6822222222222222,-0.003714134827187989,0.001090830782496456,-0.003272492347489368
1589988584.3926616,-0.07328103079878273,-4.526405153993913,8.620313815207304,0.4544444444444444,0.46,-0.6822222222222222,-0.005471269876889396,0.001090830782496456,-0.0010737148180893397
1589988584.4026616,-0.07664818636103722,-4.523296372722075,8.679889118166223,0.4544444444444444,0.46,-0.6822222222222222,-0.0014685522637039898,-0.00035957848358204284,0.0
1589988584.4126616,-0.07413489675637802,-4.518269793512756,8.705865103243623,0.447275984924462,0.4528315404800176,-0.6822222222222222,0.0036499648467615206,0.00018873624963607646,0.0
1589988584.4226615,-0.061363492815411334,-4.527273014369178,8.735909521553767,0.44222222222222224,0.4477777777777778,-0.6822222222222222,0.004512057123462168,-0.0007933627955437671,0.002826290367060335
1589988584.4326615,-0.08749869016432484,-4.520833769945225,8.6300052393427,0.44222222222222224,0.4477777777777778,-0.6822222222222222,0.0023635619493472862,-9.095019217718716e-05,0.0002728505765315619
1589988584.4426615,-0.09914153904689432,-4.52,8.656566156187578,0.44222222222222224,0.4477777777777778,-0.6822222222222222,0.0031788487841674764,0.001994374438349128,0.000997187219174564
1589988584.4526615,-0.1,-4.527446481992308,8.682339445976922,0.44222222222222224,0.4477777777777778,-0.6822222222222222,0.004084777525340812,0.0005570912092900235,0.00027854560464501174
1589988584.4626615,-0.07252099236641221,-4.48420165394402,8.708319338422392,0.4361157760814249,0.4477777777777778,-0.6883286683630195,0.0003666634767628043,-0.000999164913305755,0.00199832982661151
1589988584.4726615,-0.07,-4.503095592556317,8.663808814887366,0.4355555555555555,0.4477777777777778,-0.6888888888888889,-0.0016795588866951308,-0.0002510513391488906,-0.00033767676504978467
1589988584.4826615,-0.07,-4.501993529910903,8.633987059821807,0.4355555555555555,0.4477777777777778,-0.6888888888888889,-0.0013082911617605724,0.0,0.0006559100239682232
1589988584.4926615,-0.06339543004048118,-4.526418279838075,8.63,0.4355555555555555,0.4477777777777778,-0.6888888888888889,-0.00325217124759481,0.0007204468216994512,0.001090830782496456
1589988584.5026615,-0.06,-4.527852293509031,8.642147706490968,0.4355555555555555,0.4477777777777778,-0.6888888888888889,-0.004363323129985824,0.003078494609058566,-0.00023427843521161705
1589988584.5126615,-0.08563524590163935,-4.52,8.684180327868852,0.44125227686703095,0.45347449908925314,-0.6888888888888889,-0.0006348277504692494,0.0034311992851066802,-0.00015870693761731234
1589988584.5226614,-0.0838741478248075,-4.501622443474423,8.71450340870077,0.44222222222222224,0.4544444444444444,-0.6888888888888889,0.0020046804365168574,0.0019360387231447962,0.0
1589988584.5326614,-0.08,-4.511310441485634,8.651861714552675,0.44222222222222224,0.4544444444444444,-0.6888888888888889,0.004047361866193345,0.002640569819904409,0.0015497390374079527
1589988584.5426614,-0.08,-4.487158766419189,8.661051541976013,0.44222222222222224,0.4544444444444444,-0.6888888888888889,0.004363323129985824,0.0023768866343617454,0.0003904501387376664
1589988584.5526614,-0.07324701312459538,-4.507011947501618,8.690258960626213,0.44222222222222224,0.4544444444444444,-0.6888888888888889,0.0006801401512428612,0.0014450249692443194,-0.001473273191497185
1589988584.5626614,-0.08051493881607553,-4.504227591775886,8.710514938816075,0.4387172426168637,0.44801864850128714,-0.6818789296781719,0.0012031730048319503,0.001090830782496456,-0.0016081606181608103
1589988584.5726614,-0.07647629195524774,-4.503523708044752,8.72,0.4355555555555555,0.44222222222222224,-0.6755555555555556,0.00032207694174722244,-0.00038437692037461687,-0.001090830782496456
1589988584.5826614,-0.07,-4.504134024303074,8.667206218727664,0.4355555555555555,0.44222222222222224,-0.6755555555555556,-0.0017307094684547953,0.00018892658942022255,0.00018892658942022255
1589988584.5926614,-0.07,-4.513490890833452,8.65023633625018,0.4355555555555555,0.44222222222222224,-0.6755555555555556,-0.002181661564992912,0.001090830782496456,-0.001116611068167994
1589988584.6026614,-0.0834396467124632,-4.533439646712463,8.686879293424926,0.4355555555555555,0.44222222222222224,-0.6755555555555556,-0.0014486425480013043,-0.0011082262684783673,-0.0007156235310096966
1589988584.6126614,-0.074099336935167,-4.532049668467583,8.715900663064833,0.42407174334206504,0.45635614494651827,-0.6755555555555556,0.0015109091274871868,-0.00044716829167048373,0.0008672466366612141
1589988584.6226614,-0.06305349826662465,-4.523053498266624,8.706106996533249,0.4211111111111111,0.46,-0.6755555555555556,0.003697153149279077,0.0007577457921430826,0.0003330849903533734
1589988584.6326613,-0.07442852855310905,-4.52,8.635071621511008,0.4211111111111111,0.46,-0.6755555555555556,0.004363323129985824,0.0018777849370894763,0.0007869541545930204
1589988584.6426613,-0.07324240294725186,-4.5335151941054965,8.630272791158244,0.4211111111111111,0.46,-0.6755555555555556,0.003626183641901324,0.0007073825888239118,0.0003536912944119559
1589988584.6526613,-0.07,-4.524200784530169,8.671598430939662,0.4211111111111111,0.46,-0.6755555555555556,0.0015490652901107742,0.0011489513715857293,0.0011489513715857293
1589988584.6626613,-0.07,-4.51,8.7,0.4211111111111111,0.4564517827174567,-0.6932966419682721,0.0006966908342611484,0.0014849707307317637,0.0014849707307317637
1589988584.6726613,-0.07566592427616926,-4.515665924276169,8.7,0.4211111111111111,0.4544444444444444,-0.7033333333333334,0.00047277432132251745,0.0017088872436703945,0.0029450001660182717
1589988584.6826613,-0.08,-4.5074327698123975,8.64973107924959,0.4211111111111111,0.4544444444444444,-0.7033333333333334,0.0013708721539355561,0.00012535333408957754,0.0023070148990824895
1589988584.6926613,-0.07232830372353372,-4.5,8.666030177658797,0.4211111111111111,0.4544444444444444,-0.7033333333333334,-0.002002599661173526,0.0014197259532034063,0.0002539785372631686
1589988584.7026613,-0.07653717239429794,-4.519611517182894,8.693074344788595,0.4211111111111111,0.4544444444444444,-0.7033333333333334,-0.0018463025718521164,0.0014685666771742862,0.0007130948878186257
1589988584.7126613,-0.08,-4.5238481961193,8.7,0.43751592145964635,0.46196331585418976,-0.6944473943945434,0.000251284625693442,-0.0009223423297883909,0.0017618884865914048
1589988584.7226613,-0.0729137066723856,-4.505827413344771,8.678741120017156,0.4477777777777778,0.4666666666666667,-0.6888888888888889,0.002636820161608663,-0.0014086668754368088,0.0014086668754368088
1589988584.7326612,-0.07,-4.511321455896819,8.636035632309541,0.4477777777777778,0.4666666666666667,-0.6888888888888889,0.0026550027177430413,0.00014414847699619794,0.001708320412242783
1589988584.7426612,-0.07701083172147002,-4.51298916827853,8.64505415860735,0.4477777777777778,0.4666666666666667,-0.6888888888888889,0.003711187775529335,0.0018555938877646676,0.0014168984597247004
1589988584.7526612,-0.0694957557523754,-4.504747877876188,8.675756366371436,0.4477777777777778,0.4666666666666667,-0.6888888888888889,0.0032174878327688,0.0010358262677758877,-5.500451472056824e-05
1589988584.7626612,-0.06432097312144398,-4.504320973121444,8.707283892485776,0.44537723715475336,0.46378601791903734,-0.6989711595055915,0.0007676264176296424,0.00047134504912108976,-0.0006194857333753662
1589988584.7726612,-0.07,-4.522510246834867,8.7112346297477,0.44222222222222224,0.46,-0.7122222222222222,-0.001090830782496456,0.0004085026652913907,-0.0006823281172050653
1589988584.7826612,-0.07735334833016093,-4.5152933033396785,8.633819865028551,0.44222222222222224,0.46,-0.7122222222222222,-0.0026950825250881467,0.0,0.0005134209600952345
1589988584.7926612,-0.07224473372781065,-4.517755266272189,8.656531597633135,0.44222222222222224,0.46,-0.7122222222222222,-0.0015805557122572317,-0.002537904952848204,0.001090830782496456
1589988584.8026612,-0.07848457124933018,-4.52,8.691211428123326,0.44222222222222224,0.46,-0.7122222222222222,-0.0015535923572491447,-0.0023469691979839907,0.001090830782496456
1589988584.8126612,-0.0894481983453792,-4.52,8.71862049586345,0.44222222222222224,0.46,-0.7122222222222222,-0.0021515654534582703,-0.0011510230055657386,0.001090830782496456
1589988584.8226612,-0.05649551191663514,-4.516495511916635,8.715498503972212,0.4477777777777778,0.4533333333333333,-0.7033333333333334,-0.002181661564992912,-0.002181661564992912,-0.0011995874781135151
1589988584.8326612,-0.07,-4.52413023577517,8.661302357751694,0.4477777777777778,0.4533333333333333,-0.7033333333333334,0.00037950623598377413,-0.0015413696147487405,-0.002181661564992912
1589988584.8426611,-0.08355762303041694,-4.513221188484791,8.647115246060833,0.4477777777777778,0.4533333333333333,-0.7033333333333334,0.0036605688188990804,-0.00035137715554337174,-0.0007027543110867435
1589988584.8526611,-0.07772535183964642,-4.51,8.67841197224053,0.4477777777777778,0.4533333333333333,-0.7033333333333334,0.0030243667242231057,0.0013389564057627184,0.0006694782028813592
