time,acc_x,acc_y,acc_z,mag_x,mag_y,mag_z,gyr_x,gyr_y,gyr_z
1589985607.9762175,-3.71,-0.57,8.88,0.3388888888888889,-0.38333333333333336,-0.5777777777777777,-0.002181661564992912,-0.002181661564992912,0.002181661564992912
1589985607.9862175,-3.71,-0.57,8.960826709062003,0.3388888888888889,-0.38333333333333336,-0.5777777777777777,-0.005855339160522843,-0.001446926045886926,-2.254499232504613e-05
1589985607.9962175,-3.71,-0.5986816905146294,9.004780281752438,0.3319840374687003,-0.36474334874051795,-0.5809646322794032,-0.007635815477475192,-0.002133726479409604,0.0004735127628732656
1589985608.0062175,-3.704011297590283,-0.6359887024097173,8.986045190361132,0.3244444444444444,-0.34444444444444444,-0.5844444444444444,-0.00436948500961006,-0.0026192262539163416,0.0015283954714198859
1589985608.0162175,-3.7058910694422376,-0.6458910694422374,8.934653583346575,0.3244444444444444,-0.34444444444444444,-0.5844444444444444,0.00038880239077380453,-0.001539045576051233,0.001090830782496456
1589985608.0262175,-3.7030718336483934,-0.6292155009451796,8.91,0.3244444444444444,-0.34444444444444444,-0.5844444444444444,0.0036931529895106855,-0.001090830782496456,0.001090830782496456
1589985608.0362175,-3.7119494359313565,-0.6140252820343218,8.97572189762246,0.3244444444444444,-0.34444444444444444,-0.5844444444444444,0.003059841875246554,-0.003046052664605361,0.001090830782496456
1589985608.0462174,-3.7138729013119667,-0.6038729013119667,9.044508394752134,0.3244444444444444,-0.35193312061870735,-0.5803597119857555,0.0035183871362529807,-0.0050316859156158585,0.0004224679968664216
1589985608.0562174,-3.703622244488978,-0.5872444889779559,9.05362224448898,0.3244444444444444,-0.3566666666666667,-0.5777777777777777,0.003667617926519898,-0.006149859115948206,-0.000695705203465926
1589985608.0662174,-3.7,-0.5865980295052912,8.964225616431216,0.3244444444444444,-0.3566666666666667,-0.5777777777777777,-0.0003261744966063535,-0.004385784588521303,-0.00037109741367731184
1589985608.0762174,-3.7,-0.6015862926349983,8.92,0.3244444444444444,-0.3566666666666667,-0.5777777777777777,-0.0034455300311197236,-0.002008623881362556,-0.0018958026991902175
1589985608.0862174,-3.7,-0.6167920554691549,8.93358411093831,0.3244444444444444,-0.3566666666666667,-0.5777777777777777,-0.0036224248117680555,-0.001090830782496456,-0.0021611448701627156
1589985608.0962174,-3.7,-0.6290741541242583,8.961388768813613,0.324804495618344,-0.35733533313248017,-0.5780863930696917,-0.0022826556831035596,-0.0009898366643858083,-5.049705905532381e-05
1589985608.1062174,-3.703549566195373,-0.6135495661953727,8.979351301413882,0.3322222222222222,-0.3711111111111111,-0.5844444444444444,-0.0032017303088593962,0.00031643556841217085,-0.001090830782496456
1589985608.1162174,-3.71,-0.6161945154543341,8.937167092726005,0.3322222222222222,-0.3711111111111111,-0.5844444444444444,-0.00026060284555109374,-0.0006757168140237749,-0.00026060284555109374
1589985608.1262174,-3.7144333965455383,-0.6011332069089231,8.913300189636615,0.3322222222222222,-0.3711111111111111,-0.5844444444444444,0.0020580478670738068,0.0,0.0006072222402077807
1589985608.1362174,-3.7171827594509996,-0.59,8.944086202745003,0.3322222222222222,-0.3711111111111111,-0.5844444444444444,0.002350552533725207,0.0003073132712547203,-0.0006146265425094406
1589985608.1462173,-3.70260027832351,-0.59,9.00219916502947,0.32482250054573236,-0.36124481554245796,-0.5819778705522811,0.0,-0.0001199458454967555,-0.0009708849369997005
1589985608.1562173,-3.6941774616248595,-0.5983549232497192,9.04,0.31222222222222223,-0.34444444444444444,-0.5777777777777777,0.00045569037330945173,-0.002181661564992912,0.0006351404091870042
1589985608.1662173,-3.7067874594928245,-0.6235749189856489,8.951763026593282,0.31222222222222223,-0.34444444444444444,-0.5777777777777777,-0.0018707571173918185,-0.0007008676150487747,0.0014807939499441372
1589985608.1762173,-3.716991738676289,-0.6160165226474219,8.958942170734023,0.31222222222222223,-0.34444444444444444,-0.5777777777777777,-0.005560533478869504,0.0,0.002944341942119624
1589985608.1862173,-3.7098239148950967,-0.6049119574475482,8.985088042552452,0.31222222222222223,-0.34444444444444444,-0.5777777777777777,-0.005434946007205481,-0.000555019343886627,0.002162453659716114
1589985608.1962173,-3.7101637639719263,-0.6,9.005245645957888,0.3184334113161771,-0.35460820841637064,-0.5856829275337203,-0.006026365120976652,-0.0016451781128267319,0.0005364834521661801
1589985608.2062173,-3.7133058872924054,-0.6066941127075947,9.02,0.3244444444444444,-0.3644444444444445,-0.5933333333333334,-0.0069056010571806915,-0.0007212327244039128,0.0007302144202944996
1589985608.2162173,-3.696523342715714,-0.61,8.925663399009997,0.3244444444444444,-0.3644444444444445,-0.5933333333333334,-0.004339871803350576,-0.0022051128916281606,0.0003557931519537358
1589985608.2262173,-3.69,-0.6219101546176348,8.909775386544087,0.3244444444444444,-0.3644444444444445,-0.5933333333333334,-0.0019732960193685365,-0.004571688675610199,-0.0006495981640604156
1589985608.2362173,-3.6931381049647753,-0.623723790070449,8.933138104964776,0.3244444444444444,-0.3644444444444445,-0.5933333333333334,-0.001090830782496456,-0.00476952561362586,-6.388833421182706e-05
1589985608.2462173,-3.6989661928383843,-0.6120676143232314,8.938966192838384,0.3244444444444444,-0.3644444444444445,-0.5933333333333334,-0.001090830782496456,-0.003498034082500516,0.0018433489624761904
1589985608.2562172,-3.7,-0.61,8.984874598283803,0.31777777777777777,-0.3511111111111111,-0.5911111111111111,-0.001090830782496456,-0.00027954729823443953,-0.0017760198228619038
1589985608.2662172,-3.712304397869322,-0.597695602130678,8.954630209588052,0.31777777777777777,-0.3511111111111111,-0.5911111111111111,-0.0017619315802934674,-0.0002513708130975666,-0.0004197299846994447
1589985608.2762172,-3.711311007800804,-0.5986889921991962,8.954755968796785,0.31777777777777777,-0.3511111111111111,-0.5911111111111111,-0.0036033945889561436,-0.0015647417904842,0.0009478220159754882
1589985608.2862172,-3.7,-0.6136771000941134,9.0,0.31777777777777777,-0.3511111111111111,-0.5911111111111111,-0.00545415391248228,-0.001780552167694965,0.001780552167694965
1589985608.2962172,-3.7058711161358233,-0.63,9.005871116135824,0.3197348164897188,-0.3550251885349932,-0.5849138218566311,-0.005774373622910657,-0.0016010985521418878,0.0006404394208567552
1589985608.3062172,-3.7179591179208136,-0.6259182358416266,9.017959117920814,0.3244444444444444,-0.3644444444444445,-0.57,-0.005431856197267649,-0.005008902513397845,0.0015137844663662603
1589985608.3162172,-3.71,-0.6060531058512555,8.970531058512556,0.3244444444444444,-0.3644444444444445,-0.57,-0.0015213701457670145,-0.0019808742576776926,-0.0006602914192258975
1589985608.3262172,-3.7056728105492556,-0.6086543789014885,8.935963136704466,0.3244444444444444,-0.3644444444444445,-0.57,-0.0012376152740797525,0.0,0.0
1589985608.3362172,-3.7,-0.6150955613769693,8.96509556137697,0.3244444444444444,-0.3644444444444445,-0.57,0.0021399650483465505,0.0010699825241732752,0.0005349912620866376
1589985608.3462172,-3.690604519959327,-0.6146977400203365,8.97409322006101,0.3244444444444444,-0.3607906466508494,-0.5741757689069658,0.004875767072220686,0.0037189933916974985,-0.0009589449864429928
1589985608.3562171,-3.689806554695376,-0.610193445304624,8.96548361326156,0.3244444444444444,-0.3566666666666667,-0.5788888888888889,0.0033146955660920308,0.0022449663928969057,-0.0027376277608918056
1589985608.3662171,-3.704801420013313,-0.6048014200133126,8.920794319946749,0.3244444444444444,-0.3566666666666667,-0.5788888888888889,-0.00048043024256833045,-4.33234324532651e-05,-0.001134154214949721
1589985608.3762171,-3.7224534373476352,-0.6037732813261824,8.949813749390541,0.3244444444444444,-0.3566666666666667,-0.5788888888888889,-0.002181661564992912,0.001090830782496456,0.0
1589985608.386217,-3.716292773039605,-0.59086184869307,8.99827630261386,0.3244444444444444,-0.3566666666666667,-0.5788888888888889,-0.003676888076099333,9.401310842550858e-05,0.0
1589985608.396217,-3.70225718959876,-0.5867715687962803,9.02451437919752,0.321685657157071,-0.3584222585768135,-0.5816476761762623,-0.005207932722856443,-0.001090830782496456,0.0
1589985608.406217,-3.7039315226225957,-0.61,9.035954348415062,0.31222222222222223,-0.3644444444444445,-0.5911111111111111,-0.003922011001575411,-0.000428862589880837,0.0
1589985608.416217,-3.694835812064653,-0.6198905413764355,8.970547293117823,0.31222222222222223,-0.3644444444444445,-0.5911111111111111,-0.001642216215544378,0.0011027708660958442,0.0
1589985608.426217,-3.7021261288841267,-0.6142522577682534,8.931810806673809,0.31222222222222223,-0.3644444444444445,-0.5911111111111111,0.00019752836609418446,0.00042945304953021353,0.0
1589985608.436217,-3.6935947227140327,-0.5917973613570163,8.955392084071049,0.31222222222222223,-0.3644444444444445,-0.5911111111111111,0.002181661564992912,0.001090830782496456,0.00019606170955030824
1589985608.446217,-3.71,-0.5922018700409993,8.9761009350205,0.3200203521812229,-0.3614118383492776,-0.5859123578051106,0.000905695534215047,-0.000185135248281409,-0.000185135248281409
1589985608.456217,-3.71,-0.5928347185607051,8.974278239520235,0.3322222222222222,-0.3566666666666667,-0.5777777777777777,-0.0024908813915660356,-0.0012482944922798589,-0.0007816109559233323
1589985608.466217,-3.697165790640238,-0.61,8.937219302134128,0.3322222222222222,-0.3566666666666667,-0.5777777777777777,-0.004363323129985824,-0.0013999950638632402,0.0006241657612087092
1589985608.476217,-3.685596792722669,-0.621193585445338,8.924774341781353,0.3322222222222222,-0.3566666666666667,-0.5777777777777777,-0.003142292372957929,-0.002051461590461473,0.0
1589985608.486217,-3.6979376285126797,-0.62603118574366,8.98381288553804,0.3322222222222222,-0.3566666666666667,-0.5777777777777777,-0.002181661564992912,-0.002389622210744378,0.001731721904330563
1589985608.496217,-3.704885308056872,-0.62,9.025114691943127,0.3285282780410742,-0.3603606108478147,-0.5777777777777777,-0.0032975142479030302,-0.0035264336178032346,0.0026895441056206454
1589985608.506217,-3.6974958847045385,-0.62,9.028756172943192,0.31777777777777777,-0.3711111111111111,-0.5777777777777777,-0.00531847342831548,-0.001090830782496456,-0.0005463132094419045
1589985608.516217,-3.708271532632966,-0.6130861305318642,8.994443793696695,0.31777777777777777,-0.3711111111111111,-0.5777777777777777,-0.0021412131011886402,-0.001090830782496456,0.0019931150239427906
1589985608.526217,-3.7042192270784264,-0.5842192270784262,8.911561545843147,0.31777777777777777,-0.3711111111111111,-0.5777777777777777,0.003732738625038361,0.00028990805015052367,0.001090830782496456
1589985608.536217,-3.706712384197636,-0.5965752316047279,8.919725694814185,0.31777777777777777,-0.3711111111111111,-0.5777777777777777,0.0029288301226896643,0.0014644150613448322,0.001808077286144536
1589985608.546217,-3.6978602655938917,-0.6078602655938917,8.94930132796946,0.31777777777777777,-0.3711111111111111,-0.5777777777777777,-0.0004668176313099301,0.0007002264469648952,0.003272492347489368
1589985608.556217,-3.68668152866242,-0.6011061571125265,8.913318471337579,0.31777777777777777,-0.3711111111111111,-0.5777777777777777,-0.00266431365644145,0.003996470484662175,0.0031518293246272336
1589985608.566217,-3.6561239595810684,-0.5983718787432046,8.905115636229613,0.31777777777777777,-0.3711111111111111,-0.5777777777777777,-0.009927468057515737,0.016159633347224978,0.0026044719853100372
1589985608.576217,-3.6546703739865007,-0.5940111219595025,8.938737105743515,0.31777777777777777,-0.3711111111111111,-0.5777777777777777,-0.02291351252031907,0.040954243139627734,0.002763033576464789
1589985608.586217,-3.6883885656463447,-0.6383885656463445,9.114519984821653,0.31777777777777777,-0.3711111111111111,-0.5777777777777777,-0.03550498285214148,0.06865252391959607,0.0010203945170696358
1589985608.596217,-3.706606544704973,-0.7025225457356351,9.25,0.31777777777777777,-0.3711111111111111,-0.58056056571903,-0.039810404844631664,0.08790196077009124,-0.0033674938431048802
1589985608.606217,-3.123417640894989,-0.7629265887284009,9.035367056357995,0.31777777777777777,-0.3711111111111111,-0.5844444444444444,-0.030729530830476217,0.0925343475916233,-0.00888626691360399
1589985608.616217,-2.6286015816891144,-0.878496045777214,8.980826742962023,0.31777777777777777,-0.3711111111111111,-0.5844444444444444,-0.028463296194262567,0.1747180917300038,-0.037166918089962246
1589985608.626217,-2.6,-0.95,9.1,0.31777777777777777,-0.3711111111111111,-0.5844444444444444,-0.030543261909900768,0.2454369260617026,-0.061086523819801536
1589985608.6362169,-2.6451461139453967,-1.1218978803338526,8.694598586889235,0.31777777777777777,-0.3711111111111111,-0.5844444444444444,-0.02762509688363257,0.29958052512477407,-0.14168854985111715
1589985608.6462169,-2.448175977116998,-1.014459623881999,8.622973082587999,0.31777777777777777,-0.3711111111111111,-0.5844444444444444,-0.01785868377068002,0.033934088452464484,-0.1690345065673843
1589985608.6562169,-2.0265611995982207,-0.5990194073755202,8.577704476969437,0.3322222222222222,-0.3644444444444445,-0.5788888888888889,-0.010979781581035365,-0.0023255873656107123,-0.1201885503341025
1589985608.6662169,-1.6804240750966317,-0.3275063500828272,8.644314375115037,0.3322222222222222,-0.3644444444444445,-0.5788888888888889,-0.01890865714538114,0.07796309954614225,-0.07094748953289153
1589985608.6762168,-1.9157115009746588,-0.5128557504873295,8.977748538011696,0.3322222222222222,-0.3644444444444445,-0.5788888888888889,-0.031501194205250965,0.021729434242361175,0.002425131593444846
1589985608.6862168,-2.025689510165018,-0.5582567210927758,9.201743278907223,0.3322222222222222,-0.3644444444444445,-0.5788888888888889,-0.00777583511273314,-0.03346475609806186,0.06082730084390825
1589985608.6962168,-2.0915319184597014,-0.5471773061532338,9.201531918459702,0.3322222222222222,-0.36068085264875616,-0.5763798276917633,0.0007303133914113831,-0.0005632070101997165,0.1275838709040031
1589985608.7062168,-2.1107159508335687,-0.5590007770556654,9.21800155411133,0.3322222222222222,-0.3511111111111111,-0.57,0.00676298132423011,-0.01249777988985255,0.18151475078915402
1589985608.7162168,-2.204548304670086,-0.6138629238324785,9.18479766586325,0.3322222222222222,-0.3511111111111111,-0.57,-0.002677804639223101,-0.013436585561108643,0.23469850641826384
1589985608.7262168,-2.17504645101947,-0.6224767744902652,8.940278706116818,0.3322222222222222,-0.3511111111111111,-0.57,-0.00027017418552832657,-0.015021724850188356,0.2769696783502683
1589985608.7362168,-2.1452369542630563,-0.6373815228684718,8.835236954263056,0.3322222222222222,-0.3511111111111111,-0.57,-0.003103828874154109,-0.010856612424127436,0.32549732734392317
1589985608.7462168,-2.12,-0.65,8.794665806938635,0.3347779210657832,-0.35877820764179397,-0.57,-0.009472211412792959,-0.017616987473652937,0.36864717731703456
1589985608.7562168,-2.153536943699732,-0.6547909919571046,8.731672064343163,0.3388888888888889,-0.3711111111111111,-0.57,-0.014703416323004186,-0.020680186386036727,0.41003661162967453
1589985608.7662168,-2.1810083520065184,-0.6644958239967407,8.685504176003258,0.3388888888888889,-0.3711111111111111,-0.57,-0.01576204927578348,-0.027211217179093194,0.4431890588644396
1589985608.7762167,-2.18371345686786,-0.67,8.766851893496446,0.3388888888888889,-0.3711111111111111,-0.57,-0.015863826374583535,-0.035311660345980045,0.47507169590684983
1589985608.7862167,-2.210093410253866,-0.664953294873067,8.930560461523196,0.3388888888888889,-0.3711111111111111,-0.57,-0.014170610694422131,-0.03791401180027569,0.49419729186105354
1589985608.7962167,-2.233874328480914,-0.653062835759543,9.073245970885484,0.3388888888888889,-0.3711111111111111,-0.57,-0.011576514930612646,-0.039859583623132806,0.507167770680101
1589985608.8062167,-2.2567152382303464,-0.6375364286727601,9.225894047787934,0.34444444444444444,-0.37666666666666665,-0.5777777777777777,-0.006365828732403471,-0.03844781133123886,0.5261387490884423
1589985608.8162167,-2.222714062784995,-0.6120355470887461,9.183392578481243,0.34444444444444444,-0.37666666666666665,-0.5777777777777777,-0.004511352291560845,-0.0412295259925028,0.5298477019701275
1589985608.8262167,-2.16,-0.6353179125528914,9.037976868829338,0.34444444444444444,-0.37666666666666665,-0.5777777777777777,-0.0047637149534510955,-0.03459604444025458,0.5237784780459653
1589985608.8362167,-2.16,-0.5722160789844851,8.943324118476728,0.34444444444444444,-0.37666666666666665,-0.5777777777777777,-0.006484550515660737,-0.028573119972520843,0.5151743002349172
1589985608.8462167,-2.1161414061295085,-0.5756132813360654,8.857367968801638,0.34395703125956284,-0.37666666666666665,-0.5791425346954463,-0.016840978512723998,-0.02788308356963069,0.5008632202747021
1589985608.8562167,-2.1803889953363944,-0.5298055023318029,8.828444018654423,0.3388888888888889,-0.37666666666666665,-0.5933333333333334,-0.021774182841210483,-0.022886230028066258,0.4793714849763797
1589985608.8662167,-2.2108177156517455,-0.5145911421741273,8.744591142174128,0.3388888888888889,-0.37666666666666665,-0.5933333333333334,-0.020224968946397092,-0.02211162308065956,0.4399820446051657
1589985608.8762167,-2.24,-0.5,8.738213607849445,0.3388888888888889,-0.37666666666666665,-0.5933333333333334,-0.021472013485408763,-0.023183128164041857,0.4118967208982986
1589985608.8862166,-2.2470054089493527,-0.5070054089493525,8.897362181063214,0.3388888888888889,-0.37666666666666665,-0.5933333333333334,-0.013051051589543866,-0.02599715027475641,0.362365725597486
1589985608.8962166,-2.269921324373054,-0.5299213243730536,9.019580396656286,0.3388888888888889,-0.37666666666666665,-0.5933333333333334,-0.0022188510097985586,-0.021830919282546674,0.32736938526292425
1589985608.9062166,-2.31,-0.48221621875587295,9.116288291674497,0.3244444444444444,-0.37666666666666665,-0.5988888888888889,0.009615034757612766,-0.02181661564992912,0.2471468714773769
1589985608.9162166,-2.31312101910828,-0.4937579617834395,9.099426751592357,0.3244444444444444,-0.37666666666666665,-0.5988888888888889,0.01090830782496456,-0.018071661562250204,0.18655985567396394
1589985608.9262166,-2.317961420429636,-0.47796142042963613,9.008980710214818,0.3244444444444444,-0.37666666666666665,-0.5988888888888889,0.010797120557568493,-0.008927978903299579,0.13008527705494893
1589985608.9362166,-2.301245067952652,-0.46124506795265235,9.000622533976326,0.3244444444444444,-0.37666666666666665,-0.5988888888888889,0.009885384964920757,-0.001634094162117664,0.06079337201372072
1589985608.9462166,-2.32,-0.4865832102692264,8.923416789730773,0.3236851578376059,-0.37970381309402096,-0.6006605576381789,0.0002211649188458111,0.004639110133226096,-0.04135196621527307
1589985608.9562166,-2.32184614418882,-0.45630771162235967,8.944461567433539,0.31777777777777777,-0.4033333333333333,-0.6144444444444445,-0.006544984694978735,0.015473014045959585,-0.1343063959914973
1589985608.9662166,-2.3188322574652855,-0.4169760367807551,8.853712441369062,0.31777777777777777,-0.4033333333333333,-0.6144444444444445,-0.006215121478509796,0.02009219825169481,-0.25178606476192295
1589985608.9762166,-2.279228669365471,-0.42476587098475327,8.784765870984753,0.31777777777777777,-0.4033333333333333,-0.6144444444444445,-0.004246123917441768,0.025575923782394684,-0.3429356057496634
1589985608.9862165,-2.311756239045802,-0.4768099824732834,8.836809982473284,0.31777777777777777,-0.4033333333333333,-0.6144444444444445,1.1724997010687833e-05,0.02344699932516846,-0.4174479617525814
1589985608.9962165,-2.4097602761349526,-0.4404794477300949,8.949760276134953,0.31812404558284635,-0.40304033749827534,-0.6151369800545816,0.014651496880780959,0.028649248333329925,-0.5503689334289246
1589985609.0062165,-2.4009325868709617,-0.4581348262580768,8.94093258687096,0.33087515229749986,-0.39225093950895307,-0.6406391934838886,0.03198462421823554,0.03924171503955217,-0.6524417944161571
1589985609.0162165,-2.4306269298823855,-0.5078746140235229,9.025122298164659,0.3322222222222222,-0.3911111111111111,-0.6433333333333333,0.04019728274900343,0.04790148566789593,-0.7968152329130453
1589985609.0262165,-2.467006730735871,-0.5005986538528259,8.974190576969782,0.3322222222222222,-0.3911111111111111,-0.6433333333333333,0.04337201927956921,0.05504464286166894,-0.8769773303098315
1589985609.0362165,-2.4598478597734,-0.5477261475921194,8.957878287818719,0.3322222222222222,-0.3911111111111111,-0.6433333333333333,0.04039393080085521,0.06257385669711296,-1.0054472548253552
1589985609.0462165,-2.4982163580696897,-0.6235672838606211,8.987027263449482,0.3338076817158316,-0.39064868542547504,-0.644588488765774,0.03118010733713926,0.07334508263026711,-1.0898633321660751
1589985609.0562165,-2.4722388887604874,-0.6844777775209745,8.937761111239512,0.3588888888888889,-0.38333333333333336,-0.6644444444444444,0.023754052337069554,0.07915855970221572,-1.2000774841028954
1589985609.0662165,-2.4820597507511946,-0.708239003004778,8.899103738732082,0.3588888888888889,-0.38333333333333336,-0.6644444444444444,0.023356814337160213,0.08620822079656017,-1.2955948354244429
1589985609.0762165,-2.4939619483117625,-0.7578287674029315,8.797828767402931,0.3588888888888889,-0.38333333333333336,-0.6644444444444444,0.026169561791701098,0.09075504570606235,-1.3893155403537791
1589985609.0862164,-2.5068549073373676,-0.8306290185325265,8.871258037065052,0.3588888888888889,-0.38333333333333336,-0.6644444444444444,0.03150387579915764,0.0921787079521348,-1.473274162182295
1589985609.0962164,-2.4572206781545303,-0.8427793218454697,8.891111728738188,0.3599388549193997,-0.3822833673028226,-0.6644444444444444,0.046421246829551795,0.10090215055790451,-1.5698904339716337
1589985609.1062164,-2.421886425267188,-0.9037151060775244,8.92645812729303,0.37777777777777777,-0.3644444444444445,-0.6644444444444444,0.05732163508559841,0.1090767793065404,-1.6752735552046114
1589985609.1162164,-2.521000493896846,-1.0273336625978975,8.985502716432654,0.37777777777777777,-0.3644444444444445,-0.6644444444444444,0.06326818538479445,0.10922823501644079,-1.8049604368409975
1589985609.1262164,-2.486029755778048,-1.0211041452231684,8.805223168335361,0.37777777777777777,-0.3644444444444445,-0.6644444444444444,0.06622803483092828,0.13373909978593068,-1.909099932702732
1589985609.1362164,-2.4949574326016193,-1.0952128369919039,8.922606418495953,0.37777777777777777,-0.3644444444444445,-0.6644444444444444,0.0686851922344891,0.13526301702956053,-2.0057292061450056
1589985609.1462164,-2.48,-1.1953600902452057,8.954565694947457,0.38502351784783656,-0.35599108102937593,-0.6682685850369754,0.055434772999559546,0.13783177683043668,-2.108305445441164
1589985609.1562164,-2.48,-1.31,8.93,0.4177777777777778,-0.31777777777777777,-0.6855555555555556,0.0545415391248228,0.14944381720201447,-2.195842365165366
1589985609.1662164,-2.4320097912909047,-1.344278720506497,8.868298303088306,0.4177777777777778,-0.31777777777777777,-0.6855555555555556,0.06201999582743865,0.15467873689384556,-2.2706269321915244
1589985609.1762164,-2.4483558025768817,-1.4213692841230106,8.824657678969247,0.4177777777777778,-0.31777777777777777,-0.6855555555555556,0.0570819089221435,0.15707963267948966,-2.393625586508036
1589985609.1862164,-2.444211678193119,-1.5126306574455046,8.78,0.4177777777777778,-0.31777777777777777,-0.6855555555555556,0.058789887181524385,0.1728104477207251,-2.552887285112239
1589985609.1962163,-2.3642892953300527,-1.5853616191625661,8.793940209822672,0.42063730799781307,-0.31205871733770724,-0.6880576444980865,0.06969619769524218,0.1810779098944117,-2.6526366421987375
1589985609.2062163,-2.4023111134642874,-1.646177794250013,8.907688886535713,0.4444444444444444,-0.2644444444444444,-0.7088888888888889,0.07099126963509497,0.18233842674875517,-2.761426026083089
1589985609.2162163,-2.4097135595912533,-1.6979949171387727,8.900286440408747,0.4444444444444444,-0.2644444444444444,-0.7088888888888889,0.07825860412605418,0.18637583479928807,-2.826024554891615
1589985609.2262163,-2.362844600950291,-1.8790810641325584,8.780087793347965,0.4444444444444444,-0.2644444444444444,-0.7088888888888889,0.0933412121682979,0.21027016337033372,-2.918731486261837
1589985609.2362163,-2.347529403223464,-1.9644705604762596,8.941882350805866,0.4444444444444444,-0.2644444444444444,-0.7088888888888889,0.0867146324202163,0.20882351237857083,-2.988375832166805
1589985609.2462163,-2.37798025264992,-2.06343582111224,8.949495063162479,0.4444444444444444,-0.2644444444444444,-0.7088888888888889,0.08007128763870784,0.2063322580855051,-3.034879245637364
1589985609.2562163,-2.4349397038620055,-2.1817859868722334,8.86732101969165,0.49,-0.23222222222222225,-0.7377777777777778,0.08614316165959725,0.22804857385700486,-3.0871941496721393
1589985609.2662163,-2.2634652892384852,-2.255247658443535,8.777821763079494,0.49,-0.23222222222222225,-0.7377777777777778,0.0784317549582437,0.22826442479918652,-3.1378666401089497
1589985609.2762163,-2.2476464314782074,-2.3222342903651314,8.783763576660773,0.49,-0.23222222222222225,-0.7377777777777778,0.05470835838147636,0.22043773330685915,-3.1805798048034437
1589985609.2862163,-2.269053904302054,-2.3923273439664383,8.797161712906162,0.49,-0.23222222222222225,-0.7377777777777778,0.060963720631420984,0.2225098794719472,-3.214047765140666
1589985609.2962162,-2.1964227275291996,-2.412520453647802,8.606097726118604,0.4941734845492674,-0.23112916674503314,-0.7383739898562446,0.0783447063933185,0.24810636249276133,-3.231510826543417
1589985609.3062162,-2.1530258815041936,-2.548717648119758,8.785691766615564,0.5366666666666666,-0.22,-0.7444444444444445,0.07255436320675002,0.2496493291279761,-3.25025608316795
1589985609.3162162,-2.1227667057444317,-2.5865416178194605,8.853774912075028,0.5366666666666666,-0.22,-0.7444444444444445,0.056050543020890575,0.2347958909607026,-3.262633948307346
1589985609.3262162,-2.1484276682642998,-2.696603755991123,8.781823912273177,0.5366666666666666,-0.22,-0.7444444444444445,0.06306922741957903,0.2520436528246188,-3.260664723667667
1589985609.3362162,-1.97871119133574,-2.8067906137184115,8.730916967509026,0.5366666666666666,-0.22,-0.7444444444444445,0.08319376514391201,0.2648218160502903,-3.2500350164303695
1589985609.3462162,-1.9771168853893264,-2.8384675415573053,8.80828573928259,0.5366666666666666,-0.22,-0.7444444444444445,0.0661383396384213,0.25497956719100945,-3.2441505786962193
1589985609.3562162,-1.910954372918119,-2.9387729491052754,8.790681694941513,0.5684495743710245,-0.17287361961077974,-0.7586919547946738,0.049221235701106064,0.23152382686677975,-3.2247337494839954
1589985609.3662162,-1.839331177152621,-2.9562207847684143,8.68229653587193,0.5688888888888889,-0.17222222222222222,-0.7588888888888888,0.04933789841456148,0.2263188190998251,-3.1912127066438094
1589985609.3762162,-1.753303388377381,-2.8986159466209416,8.683928504864502,0.5688888888888889,-0.17222222222222222,-0.7588888888888888,0.04901919558166073,0.214840072062812,-3.1688926182355837
1589985609.3862162,-1.5813225481790734,-2.781356282849368,8.621390017519662,0.5688888888888889,-0.17222222222222222,-0.7588888888888888,0.037080886841520506,0.191816190921113,-3.146721473432467
1589985609.3962162,-1.7173509914770282,-2.996260223261687,9.003767038769478,0.5688888888888889,-0.17222222222222222,-0.7588888888888888,0.02524208788188659,0.1833275625191682,-3.098656330652512
1589985609.4062161,-1.4552412166753266,-2.793157200527599,8.588040689076301,0.5229238223394664,-0.18417313952507205,-0.7340677529522008,0.07021520655786583,0.21575036242292667,-3.0447106259886065
1589985609.4162161,-1.6020327598397361,-3.0703275983973604,8.61065519679472,0.5133333333333333,-0.18666666666666668,-0.7288888888888889,0.09755261381529112,0.22893152255780083,-2.963644294276416
1589985609.4262161,-1.6080561328078349,-3.163607070345157,8.754449062462678,0.5133333333333333,-0.18666666666666668,-0.7288888888888889,0.05108761945765057,0.1905631479948611,-2.9187025861855496
1589985609.436216,-1.5950045601021463,-3.239981759591415,8.709981759591415,0.5133333333333333,-0.18666666666666668,-0.7288888888888889,0.04599653218527414,0.17544211666150641,-2.86653061081989
1589985609.446216,-1.567886782704169,-3.3378867827041687,8.810528304323958,0.5137442366964116,-0.1832620388011611,-0.7258364639060219,0.04730912708071698,0.17473462691611763,-2.814508063239002
1589985609.456216,-1.49,-3.26,8.83,0.5288888888888889,-0.057777777777777775,-0.6133333333333333,0.062177354602297986,0.18216874067690814,-2.740166925631097
1589985609.466216,-1.4800232706360146,-3.267981383491188,8.802065157780842,0.5288888888888889,-0.057777777777777775,-0.6133333333333333,0.06087140378243341,0.17912152209722412,-2.7262367835525416
1589985609.476216,-1.4178550995301407,-3.3177159203758873,8.627994278684394,0.5288888888888889,-0.057777777777777775,-0.6133333333333333,0.05273360921437811,0.16013333477176178,-2.639433641493285
1589985609.486216,-1.39,-3.425718517421409,8.63571851742141,0.5288888888888889,-0.057777777777777775,-0.6133333333333333,0.06498313277598997,0.1572357426130013,-2.535087507268289
1589985609.496216,-0.8450083255281506,-2.8553725673847437,9.09590227911333,0.5288888888888889,-0.057777777777777775,-0.6133333333333333,0.04385176072605303,0.16357495159578778,-2.4463578015700556
1589985609.506216,-1.0915967452388384,-2.9960884327193256,8.815939158601312,0.5433173760710445,0.05674833923058245,-0.5826727980712527,0.07373414140438433,0.21939983315638442,-2.3695050182103117
1589985609.516216,-1.2222204523733673,-3.4204842306467027,9.624708505893597,0.5466666666666666,0.08333333333333333,-0.5755555555555556,0.08362074557545068,0.08223661718848561,-2.2872518301827065
1589985609.526216,-1.0675896848762403,-3.253107621851488,8.583565768909242,0.5466666666666666,0.08333333333333333,-0.5755555555555556,-0.04395053289373456,0.09694485504999188,-2.2235043002313613
1589985609.536216,-0.95325373459819,-3.115904481517828,8.499719405372007,0.5466666666666666,0.08333333333333333,-0.5755555555555556,0.08243359020367078,0.13519268177683824,-2.1420197998132977
1589985609.546216,-1.0463850708119247,-3.4384979525833965,9.13798179494536,0.5466666666666666,0.08333333333333333,-0.5755555555555556,0.04538978153358535,0.12485658069994655,-2.056615416845487
1589985609.556216,-1.041814615106032,-3.5400392338336486,8.930809222968895,0.5630374364546027,0.14699743806419596,-0.5700986322929102,0.03202570054825985,0.10738985656764449,-1.9906393877974815
1589985609.566216,-0.8811726934775261,-3.3325870226427847,8.544001351808044,0.5666666666666667,0.16111111111111112,-0.5688888888888889,0.06181994992381528,0.1168429439327004,-1.8710980966776871
1589985609.576216,-0.9756708347414667,-3.608206601329278,9.00074236791709,0.5666666666666667,0.16111111111111112,-0.5688888888888889,0.04034464130310594,0.09021356124302081,-1.8092492078500446
1589985609.586216,-0.8228531877259093,-3.4449930785203415,8.834293624548181,0.5666666666666667,0.16111111111111112,-0.5688888888888889,0.04807285302222125,0.0982525790496726,-1.7062255313027412
1589985609.596216,-0.8551095900945935,-3.5014417826655384,8.769780819810812,0.5666666666666667,0.16111111111111112,-0.5688888888888889,0.06126770676085335,0.0991322359655814,-1.6217784673754956
1589985609.606216,-0.7701903544114455,-3.372284252937345,8.68828681029699,0.5611111111111111,0.23222222222222225,-0.5822222222222222,0.05678549402529229,0.09043513272141152,-1.5232787494270186
1589985609.616216,-0.7765084781243459,-3.4838226920661506,8.602148628846557,0.5611111111111111,0.23222222222222225,-0.5822222222222222,0.05979061136978151,0.08520199055902275,-1.4328379507064548
1589985609.626216,-0.6623659200334938,-3.2818781662131045,8.672390203056311,0.5611111111111111,0.23222222222222225,-0.5822222222222222,0.053086215125868134,0.08903307412697324,-1.3447230286435934
1589985609.636216,-0.6993820476932421,-3.5069102384662103,8.521977447381625,0.5611111111111111,0.23222222222222225,-0.5822222222222222,0.04589578263265029,0.09375752078282912,-1.2339060572498484
1589985609.646216,-0.736901654902426,-3.626855240524349,8.790612135951124,0.5611111111111111,0.23222222222222225,-0.5822222222222222,0.043131328792009316,0.07502649878480236,-1.1823219578552107
1589985609.656216,-0.7145560159233081,-3.6870160045495166,8.985967990900967,0.5567831126276166,0.2610755454455187,-0.5879928868668816,0.03791073425557002,0.061143684097217266,-1.022648231183271
1589985609.666216,-0.6338866737799742,-3.605182231706632,8.794251137193237,0.5544444444444444,0.2766666666666667,-0.5911111111111111,0.035997415822383035,0.05999569303730508,-0.9533861039019024
1589985609.676216,-0.63,-3.5842773557587417,8.732832067276226,0.5544444444444444,0.2766666666666667,-0.5911111111111111,0.039427564686504074,0.05485046974112352,-0.8813529777553609
1589985609.6862159,-0.6111763758281146,-3.5611763758281145,8.826667203640685,0.5544444444444444,0.2766666666666667,-0.5911111111111111,0.03556961492590692,0.049344030605358954,-0.8063161687231405
1589985609.6962159,-0.5867281888693879,-3.563271811130612,8.903271811130612,0.5544444444444444,0.2766666666666667,-0.5911111111111111,0.02765786843263094,0.04111480359904734,-0.6402078636790811
1589985609.7062159,-0.5411983391063016,-3.434194186872055,8.832396678212602,0.5587557400992998,0.31474977828455597,-0.5925482096627296,0.03143801491464378,0.02830299996058106,-0.51342969624987
1589985609.7162158,-0.5196205412710267,-3.33227675237384,8.639810270635515,0.5611111111111111,0.33555555555555555,-0.5933333333333334,0.019552169032486,0.026035064938127076,-0.387336266776867
1589985609.7262158,-0.5047042924712828,-3.4217742451723034,8.632352146235641,0.5611111111111111,0.33555555555555555,-0.5933333333333334,0.016297948362458698,0.020340178765579295,-0.3051671948586776
1589985609.7362158,-0.4908451411357804,-3.4030425080888094,8.663211536315966,0.5611111111111111,0.33555555555555555,-0.5933333333333334,0.023684829186324505,0.014995059165011392,-0.1551436301499167
1589985609.7462158,-0.5298415709025996,-3.5434296552493585,8.811397969429878,0.5611111111111111,0.33555555555555555,-0.5933333333333334,0.009221737147307986,0.0022335073658791647,-0.06581276755599111
1589985609.7562158,-0.48029068275154,-3.46058136550308,8.740532918377824,0.6407235341090577,0.39415914470682173,-0.6143421671800137,0.01088188401718784,0.0032513533012679917,0.0757821157652194
1589985609.7662158,-0.4710112359550562,-3.4524719101123598,8.945617977528089,0.6411111111111111,0.3944444444444444,-0.6144444444444445,-0.0042897839761096585,-0.03158506658981312,0.18446071097271532
1589985609.7762158,-0.5536901241868717,-3.654575859123464,8.587342795190223,0.6411111111111111,0.3944444444444444,-0.6144444444444445,0.0017227944469468967,-0.027576680974442075,0.28266615854930566
1589985609.7862158,-0.569156916968021,-3.459390909735517,8.917119761752819,0.6411111111111111,0.3944444444444444,-0.6144444444444445,0.003180526255141053,-0.04125487522448537,0.3960406452997602
1589985609.7962158,-0.5111013567438148,-3.4164405426975257,8.938220271348763,0.6411111111111111,0.3944444444444444,-0.6144444444444445,-0.009577198274735445,-0.04254240051736178,0.47260744232425056
1589985609.8062158,-0.53322466926955,-3.549440127364391,8.8035506614609,0.8805984947078915,0.5630435624965779,-0.7894298927258253,-0.013528311269539175,-0.04881216555848749,0.5831870558877953
1589985609.8162158,-0.5538347337345294,-3.4157908481889407,8.753608777109118,1.0577777777777777,0.6877777777777778,-0.9188888888888888,-0.016477248546539446,-0.059159083917244636,0.737056536348093
1589985609.8262157,-0.5202491159760022,-3.365124557988001,8.588932416862011,1.0577777777777777,0.6877777777777778,-0.9188888888888888,-0.025566587544907992,-0.05918436353480861,0.851655439227124
1589985609.8362157,-0.6491666134287357,-3.3692777742285824,8.56711109691433,1.0577777777777777,0.6877777777777778,-0.9188888888888888,-0.02330135948411287,-0.08218197021446555,1.016308809595633
1589985609.8462157,-0.6986282221010824,-3.5399641772447628,8.77086675492563,1.0577777777777777,0.6877777777777778,-0.9188888888888888,-0.029649343030980886,-0.07640933657885239,1.1368703231305084
1589985609.8562157,-0.7384691515983969,-3.578612339360641,8.812918509040962,1.1033284203352127,0.18482276620609928,-0.9967045699245071,-0.027286388924284692,-0.0810085991310787,1.2376916580493977
1589985609.8662157,-0.7043359065303567,-3.434815773002295,8.784095973294388,1.1377777777777778,-0.1955555555555556,-1.0555555555555556,-0.026600567499341178,-0.09311507257567107,1.3717678439174172
1589985609.8762157,-0.7499504662004662,-3.489925699300699,8.732039627039626,1.1377777777777778,-0.1955555555555556,-1.0555555555555556,-0.029886602120670677,-0.10144185947283985,1.447269434831854
1589985609.8862157,-0.7426246213164418,-3.4349455089113583,8.767679112405084,1.1377777777777778,-0.1955555555555556,-1.0555555555555556,-0.032372357283832254,-0.10950190885933135,1.538899708552807
1589985609.8962157,-0.75521918008479,-3.506789048305244,8.778868491949126,1.1377777777777778,-0.1955555555555556,-1.0555555555555556,-0.034261650105724684,-0.11664328302254699,1.6037603386531893
1589985609.9062157,-0.7901465612000776,-3.2586809491993014,8.74249154040132,0.6177777777777778,0.18666666666666668,-0.7066666666666667,-0.03490658503988659,-0.11796959797818152,1.656216862113605
1589985609.9162157,-0.7991865853395694,-3.1773207319438757,8.896171950772679,0.6177777777777778,0.18666666666666668,-0.7066666666666667,-0.03490658503988659,-0.12783073458405014,1.6769252489859297
1589985609.9262156,-0.8518365776369398,-3.178639429606157,8.417552512449072,0.6177777777777778,0.18666666666666668,-0.7066666666666667,-0.040561078494450724,-0.12117870772849629,1.708945872686388
1589985609.9362156,-0.85295146926125,-3.2434367766487506,8.805203028757504,0.6177777777777778,0.18666666666666668,-0.7066666666666667,-0.04222044516498543,-0.12614238951557097,1.7375302976356555
1589985609.9462156,-0.9075008907575002,-3.2955559514477777,8.808330364141666,0.6177777777777778,0.18666666666666668,-0.7066666666666667,-0.0432393309802423,-0.12174872770577656,1.774691201611663
1589985609.9562156,-1.0222315044973478,-3.351115752248674,8.843905132870358,0.6109251524029988,0.23158943301243998,-0.6861087905423298,-0.04961327505963841,-0.13574985578895774,1.8102359617659425
1589985609.9662156,-1.0841893655194912,-3.3377475126406786,8.829368781601696,0.6077777777777778,0.25222222222222224,-0.6766666666666666,-0.045323476355104746,-0.13079641103067255,1.845012699571217
1589985609.9762156,-1.0816979422494577,-3.36320823100217,8.834906173251627,0.6077777777777778,0.25222222222222224,-0.6766666666666666,-0.04453884531509373,-0.12943842958255636,1.866535276155489
1589985609.9862156,-1.0489033756027863,-3.2922584390069654,8.684516878013932,0.6077777777777778,0.25222222222222224,-0.6766666666666666,-0.03454771554509137,-0.12217660321413076,1.885796509882926
1589985609.9962156,-1.0110317334480963,-3.277242066637976,8.864504065777254,0.6077777777777778,0.25222222222222224,-0.6766666666666666,-0.026894171161840355,-0.13421115066628075,1.903839523736269
1589985610.0062156,-0.9814899107670304,-3.2152146876846066,8.515012903025216,0.5882393502540877,0.22240041179132683,-0.7178001982954879,-0.04629005187560187,-0.12448280881798682,1.9210686944420456
1589985610.0162156,-1.2063997201195853,-3.4867107690350485,8.765095943854293,0.5866666666666667,0.22,-0.7211111111111111,-0.05622868055834492,-0.1433868534028794,1.9119823512683654
1589985610.0262156,-1.2341063987406242,-3.5241063987406243,8.597489582368738,0.5866666666666667,0.22,-0.7211111111111111,-0.043944247873550855,-0.12819120318872476,1.8883731632782297
1589985610.0362155,-1.2160208372958008,-3.5619374881125974,8.742697859210887,0.5866666666666667,0.22,-0.7211111111111111,-0.03578606865498882,-0.12326387842209953,1.8416018979124624
1589985610.0462155,-1.224245743969552,-3.60374290661592,8.820502837353633,0.5866666666666667,0.22,-0.7211111111111111,-0.03226178465323507,-0.1206739290818411,1.7876097775704562
1589985610.0562155,-7.811503379580222,-7.839303450729278,4.7495916044112425,0.5652043163761413,0.1743925056326337,-0.6839991304004112,-0.30665608807483646,0.6802397476173354,1.5122224003249733
1589985610.0662155,-0.06451210129475982,-8.341434349651578,-0.5503743597634697,0.5333333333333333,0.10666666666666667,-0.6288888888888889,-1.1164337374710374,-0.1817051777592491,-2.275815984582831
1589985610.0762155,5.370412287793048,-0.28546079223928844,-2.0392290732711107,0.5333333333333333,0.10666666666666667,-0.6288888888888889,-1.1784606415786487,-1.7263768788381477,-6.2060767903761604
1589985610.0862155,1.2177594609846605,-0.36286232193853984,-1.0021481950168443,0.5333333333333333,0.10666666666666667,-0.6288888888888889,-1.1267287537696744,-1.5082751227507023,-6.394848590005461
1589985610.0962155,-0.15960556844547566,-1.028721909181306,-0.11872190918130593,0.5333333333333333,0.10666666666666667,-0.6288888888888889,-1.1573981434610063,-1.3908441022031777,-6.210550584146401
1589985610.1062155,-0.1278603910392087,-0.9112456254322178,-0.15338523439300908,0.5333333333333333,0.19339359351388102,-0.6332987326268829,-1.2209535746383677,-1.3096253685320243,-6.006865999053362
1589985610.1162155,0.20798986704530786,-0.7301329546921389,0.20785691235316897,0.5333333333333333,0.23777777777777775,-0.6355555555555555,-1.1244472950399913,-0.9581627655838463,-5.747109142457143
1589985610.1262155,-0.3298589611283109,-0.30973856209150324,-0.8997179222566218,0.5333333333333333,0.23777777777777775,-0.6355555555555555,0.3703881462170755,0.968861241528464,-5.490333571218331
1589985610.1362154,0.815302091402014,-1.9777149496514328,5.6275580945003885,0.5333333333333333,0.23777777777777775,-0.6355555555555555,1.4744882627267069,2.2291146051695874,-5.195110963660822
1589985610.1462154,0.5735655417193045,-1.544155687902304,3.6495325753474095,0.5333333333333333,0.23777777777777775,-0.6355555555555555,2.1490073161707732,3.0192327807539097,-4.929423161247931
1589985610.1562154,-1.8828388696083291,1.4497481408031732,17.43459097669807,0.424304743017683,0.38998600782239845,-0.6355555555555555,1.7539866734946785,4.752581308476538,-4.283969057411014
1589985610.1662154,-1.95,1.53,17.87,0.4211111111111111,0.3944444444444444,-0.6355555555555555,1.7366026057343582,4.796382950636916,-4.267330021126136
1589985610.1762154,-0.8572278177458033,0.572695443645084,1.1532949640287775,0.4211111111111111,0.3944444444444444,-0.6355555555555555,0.4844790201548421,0.7149132299005405,-2.8644787340567173
1589985610.1862154,-0.7309517784674147,0.3433248985438052,0.5000759131057532,0.4211111111111111,0.3944444444444444,-0.6355555555555555,-0.37726810976602015,-0.5233923536452587,-2.388274393889668
1589985610.1962154,-0.06042694226657164,-0.9956193870277976,4.9079729151817535,0.4211111111111111,0.3944444444444444,-0.6355555555555555,-1.0004721295153662,-0.8422031569584817,-2.085465062453465
1589985610.2062154,0.05912006758229779,-1.416160071942446,6.752640069762371,0.4139111135334157,0.404524441053218,-0.6197155608846256,-0.7800139848409176,-0.1670370009815617,-1.6487602881662928
1589985610.2162154,0.5028096870551914,-2.242685992662537,10.562039253423148,0.41,0.41,-0.6111111111111112,0.18326497301918232,0.24039624296184756,-1.3347186855470607
1589985610.2262154,0.2795700611956693,-0.595455829279774,2.989866624823474,0.41,0.41,-0.6111111111111112,0.971472704737433,0.6399938262624222,-0.9631645554589775
1589985610.2362154,0.2543313518103914,-1.1475173318922256,4.123826140662395,0.41,0.41,-0.6111111111111112,0.449782787940436,0.40403772576228647,-0.7754276517145144
1589985610.2462153,0.4426758308682791,-2.48898729772055,9.664680006960154,0.41,0.41,-0.6111111111111112,-0.30182006542736295,-0.20973485262622826,-0.5762312184972039
1589985610.2562153,0.5790498085885486,-2.463193866511318,9.94674787782956,0.38740570443112887,0.44098646249445184,-0.6111111111111112,-0.480059162744217,-0.31238400997786964,-0.25279606215191464
1589985610.2662153,0.3310296785429214,-2.5383861838763515,9.406049633553442,0.3711111111111111,0.4633333333333333,-0.6111111111111112,0.22399621603444786,0.11531595600206693,0.1942327069754558
1589985610.2762153,0.18222461042450297,-2.067240730789898,6.766203653949489,0.3711111111111111,0.4633333333333333,-0.6111111111111112,0.4716402174773454,0.2906019706044002,0.4949676425533276
1589985610.2862153,0.1258474818317413,-2.582074831011393,8.172791406175621,0.3711111111111111,0.4633333333333333,-0.6111111111111112,0.051463977694671315,0.06487256618659637,0.7733340478175412
1589985610.2962153,0.20445725098916223,-2.838504644761741,9.803019525202133,0.3711111111111111,0.4633333333333333,-0.6111111111111112,-0.28307180780668395,-0.3175526066698143,0.9751831566567558
1589985610.3062153,0.1302418774727251,-2.791557067497902,9.453424049874116,0.3561014533296034,0.47740488750349674,-0.6289350797266515,-0.12056442860922278,-0.10082723774641622,1.289970468656556
1589985610.3162153,0.09662931159947606,-2.6028103623926646,8.223491485955465,0.3533333333333333,0.48,-0.6322222222222222,0.08299387004638571,-0.04108999687689186,1.4802930925471611
1589985610.3262153,0.08252159384654183,-2.8465282769056173,8.505059895340771,0.3533333333333333,0.48,-0.6322222222222222,0.00699724515936917,-0.07081920202519643,1.6824999504528302
1589985610.3362153,0.07158343664765685,-3.195663773865609,9.589573518472601,0.3533333333333333,0.48,-0.6322222222222222,-0.08437528769263464,-0.18171298816798015,1.8470568363690236
1589985610.3462152,0.0486354623565463,-3.0619621863045525,8.92814756954876,0.3533333333333333,0.48,-0.6322222222222222,-0.05123428718321074,-0.14322696220164835,1.9978619854329849
1589985610.3562152,0.024179601204992112,-3.0216407975900155,8.386424616267394,0.3744271983933438,0.46945306746999477,-0.6664997529447393,-0.05043822523715459,-0.1294829439729406,2.1609811283912617
1589985610.3662152,0.0076842441901783815,-3.134683924383484,8.717946308009381,0.38,0.4666666666666667,-0.6755555555555556,-0.06797594467188578,-0.16020277633090343,2.2589036795429047
1589985610.3762152,-0.06076184067885313,-3.3594998317819895,9.225833052969984,0.38,0.4666666666666667,-0.6755555555555556,-0.0448747338232737,-0.15957817383817177,2.386989592067581
1589985610.3862152,3.732465199267839,-9.702206174149786,5.066038023164598,0.38,0.4666666666666667,-0.6755555555555556,-0.25297307632071336,-0.20087613708387272,1.8038989941467154
1589985610.3962152,-0.25341186310726904,-11.387977277479612,0.8073172091726495,0.38,0.4666666666666667,-0.6755555555555556,-0.7164832351009338,-0.18086790957230567,-0.7682390385988043
1589985610.4062152,-1.5651673176703778,-1.6530513612779112,4.986901416661809,0.42409714530014186,0.4375459103363843,-0.6539229937102029,-0.48908685597181945,0.06300547787226059,-1.828088605047735
1589985610.4162152,1.8137599704919545,-1.8222605929272904,14.815244594033842,0.4388888888888889,0.42777777777777776,-0.6466666666666666,0.5590386299814845,0.1272810769061754,-0.7245011983963673
1589985610.4262152,1.2744096150354096,-0.9567291628836028,10.332524287270747,0.4388888888888889,0.42777777777777776,-0.6466666666666666,1.4489188404193816,0.4535547919050694,-0.40580668027692246
1589985610.4362152,-0.08275474876017608,-0.6329100776644521,2.214771217366895,0.4388888888888889,0.42777777777777776,-0.6466666666666666,0.7994646952943332,0.10289299377275801,-0.18232419452567222
1589985610.4462152,-0.2571762534604737,-1.818540449092587,7.984504767763765,0.4388888888888889,0.42777777777777776,-0.6466666666666666,-0.2081560812196182,0.05260968485529853,0.3259054090694849
1589985610.4562151,-0.2910447170557974,-3.050866640284923,11.650241392956074,0.42943806885635144,0.4483977487578595,-0.6509624939541837,-0.5710561738558683,-0.21920302849753276,0.8363477741719929
1589985610.4662151,-0.36797186523098296,-3.8949590135463703,9.760503994442514,0.4266666666666667,0.4544444444444444,-0.6522222222222223,-0.29343601906960937,-0.22443235227806257,1.1188701349842907
1589985610.4762151,-0.3340313425039178,-2.330512972314122,10.121595333449417,0.4266666666666667,0.4544444444444444,-0.6522222222222223,-0.019133054161608903,-0.076849190076669,1.3447472796515147
1589985610.486215,0.5494328730429963,-3.6804849212580235,9.010365076432826,0.4266666666666667,0.4544444444444444,-0.6522222222222223,0.029412683033034494,-0.028441096533647493,0.791135188729305
1589985610.496215,-0.08586994363395228,-3.444067887931034,7.6087574602122015,0.4266666666666667,0.4544444444444444,-0.6522222222222223,0.13818662255889155,0.09951972752632589,0.3334858409306774
1589985610.506215,-0.738417129752139,-3.3359640998500484,8.116571844403282,0.4266666666666667,0.44666958239001103,-0.6558106200934991,0.0645774806015908,0.05676613826030959,0.037565707577839114
1589985610.516215,-0.342515726473959,-4.481456004074875,8.877205653890233,0.4266666666666667,0.44,-0.6588888888888889,-0.09561636732800763,-0.0898835119152069,-0.14625180713586705
1589985610.526215,0.22195152528207268,-4.5589987463435016,8.364974508984538,0.4266666666666667,0.44,-0.6588888888888889,-0.04493137919053665,-0.035552878346791494,-0.17362297266787446
1589985610.536215,0.0003853830070328912,-4.2941275422923395,8.289530507508077,0.4266666666666667,0.44,-0.6588888888888889,0.03884718791558337,0.045002316199463654,-0.1392876974346818
1589985610.546215,0.0698868231317259,-4.37595472925269,8.676478038552876,0.4266666666666667,0.44,-0.6588888888888889,0.028994964128442036,0.008792225398176111,-0.09488608166369918
1589985610.556215,0.02480046136101499,-4.4445051903114186,8.712968858131488,0.44209586056644873,0.4200328078943997,-0.653443291041907,-0.002748843245211371,-0.002705310667270911,-0.033388732380136045
1589985610.566215,-0.01,-4.45,8.68,0.4455555555555555,0.4155555555555556,-0.6522222222222223,-0.006544984694978735,0.001090830782496456,-0.02399827721492203
1589985610.576215,0.06813439335402756,-4.323580919627504,8.653881506956385,0.4455555555555555,0.4155555555555556,-0.6522222222222223,-0.00421672272244962,0.0053972482042728125,-0.00367950457898071
1589985610.586215,0.06589781958101752,-4.4444427818155905,8.575386917486105,0.4455555555555555,0.4155555555555556,-0.6522222222222223,-0.007943150871090054,-0.004148872358366348,-0.005239703140862804
1589985610.596215,0.054332744795115136,-4.329299823438534,8.705733097918046,0.4455555555555555,0.4155555555555556,-0.6522222222222223,0.016980663380422006,0.002952618037253887,-0.003196114932846463
1589985610.606215,0.003912418091737254,-4.304435032763305,8.716172287038518,0.44215474224424195,0.41741054463445393,-0.6580963543054003,0.020659536553967957,0.008717406363619989,-0.0007873089042279039
1589985610.616215,0.0821882177420938,-4.304062739247365,8.819375159498243,0.43333333333333335,0.4222222222222222,-0.6733333333333333,0.0002384191502388163,-0.004942818283907402,-0.0010226712571497565
1589985610.626215,0.07843192293031154,-4.3767248847766576,8.670138961083966,0.43333333333333335,0.4222222222222222,-0.6733333333333333,-0.014777530765810445,-0.0038008026713681657,-0.002181661564992912
1589985610.636215,0.08224059026804895,-4.43,8.513469926216494,0.43333333333333335,0.4222222222222222,-0.6733333333333333,-0.014225500088940368,-0.004697133446493682,-0.003606302663997226
1589985610.646215,0.07926167640883038,-4.445369161795584,8.612461078637232,0.43333333333333335,0.4222222222222222,-0.6733333333333333,-0.0007955225455763652,-0.004336476926629452,-0.002127969158280168
1589985610.656215,0.053537161866409874,-4.410479733870262,8.7453716186641,0.442765764977093,0.41986411431128234,-0.6607567578083204,0.012065841338930312,-0.0005715808149026123,0.00038584450465525084
1589985610.666215,0.05559604058752572,-4.346423756474846,8.752748527637834,0.46,0.4155555555555556,-0.6377777777777778,0.007455235883665198,0.0024417333331890442,0.00013003588409806616
1589985610.676215,0.03950934017477752,-4.395735989737834,8.580338731660387,0.46,0.4155555555555556,-0.6377777777777778,-0.007956951582127399,0.0011443534666051572,-0.001090830782496456
1589985610.686215,0.05502403383964622,-4.404995193232071,8.570076908286868,0.46,0.4155555555555556,-0.6377777777777778,-0.005991704248098202,0.0010897821084121487,-0.0016367705107868376
1589985610.696215,0.08448600777974999,-4.37756996110125,8.703832093357,0.46,0.4155555555555556,-0.6377777777777778,0.006096441866328808,0.0004893475376669871,-0.0012029664896589377
1589985610.706215,0.057096797993212337,-4.3358986277113765,8.798202744577246,0.46,0.41868919384191633,-0.654490515305035,0.014497490384134873,0.002116311513687975,0.0005127403655957592
1589985610.716215,0.008310372599720232,-4.32584481370014,8.771551862998601,0.46,0.4222222222222222,-0.6733333333333333,0.010255709789749276,0.0019973518070754486,0.0017284010527034155
1589985610.726215,0.01739629302736099,-4.399585172109444,8.614024713150927,0.46,0.4222222222222222,-0.6733333333333333,-0.005757429902320217,-0.003336998669137437,0.0002840203714355289
1589985610.7362149,0.042197940097075885,-4.425604119805849,8.542197940097076,0.46,0.4222222222222222,-0.6733333333333333,-0.01308996938995747,-0.004549101413838008,-0.0017561252095433652
1589985610.7462149,0.06397161823601485,-4.4146572060786715,8.596572060786716,0.46,0.4222222222222222,-0.6733333333333333,-0.006993700888703938,-0.003272492347489368,-0.002181661564992912
1589985610.7562149,0.05846093961548876,-4.4156921879230975,8.658615624153805,0.46,0.4193503475042874,-0.6733333333333333,0.005638912822433954,-0.002802582945619872,-0.00030202395751492716
1589985610.7662148,0.03,-4.356022342101494,8.699987587721392,0.46,0.4155555555555556,-0.6733333333333333,0.012435741714371326,0.00043524913735166777,0.002181661564992912
1589985610.7762148,0.01955697515244535,-4.361772099390219,8.646898826067117,0.46,0.4155555555555556,-0.6733333333333333,0.004594616179503833,0.0016120829166885132,0.0010425042683841145
1589985610.7862148,0.0383872259485434,-4.409462408649515,8.598924817299029,0.46,0.4155555555555556,-0.6733333333333333,-0.002697755896565467,5.8642119351346106e-05,-0.0015482829947176648
1589985610.7962148,0.05291928131962472,-4.42,8.607189460989717,0.46,0.4155555555555556,-0.6733333333333333,-0.0018750793182106978,0.00030658224678221436,-0.0014092749751178078
1589985610.8062148,0.03788180968299385,-4.388472761268025,8.656995382305448,0.4573727301056687,0.42037221702849625,-0.6733333333333333,0.004298860311994164,0.0017517755337934956,0.001090830782496456
1589985610.8162148,0.02847812998979138,-4.34,8.770760935005104,0.4533333333333333,0.42777777777777776,-0.6733333333333333,0.01090830782496456,-8.30051327046881e-05,-8.30051327046881e-05
1589985610.8262148,0.02046769641741528,-4.34,8.73289536612163,0.4533333333333333,0.42777777777777776,-0.6733333333333333,0.005769989361689552,-0.001661755056193679,0.0006219420385952135
1589985610.8362148,0.051008055967776134,-4.392520139919441,8.653235902056391,0.4533333333333333,0.42777777777777776,-0.6733333333333333,-0.006929851163024045,-0.003900379124747305,0.001035849858489983
1589985610.8462148,0.060876606732613116,-4.44,8.62,0.4533333333333333,0.42777777777777776,-0.6733333333333333,-0.01219038452907662,-0.004458946090793626,0.0004976039108443268
1589985610.8562148,0.05846379025073184,-4.41884052437317,8.636927580501464,0.4533333333333333,0.4226054615134417,-0.6643993325131164,-0.005201195571422265,-0.0023492360532802,0.0015524589296010399
1589985610.8662148,0.04768825389389858,-4.378844126946949,8.699045555685677,0.4533333333333333,0.4155555555555556,-0.6522222222222223,0.006566957161847149,0.00012608619069258723,0.0015732030783983902
1589985610.8762147,0.03498702590494313,-4.360025948190113,8.690103792760455,0.4533333333333333,0.4155555555555556,-0.6522222222222223,0.010364307687942638,0.0005468306454745348,0.001090830782496456
1589985610.8862147,0.03508115052833058,-4.374594247358347,8.640162301056662,0.4533333333333333,0.4155555555555556,-0.6522222222222223,0.004451844624304672,0.0005365632418163432,-0.0005188589429525737
1589985610.8962147,0.042001968058935385,-4.406000984029468,8.636000984029469,0.4533333333333333,0.4155555555555556,-0.6522222222222223,-0.002400042403419052,0.000436224972035158,-0.001854358659762263
1589985610.9062147,0.06431177776891266,-4.417155888884456,8.647155888884457,0.4533333333333333,0.4155555555555556,-0.6522222222222223,-0.004833665121747204,-0.0007805863871289183,-0.0012459529801802248
1589985610.9162147,0.0522024960807867,-4.36669625587882,8.703303744121179,0.46,0.4222222222222222,-0.6588888888888889,0.005204215813123298,0.0009707032563339597,-0.0009707032563339597
1589985610.9262147,0.06928130789746931,-4.341078038153796,8.728921961846204,0.46,0.4222222222222222,-0.6588888888888889,0.011724748593458862,3.919857342887887e-05,-3.919857342887887e-05
1589985610.9362147,0.021799556541019956,-4.344719822616408,8.677640088691795,0.46,0.4222222222222222,-0.6588888888888889,0.005380103191336135,0.0008945296155177145,-0.000514852779790079
1589985610.9462147,0.05899955654101995,-4.359599822616408,8.670200088691796,0.46,0.4222222222222222,-0.6588888888888889,-0.005170412136969588,-0.003163360895369102,-0.0021380089841448054
1589985610.9562147,0.04644932549290903,-4.427850224835697,8.609347976478727,0.45689476920711786,0.4207890387793536,-0.6574557054460202,-0.011061122237593776,-0.0038943149450522043,-0.001090830782496456
1589985610.9662147,0.06792566123922494,-4.417925661239225,8.6882973550431,0.4455555555555555,0.4155555555555556,-0.6522222222222223,-0.005146787646538296,-0.0017291110502771125,-0.00018572975306485736
1589985610.9762146,0.06,-4.382423475414262,8.709658803280348,0.4455555555555555,0.4155555555555556,-0.6522222222222223,0.0066194222719153165,0.0003760165236549155,0.002520459300179537
1589985610.9862146,0.06,-4.333682195025661,8.687545203316226,0.4455555555555555,0.4155555555555556,-0.6522222222222223,0.009971089099363676,0.0009569423931249012,0.001090830782496456
1589985610.9962146,0.04866703698737717,-4.371332963012623,8.67,0.4455555555555555,0.4155555555555556,-0.6522222222222223,0.001212101528978909,0.0008241563274041836,0.0006787526187943642
1589985611.0062146,0.04441284934930359,-4.39,8.672882569869861,0.44971926758979874,0.4155555555555556,-0.6563859342564655,-0.002181661564992912,0.0012383427809706496,0.0006288791893481748
1589985611.0162146,0.0641750196854583,-4.378131264764094,8.683956245078635,0.46,0.4155555555555556,-0.6666666666666666,-0.0004554239990426582,-0.0006592713910088925,0.0004554239990426582
1589985611.0262146,0.04744728232480136,-4.352552717675199,8.671381794187997,0.46,0.4155555555555556,-0.6666666666666666,0.004618779006743441,-0.0004061862402917548,-0.0005569166038258927
1589985611.0362146,0.04616731799102619,-4.344610894002991,8.653832682008973,0.46,0.4155555555555556,-0.6666666666666666,0.006211793703326057,-0.003102712827812928,0.0016786910536637938
1589985611.0462146,0.039463952365626005,-4.353154650788542,8.679463952365627,0.46,0.4155555555555556,-0.6666666666666666,0.00017542117813786756,-0.004765915874848613,0.0007467117636796225
1589985611.0562146,0.05971322819439974,-4.359904409398133,8.6997132281944,0.46,0.4155555555555556,-0.6666666666666666,-0.00645113884104848,-0.0032933469816960916,1.0427317103361717e-05
1589985611.0662146,0.05969029628156691,-4.4196902962815665,8.666563432093856,0.4455555555555555,0.44,-0.6666666666666666,-0.006136329854210527,0.0,-0.0010570473475444131
1589985611.0762146,0.04355863490609253,-4.4035586349060925,8.638648190563444,0.4455555555555555,0.44,-0.6666666666666666,0.0006093761517427525,-0.000388186849923212,0.001090830782496456
1589985611.0862145,0.05,-4.389506697642232,8.634155503929613,0.4455555555555555,0.44,-0.6666666666666666,0.008753551729818206,-0.000718252031715451,0.001090830782496456
1589985611.0962145,0.04690457405271996,-4.35928627784184,8.70619085189456,0.4455555555555555,0.44,-0.6666666666666666,0.008207039098379498,0.0,0.0007531721916733232
1589985611.1062145,0.04467117063254813,-4.383114113755032,8.715328829367452,0.4436524860385914,0.438961962081656,-0.6621685023538425,0.0013324187789467551,0.0,0.00016984855720923134
1589985611.1162145,0.06974769819442785,-4.399831798796286,8.690252301805572,0.4334361229578257,0.4333894004012383,-0.6380207350720325,-0.00322662258482311,0.0,0.0010816568299632041
1589985611.1262145,0.06421439160291036,-4.381321587404366,8.659750370610185,0.43333333333333335,0.43333333333333335,-0.6377777777777778,0.0009466679602523046,0.0006311119735015364,0.0
1589985611.1362145,0.049827611719443624,-4.359913805859722,8.610517164841669,0.43333333333333335,0.43333333333333335,-0.6377777777777778,0.0033289062803811276,0.0021910638871415387,-9.4023221486266e-06
1589985611.1462145,0.03604068607897886,-4.353020343039489,8.679061029118468,0.43333333333333335,0.43333333333333335,-0.6377777777777778,0.008170135461881115,0.0022840873991371744,-0.001090830782496456
1589985611.1562145,0.0521727028210421,-4.368690811284169,8.695654594357915,0.4359888590034959,0.4321262762105322,-0.6440544748163438,0.002230277123417177,0.0004740102236819215,-0.0008538256706554952
1589985611.1662145,0.06,-4.406349373170182,8.670475940244726,0.4455555555555555,0.42777777777777776,-0.6666666666666666,-0.006493067668021093,0.0011427478094540983,0.0003463045851796045
1589985611.1762145,0.06190363996448815,-4.418096360035512,8.634770880284096,0.4455555555555555,0.42777777777777776,-0.6666666666666666,-0.007273061909533753,-0.0017137955041126966,0.001090830782496456
1589985611.1862144,0.059630500312814,-4.403087000208543,8.590738999374372,0.4455555555555555,0.42777777777777776,-0.6666666666666666,0.002302580054864502,-0.0021010492384118513,0.001090830782496456
1589985611.1962144,0.04337843676801674,-4.384932344847975,8.648581402224092,0.4455555555555555,0.42777777777777776,-0.6666666666666666,0.008542381118808123,0.0018131312826658624,0.0012750959236599807
1589985611.2062144,0.057445580162786294,-4.363831629755821,8.733613950406966,0.44654894104780524,0.42621674343281385,-0.6656732811744168,0.006799883540519504,0.0,0.0020423395755002974
1589985611.2162144,0.043368050948653314,-4.391684025474326,8.693368050948653,0.4533333333333333,0.4155555555555556,-0.6588888888888889,0.0003560360521349717,-0.00036739736518074214,0.0009071320999060849
1589985611.2262144,0.05268819068255688,-4.3926881906825574,8.658817334777899,0.4533333333333333,0.4155555555555556,-0.6588888888888889,-0.001677303011647097,-0.0025804588989534797,0.0
1589985611.2362144,0.04,-4.376662626156157,8.610048486126116,0.4533333333333333,0.4155555555555556,-0.6588888888888889,0.0025470348311214647,-0.0025443903231768634,0.0
1589985611.2462144,0.04309164130354094,-4.363816717392918,8.696183282607082,0.4533333333333333,0.4155555555555556,-0.6588888888888889,0.0057913996627162725,-0.0004163392820284707,0.0006744915004679852
1589985611.2562144,0.04813547265254505,-4.35,8.710932263673728,0.4526082393648786,0.41617706467137394,-0.6575422858046158,0.006036513738626155,0.0008874423999554237,0.002181661564992912
1589985611.2662144,0.031559832437559276,-4.35,8.71922008378122,0.44616215705905077,0.4217022780763691,-0.6455709900937928,0.0015162090921029912,-0.0009206794586538419,0.002181661564992912
1589985611.2762144,0.06770300303058133,-4.407703003030582,8.606218018183487,0.4455555555555555,0.4222222222222222,-0.6444444444444445,-0.007385251977320895,-0.0019310980648386154,-0.00016198671827502694
1589985611.2862144,0.05999859105318774,-4.399998591053188,8.560009862627686,0.4455555555555555,0.4222222222222222,-0.6444444444444445,-0.00654421623370188,-0.001090830782496456,-0.00436286205321971
1589985611.2962143,0.05,-4.387959051561912,8.640204742190441,0.4455555555555555,0.4222222222222222,-0.6444444444444445,2.2333908380808105e-05,-0.0013134637206719088,-0.0006455649061455503
1589985611.3062143,0.05,-4.381644712081295,8.671776439593527,0.4455555555555555,0.4222222222222222,-0.6444444444444445,0.003466271846675791,-0.0020022513083309055,0.000732010269172443
1589985611.3162143,0.028881884611189877,-4.363354346166431,8.73552753844476,0.44,0.4222222222222222,-0.6733333333333333,0.006057114821179906,0.0002439349368994147,-0.0009688633140467486
1589985611.3262143,0.02079516663418437,-4.39,8.696024166829078,0.44,0.4222222222222222,-0.6733333333333333,0.0020515527287255507,0.0021382919529037915,-4.336961208912045e-05
1589985611.3362143,0.03716681922196796,-4.384333638443936,8.616999084668192,0.44,0.4222222222222222,-0.6733333333333333,-0.00047272662148553505,0.0013998828630019163,-0.0007817787019909955
1589985611.3462143,0.032207538544653615,-4.37,8.675452769812576,0.44,0.4222222222222222,-0.6733333333333333,0.002535661381329812,0.0017000513653817931,0.00024080509980555935
1589985611.3562143,0.04,-4.368695933049479,8.731304066950521,0.4417387559340283,0.42367118550057914,-0.6705803031044553,0.007351312203062227,0.0001422516372064825,0.001090830782496456
1589985611.3662143,0.0487124584834994,-4.36,8.734191694344334,0.4533333333333333,0.43333333333333335,-0.6522222222222223,0.003870184261645024,0.00045724292216155356,0.0014076247126639072
1589985611.3762143,0.06514051353740519,-4.372148716156487,8.68355385153054,0.4533333333333333,0.43333333333333335,-0.6522222222222223,-0.0007951316130784869,-0.0008257869114702937,0.0016515738229405873
1589985611.3862143,0.051568080869964776,-4.408431919130035,8.57627232347986,0.4533333333333333,0.43333333333333335,-0.6522222222222223,-0.0036145945239696472,-0.0003421021764802793,-0.00017105108824013964
1589985611.3962142,0.06,-4.397305686893794,8.628860191743444,0.4533333333333333,0.43333333333333335,-0.6522222222222223,-0.003690730108122108,-0.002181661564992912,-0.001090830782496456
1589985611.4062142,0.05818384507580583,-4.3881838450758055,8.687264619696776,0.4545441032827961,0.4328288458543905,-0.6528276071969537,0.0017842219764791854,-0.0023797733347022633,-0.001090830782496456
1589985611.4162142,0.04,-4.37,8.737743129716645,0.4666666666666667,0.42777777777777776,-0.6588888888888889,0.00803297542491125,-0.0036696522949254263,-0.00039715994743605844
1589985611.4262142,0.04192786741622253,-4.371927867416223,8.668793458421552,0.4666666666666667,0.42777777777777776,-0.6588888888888889,0.005283198421666269,-0.0023919592772116563,0.0008805330702777116
1589985611.4362142,0.048052274220632255,-4.378052274220632,8.601424983573045,0.4666666666666667,0.42777777777777776,-0.6588888888888889,0.0012747835415977422,-0.0030600284238897447,0.00021246392359962362
1589985611.4462142,0.030721185234786976,-4.4,8.612884740939148,0.4666666666666667,0.42777777777777776,-0.6588888888888889,3.933455269937836e-05,-3.933455269937836e-05,0.00222099611769229
1589985611.4562142,0.044764208587930024,-4.4,8.66905683435172,0.4666666666666667,0.42777777777777776,-0.6588888888888889,0.0008052626603456301,-0.0008052626603456301,0.0029869242253385423
1589985611.4662142,0.059539426665607874,-4.36,8.730307048889594,0.4533333333333333,0.4222222222222222,-0.6522222222222223,0.003272492347489368,0.001007096187371129,0.002148167726942781
1589985611.4762142,0.03138292910447761,-4.364148787313433,8.727873134328359,0.4533333333333333,0.4222222222222222,-0.6522222222222223,0.0031216381837719243,-0.004363323129985824,0.0003017083274348873
1589985611.4862142,0.046240173352146745,-4.39,8.598320231136196,0.4533333333333333,0.4222222222222222,-0.6522222222222223,0.0012740651409081432,-0.004136424023964632,0.0017278633529505276
1589985611.4962142,0.06737653698851039,-4.39,8.626502049318015,0.4533333333333333,0.4222222222222222,-0.6522222222222223,-0.0018000943370364143,-0.0033678841544784923,0.0001907836139782488
1589985611.5062141,0.06037618211825112,-4.399623817881749,8.668495271526995,0.4533333333333333,0.4222222222222222,-0.6522222222222223,-8.207020688260876e-05,-0.003272492347489368,-0.0010497956790551516
1589985611.5162141,0.05119393899867389,-4.391193938998674,8.687612122002651,0.4650747480017682,0.42711447833407007,-0.670812795447244,0.0028817767238364274,-0.003272492347489368,0.0008303537000611625
1589985611.5262141,0.04108297861930623,-4.381082978619306,8.681082978619306,0.4666666666666667,0.42777777777777776,-0.6733333333333333,0.006190580770561312,0.0015909883576305395,-0.0008545614995515071
1589985611.536214,0.04530921853329937,-4.385309218533299,8.664072344400102,0.4666666666666667,0.42777777777777776,-0.6733333333333333,0.0019118174892798255,-0.00013492203785654298,0.001225752820352999
1589985611.546214,0.04835070681315385,-4.386701413626308,8.651649293186846,0.4666666666666667,0.42777777777777776,-0.6733333333333333,-0.002361571542750258,-0.002181661564992912,0.00273276241421733
1589985611.556214,0.04048708238029172,-4.370974164760583,8.659512917619708,0.4666666666666667,0.42777777777777776,-0.6733333333333333,-0.003219359902085982,-0.002181661564992912,0.00015939733621015773
1589985611.566214,0.04212800113317123,-4.373615996600486,8.71,0.43333333333333335,0.43333333333333335,-0.6733333333333333,0.0017872175248716104,-0.0008587018683714045,0.00023212891412505144
1589985611.576214,0.047131561827553424,-4.351434219086223,8.698526247310214,0.43333333333333335,0.43333333333333335,-0.6733333333333333,0.004050425064366563,-0.00015644903280963033,0.0007779327168771953
1589985611.586214,0.03313866786768753,-4.358430666066156,8.642554671470752,0.43333333333333335,0.43333333333333335,-0.6733333333333333,0.0025240371176035196,-0.0009196430061911522,-0.0007484552298858485
1589985611.596214,0.05116314951224368,-4.434184252438782,8.652326299024487,0.43333333333333335,0.43333333333333335,-0.6733333333333333,-0.0031456124182292536,-0.0035262522060095967,0.0
1589985611.606214,0.05812164045391201,-4.3993917977304395,8.666243280907825,0.43333333333333335,0.43333333333333335,-0.6733333333333333,-0.0023865588063397974,-0.005044359429788509,0.0
1589985611.616214,0.061460802868811636,-4.38,8.705617591393565,0.46,0.4222222222222222,-0.6733333333333333,0.0015688774034341149,-0.0009314819088505696,0.001090830782496456
1589985611.626214,0.0669205697730565,-4.378460284886528,8.673841139546113,0.46,0.4222222222222222,-0.6733333333333333,0.004363323129985824,0.00016795686420500116,0.0009228739182914549
1589985611.636214,0.050043457267020766,-4.37002172863351,8.640086914534042,0.46,0.4222222222222222,-0.6733333333333333,0.004363323129985824,0.0010884605562669852,2.3702262294707233e-06
1589985611.646214,0.05,-4.404096743958597,8.674096743958597,0.46,0.4222222222222222,-0.6733333333333333,0.0015737897880155377,0.00016098633517302725,0.0009298444473234287
1589985611.656214,0.05971227048813255,-4.41,8.670287729511868,0.46,0.4222222222222222,-0.6733333333333333,-0.0020875023024196065,-0.0010594443616386874,-0.0010280579407809189
1589985611.666214,0.06,-4.392390410811508,8.696414383782736,0.4541301369371696,0.43787519038977,-0.6674634702705029,0.0016601548257916968,-0.001090830782496456,-0.00013037668480030378
1589985611.676214,0.03530652762830742,-4.38,8.677618102200615,0.4533333333333333,0.44,-0.6666666666666666,0.0017957599859845356,-0.0016696831510090203,0.00019295078950418813
1589985611.686214,0.058654024566742125,-4.38,8.623140609344267,0.4533333333333333,0.44,-0.6666666666666666,9.788209567211312e-05,-0.004216499986477654,0.0010418897346603994
1589985611.696214,0.04322376883939714,-4.383223768839397,8.662149179226265,0.4533333333333333,0.44,-0.6666666666666666,-0.0030380532617782165,-0.0030380532617782165,0.001090830782496456
1589985611.706214,0.06738216377075934,-4.40738216377076,8.678254775847172,0.4533333333333333,0.44,-0.6666666666666666,-0.0012812052053224666,-0.0012812052053224666,0.001090830782496456
1589985611.716214,0.0664475211582702,-4.40644752115827,8.691776239420864,0.4455555555555555,0.4222222222222222,-0.6522222222222223,0.00019375766373631146,-0.00019375766373631146,0.00019375766373631146
1589985611.726214,0.04847637563633573,-4.388476375636335,8.694667314727175,0.4455555555555555,0.4222222222222222,-0.6522222222222223,0.0014232340538657682,-0.0007584275111271438,0.0013401332360234402
1589985611.736214,0.03250381154845498,-4.371251905774227,8.63500762309691,0.4455555555555555,0.4222222222222222,-0.6522222222222223,0.004771345234826078,0.002726245405364406,0.003953637923392103
1589985611.746214,0.049822450303781046,-4.38,8.670355099392438,0.4455555555555555,0.4222222222222222,-0.6522222222222223,-1.9367667405853432e-05,-0.0010520954476847492,0.001090830782496456
1589985611.756214,0.04363726184156197,-4.38,8.682725476316875,0.4455555555555555,0.4222222222222222,-0.6522222222222223,-0.0006940670644189021,0.00029730334634134824,0.001090830782496456
1589985611.766214,0.046644106902518745,-4.386644106902518,8.696644106902518,0.45515259885919374,0.4177928176205431,-0.6618192655258603,-0.001090830782496456,0.000366071149349993,-0.0003586884837964699
1589985611.776214,0.05741980883129068,-4.36258019116871,8.667099044156453,0.46,0.4155555555555556,-0.6666666666666666,0.0020409339674152304,-0.000809375587341093,0.000809375587341093
1589985611.7862139,0.041022693954142965,-4.378977306045857,8.585113469770715,0.46,0.4155555555555556,-0.6666666666666666,0.0011466100848090644,0.000979272177871239,-0.000979272177871239
1589985611.7962139,0.05795876429892458,-4.38,8.651835057195699,0.46,0.4155555555555556,-0.6666666666666666,-0.0018476651544333423,0.001090830782496456,-0.00011133213685318982
1589985611.8062139,0.04223144218687024,-4.38,8.67776855781313,0.46,0.4155555555555556,-0.6666666666666666,-0.004119910547305897,0.001090830782496456,0.001938248982312985
1589985611.8162138,0.047193331530348104,-4.387193331530348,8.701579994591045,0.4456133369393038,0.420351109909121,-0.6666666666666666,-0.0027939816375846136,0.001090830782496456,0.002181661564992912
1589985611.8262138,0.04027128539818895,-4.380271285398189,8.687829716814488,0.44,0.4222222222222222,-0.6666666666666666,0.001179608721452351,-0.0010612381361778244,-2.9592646318631658e-05
1589985611.8362138,0.048070136293486554,-4.388070136293487,8.625438909652107,0.44,0.4222222222222222,-0.6666666666666666,0.00373177670885955,-0.00021051547370875808,-0.0008803153087876979
1589985611.8462138,0.0525946521316229,-4.372594652131623,8.682594652131623,0.44,0.4222222222222222,-0.6666666666666666,0.004605055987968989,0.0018986289234884817,0.002181661564992912
1589985611.8562138,0.06798968599166805,-4.387989685991668,8.697989685991667,0.44,0.4222222222222222,-0.6666666666666666,-0.0004329570616647561,0.0002192912402772338,0.002181661564992912
1589985611.8662138,0.06904707771702846,-4.3809529222829715,8.693811689131886,0.4533333333333333,0.3955555555555556,-0.6666666666666666,0.00020789539191843172,-0.00010394769595921586,-0.0007789876946188083
1589985611.8762138,0.061478734729966254,-4.388521265270033,8.724085061080135,0.4533333333333333,0.3955555555555556,-0.6666666666666666,0.0018590516924741564,-0.0009295258462370782,0.001697746756214779
1589985611.8862138,0.03277610416134797,-4.38,8.606477576376479,0.4533333333333333,0.3955555555555556,-0.6666666666666666,0.004161439138344832,-0.0011917727783169517,-0.0009898887866759602
1589985611.8962138,0.054191983660965025,-4.38,8.656447961875585,0.4533333333333333,0.3955555555555556,-0.6666666666666666,0.0026040324321836934,-0.001970476131397521,-0.00021118543359539073
1589985611.9062138,0.06,-4.364056746466385,8.67,0.4533333333333333,0.3955555555555556,-0.6666666666666666,-0.001296616780529611,-0.001312091978612281,0.0017391391727612615
1589985611.9162138,0.06,-4.375309643305251,8.700619286610504,0.4533333333333333,0.42022109199179464,-0.6666666666666666,-0.0013466500556724376,-0.0019258422918169305,0.000511638546351963
1589985611.9262137,0.06,-4.409602314458199,8.678674381527328,0.4533333333333333,0.42777777777777776,-0.6666666666666666,-0.002109360293201054,1.4460254358371593e-05,-1.4460254358371593e-05
1589985611.9362137,0.06,-4.387061605431453,8.60353868477151,0.4533333333333333,0.42777777777777776,-0.6666666666666666,0.0019886562510771882,0.0008340635632140199,-0.0008340635632140199
1589985611.9462137,0.06,-4.391894202180377,8.609735505450942,0.4533333333333333,0.42777777777777776,-0.6666666666666666,0.003272492347489368,0.001090830782496456,-0.0004421026889168925
1589985611.9562137,0.06,-4.362950787009364,8.667049212990635,0.4533333333333333,0.42777777777777776,-0.6666666666666666,0.0016559154675912528,-0.0005257460974016591,0.0008082884399490575
1589985611.9662137,0.040307795828126505,-4.376256272229164,8.699692204171875,0.4533333333333333,0.4241310733015049,-0.6615612803998846,0.0003748020329669646,0.0017732842156215096,0.0003748020329669646
1589985611.9762137,0.04946074864580807,-4.360808877031288,8.71,0.4533333333333333,0.4222222222222222,-0.6588888888888889,-0.002122838367327366,-0.0009731843871653642,0.0
1589985611.9862137,0.02231508145880742,-4.379228306180398,8.596945244376423,0.4533333333333333,0.4222222222222222,-0.6588888888888889,-0.001844946615759054,0.0004208936865423222,0.0008382945705710626
1589985611.9962137,0.04765471131965282,-4.370781762893449,8.672964133958958,0.4533333333333333,0.4222222222222222,-0.6588888888888889,0.0018405531534778194,0.005027768398088413,-0.0019258302563565928
1589985612.0062137,0.05696998553299028,-4.37696998553299,8.68696998553299,0.4533333333333333,0.4222222222222222,-0.6588888888888889,0.003702276519581064,0.003933538957894128,-0.001421354087698836
1589985612.0162137,0.06,-4.372542138955776,8.704915722088447,0.4384176112448856,0.4222222222222222,-0.6646894474788407,0.00029569093067553873,0.0016454394677652537,-0.001090830782496456
1589985612.0262136,0.06,-4.391116092197082,8.66072911820681,0.43333333333333335,0.4222222222222222,-0.6666666666666666,-0.0003230280033427864,-0.0004447747758108832,0.001980380334118222
1589985612.0362136,0.050170350221013266,-4.389829649778987,8.570851751105067,0.43333333333333335,0.4222222222222222,-0.6666666666666666,-0.0010350838030305542,0.002163079238504278,-1.858232648863395e-05
1589985612.0462136,0.05730108806528392,-4.382698911934716,8.60650544032642,0.43333333333333335,0.4222222222222222,-0.6666666666666666,0.0012984446997023013,0.0013852364042599929,-0.0007964251607329191
1589985612.0562136,0.03896101799790159,-4.387012994000699,8.662077964004196,0.43333333333333335,0.4222222222222222,-0.6666666666666666,0.0037116595116781026,-0.0012041661375313303,-0.0003258318091538605
1589985612.0662136,0.03,-4.376190838669234,8.721427483992299,0.45174554844102155,0.42605810036965724,-0.6712697204435887,0.0028569773039798818,-0.0014284886519899409,0.0
1589985612.0762136,0.0688185973910135,-4.37,8.674683688259561,0.46,0.42777777777777776,-0.6733333333333333,-0.00025774206648082165,0.0040411455468847965,0.001090830782496456
1589985612.0862136,0.05011283309176051,-4.37,8.590507748912922,0.46,0.42777777777777776,-0.6733333333333333,-0.004338706768030502,-0.001060060330052303,0.001090830782496456
1589985612.0962136,0.02076915885666207,-4.360256386285554,8.677692523430013,0.46,0.42777777777777776,-0.6733333333333333,0.00307672051074479,0.003160622726492466,2.7967405249225506e-05
1589985612.1062136,0.04416827738550748,-4.376112184923672,8.688056092461835,0.46,0.42777777777777776,-0.6733333333333333,0.001514925618687733,-0.00024264111011390154,0.0
1589985612.1162136,0.0630469432980259,-4.373476528350987,8.70957041494704,0.4505772076180924,0.42415362686165947,-0.6689843522339913,0.001090830782496456,-0.00037923041414783163,-0.0007116003683486243
1589985612.1262136,0.06034735983214827,-4.379652640167851,8.739305280335703,0.4455555555555555,0.4222222222222222,-0.6666666666666666,0.001090830782496456,-0.0010529397027454425,0.0020679883257398715
1589985612.1362135,0.04,-4.360240752491508,8.571083386211788,0.4455555555555555,0.4222222222222222,-0.6666666666666666,-1.3131011435000824e-05,-1.3131011435000824e-05,0.0021422685306879095
1589985612.1462135,0.04,-4.375896383113732,8.641533724011795,0.4455555555555555,0.4222222222222222,-0.6666666666666666,-0.0008670132015407986,-0.0008670132015407986,-0.0004193780396294839
1589985612.1562135,0.0329377267644844,-4.3729377267644844,8.674124546471031,0.4455555555555555,0.4222222222222222,-0.6666666666666666,0.001220292729413921,0.001220292729413921,-0.00032045627852633036
1589985612.1662135,0.04886311281269265,-4.360568443593654,8.727157782031732,0.4455555555555555,0.4274619757813035,-0.6593310116839528,0.0011528383595034897,0.003210484770482334,0.0010288232054894222
1589985612.1762135,0.042996009271038464,-4.3670039907289615,8.694980046355193,0.4455555555555555,0.42777777777777776,-0.6588888888888889,-0.0012012198237448559,0.00021642487250095235,-0.0004372029549977519
1589985612.1862135,0.04963786456913672,-4.379637864569137,8.573983489739497,0.4455555555555555,0.42777777777777776,-0.6588888888888889,-0.0011303336300382846,0.0031144809573220534,-3.950284754182867e-05
1589985612.1962135,0.05,-4.38,8.60435500083766,0.4455555555555555,0.42777777777777776,-0.6588888888888889,-0.0018403406314247044,0.0002744529517763744,-0.0007495098489282484
1589985612.2062135,0.043881554725713985,-4.373881554725714,8.675066007468574,0.4455555555555555,0.42777777777777776,-0.6588888888888889,-0.0008468238757506805,-0.00042341193787534027,-0.0017582496271175718
1589985612.2162135,0.048711103989745236,-4.396133311969236,8.72742220797949,0.4523308586586907,0.42777777777777776,-0.6463061831259236,0.0019004680763083583,0.0019004680763083583,0.0035197426639321633
1589985612.2262135,0.04070996349739092,-4.372129890492173,8.720709963497391,0.4533333333333333,0.42777777777777776,-0.6444444444444445,-0.0008584957712755984,-0.0028852673287879395,0.0013231657937173135
1589985612.2362134,0.030526277478526716,-4.388947445042946,8.606315329742321,0.4533333333333333,0.42777777777777776,-0.6444444444444445,0.0009760148477541443,-0.00017222390211346725,5.7407967371155824e-05
1589985612.2462134,0.06575592763231825,-4.381061018091921,8.671511855264637,0.4533333333333333,0.42777777777777776,-0.6444444444444445,-0.0008593525434059618,0.0009750916629512089,0.0019501833259024178
1589985612.2562134,0.04949125771378196,-4.393672494857479,8.68,0.4533333333333333,0.42777777777777776,-0.6444444444444445,0.0018920448703159955,-0.0004006070439097698,-5.5495174616426377e-05
1589985612.2662134,0.04,-4.371689447159438,8.708310552840564,0.4533333333333333,0.42253508280730334,-0.6717064582909116,0.002243091597223451,0.0019973714683012957,0.0019973714683012957
1589985612.2762134,0.049541864139020536,-4.389083728278041,8.662290679304897,0.4533333333333333,0.4222222222222222,-0.6733333333333333,0.004263373390041441,0.002181661564992912,9.99497399443829e-05
1589985612.2862134,0.031995769005716344,-4.380997884502858,8.605987307017148,0.4533333333333333,0.4222222222222222,-0.6733333333333333,0.0014173877224246158,-0.0007642738425682962,0.0
1589985612.2962134,0.03,-4.372775198875128,8.62889920449949,0.4533333333333333,0.4222222222222222,-0.6733333333333333,-0.00048537631038870956,-0.001090830782496456,0.0007881035464425828
1589985612.3062134,0.03428060629615235,-4.378561212592305,8.65712242518461,0.4533333333333333,0.4222222222222222,-0.6733333333333333,-0.0015577724940555686,-0.0006238890709373433,0.0006238890709373433
1589985612.3162134,0.04216376233466303,-4.39,8.684327524669326,0.45621834977955067,0.4234243124081461,-0.6733333333333333,-0.002181661564992912,0.0,0.0
1589985612.3262134,0.05,-4.39,8.709761630222856,0.4666666666666667,0.42777777777777776,-0.6733333333333333,-0.0016492472282709683,-0.0010648286734438873,0.0
1589985612.3362134,0.03740748724581447,-4.39,8.650741179851979,0.4666666666666667,0.42777777777777776,-0.6733333333333333,0.0009696142986902643,-0.0028684765920551523,0.0020604450811867203
1589985612.3462133,0.04166144431746968,-4.3725078335237955,8.64498433295241,0.4666666666666667,0.42777777777777776,-0.6733333333333333,0.00027356220051326656,-0.0007283598615165079,0.0007283598615165079
1589985612.3562133,0.05,-4.37568043495902,8.675226811653006,0.4666666666666667,0.42777777777777776,-0.6733333333333333,-0.001090830782496456,0.001090830782496456,-0.001090830782496456
