time,acc_x,acc_y,acc_z,mag_x,mag_y,mag_z,gyr_x,gyr_y,gyr_z
1589988618.3598554,-3.91,-0.68,8.99,0.3088888888888889,-0.3533333333333333,-0.64,0.0,-0.002181661564992912,0.011999138607461015
1589988618.3698554,-3.93571297204512,-0.6628580186365866,9.024283962726827,0.3088888888888889,-0.34761933954552887,-0.6257150155304888,-0.0009349500472095973,-0.006856411801040898,0.011064188560251417
1589988618.3798554,-3.93,-0.6225722200237436,8.99585278986941,0.3088888888888889,-0.3466666666666667,-0.6233333333333333,-0.0001402928390626625,-0.002181661564992912,0.00682557037310406
1589988618.3898554,-3.929301332525742,-0.6406986674742581,8.904192004845548,0.3088888888888889,-0.3466666666666667,-0.6233333333333333,-0.0013194691787913673,-0.0018005975711680596,0.00887907185750159
1589988618.3998554,-3.9243263859459874,-0.660815964864969,8.972979157837964,0.3088888888888889,-0.3466666666666667,-0.6233333333333333,-0.0036554198849593263,0.0028005568508050363,0.011144275573306725
1589988618.4098554,-3.9396436758837345,-0.6992873517674695,9.02,0.3086513394780454,-0.3464687088242971,-0.6236500658811246,-0.0008187482622988711,0.0010130929195828603,0.011882531813090621
1589988618.4198554,-3.9284315953121265,-0.6752947859363789,9.015294785936378,0.3022222222222222,-0.3411111111111111,-0.6322222222222222,0.006544984694978735,-0.0014330036050853347,0.007871214203499451
1589988618.4298553,-3.9200717531690983,-0.650215259507295,8.990215259507295,0.3022222222222222,-0.3411111111111111,-0.6322222222222222,0.006544984694978735,-0.003256838234370548,0.0033116276302864187
1589988618.4398553,-3.939169451073986,-0.65,8.883322195704057,0.3022222222222222,-0.3411111111111111,-0.6322222222222222,0.005001159745049384,-0.003272492347489368,0.00309129468051621
1589988618.4498553,-3.9300692124105012,-0.65,8.919723150357996,0.3022222222222222,-0.3411111111111111,-0.6322222222222222,3.774951395274159e-05,-0.003272492347489368,0.0011059305880775526
1589988618.4598553,-3.944313863718427,-0.6428430681407865,8.984412386732922,0.3022222222222222,-0.3411111111111111,-0.6322222222222222,0.0015614003160519432,-0.00014969171538548173,-0.00047056953355548723
1589988618.4698553,-3.9202668122952096,-0.64,9.029822125136526,0.31543697231324,-0.3532246320278774,-0.6256148471767132,0.002181661564992912,0.001090830782496456,-9.701568825448313e-06
1589988618.4798553,-3.9350289121467044,-0.6475144560733522,9.03,0.31555555555555553,-0.3533333333333333,-0.6255555555555555,0.0038210615646989145,0.00354993078205546,0.0016393999997060026
1589988618.4898553,-3.920580950081071,-0.65,8.913485700486426,0.31555555555555553,-0.3533333333333333,-0.6255555555555555,0.002245033388145499,-0.0009324012246149892,0.0011225166940727494
1589988618.4998553,-3.9284033939889595,-0.65,8.952016969944797,0.31555555555555553,-0.3533333333333333,-0.6255555555555555,0.0003483253968724115,-0.001090830782496456,0.002007498866556706
1589988618.5098553,-3.93,-0.65,9.017587447981104,0.31555555555555553,-0.3533333333333333,-0.6255555555555555,0.0010469693490533693,-4.386143344308662e-05,-0.0020062158312205655
1589988618.5198553,-3.94,-0.6424573311691506,9.035085337661698,0.3088888888888889,-0.3466666666666667,-0.6255555555555555,0.001090830782496456,-0.00013402662410487174,0.0
1589988618.5298553,-3.93884745327017,-0.66,8.99077962616136,0.3088888888888889,-0.3466666666666667,-0.6255555555555555,0.001090830782496456,-0.0009651074373800398,0.0
1589988618.5398552,-3.9311461202306197,-0.66,8.929168961844956,0.3088888888888889,-0.3466666666666667,-0.6255555555555555,0.001090830782496456,-0.0001250223228001704,0.0
1589988618.5498552,-3.9386004762084736,-0.6486004762084735,8.921196190332212,0.3088888888888889,-0.3466666666666667,-0.6255555555555555,0.0004801733294431469,-0.0009381664192331287,0.00015266436326332727
1589988618.5598552,-3.9306744396991573,-0.6406744396991572,8.984604482406743,0.3088888888888889,-0.3466666666666667,-0.6255555555555555,-0.0029782125135780447,-7.356995847783085e-05,0.0010172608240186251
1589988618.5698552,-3.9218235239250068,-0.644529428224979,9.03,0.31555555555555553,-0.3655555555555556,-0.64,0.0002951683704899001,0.001488661988499734,0.000596746809004917
1589988618.5798552,-3.93,-0.6232223159078134,9.013888420460933,0.31555555555555553,-0.3655555555555556,-0.64,-0.0034482424166479104,0.003096742278330826,0.0029209922091722835
1589988618.5898552,-3.926969352165632,-0.64,8.934545971751552,0.31555555555555553,-0.3655555555555556,-0.64,-0.0037021383402588304,0.002181661564992912,0.001090830782496456
1589988618.5998552,-3.911060946827711,-0.6389390531722894,8.965304734138554,0.31555555555555553,-0.3655555555555556,-0.64,-0.0004629253833035078,0.001950198873341158,0.0016694875116258407
1589988618.6098552,-3.9168839372483686,-0.6331160627516312,8.994419686241844,0.31555555555555553,-0.3655555555555556,-0.64,-0.003003684262117827,0.0006798194339339985,0.0048454361101437395
1589988618.6198552,-3.9274354574228734,-0.6151290851542539,9.039741829691494,0.3105985839403068,-0.35151080264568424,-0.64,-0.005174405713866993,0.0,0.005733902111097566
1589988618.6298552,-3.922999383783569,-0.5819975351342755,9.014996918917845,0.3088888888888889,-0.3466666666666667,-0.64,-0.00545415391248228,-0.0038182438326634645,0.012326992811276517
1589988618.6398551,-3.910524681556755,-0.57,8.905246815567553,0.3088888888888889,-0.3466666666666667,-0.64,-0.0033869601061127215,-0.0013197662997431626,0.02147321237405906
1589988618.6498551,-3.8942408897025884,-0.5857591102974115,8.931518220594823,0.3088888888888889,-0.3466666666666667,-0.64,-0.0006939139549133624,-0.00023130465163778734,0.02955235082765714
1589988618.6598551,-3.909253564786113,-0.6092535647861128,8.988133911965281,0.3088888888888889,-0.3466666666666667,-0.64,0.0,-0.003150357171222251,0.044235521377286216
1589988618.669855,-3.9341635856778505,-0.6502726427964175,9.038327171355702,0.32052320791896505,-0.3421919285781758,-0.6337353666761129,0.0026358383072889813,-0.001515266809296714,0.049995738696932655
1589988618.679855,-3.9481848731863494,-0.6454453804409528,8.973663858677142,0.3233333333333333,-0.3411111111111111,-0.6322222222222222,0.003470491967735881,-0.0027756604257324503,0.053054709101833304
1589988618.689855,-3.9413076360087826,-0.6673847279824348,8.901307636008783,0.3233333333333333,-0.3411111111111111,-0.6322222222222222,0.003935400246781554,-0.00559679487355037,0.05012791908878871
1589988618.699855,-3.949490041909283,-0.6494900419092832,8.913569706635018,0.3233333333333333,-0.3411111111111111,-0.6322222222222222,0.0008683195892416065,-0.006378101300037599,0.04204175033253837
1589988618.709855,-3.9417121611096686,-0.6417121611096688,8.968014872232319,0.3233333333333333,-0.3411111111111111,-0.6322222222222222,-0.0025254211302813585,-0.003832795760395375,0.0344058337136117
1589988618.719855,-3.9269723726096153,-0.6254585589144225,9.01,0.2966666666666667,-0.3533333333333333,-0.64,-0.005784416828018419,-0.0018513986494567728,0.029122168211868173
1589988618.729855,-3.91,-0.6,9.002530657236026,0.2966666666666667,-0.3533333333333333,-0.64,-0.007228426026877207,0.0,0.027813955496542045
1589988618.739855,-3.9107266982622435,-0.6,8.955086887835702,0.2966666666666667,-0.3533333333333333,-0.64,-0.004204782163177492,-0.00015854096680833167,0.03226825655963055
1589988618.749855,-3.9187099107329795,-0.6,9.010969375130855,0.2966666666666667,-0.3533333333333333,-0.64,-0.0024631153819198036,-0.0019002077480660203,0.039234923684661305
1589988618.759855,-3.92,-0.5911309238568437,9.028869076143156,0.2966666666666667,-0.3533333333333333,-0.64,-0.0002467293111409674,-0.002181661564992912,0.05100286634855456
1589988618.769855,-3.9275080173174057,-0.5824919826825944,9.03,0.3166880461797482,-0.3483279884550629,-0.623315517072432,0.0008189976405342488,-0.0013626639244586631,0.05973085632463812
1589988618.779855,-3.93,-0.6152751324859544,9.006483245009363,0.3233333333333333,-0.3466666666666667,-0.6177777777777778,0.00044951077629112434,-0.0017321507887017875,0.06602527463952998
1589988618.789855,-3.93,-0.64,8.92414641701659,0.3233333333333333,-0.3466666666666667,-0.6177777777777778,0.0,-0.003777997464014882,0.07271317904483166
1589988618.799855,-3.94,-0.6539518337125448,8.933456095021402,0.3233333333333333,-0.3466666666666667,-0.6177777777777778,-0.0009965804115819787,-0.005548404283396757,0.06787408595904643
1589988618.809855,-3.94,-0.597339863483861,8.965805792294937,0.3233333333333333,-0.3466666666666667,-0.6177777777777778,-0.00011437927182167537,-0.0064306054231570604,0.0599342757012037
1589988618.819855,-3.94,-0.59,8.963076864723398,0.3087178255271714,-0.3466666666666667,-0.6216239640425572,-0.0015103938142211355,-0.005789787787868168,0.051352893183702945
1589988618.829855,-3.93,-0.6198272367532092,8.989596885757487,0.3022222222222222,-0.3466666666666667,-0.6233333333333333,-0.003272492347489368,-0.005441590214636713,0.04143272418809698
1589988618.839855,-3.93,-0.5995864298812855,8.942368336389666,0.3022222222222222,-0.3466666666666667,-0.6233333333333333,-0.003272492347489368,-0.003969637201406046,0.039224794668250976
1589988618.849855,-3.93,-0.5292388441124435,8.98944132101435,0.3022222222222222,-0.3466666666666667,-0.6233333333333333,-0.002325633215743476,-0.002325633215743476,0.04196651391435952
1589988618.859855,-3.93,-0.487988385357254,9.02400871098206,0.3022222222222222,-0.3466666666666667,-0.6233333333333333,-0.007419549762451162,-0.0030546429312359536,0.049526251447306116
1589988618.869855,-3.919177961494479,-0.4532881540220835,9.056711845977917,0.3022222222222222,-0.3533333333333333,-0.6177777777777778,-0.00645531420435678,-0.00545415391248228,0.07042607861909388
1589988618.879855,-3.9113150741428115,-0.48473970342875355,9.025260296571247,0.3022222222222222,-0.3533333333333333,-0.6177777777777778,-0.005597606248106684,-0.00545415391248228,0.0867225297878457
1589988618.889855,-3.9195210345832305,-0.5628737925006164,8.922873792500617,0.3022222222222222,-0.3533333333333333,-0.6177777777777778,-0.00534965986840962,-0.009869724064504435,0.11204844514518345
1589988618.899855,-3.9101203577111865,-0.6192778537328821,8.979277853732883,0.3022222222222222,-0.3533333333333333,-0.6177777777777778,-0.003298750326743939,-0.010895178835337273,0.12743026670767607
1589988618.909855,-3.9027090560123963,-0.641872831962811,8.972709056012397,0.3022222222222222,-0.3533333333333333,-0.6177777777777778,-0.003272492347489368,-0.013294263665505221,0.13239911323316667
1589988618.9198549,-3.944985602168144,-0.6799904014454293,8.992492801084072,0.29805688868813485,-0.3533333333333333,-0.6236092447255002,-0.0016367696936843382,-0.011727216191746383,0.12681143430494143
1589988618.9298549,-3.9691688584955287,-0.6791688584955288,8.967506575486587,0.2966666666666667,-0.3533333333333333,-0.6255555555555555,0.0044539866037545985,-0.0074998202668220305,0.10176745402763228
1589988618.9398549,-3.9521968194877193,-0.662196819487719,8.916590458463157,0.2966666666666667,-0.3533333333333333,-0.6255555555555555,0.006305348862899535,-0.0047227768781046234,0.0860308748249003
1589988618.9498549,-3.9598111078270684,-0.6305666765187952,8.929622215654136,0.2966666666666667,-0.3533333333333333,-0.6255555555555555,0.007615210537794535,-0.005433548972801623,0.07436193766688493
1589988618.9598548,-3.933651929465883,-0.5421730982196099,9.009044211602351,0.2966666666666667,-0.3533333333333333,-0.6255555555555555,0.006677772597541768,-0.002580025272682009,0.06842823593015847
1589988618.9698548,-3.8860213174059774,-0.4772255808871731,9.072774419112827,0.30155318695489136,-0.35821985362155806,-0.618714427152041,0.004626052665090708,-0.006019525624768968,0.07722616866422041
1589988618.9798548,-3.833324330464195,-0.4046540626498726,9.108005401721483,0.3022222222222222,-0.3588888888888889,-0.6177777777777778,0.008436543699848906,-0.013673120692239128,0.1009425294739918
1589988618.9898548,-3.7827957524188567,-0.33256536059836683,8.98861764907706,0.3022222222222222,-0.3588888888888889,-0.6177777777777778,0.009462244064630147,-0.01785878919574642,0.1319620057410068
1589988618.9998548,-3.723695299837926,-0.30907617504051865,8.966304700162075,0.3022222222222222,-0.3588888888888889,-0.6177777777777778,0.005857248593858604,-0.013694611412021957,0.2006244660229057
1589988619.0098548,-3.4604911076443057,-0.3223575663026521,8.97,0.3022222222222222,-0.3588888888888889,-0.6177777777777778,6.214842461274659e-05,-0.013763970075941162,0.2641310768864276
1589988619.0198548,-3.0611141123362686,-0.368738252053578,8.963543624657738,0.30652647245039755,-0.3474108882804213,-0.6177777777777778,-0.00045536716081273675,-0.011363674985777297,0.35772953151339637
1589988619.0298548,-3.020945206959905,-0.29905479304009513,8.92502107424619,0.3088888888888889,-0.3411111111111111,-0.6177777777777778,0.004143317898569539,-0.02507991262283352,0.40087341603650883
1589988619.0398548,-2.1016938341601703,-0.7645287030474841,8.904649184975195,0.3088888888888889,-0.3411111111111111,-0.6177777777777778,0.004585200121181064,-0.027569182519210565,0.40698811454980993
1589988619.0498548,-1.5342026931254429,-1.2149184975194898,9.048773919206237,0.3088888888888889,-0.3411111111111111,-0.6177777777777778,0.011463386848233486,-0.0030042299225947755,0.3765275733300063
1589988619.0598547,-1.5708684288477288,-0.9939166419821923,8.763482427558328,0.3088888888888889,-0.3411111111111111,-0.6177777777777778,0.05096022102845291,0.027578644961252292,0.2837358425890768
1589988619.0698547,-1.734727881487097,-0.8626630657948766,8.906140433999811,0.3088888888888889,-0.3541545496979971,-0.6112560584843348,0.05700780419161364,0.02384419163864596,0.14154152188399385
1589988619.0798547,-1.8631890632410253,-0.8188403406396272,9.207680681279255,0.3088888888888889,-0.3588888888888889,-0.6088888888888889,-0.016077838508758255,-0.006639859104541596,-0.015193243729410656
1589988619.0898547,-1.9583234014475122,-0.7842460358372683,9.138492071674538,0.3088888888888889,-0.3588888888888889,-0.6088888888888889,-0.0075871186788256904,-0.009470099047852454,-0.1104779884875428
1589988619.0998547,-2.0046265145277022,-0.6588071991530409,8.965524055993413,0.3088888888888889,-0.3588888888888889,-0.6088888888888889,0.018006599464317454,0.022288440704303837,-0.21188075899087758
1589988619.1098547,-2.0631509461640016,-0.6703719692365725,9.000743938473144,0.3088888888888889,-0.3588888888888889,-0.6088888888888889,0.017675280778893042,0.02892730351082583,-0.3094569363716951
1589988619.1198547,-2.130198977045908,-0.6703979540918164,9.085224550898204,0.2966666666666667,-0.3655555555555556,-0.6111111111111112,0.004580373416672681,0.031851142979084084,-0.45154937519807103
1589988619.1298547,-2.138919660678643,-0.6878393213572854,8.875928143712574,0.2966666666666667,-0.3655555555555556,-0.6111111111111112,0.014093163567672526,0.04136393313008392,-0.5447747186778695
1589988619.1398547,-2.1672988633831065,-0.7172988633831068,8.813601515489191,0.2966666666666667,-0.3655555555555556,-0.6111111111111112,0.026190392473618387,0.05048331798548397,-0.6516147086906587
1589988619.1498547,-2.20050770517262,-0.7428807788794648,8.863388484052086,0.2966666666666667,-0.3655555555555556,-0.6111111111111112,0.026438800964770897,0.054596921167895426,-0.7359206279804973
1589988619.1598547,-2.2197756650278384,-0.7548878325139192,8.88977566502784,0.2966666666666667,-0.3655555555555556,-0.6111111111111112,0.02777947822967597,0.05563236990731925,-0.8061380484771901
1589988619.1698546,-2.280613732594177,-0.7738037452529574,8.969018726264787,0.2992229157875847,-0.36248805661045397,-0.617757358825498,0.03146010449215968,0.06165539000158533,-0.8948628824311398
1589988619.1798546,-2.35680540955195,-0.79,9.058402704775975,0.3022222222222222,-0.3588888888888889,-0.6255555555555555,0.037482125867735645,0.07238871090762224,-1.0101314329884197
1589988619.1898546,-2.386820341152436,-0.7989401137174785,8.979538976542694,0.3022222222222222,-0.3588888888888889,-0.6255555555555555,0.042079937884193716,0.0769865229240803,-1.0934147629243953
1589988619.1998546,-2.3740939058405885,-0.8397652353985293,8.985906094159413,0.3022222222222222,-0.3588888888888889,-0.6255555555555555,0.039072229089687105,0.07831652841416704,-1.1650697188764834
1589988619.2098546,-2.37683216131492,-0.8704964839447598,9.03782512920444,0.3022222222222222,-0.3588888888888889,-0.6255555555555555,0.03668853101271673,0.08152090908906329,-1.2305577678074164
1589988619.2198546,-2.407771831971515,-0.891108732788606,9.021119435239878,0.3139481068324174,-0.3588888888888889,-0.621235492804431,0.035997415822383035,0.08775023854186631,-1.2866883752093605
1589988619.2298546,-2.43,-0.9,8.966418469860898,0.3233333333333333,-0.3588888888888889,-0.6177777777777778,0.03942721035226333,0.09934682342193292,-1.3648071800739372
1589988619.2398546,-2.474929962770225,-0.9524182898985951,8.877628401587922,0.3233333333333333,-0.3588888888888889,-0.6177777777777778,0.04199443850057489,0.09981356322396437,-1.420469447554774
1589988619.2498546,-2.5318854953228898,-1.0370167925166236,8.875131297193734,0.3233333333333333,-0.3588888888888889,-0.6177777777777778,0.04345620027012817,0.10383459997100943,-1.482873865879458
1589988619.2598546,-2.5471858677735186,-1.0356282644529622,8.88,0.3233333333333333,-0.3588888888888889,-0.6177777777777778,0.0506879404895316,0.10863903800281163,-1.5275300564035184
1589988619.2698545,-2.5628820241656807,-1.068646072497043,8.918646072497044,0.3440877056002639,-0.33813451662195837,-0.6227874538422092,0.05415331376736574,0.11017390903214204,-1.570853323519147
1589988619.2798545,-2.604745519151382,-1.1455928306422114,8.967796415321105,0.3555555555555556,-0.32666666666666666,-0.6255555555555555,0.052267450214173936,0.110931938669025,-1.6159639147338958
1589988619.2898545,-2.6353302492064565,-1.1853302492064564,8.954449584655906,0.3555555555555556,-0.32666666666666666,-0.6255555555555555,0.05405616473362418,0.11405185777092924,-1.6470053367787278
1589988619.2998545,-2.6638953114964674,-1.2,8.943895311496467,0.3555555555555556,-0.32666666666666666,-0.6255555555555555,0.0567232006898157,0.11621364594336332,-1.681280950953588
1589988619.3098545,-2.68,-1.2339134135001812,8.98967423681266,0.3555555555555556,-0.32666666666666666,-0.6255555555555555,0.05441108847822017,0.11609048538694343,-1.7140154407392292
1589988619.3198545,-2.67341799975577,-1.2909700004070501,9.019029999592949,0.3643315558811957,-0.3259353333061967,-0.6270182222764955,0.05126904677733343,0.11719755029224112,-1.737265176538136
1589988619.3298545,-2.6077834095685497,-1.3440721968104834,8.944819507973792,0.3955555555555556,-0.3233333333333333,-0.6322222222222222,0.05126904677733343,0.12197063238375844,-1.7735671915866662
1589988619.3398545,-2.620010667408747,-1.395016001113121,8.862475998330318,0.3955555555555556,-0.3233333333333333,-0.6322222222222222,0.05208746077265154,0.12490070641273578,-1.7968765337277568
1589988619.3498545,-2.63,-1.454777362826774,8.845597170353347,0.3955555555555556,-0.3233333333333333,-0.6322222222222222,0.052970434131460596,0.12849832284524604,-1.8124319144018675
1589988619.3598545,-2.63,-1.5158755904108367,8.875875590410837,0.3955555555555556,-0.3233333333333333,-0.6322222222222222,0.05627329739586743,0.13202872952099115,-1.8296288609579165
1589988619.3698545,-2.6153625059326058,-1.549758329378263,8.904879164689131,0.4210356378210199,-0.30327454516690394,-0.6425226810103887,0.059969330861963495,0.13095241825025788,-1.8444366801494574
1589988619.3798544,-2.606140624359027,-1.578421873077081,8.922281248718054,0.4477777777777778,-0.2822222222222222,-0.6533333333333333,0.06175636202725895,0.13139738516441146,-1.8564985435561445
1589988619.3898544,-2.61,-1.650942943842955,8.893434233694226,0.4477777777777778,-0.2822222222222222,-0.6533333333333333,0.06483649216709192,0.12975743350857522,-1.8665143280684422
1589988619.3998544,-2.61,-1.7256548786260058,8.93417878152681,0.4477777777777778,-0.2822222222222222,-0.6533333333333333,0.06342920260017004,0.12840507033511378,-1.8731083983305075
1589988619.4098544,-2.61,-1.7661566726604645,8.96,0.4477777777777778,-0.2822222222222222,-0.6533333333333333,0.06360397978758389,0.1301446575198677,-1.8790404724774121
1589988619.4198544,-2.526779122671474,-1.835480584885684,8.96,0.46010679664126314,-0.2498585477055732,-0.6587272790861082,0.06360251704448826,0.13619518775919326,-1.8847090962975972
1589988619.4298544,-2.4972832423860827,-1.8891329695443309,8.938150272841751,0.4655555555555556,-0.23555555555555555,-0.6611111111111111,0.05770683589100905,0.1329741598832645,-1.8900188154319333
1589988619.4398544,-2.5239123799500063,-1.9478247599000131,8.810438100249966,0.4655555555555556,-0.23555555555555555,-0.6611111111111111,0.057371327249467134,0.13003021522850078,-1.8941090128620763
1589988619.4498544,-2.4967974490167077,-1.9516993622541767,8.78,0.4655555555555556,-0.23555555555555555,-0.6611111111111111,0.05781403147231216,0.1334306995840766,-1.8965839874298434
1589988619.4598544,-2.5048822117774026,-2.0293717961461453,8.814725160813937,0.4655555555555556,-0.23555555555555555,-0.6611111111111111,0.05781403147231216,0.13308992126583596,-1.898036995742565
1589988619.4698544,-2.52,-2.112434287438247,8.854868574876495,0.47718603998273645,-0.22906412238689644,-0.6646273040774681,0.06020388757628817,0.13252160381628805,-1.9025884066987393
1589988619.4798543,-2.52,-2.1412292616668283,8.87,0.5133333333333333,-0.2088888888888889,-0.6755555555555556,0.06763150851478028,0.1341721862470641,-1.9133171924987835
1589988619.4898543,-2.456414716042225,-2.23742976544194,8.862051839505277,0.5133333333333333,-0.2088888888888889,-0.6755555555555556,0.06849851832796676,0.1341721862470641,-1.917652241564716
1589988619.4998543,-2.4500625733281187,-2.265031286664059,8.880125146656237,0.5133333333333333,-0.2088888888888889,-0.6755555555555556,0.06707585458666074,0.13856281214204005,-1.9308455676224499
1589988619.5098543,-2.4509288356466556,-2.2881423287066887,8.9,0.5133333333333333,-0.2088888888888889,-0.6755555555555556,0.06479017326247317,0.14157948513240737,-1.9477171762810448
1589988619.5198543,-2.4175718187629545,-2.354856362474091,8.920713635395076,0.5234599995264815,-0.1854134354411363,-0.6810791916609091,0.06281628396266731,0.13943931222130418,-1.9636510995849066
1589988619.5298543,-2.3723534737256444,-2.426862035032474,8.894706947451288,0.5377777777777778,-0.15222222222222226,-0.6888888888888889,0.061674726570811925,0.14222505503650099,-1.9770771856294045
1589988619.5398543,-2.3550196759669584,-2.4900262346226114,8.79495408941043,0.5377777777777778,-0.15222222222222226,-0.6888888888888889,0.059448131331013475,0.14398966328953214,-1.992411724928298
1589988619.5498543,-2.3548925045703837,-2.51,8.78517915904936,0.5377777777777778,-0.15222222222222226,-0.6888888888888889,0.06001132761378546,0.14398966328953214,-2.0060847127404235
1589988619.5598543,-2.310688408043483,-2.586210139086945,8.815862318391304,0.5377777777777778,-0.15222222222222226,-0.6888888888888889,0.06345631407390377,0.14590810249694083,-2.018338111328187
1589988619.5698543,-2.2628301419098964,-2.6671698580901038,8.840377393567577,0.5513627068228295,-0.10316553400397982,-0.7047379727747826,0.0695456167404213,0.14578026975898428,-2.03277347189469
1589988619.5798542,-2.2355919912432727,-2.7088160175134544,8.864408008756726,0.5577777777777778,-0.08,-0.7122222222222222,0.06963732672481861,0.14429465909871278,-2.0431727465165905
1589988619.5898542,-2.2018487255483103,-2.72,8.81369745109662,0.5577777777777778,-0.08,-0.7122222222222222,0.06641921854189606,0.14936361171875373,-2.049146251773156
1589988619.5998542,-2.1673470251144185,-2.7539794623283718,8.840969193492558,0.5577777777777778,-0.08,-0.7122222222222222,0.06359655477576401,0.15224324282501517,-2.0575572757314227
1589988619.6098542,-2.1352356539174133,-2.814450140859369,8.894764346082587,0.5577777777777778,-0.08,-0.7122222222222222,0.062177354602297986,0.1564742369605777,-2.06437155001983
1589988619.6198542,-2.10253463927377,-2.8543663401815578,8.888168299092213,0.5606886712321495,-0.060594043637521904,-0.7277469873122047,0.061224766946919154,0.15844694971622134,-2.0669860897036663
1589988619.6298542,-2.08,-2.874951236439347,8.87993498191913,0.5644444444444444,-0.03555555555555556,-0.7477777777777778,0.05890840844101026,0.15544515959884578,-2.0687588059114277
1589988619.6398542,-2.0314589120228117,-2.9246722056979917,8.789048941766428,0.5644444444444444,-0.03555555555555556,-0.7477777777777778,0.05630117110141543,0.15489797111449674,-2.0640109830976385
1589988619.6498542,-1.9833333333333332,-2.9466666666666668,8.74,0.5644444444444444,-0.03555555555555556,-0.7477777777777778,0.054177928863990636,0.15707963267948966,-2.0536707531799943
1589988619.6598542,-1.9870637426044782,-2.989815399410449,8.762751656805971,0.5644444444444444,-0.03555555555555556,-0.7477777777777778,0.05158934277257024,0.15630909789223002,-2.0397437572721415
1589988619.6698542,-1.9796353851542845,-3.047152819794287,8.800364614845716,0.5742496293701592,-0.01066547074412565,-0.7711593726006362,0.05091869428641666,0.1578598842808155,-2.016667703667724
1589988619.6798542,-1.9417046741423336,-3.0953691573220827,8.802926168535585,0.5788888888888889,0.0011111111111111113,-0.7822222222222223,0.052812317399648936,0.16157620017795582,-1.9877045126460544
1589988619.6898541,-1.8919661509982812,-3.1036610251663803,8.749288201331042,0.5788888888888889,0.0011111111111111113,-0.7822222222222223,0.0506848087911332,0.16253378659197193,-1.9594057425902192
1589988619.6998541,-1.87,-3.1305156212352423,8.689484378764758,0.5788888888888889,0.0011111111111111113,-0.7822222222222223,0.04242990941425958,0.1542119418443708,-1.9326896673431482
1589988619.7098541,-1.8397775635797435,-3.1643174909171794,8.754984800177949,0.5788888888888889,0.0011111111111111113,-0.7822222222222223,0.03128776382677478,0.14522939445540342,-1.903080594442384
1589988619.719854,-1.788464207450694,-3.17,8.851160518626735,0.5750436247057868,-0.0020932757081405734,-0.7899127505884262,0.02697664763940993,0.15153982185749795,-1.8586975661448268
1589988619.729854,-1.7621758386132949,-3.1818827742578035,8.806234451484393,0.5722222222222222,-0.004444444444444445,-0.7955555555555556,0.02771349554781443,0.15772773747658309,-1.8117149189994104
1589988619.739854,-1.7078654059479161,-3.171942316834821,8.735826950504462,0.5722222222222222,-0.004444444444444445,-0.7955555555555556,0.020704810676696373,0.1516045045762711,-1.763344756544531
1589988619.749854,-1.6750066897089977,-3.1799732411640096,8.690013379417994,0.5722222222222222,-0.004444444444444445,-0.7955555555555556,0.017451833051843176,0.14399404169383254,-1.718638195323519
1589988619.759854,-1.6738363171355497,-3.2115089514066497,8.6953452685422,0.5722222222222222,-0.004444444444444445,-0.7955555555555556,0.016033259608713893,0.1377878299660293,-1.6737194194492682
1589988619.769854,-1.6837405140245691,-3.2599241121965536,8.746183598171985,0.5888467289980853,0.0005429075883144887,-0.8042834216128837,0.011591111823425036,0.13063319476035176,-1.6223898192378639
1589988619.779854,-1.6665841181257992,-3.31468317637484,8.771267294500639,0.6166666666666667,0.008888888888888889,-0.8188888888888889,0.014995150184593185,0.11989525193519239,-1.5621959992722074
1589988619.789854,-1.620856865094617,-3.351905224842305,8.705332685220773,0.6166666666666667,0.008888888888888889,-0.8188888888888889,0.02589953033341849,0.10748312240387096,-1.4929415998337994
1589988619.799854,-1.5995087272212447,-3.3752456363893777,8.716719454725643,0.6166666666666667,0.008888888888888889,-0.8188888888888889,0.03059685145686766,0.10357533479019643,-1.438396125580249
1589988619.809854,-1.5813846441422497,-3.4144614234310016,8.775846067573251,0.6166666666666667,0.008888888888888889,-0.8188888888888889,0.02928461884944841,0.09971872494312828,-1.3811596848700354
1589988619.819854,-1.57,-3.471093163390857,8.821093163390858,0.5704451525380951,-0.027472035558920735,-0.7745162353254602,0.026784976985015432,0.09538807065458763,-1.3100213845500062
1589988619.829854,-1.5515593108018555,-3.467706207201237,8.842293792798763,0.5333333333333333,-0.05666666666666665,-0.7388888888888889,0.025929724800559006,0.09154966617256069,-1.2425856573602603
1589988619.839854,-1.5219936794139983,-3.4660021068620006,8.777974717655994,0.5333333333333333,-0.05666666666666665,-0.7388888888888889,0.0270532928748895,0.08486502611727702,-1.1807023688865856
1589988619.849854,-1.5043901744860653,-3.4868294765418044,8.73,0.5333333333333333,-0.05666666666666665,-0.7388888888888889,0.028973537380411262,0.07630487536770351,-1.1183405332450318
1589988619.859854,-1.5044123279111488,-3.5132369837334463,8.791772590756082,0.5333333333333333,-0.05666666666666665,-0.7388888888888889,0.02752718988422458,0.07055090071238128,-1.0607331229053567
1589988619.869854,-1.460717874675137,-3.484824718452209,8.767328905573201,0.5278575416305707,-0.0064719093913434,-0.700102030994321,0.03136092825272615,0.07006630078055692,-0.9980537187199707
1589988619.879854,-1.4151795617024119,-3.452373722188815,8.645179561702411,0.52,0.06555555555555556,-0.6444444444444445,0.02662741845498895,0.06100817524686214,-0.938828847946774
1589988619.889854,-1.4558930602957907,-3.51,8.665358361774743,0.52,0.06555555555555556,-0.6444444444444445,0.006064307649373548,0.04309422769364175,-0.8937999377795277
1589988619.899854,-1.4400268316055405,-3.533395940412928,8.613610593257253,0.52,0.06555555555555556,-0.6444444444444445,0.02616823128340797,0.05235695068570313,-0.8115166378207016
1589988619.909854,-1.4506524695776664,-3.586676807444524,8.972231209735147,0.52,0.06555555555555556,-0.6444444444444445,0.020949260722801656,0.05556783364091028,-0.7549839740203654
1589988619.919854,-1.2906198810242262,-3.4006612639020606,9.317851538925769,0.5195752986368557,0.09613405370194748,-0.6274563899186711,0.08449429094908728,0.1560000403036238,-0.6395942262877135
1589988619.929854,-1.0690759854516858,-2.9734277007765653,7.727332153740292,0.5188888888888888,0.14555555555555555,-0.6,0.11018527520366911,0.05008385532555584,-0.5794327342081732
1589988619.939854,-1.1997895514122208,-3.305897175558427,8.930030459664021,0.5188888888888888,0.14555555555555555,-0.6,-0.08297533124294924,-0.12322340269987654,-0.5633526807749518
1589988619.949854,-1.2999362933107976,-3.457426379769876,10.137107846323865,0.5188888888888888,0.14555555555555555,-0.6,-0.08542730332162848,0.0035697531314863216,-0.47095121029975817
1589988619.959854,-1.1415633320654242,-3.1120692278432864,8.782046405477368,0.5188888888888888,0.14555555555555555,-0.6,0.07494368458170117,0.03266227020438893,-0.35866258876644314
1589988619.9698539,-1.1836164974876067,-3.2014028934677774,8.929189289447947,0.5376504906754797,0.1672486576213012,-0.6087945008374644,-0.030752430082742463,0.007857675000937779,-0.29083348258087033
1589988619.9798539,-1.2579579671714405,-3.4032620367732465,9.032038307291096,0.5544444444444444,0.18666666666666668,-0.6166666666666667,0.0031160788169974987,0.0038285576283653006,-0.20362992970734267
1589988619.9898539,-1.3719807073954984,-3.663565273311897,9.310744051446944,0.5544444444444444,0.18666666666666668,-0.6166666666666667,0.015714276758008433,0.004546694941268508,-0.13239521939488288
1589988619.9998538,-1.3477039604345964,-3.605407920869193,9.016223762607577,0.5544444444444444,0.18666666666666668,-0.6166666666666667,0.008716408703268442,-0.01081221922221496,-0.0734833978771054
1589988620.0098538,-1.2674316908816923,-3.4391046600892783,8.546107588638368,0.5544444444444444,0.18666666666666668,-0.6166666666666667,0.02070881962794486,-0.004083164065464186,-0.009219103431063701
1589988620.0198538,-1.336260686333534,-3.582869355809753,8.994346779048767,0.5476617833968828,0.19910154525386314,-0.6215652552010168,0.019340935456806367,-0.015290610491141922,0.054181256302861594
1589988620.0298538,-1.2973389116227936,-3.542843095339889,8.774033469736763,0.5344444444444445,0.22333333333333333,-0.6311111111111111,0.023668289743737463,-0.018053705823055616,0.10479917063866885
1589988620.0398538,-1.325621969636754,-3.591243939273508,8.92621969636754,0.5344444444444445,0.22333333333333333,-0.6311111111111111,0.007795005153706294,-0.021044164219894863,0.14781021551907858
1589988620.0498538,-1.303500683797596,-3.553701504354711,8.651405743899806,0.5344444444444445,0.22333333333333333,-0.6311111111111111,0.00799029818641321,-0.02618541531105142,0.20877435707053535
1589988620.0598538,-1.3686530204423322,-3.6959590613269966,9.21134697955767,0.5344444444444445,0.22333333333333333,-0.6311111111111111,0.0033347943945575,-0.02792080231543857,0.23828656577840368
1589988620.0698538,-1.3430588235294119,-3.6318823529411763,9.088705882352942,0.5389150326797386,0.22498039215686275,-0.6294640522875816,-0.0037344912671349257,-0.02647510475635516,0.2759031881516624
1589988620.0798538,-1.289784446322908,-3.5095688926458157,8.643051563820794,0.5555555555555556,0.2311111111111111,-0.6233333333333333,-0.004600299893385307,-0.031847556197171466,0.30574197981542994
1589988620.0898538,-1.3540202131065076,-3.609216170485206,8.853628298349111,0.5555555555555556,0.2311111111111111,-0.6233333333333333,-0.0037110295683667784,-0.03377300298924181,0.34043573121458504
1589988620.0998538,-1.3986316376239063,-3.653289547029883,8.969184459901603,0.5555555555555556,0.2311111111111111,-0.6233333333333333,-0.002988291021495405,-0.03287418865503897,0.364532721055441
1589988620.1098537,-1.384809378978639,-3.6166568821615503,8.88052783279106,0.5555555555555556,0.2311111111111111,-0.6233333333333333,-0.0004446497241142363,-0.0328464826698168,0.38504407367936566
1589988620.1198537,-1.3321399350028675,-3.5364198050086024,8.632956222519596,0.5625247775016462,0.2360570105567238,-0.6291784872236028,-0.0030517821008454664,-0.036426115864947796,0.4003730585283685
1589988620.1298537,-1.3625105782792666,-3.6231593794076162,8.911904090267983,0.59,0.25555555555555554,-0.6522222222222223,-0.001227761585941004,-0.03381575425739013,0.4224869163671499
1589988620.1398537,-1.354923297816066,-3.564923297816066,8.805230106551802,0.59,0.25555555555555554,-0.6522222222222223,-0.0028487887109721927,-0.03585060333665599,0.440255198671387
1589988620.1498537,-1.3731044939050276,-3.593447753047486,8.726552246952513,0.59,0.25555555555555554,-0.6522222222222223,-0.008387998508403976,-0.03814163362347924,0.4569066689339309
1589988620.1598537,-1.36,-3.594341773279112,8.732731010121999,0.59,0.25555555555555554,-0.6522222222222223,-0.01043469383061698,-0.03646032841349469,0.47090888683792265
1589988620.1698537,-1.36,-3.5694416575143224,8.788756270592776,0.59,0.25555555555555554,-0.6522222222222223,-0.013150875107012764,-0.038497464370791545,0.4790574306671101
1589988620.1798537,-1.3881172040480112,-3.6249792107946965,8.852468816192046,0.6433333333333333,0.2488888888888889,-0.6522222222222223,-0.012341440571059181,-0.043427850121699335,0.4983772823164588
1589988620.1898537,-1.3698524235476475,-3.557881938838118,8.736059030580941,0.6433333333333333,0.2488888888888889,-0.6522222222222223,-0.017238345982183958,-0.04100557856564688,0.515054879688687
1589988620.1998537,-1.3976216477410002,-3.59,8.744756704518,0.6433333333333333,0.2488888888888889,-0.6522222222222223,-0.01861290968423042,-0.04498350006792839,0.5287404126850058
1589988620.2098536,-1.39068718176675,-3.5615008486219994,8.819186333144751,0.6433333333333333,0.2488888888888889,-0.6522222222222223,-0.01948503428006793,-0.04573993296241701,0.5380044554780552
1589988620.2198536,-1.3965095385556447,-3.5042183736667045,8.857237450777996,0.6942972987897864,0.2508160976666539,-0.6676398924443425,-0.015271630954950384,-0.04384345716576658,0.5466370449907233
1589988620.2298536,-1.3403867033681234,-3.48016573001491,8.720939136751158,0.90631689838709,0.2588336455505856,-0.7317802755157956,-0.015271630954950384,-0.04471803596895978,0.5562574118258485
1589988620.2398536,-1.4078531908603285,-3.4678531908603287,8.793247877687206,0.9077777777777778,0.2588888888888889,-0.7322222222222222,-0.019869134634306035,-0.04538656774828784,0.5673861154831742
1589988620.2498536,-1.430105013030814,-3.483368337676938,8.713578363738566,0.9077777777777778,0.2588888888888889,-0.7322222222222222,-0.019278980587209067,-0.04435663343997003,0.5745233040225627
1589988620.2598536,-1.4472661206203723,-3.5146049144166485,8.768201638138882,0.9077777777777778,0.2588888888888889,-0.7322222222222222,-0.02191866478060469,-0.04363323129985824,0.5790349746580007
1589988620.2698536,-1.4400940476394042,-3.579153571245362,8.789717857081786,0.9077777777777778,0.2588888888888889,-0.7322222222222222,-0.02504807197338517,-0.04363323129985824,0.5813820300525859
1589988620.2798536,-1.4854269696210032,-3.5754269696210033,8.72614325759475,1.5855555555555556,-0.03888888888888889,-1.4433333333333334,-0.021224625098102776,-0.04363323129985824,0.5678089820259166
1589988620.2898536,-1.5251556061180636,-3.6189445076475795,8.72,1.5855555555555556,-0.03888888888888889,-1.4433333333333334,-0.017717513218390987,-0.04321992625783386,0.5568181924813822
1589988620.2998536,-1.5377964554117014,-3.613389366235104,8.7362713927844,1.5855555555555556,-0.03888888888888889,-1.4433333333333334,-0.014587528125115611,-0.04342986732352739,0.5407006823402268
1589988620.3098536,-1.514110762355695,-3.5364430494227803,8.757055381177848,1.5855555555555556,-0.03888888888888889,-1.4433333333333334,-0.011999138607461015,-0.04343922974078574,0.5223075597175442
1589988620.3198535,-1.5013352729974,-3.4826705459948,8.756231273987867,1.5485140935165698,-0.040916525662718556,-1.4143035092787477,-0.011902034814887665,-0.04040929084865555,0.5046889261897554
1589988620.3298535,-1.5272997400024761,-3.5345994800049523,8.877398786678222,0.8282405458572352,-0.08034404963338973,-0.84981676364987,-0.010013845490870959,-0.0413533855106639,0.4763660863295046
1589988620.3398535,-1.4779075247524753,-3.458140396039604,8.78581504950495,0.7533333333333333,-0.08444444444444445,-0.7911111111111111,-0.007382159519478045,-0.039016252211875276,0.45150270189655134
1589988620.3498535,-1.4886113393590796,-3.5224301561216107,8.77756984387839,0.7533333333333333,-0.08444444444444445,-0.7911111111111111,-0.005643503134176919,-0.035959545978044107,0.41033432873702963
1589988620.3598535,-1.4528251176361806,-3.5645739412743747,8.75520188217889,0.7533333333333333,-0.08444444444444445,-0.7911111111111111,-0.011832825409480377,-0.033057549870854956,0.3761262629042627
1589988620.3698535,-1.4622580437787278,-3.5045160875574557,8.833871299540355,0.7237278704566802,-0.03702552509116104,-0.7760574859195926,-0.013934485806247838,-0.02860791471111394,0.3443155419792265
1589988620.3798535,-1.480540700076737,-3.5270271333844914,8.79081203392165,0.6222222222222222,0.12555555555555556,-0.7244444444444444,-0.012323428049106312,-0.029452431127404314,0.29850414910031087
1589988620.3898535,-1.5079465332949742,-3.5380133666762563,8.90622723349636,0.6222222222222222,0.12555555555555556,-0.7244444444444444,-0.011341723981579102,-0.02771876650094614,0.2631652497876339
1589988620.3998535,-1.5417144651454888,-3.517998743981578,8.759713209127067,0.6222222222222222,0.12555555555555556,-0.7244444444444444,-0.011406797169362668,-0.020912804003054307,0.22252879457749816
1589988620.4098535,-1.541792659492698,-3.443585318985396,8.742829362029209,0.6222222222222222,0.12555555555555556,-0.7244444444444444,-0.002675637702969689,-0.0209213336831496,0.17865986672422637
1589988620.4198534,-1.5414897482481185,-3.393284453672463,8.834029327796522,0.6222222222222222,0.13301727369726332,-0.7274291317011276,-0.001090830782496456,-0.018104591823118247,0.1408969471026671
1589988620.4298534,-1.6745902540194635,-3.3581146189708044,8.846475635048659,0.6222222222222222,0.1811111111111111,-0.7466666666666667,-0.002271054270707572,-0.015566686827003162,0.09716457290691098
1589988620.4398534,-1.661105003326214,-3.3824862574839814,8.807789993347573,0.6222222222222222,0.1811111111111111,-0.7466666666666667,-0.005213079583883224,-0.016272058864222193,0.07015064358539759
1589988620.4498534,-1.7197854516684508,-3.437024247219249,8.749785451668451,0.6222222222222222,0.1811111111111111,-0.7466666666666667,0.002553073023304639,-0.011291421079495647,0.03464048974754912
1589988620.4598534,-1.7574740484429066,-3.3725259515570936,8.784948096885813,0.6222222222222222,0.1811111111111111,-0.7466666666666667,0.0024685236392826375,-0.006533661192046247,0.013055998881160004
1589988620.4698534,-1.7507165918023582,-3.3807165918023583,8.778599101628298,0.6226999500904611,0.17904095701540956,-0.7488164420737413,0.00591964037778116,-0.0036633325457378525,0.003350660387139065
1589988620.4798534,-1.758115471132217,-3.393140881446305,8.883090060818128,0.6288888888888889,0.15222222222222226,-0.7766666666666666,-0.0016334743384646589,-0.008315505840075458,0.005254127373094235
1589988620.4898534,-1.726450411433521,-3.4488739714161976,8.764026851450843,0.6288888888888889,0.15222222222222226,-0.7766666666666666,0.00615778464762746,-0.002956061659695463,0.022416123775952507
1589988620.4998534,-1.6977846343721072,-3.483892317186054,8.698550755939525,0.6288888888888889,0.15222222222222226,-0.7766666666666666,0.005029567972303545,-0.006811482631905824,0.04342546522703039
1589988620.5098534,-1.5941918412779004,-3.43736530687965,8.778442851842449,0.6288888888888889,0.15222222222222226,-0.7766666666666666,0.009242676170846235,-0.009014046695782584,0.06861125174370764
1589988620.5198534,-3.9801867064973857,-4.514047147449427,6.491751469298958,0.6142519653790233,0.15298456198836108,-0.7566933647938291,-0.1749799614466612,0.2917979250084621,-0.26772476984197985
1589988620.5298533,-12.409418479851693,-7.872837349985364,-5.225291247926627,0.5222222222222223,0.15777777777777774,-0.6311111111111111,-1.175929951972553,0.6437408706579821,-4.904816256037783
1589988620.5398533,-0.99,-2.11,-0.25,0.5222222222222223,0.15777777777777774,-0.6311111111111111,-0.9304786574694768,-1.9307704850187268,-9.016807248115706
1589988620.5498533,0.04313996854639408,-2.4299119299033927,0.16091709728150977,0.5222222222222223,0.15777777777777774,-0.6311111111111111,-0.9282449908961609,-0.8633377409700644,-9.049930664255694
1589988620.5598533,-0.539833809116861,-2.4242105933050895,0.4297678055166645,0.5222222222222223,0.15777777777777774,-0.6311111111111111,-0.9823787346911096,-0.8485285197532489,-8.816575665095996
1589988620.5698533,-1.0889357601323708,-5.032444860628761,7.621478080622579,0.5222222222222223,0.15777777777777774,-0.6311111111111111,-0.9998489062589264,-0.6031142048720116,-8.527901877761119
1589988620.5798533,-0.7041008977253951,-2.1174450625103263,1.2343228506911936,0.5044444444444445,0.3244444444444444,-0.6666666666666666,-0.37875174346495954,0.4221040514438421,-7.8783340692255805
1589988620.5898533,-0.5963000495676598,-2.7103497273778707,3.636741752492152,0.5044444444444445,0.3244444444444444,-0.6666666666666666,0.803052716209365,2.004562901498161,-7.266853154767224
1589988620.5998533,-0.26650136812467773,-1.5093694729745804,3.759512035531586,0.5044444444444445,0.3244444444444444,-0.6666666666666666,1.6987271545222742,2.91150530895574,-6.681628477886945
1589988620.6098533,1.5048947138834912,2.732001427608359,6.412447951778562,0.5044444444444445,0.3244444444444444,-0.6666666666666666,2.4462434645600473,3.4358553419676734,-6.257975423533012
1589988620.6198533,-0.20373673270829648,-0.5474310100831417,-2.276879090748275,0.48621137743970755,0.3450436346482693,-0.6633262574444247,2.1362427809001763,0.27679775628428505,-5.334380263217187
1589988620.6298532,-0.1279758862459865,-0.30437848109560317,-0.2487458226852762,0.3588888888888889,0.4888888888888889,-0.64,0.6743196246304739,-0.13099461712080238,-4.6727339469768845
1589988620.6398532,0.2565254898253409,-0.23745881685613668,-0.15514511592730024,0.3588888888888889,0.4888888888888889,-0.64,-0.28812390787064907,0.3246902773723004,-4.17778351568313
1589988620.6498532,0.2763515397887074,-0.5943277161967337,0.8014617948051335,0.3588888888888889,0.4888888888888889,-0.64,-0.676326145307234,0.14789065113029037,-3.7830932185679393
1589988620.6598532,0.4215944507487973,-1.1658529256636885,3.342009525788355,0.3588888888888889,0.4888888888888889,-0.64,-0.6651324787197244,0.017065825911184662,-3.439382797193123
1589988620.6698532,0.8439271500950982,-2.211629133568814,9.382037495804498,0.3588888888888889,0.4888888888888889,-0.64,0.2284666766421134,-0.012184555606387763,-3.2083047832043006
1589988620.6798532,0.5571655142276946,-1.005763822841426,5.460889391563633,0.2822222222222222,0.5333333333333333,-0.6355555555555555,0.5378943985878702,0.7167349319142091,-2.866567864359983
1589988620.6898532,0.785,-2.4650000000000003,11.68,0.2822222222222222,0.5333333333333333,-0.6355555555555555,-0.0779944009484966,0.3594287428325822,-2.641446739815168
1589988620.6998532,0.603780123314871,-1.798915665168774,7.242417180478628,0.2822222222222222,0.5333333333333333,-0.6355555555555555,-0.058496618634965775,-0.15776221984214325,-2.4147231417931256
1589988620.7098532,0.7469709493132369,-1.9452696912604837,7.904107815728698,0.2822222222222222,0.5333333333333333,-0.6355555555555555,0.10461565416936106,0.05125996425532042,-2.120366855846459
1589988620.7198532,0.7979530813176127,-2.130079919776346,8.592366597787773,0.2822222222222222,0.5333333333333333,-0.6355555555555555,0.0719430877876044,0.35435015452012686,-1.8874879252530863
1589988620.7298532,0.837981644446123,-2.5156879555840916,9.402476866714508,0.23127422962487362,0.565300701237552,-0.6295616740735146,-0.04418361119272261,-0.005934330396600407,-1.6347651042957292
1589988620.7398531,0.8784708072100313,-2.3961167711598748,9.39844670846395,0.2255555555555556,0.5688888888888889,-0.6288888888888889,0.06942374947460335,0.15461429954364886,-1.3852151707859182
1589988620.7498531,0.8105449431618423,-2.4783651705144734,9.524932614555256,0.2255555555555556,0.5688888888888889,-0.6288888888888889,0.06890987577423938,0.07715483325084684,-1.0783089195166022
1589988620.7598531,0.8103471473629577,-2.4306942947259156,8.877637241985068,0.2255555555555556,0.5688888888888889,-0.6288888888888889,-0.06447995827943977,0.019062297321290028,-0.7903155904139556
1589988620.769853,0.7706064837905237,-2.3551551122194514,8.023053366583541,0.2235676364643946,0.5697312274868385,-0.6294953726794126,0.07348032010787249,0.034873506480497175,-0.564945016236161
1589988620.779853,0.7873418453865337,-2.497405685785536,8.935130573566084,0.16871284012191742,0.5929747852590745,-0.6462307342754225,-0.005930876887472153,0.033960734101240335,-0.3212347909745861
1589988620.789853,19.14669065933161,-19.658616276579977,4.527506135424044,0.16,0.5966666666666667,-0.6488888888888888,-0.11058289196993078,-0.13391579708384987,0.17712315646109655
1589988620.799853,1.4266315286676665,-2.16653451484855,4.555139755900713,0.16,0.5966666666666667,-0.6488888888888888,-0.41729406112103984,-0.5144787956620073,0.7890383145709259
1589988620.809853,-1.4506739617790458,-0.9072936491761645,11.505591107906,0.16,0.5966666666666667,-0.6488888888888888,-0.023734543345518222,0.13909143342234745,1.8142496567614181
1589988620.819853,-0.4512013419662313,-0.3352270838885666,2.628696129305345,0.16,0.5966666666666667,-0.6488888888888888,0.6813451648485437,0.2725042774956898,1.9462279541242946
1589988620.829853,-1.1448321999955988,-2.337671266037279,11.028387359433111,0.16,0.6055555555555555,-0.6766666666666666,0.03438437089753875,-0.07822460102747263,1.931115539081525
1589988620.839853,0.7471691434671461,-2.155960333735989,10.66093884316094,0.16,0.6055555555555555,-0.6766666666666666,-0.5938012763826713,-0.4063584453289144,1.8796768132608677
1589988620.849853,0.2697726225226609,-2.5793235007937727,10.02525887233062,0.16,0.6055555555555555,-0.6766666666666666,-0.0816746630146746,-0.15824302909861554,2.011406995769259
1589988620.859853,0.035044660982541595,-2.402821449764202,7.8790536868734184,0.16,0.6055555555555555,-0.6766666666666666,0.20080537626860956,-0.05602779989865053,2.136870303319112
1589988620.869853,0.4607754770604953,-2.9005990193322715,10.590631500046847,0.16,0.6055555555555555,-0.6766666666666666,-0.11713019951546771,-0.14605000787346792,2.2161755817731184
1589988620.879853,0.3153290050316507,-2.7557237461451063,9.281645187469568,0.2046564230193511,0.6175365470973326,-0.6625073130263847,-0.20082051291876646,-0.2525273084425119,2.3613543800631924
1589988620.889853,1.1900028614642522,-5.669057351919225,7.22834852634591,0.20555555555555555,0.6177777777777778,-0.6622222222222223,0.012572713244882919,-0.1538138289890487,2.6033496430676824
1589988620.899853,-0.1352204585537919,-2.63789728605649,9.793275158598542,0.20555555555555555,0.6177777777777778,-0.6622222222222223,-0.22122248695437402,-0.2504323389549119,3.02804796286934
1589988620.909853,-0.724391855503542,-2.6271183561870832,8.02781225402875,0.20555555555555555,0.6177777777777778,-0.6622222222222223,-0.021398092542422968,-0.23597920310430243,3.655101459100408
1589988620.919853,-0.40294295538340447,-2.8182501346368944,7.871431708024359,0.20555555555555555,0.6177777777777778,-0.6622222222222223,-0.026136556802567223,-0.19238533191097526,3.791569229792563
1589988620.929853,-0.09209436383021014,-3.1053759554744396,9.049053289723341,0.2514493495646028,0.5927447992273883,-0.6730698462607243,-0.18510518641748375,-0.3214201822901797,3.826405925343993
1589988620.939853,-0.22421968945482518,-3.090730611170719,8.08059639249347,0.26666666666666666,0.5844444444444444,-0.6766666666666666,-0.0807323206262432,-0.2633033461456466,3.918021280515786
1589988620.949853,-0.011944652509261688,-3.235077636293702,8.895732534364436,0.26666666666666666,0.5844444444444444,-0.6766666666666666,-0.09555191388421397,-0.2688606936173856,3.9587751619752054
1589988620.959853,-0.08321882024649252,-3.343562359507015,9.191030617781568,0.26666666666666666,0.5844444444444444,-0.6766666666666666,-0.1363492311652293,-0.299117096971081,3.999575463313536
1589988620.969853,-0.10272568017983102,-3.304548639640338,9.01546887838152,0.26666666666666666,0.5844444444444444,-0.6766666666666666,-0.11648912676577237,-0.2806755714572996,4.022982014927181
1589988620.979853,0.06759666292315097,-3.69754211455158,8.780200545483716,0.3588888888888889,0.54,-0.7055555555555556,-0.160352125026979,-0.3080386773666404,4.038518945270941
1589988620.989853,13.45026010749238,-24.103790710733193,6.088527193967591,0.3588888888888889,0.54,-0.7055555555555556,-0.160352125026979,-0.33097742852491535,3.934835790035538
1589988620.999853,-2.392374220572136,-0.7892855442905422,10.093219096577657,0.3588888888888889,0.54,-0.7055555555555556,-0.6045661045076118,-0.28833052746500876,-0.21337146480626185
1589988621.009853,-2.8367388565245104,-3.8817085427135676,13.779239708868829,0.3588888888888889,0.54,-0.7055555555555556,0.022263354845298466,0.2595399495029517,-1.7977136267990188
1589988621.0198529,-2.4201750641111164,-1.7740201005025127,7.257218541082996,0.3588888888888889,0.54,-0.7055555555555556,0.6699537731949767,0.39518192193220375,-1.3745106728197527
1589988621.0298529,-1.237905610239904,-0.5711912870990681,6.0820229050488415,0.4123385772088942,0.4766826769132244,-0.7014440410694013,0.5230708133362665,0.2020831489594636,-0.5025694083475942
1589988621.0398529,-0.7328641342344442,-4.287135865765555,10.037086926124447,0.4311111111111111,0.4544444444444444,-0.7,-0.41675557384004824,-0.1601632442832375,0.17302213346315318
1589988621.0498528,-0.8629117381597073,-4.036587810555319,8.874916868557312,0.4311111111111111,0.4544444444444444,-0.7,-0.30111116529932713,-0.11412594890144315,0.5285893095872147
1589988621.0598528,-0.43935385323596493,-3.0922150614132367,7.994663639597413,0.4311111111111111,0.4544444444444444,-0.7,0.19429159092131193,0.014754940857999653,1.0436935674428587
1589988621.0698528,4.826449331464084,-14.62432403590634,9.05660061517859,0.4311111111111111,0.4544444444444444,-0.7,0.017181834494452486,-0.04747281140008608,1.290689876405722
1589988621.0798528,-0.30404451772464913,-5.2066067600989285,9.976386026380874,0.41429488412567556,0.4686054776953375,-0.6929194833745534,-0.2043970257921772,-0.1800896648674909,0.8982243739698672
1589988621.0898528,-1.7762701238146246,-2.581372987618537,8.568901735925145,0.41,0.4722222222222222,-0.6911111111111111,0.054789889480820114,0.08314152350686832,-0.41832489315004284
1589988621.0998528,-0.8512803629375254,-2.6738719637062474,7.3399867679027135,0.41,0.4722222222222222,-0.6911111111111111,0.23424904580941663,0.09395231605678377,-0.19201896910514604
1589988621.1098528,-0.05720589791527042,-6.136286641504109,9.13216903594483,0.41,0.4722222222222222,-0.6911111111111111,-0.12153638016889207,-0.02575282594751485,0.2071736189454867
1589988621.1198528,-0.16249973444747373,-4.555230676627837,8.742273837765111,0.41,0.4722222222222222,-0.6911111111111111,-0.10598423513198676,-0.056661191384101084,0.11555390668989243
1589988621.1298528,-0.21494494739417666,-4.1341240518717886,8.497637631514559,0.42589144441725796,0.46720387135361446,-0.6911111111111111,0.04791354773217918,0.007900049016665675,-0.011442246405924714
1589988621.1398528,-0.054139324348515455,-4.548426719177557,8.934287394829042,0.4311111111111111,0.4655555555555556,-0.6911111111111111,0.003494770425256588,-0.00048034716629942464,-0.006570314576330727
1589988621.1498528,-0.07391153685661932,-4.455378363177852,8.755599521036302,0.4311111111111111,0.4655555555555556,-0.6911111111111111,-0.001328296602978957,0.0,0.001090830782496456
1589988621.1598527,-0.13478782271086193,-4.539083256227435,8.687113699450281,0.4311111111111111,0.4655555555555556,-0.6911111111111111,0.011952848703793331,0.0,0.001090830782496456
1589988621.1698527,-0.15,-4.439818892683803,8.684138953801906,0.4311111111111111,0.4655555555555556,-0.6911111111111111,0.008331188237214193,0.0015423206039413759,0.001090830782496456
1589988621.1798527,-0.13042435147698306,-4.516605188184135,8.704667866246814,0.4244444444444445,0.48,-0.6911111111111111,0.0028558862591675097,-0.002089082434254721,-0.0010445412171273605
1589988621.1898527,-0.13940899256688732,-4.444728059464902,8.80349891823576,0.4244444444444445,0.48,-0.6911111111111111,-0.005964764504327545,-0.00012893782014470907,-6.446891007235453e-05
1589988621.1998527,-0.11646653720646233,-4.5341338511741505,8.63742127284739,0.4244444444444445,0.48,-0.6911111111111111,-0.005689283840514538,0.0,0.0017114017089283951
1589988621.2098527,-0.11,-4.532843994076827,8.59,0.4244444444444445,0.48,-0.6911111111111111,-0.006441574152170718,-0.003949680958753754,0.0011942413253044734
1589988621.2198527,-0.10226826586706647,-4.53,8.675049075462269,0.4244444444444445,0.48,-0.6911111111111111,-0.0006411751789810252,-0.0001463163328446022,0.0019342321419247004
1589988621.2298527,-0.11728392272059654,-4.426296463676421,8.777777652242683,0.43500684166258674,0.48,-0.6987928545424873,-0.000794552712095204,0.00014813903520062598,0.00029627807040125196
1589988621.2398527,-0.11988753323948068,-4.4597750664789615,8.778650398873767,0.43666666666666665,0.48,-0.7,0.0010417579007436042,-0.002157125124116486,0.001090830782496456
1589988621.2498527,-0.11332676364773972,-4.44665352729548,8.699921163772876,0.43666666666666665,0.48,-0.7,-0.0018209178702714966,-0.0007257872386089357,0.001090830782496456
1589988621.2598526,-0.1018160946839251,-4.480919526580375,8.684551715948224,0.43666666666666665,0.48,-0.7,0.0056547634923215144,-0.001785451167962176,0.001090830782496456
1589988621.2698526,-0.11884363807570077,-4.49,8.7088436380757,0.43666666666666665,0.48,-0.7,0.006265467446328747,0.000559034497299978,0.001090830782496456
1589988621.2798526,-0.13,-4.419045687701301,8.775186687343433,0.43666666666666665,0.4738681458507296,-0.6929921666865482,0.004594163379079074,-0.002978281635426325,-0.0006291502843099564
1589988621.2898526,-0.13,-4.494384020618557,8.714492783505156,0.43666666666666665,0.4722222222222222,-0.6911111111111111,-0.00593237637666436,-0.002304183228655787,-0.001090830782496456
1589988621.2998526,-0.12032388368414648,-4.441943302104879,8.613238836841465,0.43666666666666665,0.4722222222222222,-0.6911111111111111,-0.006544984694978735,-0.004292662671462754,-3.533022926153497e-05
1589988621.3098526,-0.08372552084496349,-4.521617578098833,8.655343098943796,0.43666666666666665,0.4722222222222222,-0.6911111111111111,-0.008523450619045728,-0.0023848572059188312,-0.0009892329620334963
1589988621.3198526,-0.10861623546346452,-4.472767529073071,8.724386529792795,0.43666666666666665,0.4722222222222222,-0.6911111111111111,-0.0017031653923610338,-0.0029620483280607584,0.000469942743639236
1589988621.3298526,-0.11155386111895572,-4.500676833286265,8.792230694405221,0.4141436296505486,0.4618991635898348,-0.6854803518570816,0.001090830782496456,-0.0023511615190210415,0.001090830782496456
1589988621.3398526,-0.10039494183631076,-4.471579767345243,8.723159534690486,0.41,0.46,-0.6844444444444444,0.006329577338807009,-8.616294246869063e-05,0.0021385800937585666
1589988621.3498526,-0.1,-4.460856612906874,8.683426451627497,0.41,0.46,-0.6844444444444444,0.0015580406462475114,-0.000997388809746245,-0.000810504864245823
1589988621.3598526,-0.11851648751607502,-4.469258243758038,8.68,0.41,0.46,-0.6844444444444444,0.0031106662391210543,-8.091305418415711e-05,0.0009290046741281417
1589988621.3698525,-0.12,-4.462627966937135,8.73897626450292,0.41,0.46,-0.6844444444444444,0.003272492347489368,-0.001608328118910942,0.0002866667230409849
1589988621.3798525,-0.10586514987541842,-4.481202275186872,8.75293257493771,0.4202085028677534,0.46863796396502205,-0.6844444444444444,0.0009596829042092495,-0.0037235345271796573,0.0
1589988621.3898525,-0.11627804497944488,-4.481860977510278,8.733721955020556,0.4244444444444445,0.4722222222222222,-0.6844444444444444,-0.0026634888813660547,-0.0025876638757417877,0.0008878296271220181
1589988621.3998525,-0.10839343718926085,-4.491606562810739,8.648754060324826,0.4244444444444445,0.4722222222222222,-0.6844444444444444,-0.00643769134572258,-0.002181661564992912,0.0004577909828498137
1589988621.4098525,-0.09340685496667725,-4.473627419866709,8.655931450333227,0.4244444444444445,0.4722222222222222,-0.6844444444444444,-0.00369224237090319,-0.0007432604538304955,-0.0014384011111624165
1589988621.4198525,-0.10516549968173138,-4.49538616592404,8.695055166560577,0.4244444444444445,0.4722222222222222,-0.6844444444444444,-0.0005393976530040294,-0.0005514331294924266,-0.0005273621765156322
1589988621.4298525,-0.11261484799238972,-4.500459391969559,8.71477030401522,0.43429131378792485,0.4722222222222222,-0.6975736035690849,0.0008055951143316805,-0.0006880332253306157,0.001090830782496456
1589988621.4398525,-0.11655799751916288,-4.491394993797908,8.73172100124042,0.4511111111111111,0.4722222222222222,-0.72,0.002181661564992912,0.0,-0.0016184652260639667
1589988621.4498525,-0.12,-4.484488132138763,8.683464396416289,0.4511111111111111,0.4722222222222222,-0.72,0.002181661564992912,0.0,-0.0013356204171401556
1589988621.4598525,-0.11417584049603653,-4.474175840496037,8.681648319007927,0.4511111111111111,0.4722222222222222,-0.72,0.0009110270711743843,-0.0006353172469092638,-0.00045551353558719216
1589988621.4698524,-0.11,-4.45860632688928,8.735574692442881,0.4511111111111111,0.4722222222222222,-0.72,0.0018642854032314212,-0.001090830782496456,0.0
1589988621.4798524,-0.12083255490410415,-4.47708138726026,8.753751167643843,0.4366677045723056,0.46560232755860304,-0.7169909569710822,0.0026816681303653807,-0.0022724792167444306,0.0005908242171239872
1589988621.4898524,-0.10789140872009056,-4.485260939146728,8.76210859127991,0.4244444444444445,0.46,-0.7144444444444444,0.0005738794366090493,-0.0016647102191055052,0.001090830782496456
1589988621.4998524,-0.10791510218764755,-4.472084897812352,8.682933875935877,0.4244444444444445,0.46,-0.7144444444444444,-0.0034536148451563943,0.0006359766400817412,-0.0006359766400817412
1589988621.5098524,-0.11,-4.478501170960188,8.66,0.4244444444444445,0.46,-0.7144444444444444,-0.004363323129985824,-0.0007638370116310079,0.0007638370116310079
1589988621.5198524,-0.11,-4.486659611278805,8.699957667672827,0.4244444444444445,0.46,-0.7144444444444444,-0.002910421333509741,-0.0003643798842584145,-0.00036207101397962697
1589988621.5298524,-0.12241177851386245,-4.496205889256931,8.738617667770795,0.4244444444444445,0.46344771625385073,-0.6999640361782716,-0.00015078905472552112,0.0,0.0009400417277709348
1589988621.5398524,-0.11376100293411576,-4.475641504401174,8.717522005868233,0.4244444444444445,0.4655555555555556,-0.6911111111111111,0.001976530676313264,-0.0017713997876336153,-0.00047543811645751107
1589988621.5498524,-0.11838527312557416,-4.4951558193767225,8.676458907497704,0.4244444444444445,0.4655555555555556,-0.6911111111111111,0.0040110443739962255,-0.0012669701604912551,-0.00017613937799479916
1589988621.5598524,-0.11265403538155554,-4.477962106144666,8.677345964618445,0.4244444444444445,0.4655555555555556,-0.6911111111111111,0.0011580413968142007,-0.0018921512157893618,0.0008013204332929058
1589988621.5698524,-0.11446454722968025,-4.483393641689041,8.69785818891872,0.4244444444444445,0.4655555555555556,-0.6911111111111111,0.0,-0.002181661564992912,0.00011681767288755673
1589988621.5798523,-0.11540174761227392,-4.49310262141841,8.724598252387727,0.4229116936485358,0.46887651561335775,-0.6911111111111111,0.0,-0.0016800700399709691,-0.0008400350199854846
1589988621.5898523,-0.11445135746606334,-4.484451357466064,8.754451357466063,0.4177777777777778,0.48,-0.6911111111111111,0.0007881992786420942,-0.0015763985572841883,-0.0007881992786420942
1589988621.5998523,-0.10460887752730653,-4.46691331629096,8.706131071345572,0.4177777777777778,0.48,-0.6911111111111111,0.0002513752739771056,0.0003367049605651389,0.0014275357430615949
1589988621.6098523,-0.11241188210901622,-4.484823764218032,8.72102970527254,0.4177777777777778,0.48,-0.6911111111111111,-0.0013539263073231924,-0.0016170218321499288,-0.0012031542033150693
1589988621.6198523,-0.1252555756621466,-4.489488848675707,8.734744424337853,0.4177777777777778,0.48,-0.6911111111111111,-0.0027549559361937826,-0.003272492347489368,-0.000406020491485015
1589988621.6298523,-0.12527322107550246,-4.48,8.73,0.4267061379684954,0.4736976281006699,-0.6979386806687187,-0.0006944343710406551,-0.002241269156909883,0.0016660499697031695
1589988621.6398523,-0.12658163265306122,-4.48,8.72341836734694,0.43666666666666665,0.4666666666666667,-0.7055555555555556,0.004335495814105812,0.0017809482163207446,-0.0024988929660250446
1589988621.6498523,-0.11269507042253521,-4.474231690140845,8.691158450704226,0.43666666666666665,0.4666666666666667,-0.7055555555555556,0.00482492891674788,0.0026432673517549684,-0.0018464231470482263
1589988621.6598523,-0.10596442727242447,-4.487893281817273,8.681928854544848,0.43666666666666665,0.4666666666666667,-0.7055555555555556,0.0030620869562414258,-0.0004208107824958847,0.0
1589988621.6698523,-0.1210341638458835,-4.4834487542311745,8.717585409614708,0.43666666666666665,0.4666666666666667,-0.7055555555555556,0.002181661564992912,-0.0015798412858829514,0.0
1589988621.6798522,-0.12358883377385134,-4.47,8.752822332452297,0.4459272401044369,0.4702284256811937,-0.7005690929352177,0.002181661564992912,0.0003078687117404641,-0.00069934974711846
1589988621.6898522,-0.12,-4.477107890999467,8.745784218001065,0.4511111111111111,0.4722222222222222,-0.6977777777777778,0.002181661564992912,-0.0004598704776732573,-0.001090830782496456
1589988621.6998522,-0.11303289552958187,-4.486967104470418,8.684263164236656,0.4511111111111111,0.4722222222222222,-0.6977777777777778,0.0006616751607527605,-0.003370810388856683,0.0011891488238637714
1589988621.7098522,-0.11610505739477624,-4.477789885210448,8.696630344368659,0.4511111111111111,0.4722222222222222,-0.6977777777777778,-0.0013319169070259089,-0.0023654477694469603,0.0028476200185058665
1589988621.7198522,-0.11620435927203754,-4.481386922183887,8.731386922183887,0.4511111111111111,0.4722222222222222,-0.6977777777777778,-0.002181661564992912,-0.001090830782496456,0.002444411998417627
1589988621.7298522,-0.11,-4.495791117036205,8.752805921975863,0.44830518913524803,0.47050749212586146,-0.6948159712477001,-0.001875582958537444,-0.0013969093889519238,0.000937791479268722
1589988621.7398522,-0.11,-4.4826706630336055,8.763664668483196,0.4311111111111111,0.46,-0.6766666666666666,0.0020732323907545723,-0.003272492347489368,0.0
1589988621.7498522,-0.11650387913434054,-4.483496120865659,8.701465087790934,0.4311111111111111,0.46,-0.6766666666666666,0.003272492347489368,-0.003272492347489368,-0.0007094631565375073
1589988621.7598522,-0.11035368650161297,-4.475176843250806,8.689292626996775,0.4311111111111111,0.46,-0.6766666666666666,0.0022202427773242023,-0.0022202427773242023,-0.0016169555675790387
1589988621.7698522,-0.10842476122319782,-4.474212380611599,8.71,0.4311111111111111,0.46,-0.6766666666666666,0.00155033022636879,-0.0006313313386241221,-0.0008031632333759101
1589988621.7798522,-0.11197883110906581,-4.48,8.730052922227335,0.4284373881474664,0.46267372296364473,-0.6882527995091272,0.0017441746681012133,-0.0008749737937833974,0.001090830782496456
1589988621.7898521,-0.10380937133098517,-4.48,8.74476251467606,0.4244444444444445,0.4666666666666667,-0.7055555555555556,0.0006752928315166447,-0.0030127374669525345,0.001090830782496456
1589988621.7998521,-0.10562216831365275,-4.475622168313653,8.693733009881917,0.4244444444444445,0.4666666666666667,-0.7055555555555556,0.0,-0.00245313370436344,0.00061328342609086
1589988621.8098521,-0.10847479674796748,-4.474237398373984,8.664237398373984,0.4244444444444445,0.4666666666666667,-0.7055555555555556,-0.0004622284584041893,-0.0004622284584041893,0.0004622284584041893
1589988621.819852,-0.11438880468828938,-4.47438880468829,8.714889562493685,0.4244444444444445,0.4666666666666667,-0.7055555555555556,-0.002315003697019204,-0.00047874432523508205,0.00047874432523508205
1589988621.829852,-0.11,-4.47,8.75,0.4286173007620148,0.4659711906137383,-0.6965143668674865,-0.003272492347489368,-0.0006827820183210827,-0.0013655640366421653
1589988621.839852,-0.11,-4.481343249558329,8.732985125662507,0.4311111111111111,0.4655555555555556,-0.6911111111111111,-0.0020351357683129016,0.0001465257966800106,-0.0009443049858164454
1589988621.849852,-0.11,-4.49,8.677717943058928,0.4311111111111111,0.4655555555555556,-0.6911111111111111,0.0015447446037086838,-0.0002269569106061139,-0.0013177876931025699
1589988621.859852,-0.10474328240724176,-4.474229847221725,8.692053740742066,0.4311111111111111,0.4655555555555556,-0.6911111111111111,0.003272492347489368,-0.0022376686555107272,-0.0016082426284857764
1589988621.869852,-0.1,-4.467764776930626,8.726117611534688,0.4311111111111111,0.4655555555555556,-0.6911111111111111,0.002425486577974871,-0.003272492347489368,0.00017967787177529024
1589988621.879852,-0.10349011223944415,-4.473019775521112,8.740940673436665,0.4311111111111111,0.46361660431142,-0.6992547063364808,0.001090830782496456,-0.0028917801609740362,0.0010395250054469167
1589988621.889852,-0.11,-4.47419425616111,8.75161148767778,0.4311111111111111,0.46,-0.7144444444444444,-7.043408414191747e-05,-0.0006333084094750808,-0.0003166542047375404
1589988621.899852,-0.12267954013835665,-4.474640919723287,8.66196137958493,0.4311111111111111,0.46,-0.7144444444444444,-0.0007985382959110321,0.001490099930451972,-0.0009838541211263636
1589988621.909852,-0.11244326972666324,-4.465852243424446,8.657556730273336,0.4311111111111111,0.46,-0.7144444444444444,0.0012767614548095444,0.001090830782496456,0.0010102420720309495
1589988621.919852,-0.10462268773735146,-4.465377312262649,8.688490750949406,0.4311111111111111,0.46,-0.7144444444444444,0.001173147548638538,0.000586573774319269,0.0012554643147806204
1589988621.929852,-0.10520950363753569,-4.474371489087393,8.724371489087394,0.4247237826278254,0.46266138686803576,-0.7000729553570515,-0.0005225620895613375,-0.0005225620895613375,-0.001090830782496456
1589988621.939852,-0.1,-4.49,8.74,0.4177777777777778,0.4655555555555556,-0.6844444444444444,-0.00043050968341271664,-0.00043050968341271664,0.00022981141567102268
1589988621.949852,-0.11179699351813543,-4.484101503240932,8.686913529168391,0.4177777777777778,0.4655555555555556,-0.6844444444444444,-0.001286852367049329,0.0006434261835246645,0.001090830782496456
1589988621.959852,-0.11526570143213563,-4.475265701432136,8.687874388542916,0.4177777777777778,0.4655555555555556,-0.6844444444444444,0.00040049774068475884,5.796706022538774e-05,0.00160726264363199
1589988621.969852,-0.11,-4.473772301405362,8.737544602810726,0.4177777777777778,0.4655555555555556,-0.6844444444444444,0.003272492347489368,-0.00026784228373168736,0.002181661564992912
1589988621.979852,-0.11517036268797852,-4.464488911936065,8.765511088063935,0.4275440184106261,0.462683131840012,-0.6804230512426833,0.0027084932698175587,0.001090830782496456,0.0016176624873211025
1589988621.989852,-0.12,-4.463278521783353,8.78,0.43666666666666665,0.46,-0.6766666666666666,0.0016988408880818683,-0.0008404519251477185,0.001090830782496456
1589988621.999852,-0.12,-4.48,8.743766634302359,0.43666666666666665,0.46,-0.6766666666666666,0.0008085131349504687,-0.002143221757305419,0.0016554660775884304
1589988622.009852,-0.11645050285282951,-4.472901005705659,8.64709899429434,0.43666666666666665,0.46,-0.6766666666666666,-0.00038719007505169146,0.00031645063239307304,0.0017237320472826023
