time,acc_x,acc_y,acc_z,mag_x,mag_y,mag_z,gyr_x,gyr_y,gyr_z
1589988628.7343445,-3.91,-0.66,8.88,0.3244444444444444,-0.3244444444444444,-0.6233333333333333,-0.003272492347489368,0.0,-0.001090830782496456
1589988628.7443445,-3.9261954591088117,-0.6438045408911885,8.944781836435247,0.3244444444444444,-0.3244444444444444,-0.6233333333333333,-0.005039142880744788,0.0008833252666277097,-0.00020750551586874624
1589988628.7543445,-3.923305797192148,-0.646694202807852,8.96,0.3244444444444444,-0.3244444444444444,-0.6233333333333333,-0.006914602409898108,0.003281503528620198,-0.000730224248707914
1589988628.7643445,-3.9299186621056634,-0.6698373242113266,8.969918662105664,0.31121956163689346,-0.3442817686557709,-0.6376602897081802,-0.006553857282871333,0.0011174485461742487,-0.002172788977100314
1589988628.7743444,-3.9202236428421715,-0.6702236428421715,9.017539928736113,0.3111111111111111,-0.34444444444444444,-0.6377777777777778,-0.00329688799714193,0.00329688799714193,-2.4395649652561695e-05
1589988628.7843444,-3.92901488157619,-0.6790148815761895,8.920836302661916,0.3111111111111111,-0.34444444444444444,-0.6377777777777778,-0.0042558633798761335,0.0042558633798761335,-0.0009833710323867652
1589988628.7943444,-3.93,-0.666349124896912,8.950952625309265,0.3111111111111111,-0.34444444444444444,-0.6377777777777778,-0.004363323129985824,0.003618783391462677,-0.0018353705210196027
1589988628.8043444,-3.9159857130659987,-0.6670071434670006,8.984014286934002,0.3111111111111111,-0.34444444444444444,-0.6377777777777778,-0.0028346015717511854,0.004801213905724007,-0.002181661564992912
1589988628.8143444,-3.9234507479295515,-0.6565492520704488,9.037077617753429,0.3073747922417913,-0.34444444444444444,-0.6183489196573149,-0.00291528605945066,0.003986904923566783,0.0029537098962113266
1589988628.8243444,-3.940482080397425,-0.6506427738632331,9.0280716784103,0.3055555555555556,-0.34444444444444444,-0.6088888888888889,-0.0032374344716794247,0.0033075502232993116,0.00545415391248228
1589988628.8343444,-3.9617438029097176,-0.6789917372129568,8.943024788361129,0.3055555555555556,-0.34444444444444444,-0.6088888888888889,-0.0016912383779923,0.004853746316986435,0.00545415391248228
1589988628.8443444,-3.9516309873272717,-0.69,8.919184506336364,0.3055555555555556,-0.34444444444444444,-0.6088888888888889,0.005922288781121484,0.0004447827956123229,0.008459776582604253
1589988628.8543444,-3.9249427502013616,-0.6837356875503403,8.945057249798639,0.3055555555555556,-0.34444444444444444,-0.6088888888888889,0.004494993239599374,-0.0006833304851264538,0.008726646259971648
1589988628.8643444,-3.9239419118768106,-0.6660580881231896,8.980912867815217,0.3187229167725432,-0.33979714048550763,-0.6150852941674714,0.0009912523511776952,-0.000330417450392565,0.00264333960314052
1589988628.8743443,-3.93,-0.6523582170072156,8.982358217007215,0.3244444444444444,-0.3377777777777778,-0.6177777777777778,-0.001667178424337425,0.002500767636506138,0.0
1589988628.8843443,-3.9393612715042563,-0.6687225430085124,8.923832370974463,0.3244444444444444,-0.3377777777777778,-0.6177777777777778,-0.005245130501037783,0.003272492347489368,0.0
1589988628.8943443,-3.95,-0.68,9.01,0.3244444444444444,-0.3377777777777778,-0.6177777777777778,0.0,0.004363323129985824,0.003272492347489368
1589988628.9043443,-3.94418183560069,-0.6741818356006898,9.02745449319793,0.3244444444444444,-0.3377777777777778,-0.6177777777777778,0.005711969541953325,0.0024593332826680493,0.006445808759685659
1589988628.9143443,-3.94,-0.6820682730923695,9.058102409638554,0.3244444444444444,-0.334425479696564,-0.622470995091477,0.009159254853431588,-0.00022561359557657628,0.010701312827081196
1589988628.9243443,-3.9230101644797633,-0.6645152467196452,9.010535575679173,0.3244444444444444,-0.3322222222222222,-0.6255555555555555,0.006873342702469075,-0.002017482561247742,0.011072486828709729
1589988628.9343443,-3.9431038129130656,-0.66,8.930688561260803,0.3244444444444444,-0.3322222222222222,-0.6255555555555555,0.009065219726839841,-0.004701896596854017,0.011748386168918261
1589988628.9443443,-3.9208366647629926,-0.66,8.90027888825433,0.3244444444444444,-0.3322222222222222,-0.6255555555555555,0.011938294628920855,-0.00545415391248228,0.007757503434555512
1589988628.9543443,-3.92,-0.6522845386393101,8.93086184544276,0.3244444444444444,-0.3322222222222222,-0.6255555555555555,0.0035828758540584517,-0.0037709013618017675,0.005952562926794679
1589988628.9643443,-3.914310058267265,-0.6443100582672653,8.94,0.3136967767270566,-0.33095779072605896,-0.6211300453189841,-0.0020125510138426827,-0.0026518159882215403,0.004212801193946625
1589988628.9743443,-3.9301853780462404,-0.6534569186974936,8.953456918697494,0.3055555555555556,-0.33,-0.6177777777777778,-0.008033128418180352,0.002956065838479426,0.0010706091745726516
1589988628.9843442,-3.9271927060769563,-0.6664036469615219,8.921578118230869,0.3055555555555556,-0.33,-0.6177777777777778,-0.009817477042468105,0.004755624389895492,0.0006985295225867877
1589988628.9943442,-3.9381393389252746,-0.6881393389252748,8.99976636408901,0.3055555555555556,-0.33,-0.6177777777777778,-0.009817477042468105,0.005352670593677121,0.001090830782496456
1589988629.0043442,-3.94,-0.6974207481971153,9.054524489182693,0.3055555555555556,-0.33,-0.6177777777777778,-0.00900799898621125,0.0070731100249959876,0.000281352726239602
1589988629.0143442,-3.94,-0.6730367042630473,9.096963295736952,0.3055555555555556,-0.3319972811657002,-0.6307601053548292,-0.001863754562906151,0.0046945761787328365,0.0009804130995807853
1589988629.0243442,-3.9304892051030422,-0.6795107948969579,9.090489205103042,0.3055555555555556,-0.3322222222222222,-0.6322222222222222,-5.3363998535277965e-05,0.002288389562063468,0.0021282975664576338
1589988629.0343442,-3.93,-0.6520395212654271,8.940877446748944,0.3055555555555556,-0.3322222222222222,-0.6322222222222222,0.003050015089700972,-0.0018850252212750502,0.006248348351260874
1589988629.0443442,-3.9210321454010706,-0.65,8.921032145401071,0.3055555555555556,-0.3322222222222222,-0.6322222222222222,0.0013160099775964803,-0.0002251791951000245,0.012414431804657396
1589988629.0543442,-3.9268995946941785,-0.65,8.933799189388356,0.3055555555555556,-0.3322222222222222,-0.6322222222222222,-0.0011670563012512287,-0.0007526290279158948,0.01760574355745284
1589988629.0643442,-3.9349817503768945,-0.6450182496231056,8.949963500753789,0.31164436157175984,-0.33498986132049685,-0.6277939996649827,-0.0016382368988099396,-0.001634255448679428,0.02289550208203404
1589988629.0743442,-3.9271387729871736,-0.6528612270128265,8.955712924329058,0.31777777777777777,-0.3377777777777778,-0.6233333333333333,-0.0006231833716209213,-0.003584603797619516,0.02898582324516815
1589988629.0843441,-3.9149769562041956,-0.6600460875916085,8.925115218979021,0.31777777777777777,-0.3377777777777778,-0.6233333333333333,-0.0010858034061346847,-0.0038254488032802526,0.0343536285840957
1589988629.0943441,-3.9358681382096226,-0.6817362764192454,8.95553848373368,0.31777777777777777,-0.3377777777777778,-0.6233333333333333,-0.002181661564992912,-0.002181661564992912,0.03945930654637598
1589988629.1043441,-3.9327321439322485,-0.6609285757289931,9.028142848542014,0.31777777777777777,-0.3377777777777778,-0.6233333333333333,0.00019673877144425278,-0.005352862013575797,0.04353193940095175
1589988629.1143441,-3.9393910362659947,-0.65,9.078173108797985,0.3365598503097674,-0.3377777777777778,-0.6181160909633362,0.001090830782496456,-0.001422968975734868,0.04472406208235469
1589988629.124344,-3.94,-0.65,9.08,0.3377777777777778,-0.3377777777777778,-0.6177777777777778,0.001090830782496456,-0.001090830782496456,0.04472406208235469
1589988629.134344,-3.9251548853560925,-0.6462887213390232,9.032887213390232,0.3377777777777778,-0.3377777777777778,-0.6177777777777778,0.00258649926557449,0.001214513101744733,0.03914622585062413
1589988629.144344,-3.9167188144968215,-0.6455729381656072,8.964427061834394,0.3377777777777778,-0.3377777777777778,-0.6177777777777778,0.0026645790974900016,0.002056665847490635,0.03648033335488013
1589988629.154344,-3.93,-0.6238389340484372,8.933838934048437,0.3377777777777778,-0.3377777777777778,-0.6177777777777778,4.136436177655609e-05,-0.00033603401964778104,0.038851145426671514
1589988629.164344,-3.9382015803902597,-0.6017984196097403,8.944604741170778,0.3213746169972585,-0.3377777777777778,-0.6241567847479796,-0.0046694453244222585,-0.0028801380534593576,0.05199123621362773
1589988629.174344,-3.94,-0.6,8.927248347340104,0.31777777777777777,-0.3377777777777778,-0.6255555555555555,-0.007108700784087752,-0.003272492347489368,0.05785063286803375
1589988629.184344,-3.955766593954503,-0.6236498909317545,8.912116703022749,0.31777777777777777,-0.3377777777777778,-0.6255555555555555,-0.009355684079544629,-0.004132426648524086,0.05632505935170447
1589988629.194344,-3.936651158505689,-0.6455658943295408,8.972263577318163,0.31777777777777777,-0.3377777777777778,-0.6255555555555555,-0.004723550034943081,-0.005212310964573327,0.05563236990731925
1589988629.204344,-3.93,-0.6567428225671842,9.030456935403105,0.31777777777777777,-0.3377777777777778,-0.6255555555555555,0.001140674702828355,-0.00545415391248228,0.04901261933184267
1589988629.214344,-3.93,-0.6451934322986955,9.079613135402608,0.3087293197380917,-0.3377777777777778,-0.6197974458939371,0.003272492347489368,-0.0014162889545570835,0.03935430893217083
1589988629.224344,-3.937316838549473,-0.6326831614505268,9.060732645802108,0.3055555555555556,-0.3377777777777778,-0.6177777777777778,0.003272492347489368,0.0,0.033895673516750685
1589988629.234344,-3.9172175875446915,-0.6072175875446915,8.974058625148972,0.3055555555555556,-0.3377777777777778,-0.6177777777777778,0.0007873166669112542,-0.000828391893526038,0.034381707261945754
1589988629.244344,-3.9260414195334126,-0.6160414195334124,8.982082839066825,0.3055555555555556,-0.3377777777777778,-0.6177777777777778,-0.00174984742219862,0.0015339403508014742,0.036656432462085206
1589988629.254344,-3.9102253258483715,-0.62,8.99,0.3055555555555556,-0.3377777777777778,-0.6177777777777778,-0.00505777133545073,0.0007436066797640029,0.0435594935884096
1589988629.264344,-3.9159071496104065,-0.6040928503895935,8.974092850389594,0.3267650883694309,-0.3333591251082204,-0.6177777777777778,-0.005677384272138337,-0.0026028012685211954,0.05558172787575159
1589988629.274344,-3.8976724677601102,-0.6074425107466299,8.97744251074663,0.3322222222222222,-0.3322222222222222,-0.6177777777777778,-0.007889709858927667,-0.00408434432963783,0.07323921913313294
1589988629.284344,-3.89,-0.6329026596462806,8.962823005265289,0.3322222222222222,-0.3322222222222222,-0.6177777777777778,-0.010600365720711814,-0.005612469437145934,0.0885329867970257
1589988629.294344,-3.876247914349277,-0.6224958286985539,8.977504171301446,0.3322222222222222,-0.3322222222222222,-0.6177777777777778,-0.005998659266926423,-0.009545224365246033,0.10724400762319049
1589988629.304344,-3.8463332136445243,-0.6005332854578097,9.008933429084381,0.3322222222222222,-0.3322222222222222,-0.6177777777777778,-0.0037888215290757697,-0.013489953732896565,0.1242311417736222
1589988629.314344,-3.7983665284171186,-0.5803851237409416,9.042018595323823,0.3258123047161833,-0.3322222222222222,-0.6212498164268822,-0.006460963728640874,-0.014264821138791788,0.14295098516602295
1589988629.324344,-3.6671824185187814,-0.5724348505290067,9.066539089682596,0.3055555555555556,-0.3322222222222222,-0.6322222222222222,-0.014068874412267363,-0.006167457944010354,0.17258843780585267
1589988629.334344,-3.5637904746619586,-0.6174730168920275,9.015053966215946,0.3055555555555556,-0.3322222222222222,-0.6322222222222222,-0.015271630954950384,-0.0034103178955406195,0.2033474809577363
1589988629.344344,-3.4723452407783033,-0.6714480504845616,8.97,0.3055555555555556,-0.3322222222222222,-0.6322222222222222,-0.014128147571014969,-0.00046643648908979035,0.24648997809048173
1589988629.354344,-3.2632055708005074,-0.7538980850373256,8.916101914962674,0.3055555555555556,-0.3322222222222222,-0.6322222222222222,-0.00026225514784990536,0.009642640277234833,0.28970204163532
1589988629.364344,-3.0154116555008477,-0.7801452901767697,8.845072645088385,0.308319880539188,-0.3283521672451368,-0.6322222222222222,0.01688938697902001,0.020172445126323695,0.32609500916755446
1589988629.3743439,-2.29275702818605,-0.39389363339808664,8.786267639189239,0.3111111111111111,-0.3244444444444444,-0.6322222222222222,-0.0024450234520399447,0.0027347735044810882,0.3331149240953609
1589988629.3843439,-1.8419940331103875,-0.2789177700212546,8.889829573152896,0.3111111111111111,-0.3244444444444444,-0.6322222222222222,-0.03524540772058753,-0.017493728323572683,0.2808747495001394
1589988629.3943439,-1.7154602154602154,-0.4738546588546589,8.941820071820072,0.3111111111111111,-0.3244444444444444,-0.6322222222222222,-0.016934678867822746,-0.007537679878823082,0.19094899041513516
1589988629.4043438,-1.8665215523414005,-0.7365060043779792,8.910015547963422,0.3111111111111111,-0.3244444444444444,-0.6322222222222222,0.021796263413402926,0.0018157899445467387,0.11276045067092302
1589988629.4143438,-1.966829060284633,-0.7717093971536698,8.8795128191461,0.2989705594939857,-0.33810256501371044,-0.6375337135547146,0.02671230094848472,0.00774210185189039,0.037754862186208965
1589988629.4243438,-2.061476181554171,-0.7188901119490374,9.017769216356738,0.2933333333333333,-0.34444444444444444,-0.64,0.0037180166815555006,0.002141705142120075,-0.039226349537520626
1589988629.4343438,-2.1553382833607286,-0.7376691416803642,9.057864686655709,0.2933333333333333,-0.34444444444444444,-0.64,-0.0025523820417740007,0.003738345452735073,-0.10141441151355415
1589988629.4443438,-2.2,-0.715974865458044,9.017987432729022,0.2933333333333333,-0.34444444444444444,-0.64,0.007913663960362357,0.017240609869857926,-0.16849903478647893
1589988629.4543438,-2.2205095856054418,-0.68,8.99487260359864,0.2933333333333333,-0.34444444444444444,-0.64,0.014153006589217285,0.027326356728884685,-0.23659222443251698
1589988629.4643438,-2.300706352431261,-0.6910375186238656,9.045187593119328,0.30007848360347344,-0.34751042183996267,-0.6357076316462745,0.010079953120634831,0.027646421365810726,-0.3135307411616693
1589988629.4743438,-2.3362445498538644,-0.7275109002922715,9.048733649561592,0.3055555555555556,-0.35,-0.6322222222222222,0.011387032589100263,0.03143164273619004,-0.39680991076947747
1589988629.4843438,-2.33,-0.7282699018096243,8.89510387081068,0.3055555555555556,-0.35,-0.6322222222222222,0.016288857436899423,0.03829419752310887,-0.46347472869954603
1589988629.4943438,-2.33,-0.7355267769269546,8.851755923089849,0.3055555555555556,-0.35,-0.6322222222222222,0.017979553761610492,0.040322430653206814,-0.5297142255431379
1589988629.5043437,-2.3349409662535057,-0.7598819325070116,8.92470483126753,0.3055555555555556,-0.35,-0.6322222222222222,0.01799226832840333,0.04034785978679249,-0.5984410871265335
1589988629.5143437,-2.37478116671602,-0.7584062777613266,8.973187444477347,0.3128553065947203,-0.34785301440024563,-0.626640059662861,0.02107348112277148,0.04440248719191901,-0.6601570936162547
1589988629.5243437,-2.43,-0.7625169955231305,9.019006798209253,0.3244444444444444,-0.34444444444444444,-0.6177777777777778,0.028036575818934362,0.05154360839693708,-0.7297880405778835
1589988629.5343437,-2.452803377218088,-0.7991213508872353,9.016317973669146,0.3244444444444444,-0.34444444444444444,-0.6177777777777778,0.030639107659822466,0.056531509189972316,-0.7951152677734674
1589988629.5443437,-2.4756264314191196,-0.8143735685808805,9.004373568580881,0.3244444444444444,-0.34444444444444444,-0.6177777777777778,0.028975348803665937,0.060336109226023754,-0.8434805305444775
1589988629.5543437,-2.4631943390329925,-0.8331943390329926,9.023194339032992,0.3244444444444444,-0.34444444444444444,-0.6177777777777778,0.028664562901178692,0.06684364028855465,-0.9114187527117301
1589988629.5643437,-2.486760553076304,-0.856760553076304,9.03,0.3356181464953138,-0.3360641679062924,-0.6326760471789369,0.031634092692397225,0.071641462802503,-0.9796159596219337
1589988629.5743437,-2.527849315068493,-0.9037990867579909,8.982401826484018,0.3511111111111111,-0.3244444444444444,-0.6533333333333333,0.03098507328162422,0.07482551262053201,-1.0475726176711273
1589988629.5843437,-2.534471297713411,-0.9310574045731776,8.89471297713411,0.3511111111111111,-0.3244444444444444,-0.6533333333333333,0.031146349774047736,0.08129820263372513,-1.1014655665646655
1589988629.5943437,-2.519053316694805,-0.9564200249577919,8.855473341652598,0.3511111111111111,-0.3244444444444444,-0.6533333333333333,0.03402228851550649,0.08617563181722003,-1.1554865481961503
1589988629.6043437,-2.548019015183766,-0.9842571306939123,8.879009507591883,0.3511111111111111,-0.3244444444444444,-0.6533333333333333,0.03703422362444935,0.08824924742135264,-1.203034655326194
1589988629.6143436,-2.60618377288762,-1.0107891819250798,8.916183772887619,0.3511111111111111,-0.32084805046941783,-0.6383483584373891,0.04112137032783381,0.09053895494720583,-1.2534930939852602
1589988629.6243436,-2.646779532413335,-1.0400846493100016,8.990253947930004,0.3511111111111111,-0.31777777777777777,-0.6255555555555555,0.04436352975729142,0.09126925340463904,-1.3054931876254876
1589988629.6343436,-2.6381184560087516,-1.0390592280043758,8.965296140021879,0.3511111111111111,-0.31777777777777777,-0.6255555555555555,0.0453207886262098,0.09282323881741253,-1.3436716862697022
1589988629.6443436,-2.645237166117204,-1.064701103411155,8.942082520352553,0.3511111111111111,-0.31777777777777777,-0.6255555555555555,0.04512665592326059,0.0941555657654905,-1.3751800307574988
1589988629.6543436,-2.701331813161364,-1.14,8.992219688602272,0.3511111111111111,-0.31777777777777777,-0.6255555555555555,0.0437785095791532,0.09504755635648662,-1.404406447362687
1589988629.6643436,-2.7241095356808973,-1.1458904643191024,9.031164303521345,0.36125579966067656,-0.31614153768913816,-0.6291552837505626,0.045620623686852796,0.10042369535554696,-1.447801501836289
1589988629.6743436,-2.7076364387523237,-1.1836356124767609,8.984000826275564,0.3855555555555555,-0.31222222222222223,-0.6377777777777778,0.04254240051736178,0.10477928775604389,-1.4765681510455126
1589988629.6843436,-2.692134978375298,-1.279662554061756,8.868539913501191,0.3855555555555555,-0.31222222222222223,-0.6377777777777778,0.04297137090202307,0.10359211469547683,-1.5097586447798366
1589988629.6943436,-2.682348902782886,-1.3123489027828859,8.83174451391443,0.3855555555555555,-0.31222222222222223,-0.6377777777777778,0.04465813348412363,0.10741386777678538,-1.5308746214895714
1589988629.7043436,-2.6808987574961782,-1.324550621251911,8.888202485007643,0.3855555555555555,-0.31222222222222223,-0.6377777777777778,0.04799655442984406,0.1090830782496456,-1.5599984574095977
1589988629.7143435,-2.66541616679096,-1.3620868324632793,8.92375149962712,0.4089840364017595,-0.31222222222222223,-0.6515292774048975,0.04949661033971914,0.11008311552289564,-1.5808874930366437
1589988629.7243435,-2.6651007457407894,-1.425503728703947,8.945100745740788,0.43666666666666665,-0.31222222222222223,-0.6677777777777778,0.051825451824107506,0.11070833476786442,-1.5993117823171663
1589988629.7343435,-2.67,-1.454425913887083,8.914592688903335,0.43666666666666665,-0.31222222222222223,-0.6677777777777778,0.05284266987070075,0.10969111672127117,-1.6111388734151173
1589988629.7443435,-2.698157913591746,-1.5116228415848678,8.91223687038762,0.43666666666666665,-0.31222222222222223,-0.6677777777777778,0.053962633657605535,0.10959500356492478,-1.617635070290306
1589988629.7543435,-2.7534711202792765,-1.5895592668993972,8.96782370675976,0.43666666666666665,-0.31222222222222223,-0.6677777777777778,0.05368810510814574,0.11060062604048057,-1.620073032249756
1589988629.7643435,-2.7837308774765237,-1.6388073675704296,8.976865438738262,0.44850834254434446,-0.2955045621596183,-0.6656880702699522,0.05201794996843739,0.1112647398146385,-1.6220653735722301
1589988629.7743435,-2.7568292868559254,-1.68,8.97,0.4744444444444445,-0.2588888888888889,-0.6611111111111111,0.05031124548900093,0.11174364045880475,-1.6225442742163962
1589988629.7843435,-2.723568306576903,-1.7087554634904194,8.900165302951839,0.4744444444444445,-0.2588888888888889,-0.6611111111111111,0.04908738521234052,0.11414799029658082,-1.6222599945050034
1589988629.7943435,-2.703635017233951,-1.7754451206376562,8.825445120637657,0.4744444444444445,-0.2588888888888889,-0.6611111111111111,0.048690866342970644,0.11592585598838102,-1.6201815050509936
1589988629.8043435,-2.7139447485238977,-1.82,8.87,0.4744444444444445,-0.2588888888888889,-0.6611111111111111,0.04799655442984406,0.11367662153831284,-1.6187928812247403
1589988629.8143435,-2.72,-1.8415408315697748,8.882924498941865,0.47731655532041445,-0.2450070196550341,-0.670206128885016,0.049876346602394594,0.11423536276968549,-1.6159731929659145
1589988629.8243434,-2.7152136786726024,-1.8843589639821934,8.895213678672603,0.4811111111111111,-0.22666666666666666,-0.6822222222222222,0.05235987755982988,0.11515257373546732,-1.6143363231852996
1589988629.8343434,-2.712790196281348,-1.925111766532133,8.873258822311913,0.4811111111111111,-0.22666666666666666,-0.6822222222222222,0.052664240759120046,0.11314203818034124,-1.6166112196597475
1589988629.8443434,-2.72,-1.9901717049576784,8.830171704957678,0.4811111111111111,-0.22666666666666666,-0.6822222222222222,0.053438221605436806,0.11232435375491116,-1.6166299497650818
1589988629.8543434,-2.705096709629553,-2.0378839484445366,8.886825922666803,0.4811111111111111,-0.22666666666666666,-0.6822222222222222,0.05126904677733343,0.10917739219017202,-1.6221596875127564
1589988629.8643434,-2.6711585281822776,-2.082896320455694,8.95,0.4834925301524594,-0.22441397297890475,-0.6822222222222222,0.05126904677733343,0.11472679589267057,-1.6277722791254359
1589988629.8743434,-2.670408554976693,-2.1397957225116535,8.925510693720867,0.5222222222222223,-0.18777777777777774,-0.6822222222222222,0.05126904677733343,0.11887827207486776,-1.6340199457451994
1589988629.8843434,-2.6178820061757273,-2.15,8.849528866847571,0.5222222222222223,-0.18777777777777774,-0.6822222222222222,0.05076854254396847,0.12199340300807,-1.6417517203116985
1589988629.8943434,-2.5704258784804113,-2.1787223645587663,8.80276549535945,0.5222222222222223,-0.18777777777777774,-0.6822222222222222,0.04913384134794406,0.12261408479310776,-1.6506821865282284
1589988629.9043434,-2.547194744976816,-2.2422442040185473,8.829438948995364,0.5222222222222223,-0.18777777777777774,-0.6822222222222222,0.04708932715927012,0.11883935412147284,-1.656370737194747
1589988629.9143434,-2.492585467307942,-2.2874145326920576,8.832357554486762,0.5301859795581361,-0.1767932849006552,-0.6932067150993447,0.04909981592839392,0.11727052447639573,-1.6673037742556993
1589988629.9243433,-2.4832161099474517,-2.3390754418843933,8.854140668063058,0.5544444444444444,-0.14333333333333334,-0.7266666666666667,0.04667988523818342,0.11822304006462114,-1.6755160819145565
1589988629.9343433,-2.5115329059168854,-2.4454012822493434,8.805766452958443,0.5544444444444444,-0.14333333333333334,-0.7266666666666667,0.04908738521234052,0.12267468992784597,-1.6805959736898417
1589988629.9443433,-2.5,-2.499350292288391,8.81935029228839,0.5544444444444444,-0.14333333333333334,-0.7266666666666667,0.0487355869710325,0.1217149412225778,-1.6889224134872494
1589988629.9543433,-2.5,-2.54,8.870173218673218,0.5544444444444444,-0.14333333333333334,-0.7266666666666667,0.049846097777479836,0.1298466535692483,-1.693728086999639
1589988629.9643433,-2.496681545064378,-2.563229184549356,8.896636909871246,0.5577628993800667,-0.1215790176442537,-0.7314599904625656,0.052364746504095096,0.13200026257060163,-1.698780646682127
1589988629.9743433,-2.457145899004238,-2.624080328998184,8.891226228002422,0.5644444444444444,-0.07777777777777778,-0.7411111111111112,0.049154265574910545,0.1296751023919382,-1.701184045484508
1589988629.9843433,-2.42,-2.64,8.825902004803993,0.5644444444444444,-0.07777777777777778,-0.7411111111111112,0.04856247737815211,0.13255644763037921,-1.701737035808591
1589988629.9943433,-2.42,-2.64,8.71396094007567,0.5644444444444444,-0.07777777777777778,-0.7411111111111112,0.04999905101616485,0.13399302126839197,-1.7046101830846165
1589988630.0043433,-2.395684055841293,-2.686818679075843,8.796818679075843,0.5644444444444444,-0.07777777777777778,-0.7411111111111112,0.03795581730314715,0.13032940553603886,-1.7102491528147894
1589988630.0143433,-2.334048493754592,-2.6731218875010203,8.78312188750102,0.5644444444444444,-0.07777777777777778,-0.7411111111111112,0.041691037770960754,0.132570537816727,-1.7095021087212268
1589988630.0243433,-2.2991401288332423,-2.7317197423335147,8.806019098167303,0.5666666666666667,-0.06555555555555556,-0.7677777777777778,0.045064513714707065,0.13554440921086458,-1.693778813035692
1589988630.0343432,-2.2875584068827415,-2.7548831862345176,8.861454424089594,0.5666666666666667,-0.06555555555555556,-0.7677777777777778,0.037221414851411366,0.13893501411664552,-1.6901218716368474
1589988630.0443432,-2.25,-2.8385286974962374,8.747057394992476,0.5666666666666667,-0.06555555555555556,-0.7677777777777778,0.039890132554105506,0.144150157495679,-1.6761580587391436
1589988630.0543432,-2.249775200286978,-2.859859500179361,8.790168599784765,0.5666666666666667,-0.06555555555555556,-0.7677777777777778,0.041448504504279574,0.14180187126336777,-1.6667587833487272
1589988630.0643432,-2.1745587298215803,-2.830514284197111,8.822647621070518,0.5679329805059945,-0.06707513216274899,-0.7677777777777778,0.039366178388675996,0.14236138170970175,-1.6506596848702326
1589988630.0743432,-2.1669007003052614,-2.916499499781956,8.786098299258652,0.5722222222222222,-0.07222222222222223,-0.7677777777777778,0.02843818767404344,0.14910573605089417,-1.627934195964968
1589988630.0843432,-2.12,-2.961475259252097,8.78524740747903,0.5722222222222222,-0.07222222222222223,-0.7677777777777778,0.016845239198751864,0.14774493309832656,-1.609357006422701
1589988630.0943432,-2.1019734845986413,-2.9727893938394563,8.628842424642174,0.5722222222222222,-0.07222222222222223,-0.7677777777777778,0.023300723990444548,0.15262730765794338,-1.5848736631677838
1589988630.1043432,-2.0807819378642405,-2.9869548446606013,8.704259360194541,0.5722222222222222,-0.07222222222222223,-0.7677777777777778,0.020175864556806804,0.14847642578398734,-1.5582854110520479
1589988630.1143432,-2.107689353253263,-3.069242586986948,8.783863880480421,0.582491763318831,-0.07068179105773091,-0.7711153786341757,0.010573634422112899,0.13886599314893017,-1.532356817685696
1589988630.1243432,-2.095756445597535,-3.1042435544024647,8.783320901572889,0.6166666666666667,-0.06555555555555556,-0.7822222222222223,0.016793169205482978,0.12127944019462625,-1.4962857036438149
1589988630.1343431,-2.104598484039714,-3.150145831109213,8.738248105049642,0.6166666666666667,-0.06555555555555556,-0.7822222222222223,0.02181661564992912,0.11204505589675612,-1.4673266891390933
1589988630.1443431,-2.1225283226846843,-3.2324527955255262,8.757547204474474,0.6166666666666667,-0.06555555555555556,-0.7822222222222223,0.02616346130989009,0.10608226375590378,-1.4382995207128861
1589988630.1543431,-2.0991481591645185,-3.273407363341926,8.73107393086126,0.6166666666666667,-0.06555555555555556,-0.7822222222222223,0.03852653680576782,0.10625096674106116,-1.4039194597024702
1589988630.164343,-2.0922172648555755,-3.3011309405776985,8.82117555687752,0.6166666666666667,-0.06555555555555556,-0.7822222222222223,0.03247819051582812,0.10095866373736391,-1.3774579446839843
1589988630.174343,-2.056339835193491,-3.3018300824032543,8.814509752790237,0.5344444444444445,-0.09888888888888887,-0.7244444444444444,0.031833723714394725,0.09569366232669187,-1.3224576110757402
1589988630.184343,-2.014322704387437,-3.327569727483417,8.756215136258291,0.5344444444444445,-0.09888888888888887,-0.7244444444444444,0.032783592788137514,0.09189488733679667,-1.2737339792864089
1589988630.194343,-1.992020294231242,-3.3660608826937257,8.737979705768758,0.5344444444444445,-0.09888888888888887,-0.7244444444444444,0.02836160034490785,0.086594254072502,-1.2255644894100057
1589988630.204343,-1.9993836241704996,-3.388150872511499,8.7306163758295,0.5344444444444445,-0.09888888888888887,-0.7244444444444444,0.02836160034490785,0.08016853650496591,-1.1918294721804412
1589988630.214343,-1.9812111634563778,-3.3803164569543007,8.78357882600831,0.5341462089437521,-0.0922282960400916,-0.7192750290991092,0.02816640566615473,0.08003829652910183,-1.1341426646362252
1589988630.224343,-1.8061255888842507,-3.196893474069215,8.816928459260144,0.5313670728394325,-0.030160923043623264,-0.6711033366242383,0.026347465339351353,0.07367200538529,-1.090488096792944
1589988630.234343,-1.9,-3.37,8.726743837084673,0.5311111111111111,-0.024444444444444446,-0.6666666666666666,0.027987467600643263,0.06544037671469816,-1.015154601564609
1589988630.244343,-1.8754389408920065,-3.292223312824687,9.08701323884992,0.5311111111111111,-0.024444444444444446,-0.6666666666666666,0.03903362374000413,0.0414900886930943,-0.9624957983512318
1589988630.254343,-1.9000433652931275,-3.271645136500037,9.757532752689746,0.5311111111111111,-0.024444444444444446,-0.6666666666666666,0.09440648219346898,-0.008112789480426923,-0.913643952148742
1589988630.264343,-1.8342060085836909,-3.2178173390557943,9.650087210300429,0.5330255412494039,-0.011739589890319507,-0.6588349070100142,0.10633347306282345,-0.010340364203135347,-0.8601521133970624
1589988630.274343,-1.1292355866642108,-2.410046048996132,7.7674673052127465,0.5433333333333333,0.05666666666666665,-0.6166666666666667,-0.12721409635981923,0.16542873776423367,-0.7759554145571088
1589988630.284343,-1.9720427334684103,-3.7374673052127463,11.019298213298951,0.5433333333333333,0.05666666666666665,-0.6166666666666667,-0.031447431834607714,-0.06977419030968579,-0.7636972814978816
1589988630.294343,-1.6377450166112957,-3.26,8.690442275747507,0.5433333333333333,0.05666666666666665,-0.6166666666666667,0.09281838962012602,0.11066020755581728,-0.623110357334918
1589988630.304343,-1.6386727206389105,-3.292723071309847,9.110755260064053,0.5433333333333333,0.05666666666666665,-0.6166666666666667,-0.02921778775237183,-0.0272707695624114,-0.6119760574474388
1589988630.314343,-1.738195522555968,-3.3896692541343234,8.881969850376871,0.5453366832914589,0.06540855739303257,-0.6166666666666667,-0.016829890520271566,-0.010284905825292831,-0.559151587986664
1589988630.324343,-1.7687360761133222,-3.4742305065586514,8.830550125992039,0.5555555555555556,0.11,-0.6166666666666667,0.06096650494652778,0.06542269370726801,-0.4704716712257133
1589988630.334343,-1.6734243405830633,-3.3467121702915317,9.036021903439766,0.5555555555555556,0.11,-0.6166666666666667,-0.00502063154458129,-0.015226537225240517,-0.43923084708383225
1589988630.344343,-1.6652839116719245,-3.3961593059936908,8.383761829652997,0.5555555555555556,0.11,-0.6166666666666667,0.025313640201071148,0.027431641294530358,-0.3609075583807773
1589988630.354343,-1.8323898361381754,-3.6773163935636255,9.353751476232654,0.5555555555555556,0.11,-0.6166666666666667,0.022582665013109432,0.015760966951453355,-0.29596027389512614
1589988630.364343,-1.8065899002162613,-3.6365899002162614,9.084654550973175,0.5568185554754588,0.11252599983980642,-0.6157194167267392,0.012619112243375455,0.004239328402802936,-0.2515965586522755
1589988630.374343,-1.75325341357049,-3.57674658642951,8.81373293214755,0.5777777777777777,0.15444444444444444,-0.6,0.019713415128631607,0.0011169844637282558,-0.171731199114116
1589988630.384343,-1.7671263739268332,-3.5866282058292773,8.810880953682943,0.5777777777777777,0.15444444444444444,-0.6,0.013737775060538294,-0.0012203919166126206,-0.1246055400374498
1589988630.394343,-1.8129983048066933,-3.6936627112156177,9.009659320829003,0.5777777777777777,0.15444444444444444,-0.6,0.01790765124856338,-0.002054367154217638,-0.07706895149396381
1589988630.404343,-1.7846891566265062,-3.6925939759036144,9.139877108433735,0.5777777777777777,0.15444444444444444,-0.6,0.009344477044130182,-0.0064838718860798375,0.0014483078582061375
1589988630.4143429,-1.5992982045538133,-3.374463873750376,8.327524156608378,0.5774907961557465,0.15519059666172574,-0.6008609448660938,0.011604697639434697,-0.011077353954118695,0.05724627719128898
1589988630.4243429,-1.7490213715560896,-3.6166904128400996,9.097437816496438,0.5722222222222222,0.1688888888888889,-0.6166666666666667,0.0036005186739467175,-0.016469213540571244,0.12037762874134356
1589988630.4343429,-1.684222298515149,-3.54469144279461,8.780642348296283,0.5722222222222222,0.1688888888888889,-0.6166666666666667,0.0012443578889369065,-0.02353769589560068,0.16200313594318355
1589988630.4443429,-1.7306058763160896,-3.5509088144741345,8.71696909802729,0.5722222222222222,0.1688888888888889,-0.6166666666666667,-0.0016197234603452832,-0.023932186361324426,0.22600041038662722
1589988630.4543428,-1.6733338673502083,-3.4643340275552705,8.539336430631208,0.5722222222222222,0.1688888888888889,-0.6166666666666667,-0.003308859198793039,-0.030470528207293426,0.26187229625837044
1589988630.4643428,-1.7405286767061838,-3.5516872797180388,8.929066324895865,0.5722222222222222,0.1688888888888889,-0.6166666666666667,-0.0040418408634878295,-0.02900456487790384,0.28532770952860376
1589988630.4743428,-1.751742973444466,-3.608257026555534,9.16389959294437,0.5894649695246711,0.18511735693825246,-0.6420236479937973,0.002607041167285288,-0.02238700237581833,0.3274796645583503
1589988630.4843428,-1.6896317647906607,-3.46492901924047,8.606657058442027,0.5911111111111111,0.18666666666666668,-0.6444444444444445,-0.011016471200097161,-0.03776190948633765,0.35340134661402833
1589988630.4943428,-1.6582193310354871,-3.6380955386183795,8.809958735860965,0.5911111111111111,0.18666666666666668,-0.6444444444444445,-0.00268076735289665,-0.030940746052500818,0.3769373473944847
1589988630.5043428,-1.7317155307442065,-3.459941363106952,8.738225832362746,0.5911111111111111,0.18666666666666668,-0.6444444444444445,-0.009636737960850806,-0.03290566255651098,0.3903302847593213
1589988630.5143428,-1.6894411673393355,-3.509105867742937,8.828323502018007,0.5917692918003381,0.186368622580979,-0.6443699334230225,-0.008799797284193701,-0.033840137932130816,0.3948563595889764
1589988630.5243428,-1.6540105915492958,-3.450237521126761,8.736042366197182,0.65,0.16,-0.6377777777777778,-0.014932004631773571,-0.03548797633761782,0.3918500158907821
1589988630.5343428,-1.727483602563622,-3.557483602563622,9.024062816236272,0.65,0.16,-0.6377777777777778,-0.012906971804317722,-0.032541925889253934,0.38623844106522326
1589988630.5443428,-1.703903339455043,-3.5339033394550428,8.874721149881937,0.65,0.16,-0.6377777777777778,-0.011192166680437475,-0.030827120765373684,0.3768070128838819
1589988630.5543427,-1.6537415465793912,-3.3950112712274785,8.618685190442,0.65,0.16,-0.6377777777777778,-0.0117270456619314,-0.024134323687686837,0.3513909354377576
1589988630.5643427,-1.6747526174294922,-3.3669965100940105,8.77977006695944,0.65,0.16,-0.6377777777777778,-0.01019907747149779,-0.024898307782903643,0.33381930124777104
1589988630.5743427,-1.7279749438065202,-3.4479749438065204,8.91291230332282,0.7833333333333333,0.09222222222222222,-0.6522222222222223,-0.013959900809240637,-0.0272707695624114,0.2975485721911792
1589988630.5843427,-1.7133583662943668,-3.433358366294367,8.861754282030283,0.7833333333333333,0.09222222222222222,-0.6522222222222223,-0.01236547954074039,-0.0272707695624114,0.28000993823767645
1589988630.5943427,-1.6978354834003708,-3.4410822582998146,8.687575808098702,0.7833333333333333,0.09222222222222222,-0.6522222222222223,-0.003362222233042866,-0.019252459703269723,0.25651994231597514
1589988630.6043427,-1.6803530417022694,-3.4498234791488653,8.748764354042057,0.7833333333333333,0.09222222222222222,-0.6522222222222223,-0.012897415011787181,-0.02497357537051631,0.2403101145921098
1589988630.6143427,-1.68,-3.45,8.836259620318112,0.7833333333333333,0.09222222222222222,-0.6522222222222223,-0.009953481085642368,-0.018816131388788276,0.22011834622189133
1589988630.6243427,-1.6513244954303121,-3.459558501523229,8.744414984767708,1.318609418634171,-0.11063042121519841,-0.791351522171448,-0.01294548935129142,-0.01854412330243975,0.20778760881610217
1589988630.6343427,-1.7415349887133182,-3.579841986455982,8.895665914221219,1.3433333333333333,-0.12,-0.7977777777777778,-0.005471390516268906,-0.011831697313533793,0.20614978128804357
1589988630.6443427,-1.706028747433265,-3.5360287474332646,8.593564681724846,1.3433333333333333,-0.12,-0.7977777777777778,-0.010579490660959468,-0.016033644573441745,0.20005522965133768
1589988630.6543427,-1.7761029310582084,-3.60665965519275,8.758329827596375,1.3433333333333333,-0.12,-0.7977777777777778,-0.006544984694978735,-0.012150961563290203,0.1918040301723812
1589988630.6643426,-1.660668776661621,-3.5077160942813896,8.708858047140694,1.3433333333333333,-0.12,-0.7977777777777778,-0.006544984694978735,-0.01664807331212042,0.18640749607378496
1589988630.6743426,-1.7141008697231874,-3.5656638735608692,8.885546245202898,1.0555555555555556,-0.2677777777777778,-0.7955555555555556,-0.003903156373702774,-0.013878299422724229,0.16466412310345682
1589988630.6843426,-1.6229515560572205,-3.54,8.781306811637604,1.0555555555555556,-0.2677777777777778,-0.7955555555555556,-0.0065625994096485205,-0.017256264021047744,0.13542318278035256
1589988630.6943426,-1.6478503776985314,-3.5448366501783046,8.621822922658076,1.0555555555555556,-0.2677777777777778,-0.7955555555555556,0.00338973605634851,-0.0055713976213414215,0.10426343323532199
1589988630.7043426,-1.615684267034779,-3.6172103991717472,8.798736531308716,1.0555555555555556,-0.2677777777777778,-0.7955555555555556,0.005144125239608944,-0.0073257868046018556,0.06478967661196222
1589988630.7143426,-1.6759019991411803,-3.4734827520396965,8.73114700128823,1.0555555555555556,-0.2677777777777778,-0.7955555555555556,-0.0008360399005024966,-0.010331612825897238,0.007492480968433961
1589988630.7243426,-1.754120009449563,-3.392354291114036,8.723537173905708,0.7033333333333334,0.06222222222222223,-0.7177777777777777,0.002181661564992912,0.004363323129985824,-0.13199052468207118
1589988630.7343426,-1.8036628868414837,-3.4206645067665624,8.886320913907731,0.7033333333333334,0.06222222222222223,-0.7177777777777777,0.002181661564992912,0.004363323129985824,-0.13199052468207118
1589988630.7443426,-1.6684832257048354,-3.2730297234660126,8.634241612852419,0.7033333333333334,0.06222222222222223,-0.7177777777777777,-0.000958634157729318,0.003669082221790782,-0.19872824558250027
1589988630.7543426,-1.7999587862222128,-3.3199175724444254,8.700412137777873,0.7033333333333334,0.06222222222222223,-0.7177777777777777,0.001126796588475113,0.009866930025688758,-0.30333637632321414
1589988630.7643425,-1.79100215678319,-3.3020043135663797,8.789978432168102,0.7033333333333334,0.06222222222222223,-0.7177777777777777,0.008942930268075166,0.020614113835138826,-0.3218996938122642
1589988630.7743425,-1.7571342862184578,-3.3410821422269277,8.767134286218457,0.6376019057702488,0.11608547536419422,-0.7049966668627335,0.012506296963589927,0.020024069035847906,-0.3481761216915438
1589988630.7843425,-1.881995774935829,-3.1756036617222816,8.918394929922995,0.6233333333333333,0.12777777777777774,-0.7022222222222222,0.00842139799407487,0.01618814389098334,-0.3940083858930569
1589988630.7943425,-1.749239063316392,-3.294565620101648,8.761521873367215,0.6233333333333333,0.12777777777777774,-0.7022222222222222,0.01451282143565809,0.02323946769562974,-0.404188426734296
1589988630.8043425,-1.7423521676915341,-3.3505880419228835,8.78176412576865,0.6233333333333333,0.12777777777777774,-0.7022222222222222,0.017902669071559962,0.02682175160079555,-0.41169222296277974
1589988630.8143425,-1.7747944463781569,-3.358698611594539,8.806095834783617,0.6233333333333333,0.12777777777777774,-0.7022222222222222,0.009055410010135814,0.020628670257798645,-0.4178853043057767
1589988630.8243425,-1.8220171947142176,-3.3011404007551115,8.954561603020446,0.62,0.16666666666666666,-0.7766666666666666,0.017548935903993236,0.02530914980627424,-0.411960840509243
1589988630.8343425,-1.7533766032385973,-3.321922114170525,8.961519393925968,0.62,0.16666666666666666,-0.7766666666666666,0.010612227600390893,0.01941112391108279,-0.4091337934868913
1589988630.8443425,-1.6604651884013024,-3.4891626608776556,8.562000310125601,0.62,0.16666666666666666,-0.7766666666666666,0.021760797048870996,0.03157319967306109,-0.41014729980038944
1589988630.8543425,-1.6760249592013055,-3.5380748776039166,8.776336949217626,0.62,0.16666666666666666,-0.7766666666666666,0.015698434075167245,0.022893833299880262,-0.42326276330744284
1589988630.8643425,-1.6076173625254584,-3.5902125763747454,8.805872454175153,0.62,0.16666666666666666,-0.7766666666666666,0.019444614110821372,0.028621505774983833,-0.44844739403264533
1589988630.8743424,-1.4231629990646384,-3.5780465711613254,8.891697927435633,0.5788888888888889,0.12,-0.7111111111111111,0.02836160034490785,0.037407875651175905,-0.5136796960431304
1589988630.8843424,-1.326804017131886,-3.550515433466253,8.774690592231575,0.5788888888888889,0.12,-0.7111111111111111,0.02836160034490785,0.041912647522415886,-0.5737433209929967
1589988630.8943424,-1.2262747010214032,-3.6410573320330544,8.14522096186419,0.5788888888888889,0.12,-0.7111111111111111,-0.03385057932266308,0.1178377189350778,-0.8948343633298536
1589988630.9043424,-1.240764961005889,-2.6199051010663696,-6.794836264523317,0.5788888888888889,0.12,-0.7111111111111111,-1.4969087961004357,1.5303655336931183,-5.3176493223772265
1589988630.9143424,-0.06418470475887306,-3.5294600509310836,-0.010724574247969798,0.5788888888888889,0.12,-0.7111111111111111,-0.9334651604796326,-1.5389913957307058,-10.02363251488054
1589988630.9243424,-0.5105561067800615,-2.6353460902433263,-0.1739617292700213,0.5422222222222223,0.2466666666666667,-0.6588888888888889,-1.1407700104289997,-1.2176705655418094,-10.288635487548788
1589988630.9343424,-1.168174993248717,-3.5912416959222253,2.659563957151859,0.5422222222222223,0.2466666666666667,-0.6588888888888889,-1.2723857553374587,-0.6451815236310916,-10.015068141010676
1589988630.9443424,-1.0322538482311638,-4.180233324331623,4.033877756773787,0.5422222222222223,0.2466666666666667,-0.6588888888888889,-0.7888706953947803,0.13898600118224713,-9.615571030155143
1589988630.9543424,-0.16544146716450692,-2.1234311756769477,-0.297863418154435,0.5422222222222223,0.2466666666666667,-0.6588888888888889,0.500214862932522,1.937318019583283,-8.747520279538932
1589988630.9643424,-0.7642323742587306,-2.827504000502024,3.419904301716294,0.5422222222222223,0.2466666666666667,-0.6588888888888889,0.9107848681388593,2.469192799055129,-8.346999190543938
1589988630.9743423,-4.9002309260752055,-4.074919152164636,14.738372374223529,0.4222222222222222,0.4388888888888889,-0.6522222222222223,1.89960437523233,3.4245372134243057,-7.550345350255528
1589988630.9843423,2.7363048807666592,1.9348958720253573,14.199383156278632,0.4222222222222222,0.4388888888888889,-0.6522222222222223,3.3713631394273733,1.064497387814915,-6.59863761611451
1589988630.9943423,-0.15252232038517272,-0.9741462160519796,-2.5667690366007574,0.4222222222222222,0.4388888888888889,-0.6522222222222223,1.0537364680720507,-0.2399645177005626,-5.445488760258848
1589988631.0043423,-0.15294590772494254,-0.5657344882446527,-0.16965617818631784,0.4222222222222222,0.4388888888888889,-0.6522222222222223,0.321146598615925,0.043564873599240425,-4.957769793355053
1589988631.0143423,0.6848760827293616,-0.017072299805550695,2.551411702315715,0.4222222222222222,0.4388888888888889,-0.6522222222222223,-0.4827812645127185,0.5846390591455809,-4.5372039092233685
1589988631.0243423,-2.14,-1.99,24.55,0.32666666666666666,0.5488888888888889,-0.6644444444444444,-1.7213309747794077,0.8792096106921435,-3.847360169865
1589988631.0343423,-1.2279618896896856,-1.6103103145918434,16.4786584400864,0.32666666666666666,0.5488888888888889,-0.6644444444444444,-1.0889635230028443,0.40909714316615003,-3.6219111391168397
1589988631.0443423,0.7966530361889184,-1.3692850814421047,7.000032031622709,0.32666666666666666,0.5488888888888889,-0.6644444444444444,0.20200612999804266,0.029136028496019817,-3.048810927358845
1589988631.0543423,1.0820302667644675,-1.3469953287264023,8.419801953441686,0.32666666666666666,0.5488888888888889,-0.6644444444444444,0.42225906723366796,0.6230312251072272,-2.5931956806625496
1589988631.0643423,0.3966934502069637,-1.3149598246895544,6.970927684441198,0.32666666666666666,0.5488888888888889,-0.6644444444444444,-0.02408526213853235,0.33358731484699206,-2.2354201070038315
1589988631.0743423,1.0674777258612185,-2.560965261050004,12.097308529471515,0.2001942517727409,0.5975321253865526,-0.6579586795780893,0.15739551361943652,-0.46130105826462403,-1.94305786735822
1589988631.0843422,0.8042697881828317,-1.5804199182460053,6.705882571534745,0.19666666666666666,0.5988888888888889,-0.6577777777777778,0.23131166056676702,0.08953162886229188,-1.5840743844357195
1589988631.0943422,0.9812020950652998,-2.103606285195899,9.086343392157199,0.19666666666666666,0.5988888888888889,-0.6577777777777778,-0.10141666058377691,0.3837353665027965,-1.2990175821647667
1589988631.1043422,0.5147035573122529,-1.8871335280976114,8.428772985048978,0.19666666666666666,0.5988888888888889,-0.6577777777777778,-0.2855280972764482,0.13765050987126443,-0.9755468964407581
1589988631.1143422,0.5407138636289025,-1.7104763468041102,7.124764124618364,0.19666666666666666,0.5988888888888889,-0.6577777777777778,0.08490200514065405,0.09214911300089379,-0.7479987215100798
1589988631.1243422,8.094860832598059,-10.057599262051816,5.794422876393679,0.16123695444863329,0.60736121137581,-0.6477650330205075,0.12819488504585586,-0.012422188806656492,-0.39853481201631324
1589988631.1343422,10.579549693408278,-11.097704394481347,3.8975102197240674,0.14555555555555555,0.6111111111111112,-0.6433333333333333,-0.4337028506262885,-0.26075447279882363,0.3043225580344488
1589988631.1443422,-3.969590133215222,0.3503359340397285,11.845821948144867,0.14555555555555555,0.6111111111111112,-0.6433333333333333,-0.04740042735576677,0.004504067096914199,1.180606665056819
1589988631.1543422,-1.3354188820874846,-0.283969438362897,2.5276694517671245,0.14555555555555555,0.6111111111111112,-0.6433333333333333,0.7570119010456622,0.37575418719013953,1.5282779546755407
1589988631.1643422,-1.233965706018066,-1.26888925820201,6.406514878973917,0.14555555555555555,0.6111111111111112,-0.6433333333333333,0.11906484320353528,-0.021564521256445646,1.5281051223364743
1589988631.1743422,0.13291090510852,-2.1343281931016174,11.40120157525609,0.14042107617916816,0.630915531562891,-0.6514018009247993,-0.4128410902481451,-0.342104989333968,1.5487023636958546
1589988631.1843421,0.20629719317556416,-2.7420983305815447,10.909262520638414,0.13777777777777778,0.6411111111111111,-0.6555555555555556,-0.00039134629944048704,-0.08745549190757673,1.7461504868806272
1589988631.1943421,-0.0851277751964607,-1.8912678531746834,6.339571927839842,0.13777777777777778,0.6411111111111111,-0.6555555555555556,0.23790501287184726,-0.06035085595768032,1.882653368676779
1589988631.2043421,0.30594952113868457,-2.272977406211969,8.160292078945975,0.13777777777777778,0.6411111111111111,-0.6555555555555556,-0.22144268917456383,-0.1734725123132472,2.0480801323867204
1589988631.214342,5.189920919443273,-8.910289118515394,9.42405082243779,0.13777777777777778,0.6411111111111111,-0.6555555555555556,-0.24420788964147438,-0.24248627710261278,2.2573999337328097
1589988631.224342,-0.15074292950612111,-3.550969880565143,10.222808829737044,0.16547154559023552,0.6366443743671663,-0.6725291551825457,0.0031496848395351773,-0.1379446032029148,2.6708656250452187
1589988631.234342,-0.9602759502058977,-1.985051356084631,7.418680834950537,0.17222222222222222,0.6355555555555555,-0.6766666666666666,0.07251399212746605,-0.11611536643897762,2.9347300484256675
1589988631.244342,-0.41472605624675996,-2.3479451788491446,8.142027280974599,0.17222222222222222,0.6355555555555555,-0.6766666666666666,-0.10956123563872003,-0.21737865824630406,3.0156315808393233
1589988631.254342,0.170645694175106,-2.7001781225310637,9.801046469869998,0.17222222222222222,0.6355555555555555,-0.6766666666666666,-0.1929216072699203,-0.27100708706526405,3.1008042945547647
1589988631.264342,0.25807377624833205,-2.848950417866423,9.669146358592599,0.17222222222222222,0.6355555555555555,-0.6766666666666666,-0.07974764770603002,-0.22658454864302788,3.1971080229133237
1589988631.274342,0.4039087947882736,-3.857858306188925,8.772771444082519,0.2148223549282181,0.6244139823862951,-0.6727343467245748,-0.1082569604746279,-0.24077128527999883,3.2947098819448075
1589988631.284342,0.9172275054864667,-6.27370153621068,8.793782004389174,0.24444444444444444,0.6166666666666667,-0.67,-0.13667004510361824,-0.2647143876882932,3.529617202205954
1589988631.294342,0.006364459682375534,-3.497275608888314,7.897778568425139,0.24444444444444444,0.6166666666666667,-0.67,-0.07665569256913018,-0.2670662266220605,3.933491486791939
1589988631.304342,-0.046983933673708345,-3.2633673708370416,9.157144596936625,0.24444444444444444,0.6166666666666667,-0.67,-0.1236312015986121,-0.28597174625796884,4.069804984797729
1589988631.314342,0.00246556186341626,-3.1852525463349473,8.8009183503089,0.24444444444444444,0.6166666666666667,-0.67,-0.13798258074990621,-0.2956051244086789,4.105578043647541
1589988631.324342,-0.06048219387905387,-3.297395210462753,8.820256855872042,0.3149266383234983,0.5931726020403153,-0.6758735161565878,-0.10791162964531983,-0.2929915444527103,4.133704969303189
1589988631.334342,-0.46708952380952384,-4.375897142857143,8.200217142857143,0.3244444444444444,0.59,-0.6766666666666666,-0.11642675885470366,-0.2923426497090502,4.160057098643558
1589988631.344342,0.2837238910308012,-7.031519933906707,8.603027369402195,0.3244444444444444,0.59,-0.6766666666666666,-0.17115813424850096,-0.31595588024921184,4.292045751930326
1589988631.354342,11.258579756514195,-25.391647189609827,9.523976031018682,0.3244444444444444,0.59,-0.6766666666666666,-0.43781356069843347,-0.49141301197086396,2.5006604621210498
1589988631.364342,0.14814283143731366,-8.875764440090368,14.03308495111662,0.3244444444444444,0.59,-0.6766666666666666,-0.3053910071444122,-0.04989982155017675,-0.8802351665374784
1589988631.374342,-4.6778584778830705,-3.3878584778830705,9.283814145653672,0.43864992185023666,0.5005749563709363,-0.6842085378161057,0.8163735798639981,0.5594839142187847,-1.577978955860127
1589988631.384342,-4.7,-3.41,9.09,0.44222222222222224,0.4977777777777778,-0.6844444444444444,0.8497571795647392,0.5737769915931358,-1.5675238344474072
1589988631.394342,-1.4873535893869692,-0.4601534182090511,5.311686102492779,0.44222222222222224,0.4977777777777778,-0.6844444444444444,0.18802227846698316,0.06987994801641,-0.32380343720063354
1589988631.404342,-0.9152158616140145,-2.7763508759070583,8.72437000659679,0.44222222222222224,0.4977777777777778,-0.6844444444444444,-0.3722106842529166,-0.1387251634572435,0.13851548056293167
1589988631.414342,-0.822710437145637,-3.9094752910390174,9.028695272922468,0.44222222222222224,0.4977777777777778,-0.6844444444444444,-0.1506889020774495,-0.07235201312687314,0.53822674795619
1589988631.424342,-0.6965493626791228,-2.6582424194442247,7.987124139023038,0.43474617123655207,0.49487042461668385,-0.6927511677618557,0.09867657331136424,-0.005422804726032575,0.9546200355162093
1589988631.434342,2.739299030574198,-9.288565746955008,8.184777529207059,0.4222222222222222,0.49,-0.7066666666666667,-0.06374784724267071,-0.11213105956360102,1.2075081904891194
1589988631.444342,0.5127459882854462,-6.007446712646866,9.645421273351126,0.4222222222222222,0.49,-0.7066666666666667,-0.12443716516885012,-0.0996745540569423,0.4691307701050552
1589988631.454342,-2.2240018364480933,-2.2062417629901696,8.37871304598322,0.4222222222222222,0.49,-0.7066666666666667,0.11867460001227825,0.07799933052478855,-0.21028733844229375
1589988631.4643419,-1.4407886900193412,-2.766383200810487,7.740927148251619,0.4222222222222222,0.49,-0.7066666666666667,0.08504441353821757,0.069680018598755,-0.10353632779666655
1589988631.4743419,-0.3206289553871396,-4.7576795062114225,8.648460035940309,0.4334152841801877,0.49,-0.7141287079719769,-0.11968379889639078,-0.06763389489355282,0.17319365534115108
1589988631.4843419,-0.35399164926931115,-4.122653027139875,8.342918997912317,0.44222222222222224,0.49,-0.72,0.01569206765445874,-0.0024792146966024914,0.015473036120720707
1589988631.4943419,-0.21166849135099627,-4.158537333041384,8.477028684037661,0.44222222222222224,0.49,-0.72,0.043968577570632265,0.015413747073974991,-0.023100676584175004
1589988631.5043418,-0.06997944400939703,-4.456028778386844,8.788086335160532,0.44222222222222224,0.49,-0.72,0.003692231561075267,-0.0039346146734741475,-0.003918918498354046
1589988631.5143418,-0.08874773314503057,-4.44125226685497,8.818500906741988,0.44222222222222224,0.49,-0.72,-0.0012274319058265238,-0.0038727460084840314,0.00062717824483186
1589988631.5243418,-0.11,-4.480587208266524,8.749412791733477,0.4458941742383752,0.48326808797038623,-0.7004162559138507,-0.001913277935805738,0.001913277935805738,-0.0007116344484848606
1589988631.5343418,-0.12558270476999894,-4.545582704769999,8.731165409539997,0.4488888888888889,0.4777777777777778,-0.6844444444444444,0.002435914485081855,0.004363323129985824,-0.001331756863109452
1589988631.5443418,-0.1426244063596944,-4.499502374561223,8.664253561841834,0.4488888888888889,0.4777777777777778,-0.6844444444444444,0.0036747685765908897,0.0009205503630111537,-0.00040227622910152185
1589988631.5543418,-0.13987236555232557,-4.459872365552325,8.721276344476744,0.4488888888888889,0.4777777777777778,-0.6844444444444444,0.0038248691179591054,-0.0016432075529661935,0.0
1589988631.5643418,-0.13,-4.45,8.799553112194134,0.4488888888888889,0.4777777777777778,-0.6844444444444444,-0.00046923070540683034,-0.002925131385822551,-0.00037173491041481946
1589988631.5743418,-0.12774679044045034,-4.461266047797748,8.75324037132135,0.44813781903570565,0.4791547391752804,-0.6861969407685387,-0.010186157594513915,-0.004117536095288617,-0.0009679372651478527
1589988631.5843418,-0.1060636922082121,-4.538191076624636,8.672445845457485,0.44222222222222224,0.49,-0.7,-0.01094304653562602,-0.0008935078523940418,-0.00042938457086629005
1589988631.5943418,-0.10478510143532997,-4.51042979712934,8.64914040574132,0.44222222222222224,0.49,-0.7,-0.00032818515723893014,0.001090830782496456,-4.6883593891275735e-05
1589988631.6043417,-0.11653758387745419,-4.480387248367637,8.683075167754907,0.44222222222222224,0.49,-0.7,0.007635815477475192,0.0003776910088284989,-0.0010485885385074156
1589988631.6143417,-0.12,-4.4809550365263915,8.733820146105566,0.44222222222222224,0.49,-0.7,0.007038310924157141,-0.0005975045533180506,-0.0027791661183109626
1589988631.6243417,-0.11405703059888082,-4.466228122395523,8.740285152994405,0.43033628341998387,0.49,-0.6907553809315924,-0.0012343440596316608,0.00020572400993861028,-0.0013276601588367689
1589988631.6343417,-0.11701598314954777,-4.485079915747739,8.75507991574774,0.4222222222222222,0.49,-0.6844444444444444,-0.002718359500477167,0.0026214808602970834,-0.0007653250389003137
1589988631.6443417,-0.11500401002506265,-4.5249799498746865,8.695060150375939,0.4222222222222222,0.49,-0.6844444444444444,-8.748517553857239e-07,0.002182536416748298,-8.748517553857239e-07
1589988631.6543417,-0.11,-4.533766884118777,8.662206101291178,0.4222222222222222,0.49,-0.6844444444444444,0.003215740682384796,0.0003825274825336759,2.8375832552285764e-05
1589988631.6643417,-0.11709191444966092,-4.489362128325508,8.74290808555034,0.4222222222222222,0.49,-0.6844444444444444,0.003767776183214415,-0.0007040268530703783,-0.0010212497767146788
1589988631.6743417,-0.11674902731539048,-4.447915045525651,8.760918936264089,0.43105620401196193,0.4963800979592564,-0.6844444444444444,-0.004717949237728545,-0.0009636379268261179,0.00012719285567033812
1589988631.6843417,-0.1248997090117506,-4.469799418023501,8.687951309447122,0.44222222222222224,0.5044444444444445,-0.6844444444444444,-0.00994015582813148,-0.002181661564992912,-0.001769865009127005
1589988631.6943417,-0.11967493584260053,-4.48475620188195,8.640325064157398,0.44222222222222224,0.5044444444444445,-0.6844444444444444,-0.007010617338661995,3.545899891776311e-05,-0.0016273814240152433
1589988631.7043417,-0.1,-4.50602030192608,8.66,0.44222222222222224,0.5044444444444445,-0.6844444444444444,0.001747543848585551,0.0016203465059102745,3.179933566881902e-05
1589988631.7143416,-0.10752872875269333,-4.491063263107494,8.697643643763467,0.44222222222222224,0.5044444444444445,-0.6844444444444444,0.007096667727783085,0.00026957387484605384,0.00026957387484605384
1589988631.7243416,-0.12,-4.410819091843337,8.759692840558749,0.44222222222222224,0.5041714138299987,-0.6848198615393073,0.00973929661528275,-0.0010573248851313039,-0.0011019994149515067
1589988631.7343416,-0.1308720712117595,-4.4628198219706015,8.735436035605881,0.44222222222222224,0.4777777777777778,-0.7211111111111111,-0.0001902564244632473,0.0004027230729007924,-0.0009957025702648323
1589988631.7443416,-0.1173167874516033,-4.496708031370992,8.660608756080611,0.44222222222222224,0.4777777777777778,-0.7211111111111111,-0.004037427552020487,0.0007649352045311195,-0.0012371773246850502
1589988631.7543416,-0.11059334069749092,-4.508219977907528,8.637076692441218,0.44222222222222224,0.4777777777777778,-0.7211111111111111,-0.002565268381908385,-0.0007072239655809835,-0.0016038844588781328
1589988631.7643416,-0.12,-4.48,8.714208978991854,0.44222222222222224,0.4777777777777778,-0.7211111111111111,0.0005358279460783719,-0.0016650085092542524,-0.001090830782496456
1589988631.7743416,-0.11650242459110709,-4.466009698364429,8.777487877044464,0.43794740783357533,0.48010949471703973,-0.7137273408034484,-5.374809354044769e-05,-0.00038152629201230115,-0.0007093044904841548
1589988631.7843416,-0.10641282006619056,-4.447174359867619,8.788476920397144,0.43,0.4844444444444445,-0.7,-0.005312066600315262,-0.001090830782496456,0.0
1589988631.7943416,-0.1,-4.482200386749886,8.698199097583599,0.43,0.4844444444444445,-0.7,-0.009697464562459453,-0.0014944452033314912,0.0
1589988631.8043416,-0.10133944231664102,-4.518660557683359,8.614018326949923,0.43,0.4844444444444445,-0.7,-0.007124428758845558,-0.0018894405829188354,-7.305524551851914e-05
1589988631.8143415,-0.11619201803616827,-4.5,8.696655873746822,0.43,0.4844444444444445,-0.7,0.0024923183672033718,0.0013508887759251212,0.00015532840110523013
1589988631.8243415,-0.10508308686770132,-4.475415434338506,8.754750739396895,0.43928750258323085,0.4844444444444445,-0.7,0.006544984694978735,-0.0005363520199572476,0.0011089575250784168
1589988631.8343415,-0.10529822428143149,-4.471192897125726,8.754105327155706,0.4488888888888889,0.4844444444444445,-0.7,0.002499358397849802,-0.001668777396372018,0.0005779466138755621
1589988631.8443415,-0.11539116022099448,-4.479217679558011,8.669914917127072,0.4488888888888889,0.4844444444444445,-0.7,-0.004619336895955158,0.0007587601962226733,-0.0006734222742328952
1589988631.8543415,-0.1139652618501529,-4.4881042144495416,8.65224316704893,0.4488888888888889,0.4844444444444445,-0.7,-0.004344376408395731,-0.0006772345354059848,-0.0028399493788088042
1589988631.8643415,-0.1132759890912381,-4.480344065452572,8.702931923638667,0.4488888888888889,0.4844444444444445,-0.7,-0.0014669516162238916,-0.0022004274243358373,-0.0022004274243358373
1589988631.8743415,-0.11869715260634103,-4.447817084361954,8.740880068244387,0.4488888888888889,0.4844444444444445,-0.7,-0.00028423720837969404,-0.0004263558125695414,-0.0004263558125695414
1589988631.8843415,-0.12005527479469362,-4.480055274794694,8.775027637397347,0.4222222222222222,0.4844444444444445,-0.72,0.0019164908003122946,-0.0002772298541902119,-0.0013680606366866677
1589988631.8943415,-0.09465454545454545,-4.459309090909091,8.713454545454546,0.4222222222222222,0.4844444444444445,-0.72,-0.004720322295166482,0.0016739294189581978,0.0005830986364617419
1589988631.9043415,-0.10349969772284544,-4.473499697722845,8.673998790891382,0.4222222222222222,0.4844444444444445,-0.72,-0.006872299876372681,0.0018543463835989666,0.00038175780055125515
1589988631.9143414,-0.11311237525912356,-4.4831123752591235,8.706224750518247,0.4222222222222222,0.4844444444444445,-0.72,-0.0037566165428160984,0.002932984873556132,7.230836069674709e-05
1589988631.9243414,-0.11736363636363636,-4.48209090909091,8.722636363636365,0.42427272727272725,0.4844444444444445,-0.7106262626262626,0.00028758266083997474,0.001031330921633013,-0.0016064962433129625
1589988631.9343414,-0.11185766762200783,-4.469288338110039,8.726284664755985,0.43,0.4844444444444445,-0.6844444444444444,0.001698751090216396,-0.001979021462419599,0.0
1589988631.9443414,-0.12,-4.502987632053594,8.68195052821438,0.43,0.4844444444444445,-0.6844444444444444,0.002068531085746629,-0.0007083654417899235,-0.00038246534070653245
1589988631.9543414,-0.12,-4.488689599352489,8.63458640226629,0.43,0.4844444444444445,-0.6844444444444444,-0.0023246041013637547,-7.147126818542137e-05,-0.001090830782496456
1589988631.9643414,-0.12,-4.482809675885031,8.703202418971257,0.43,0.4844444444444445,-0.6844444444444444,-0.003664663691526111,-0.001789490220956169,-0.001090830782496456
1589988631.9743414,-0.11925045703839122,-4.506252285191956,8.714497257769654,0.4309161080641885,0.48486085720089384,-0.6861100954702417,-0.0020181366579276297,-0.0029454425333588037,-0.001090830782496456
1589988631.9843414,-0.1145667370750352,-4.473700211225106,8.760866525849929,0.44222222222222224,0.49,-0.7066666666666667,0.0004981537377016228,0.001090830782496456,-0.0025852919956013245
1589988631.9943414,-0.11485763414757498,-4.484857634147575,8.714003439033025,0.44222222222222224,0.49,-0.7066666666666667,-0.0028357848941822344,-0.0005920045075086971,-0.0026804878399806706
1589988632.0043414,-0.12003642303701906,-4.495054634555529,8.659927153925961,0.44222222222222224,0.49,-0.7066666666666667,-0.005997582735231888,7.946273994477275e-06,-0.002185634701990151
1589988632.0143414,-0.13,-4.502506285051247,8.662481144846257,0.44222222222222224,0.49,-0.7066666666666667,-0.004636716418346954,0.0025903803120605746,-0.003272492347489368
1589988632.0243413,-0.1271940891303078,-4.492805910869692,8.711223643478768,0.44222222222222224,0.4940529823673332,-0.7023019164249232,-0.0020481827676487106,0.0020481827676487106,-0.0020481827676487106
1589988632.0343413,-0.11520526315789474,-4.485615789473684,8.754384210526316,0.44222222222222224,0.5044444444444445,-0.6911111111111111,0.002659904744897937,0.0010012678340388522,0.001090830782496456
1589988632.0443413,-0.11,-4.47,8.716123056874244,0.44222222222222224,0.5044444444444445,-0.6911111111111111,0.0031879105694181077,0.0015093735066377938,-0.0006722880583551183
1589988632.0543413,-0.11,-4.480320007463731,8.675160003731865,0.44222222222222224,0.5044444444444445,-0.6911111111111111,-0.0006326838892648078,-0.000562869090851544,-0.001618792474141368
1589988632.0643413,-0.11,-4.49,8.700134151671195,0.44222222222222224,0.5044444444444445,-0.6911111111111111,-0.003272492347489368,-0.001090830782496456,-0.000651571734048608
1589988632.0743413,-0.11333301614489168,-4.483333967710217,8.733333016144892,0.44222222222222224,0.49963008779071205,-0.6962958028920537,-0.002181765364667714,-0.0003636794606153535,-0.001090726982821654
1589988632.0843413,-0.11106022088825276,-4.465530110444126,8.744469889555873,0.44222222222222224,0.49,-0.7066666666666667,0.00048758931219063567,0.001090830782496456,-0.0018097244109174613
1589988632.0943413,-0.1042402154967517,-4.468480430993504,8.69911741403898,0.44222222222222224,0.49,-0.7066666666666667,0.00016575926484140404,-0.0012218480116411737,-0.00046253575882752596
1589988632.1043413,-0.1149449820700496,-4.48,8.654724910350248,0.44222222222222224,0.49,-0.7066666666666667,-0.0021696585146770892,-0.0038239092638955073,0.0005274108157744936
1589988632.1143413,-0.1232458139605555,-4.483245813960556,8.692983255842222,0.44222222222222224,0.49,-0.7066666666666667,-0.004334682482218573,-0.0022103022127601636,0.0025357249432359803
1589988632.1243412,-0.1296187741210077,-4.489618774121008,8.718475096484031,0.44222222222222224,0.49,-0.7066666666666667,-0.006420228817812011,-0.00012475587716672494,0.0032309070551004597
1589988632.1343412,-0.11,-4.492719306269552,8.745438612539104,0.4488888888888889,0.49,-0.7144444444444444,0.0002966302985863289,0.0002966302985863289,0.0
1589988632.1443412,-0.1092074747027107,-4.499207474702711,8.752867272324396,0.4488888888888889,0.49,-0.7144444444444444,0.001350184079553557,0.0011772818815154896,8.64510990190337e-05
1589988632.1543412,-0.1,-4.487018856682206,8.687886859906769,0.4488888888888889,0.49,-0.7144444444444444,0.004038130840177419,0.0012060846955676966,0.0017412153621132664
1589988632.1643412,-0.1,-4.4794747654211315,8.73,0.4488888888888889,0.49,-0.7144444444444444,0.002871432914826466,-0.0012054191918287138,0.0029860213241587235
1589988632.1743412,-0.10493837304847987,-4.47493837304848,8.73,0.4468769591283971,0.49,-0.7120667092729541,-0.004363323129985824,-0.0030929280362649446,-0.0020020972537684884
1589988632.1843412,-0.12908206565252203,-4.497246196957566,8.728164131305045,0.43666666666666665,0.49,-0.7,-0.004062929817223889,-0.0016810060437230214,-0.0012910929910044122
1589988632.1943412,-0.129389277616598,-4.4793892776165976,8.681832167150207,0.43666666666666665,0.49,-0.7,-0.0016029364349759586,0.0007119640850918548,-0.002248281042530363
1589988632.2043412,-0.1268194879832811,-4.4856064959944275,8.671967520027865,0.43666666666666665,0.49,-0.7,-0.0026609185062229598,-0.001702404623762864,-0.0006115738412664081
1589988632.2143412,-0.11328543886352105,-4.48,8.716427194317605,0.43666666666666665,0.49,-0.7,-0.00255572077822158,-0.001090830782496456,-0.000358385784633894
1589988632.2243412,-0.11428728070175438,-4.48,8.747143640350878,0.43666666666666665,0.48650889376218326,-0.7,-0.001090830782496456,-0.0007792502793820626,-0.00046766977626766916
1589988632.2343411,-0.11278057600413277,-4.484260192001378,8.744260192001377,0.43666666666666665,0.4777777777777778,-0.7,-0.001090830782496456,0.0,0.0015555456399412417
1589988632.2443411,-0.12290283617105294,-4.482902836171053,8.718062762769739,0.43666666666666665,0.4777777777777778,-0.7,7.043993345892414e-05,-0.0003870902386517934,0.0010203908490375318
1589988632.2543411,-0.10711865785460092,-4.467118657854601,8.671525368581596,0.43666666666666665,0.4777777777777778,-0.7,0.002181661564992912,-0.0014051364532070261,0.00016639190034582448
1589988632.264341,-0.10113173994616201,-4.464526959784648,8.70565869973081,0.43666666666666665,0.4777777777777778,-0.7,0.0018113005336765934,-0.0023051152420983513,0.0029021313161730496
1589988632.274341,-0.1079745493107105,-4.491898197242842,8.739872746553552,0.43666666666666665,0.4777777777777778,-0.7,-0.00042800359440475994,-0.003051549951458803,0.0006628271880916962
1589988632.284341,-0.10917283950617285,-4.481654320987655,8.75,0.4488888888888889,0.4977777777777778,-0.6911111111111111,-0.004363323129985824,-0.001090830782496456,-9.022921287316364e-05
1589988632.294341,-0.10008836907082522,-4.499823261858349,8.75,0.4488888888888889,0.4977777777777778,-0.6911111111111111,-0.004363323129985824,-0.001090830782496456,-0.001081191212228781
1589988632.304341,-0.10272939640660965,-4.49,8.669105774846267,0.4488888888888889,0.4977777777777778,-0.6911111111111111,-0.002974761385692867,-0.00029773096179650085,0.0
1589988632.314341,-0.10993386925006012,-4.49,8.71953708475042,0.4488888888888889,0.4977777777777778,-0.6911111111111111,-0.0021888753107633116,-0.001083617036726056,0.0
1589988632.324341,-0.12,-4.4744273943761765,8.73,0.44790502347196076,0.4958100469439215,-0.6914390662500872,-0.00048295380717852286,-0.000929846180103615,-0.000929846180103615
1589988632.334341,-0.12,-4.499900398809644,8.73,0.44224435582007904,0.48448871164015817,-0.6933259554673811,-0.0032616275430480406,-3.6216014804425854e-06,-3.6216014804425854e-06
1589988632.344341,-0.10394399904271868,-4.48,8.69239200670097,0.44222222222222224,0.4844444444444445,-0.6933333333333334,-0.001521054338689865,0.00023038367010963794,0.00023038367010963794
1589988632.354341,-0.11,-4.483981811654901,8.6699090582745,0.44222222222222224,0.4844444444444445,-0.6933333333333334,-0.0008786167480124619,-0.0002221342378428226,-0.0002221342378428226
1589988632.364341,-0.11314102444224187,-4.480576926673274,8.712564097768967,0.44222222222222224,0.4844444444444445,-0.6933333333333334,0.0007481981674793356,0.0017760960125306968,0.0014334633975135764
1589988632.374341,-0.11516688591794903,-4.461611038027351,8.74483311408205,0.44025317574434963,0.4844444444444445,-0.6944073586849002,-0.0007029479488024397,0.002921018373088148,0.0016544506033910821
1589988632.384341,-0.09912835770858651,-4.473042785902862,8.760871642291413,0.43,0.4844444444444445,-0.7,-0.004363323129985824,0.0007589143297576232,-0.0014227472352352887
1589988632.394341,-0.11536441756842775,-4.48,8.712186505410566,0.43,0.4844444444444445,-0.7,-0.003604827728312007,0.0010113272022317557,-0.001928829764434973
1589988632.404341,-0.10259316242731832,-4.48,8.645931624273183,0.43,0.4844444444444445,-0.7,-0.0013737009224696613,0.0032318425700930027,4.064977739636519e-05
1589988632.414341,-0.11,-4.479237162130437,8.720762837869565,0.43,0.4844444444444445,-0.7,-0.0019320234559408534,-8.321270301735286e-05,0.002939641535419957
1589988632.424341,-0.11,-4.4726725932418265,8.727327406758175,0.43,0.4844444444444445,-0.7,0.00021622668931365902,-0.000799296084768857,7.530800841394018e-05
1589988632.434341,-0.13905909062243804,-4.480235227344391,8.758353408589267,0.44222222222222224,0.49,-0.6933333333333334,-0.0011164901053110601,0.0010138528140526434,5.131864562920831e-05
1589988632.444341,-0.10258071342911562,-4.484838573141769,8.677096432854421,0.44222222222222224,0.49,-0.6933333333333334,-0.001618637235136651,-0.0019001494000647815,0.0019001494000647815
1589988632.454341,-0.11,-4.473630677847659,8.654522711390637,0.44222222222222224,0.49,-0.6933333333333334,0.00019802275787771966,-0.0008928080246187363,0.0008928080246187363
1589988632.464341,-0.11,-4.488285814116003,8.713143256464011,0.44222222222222224,0.49,-0.6933333333333334,0.0009973364460372034,-9.349433645925256e-05,9.349433645925256e-05
1589988632.474341,-0.12,-4.479725385001351,8.75,0.44206965833408385,0.49039666610915983,-0.6935164099990995,0.002151705715606744,-2.9955849386168066e-05,0.0009710073849517837
1589988632.484341,-0.12,-4.471631093442433,8.75,0.43757282969024064,0.5020884205831522,-0.6989126043717112,0.0012687554761098732,-0.0009129060888830388,-0.002560793573035699
1589988632.494341,-0.11,-4.491795416961966,8.716659579494449,0.43666666666666665,0.5044444444444445,-0.7,-0.0014825300004021051,0.0030766427385365436,0.0008107143023231398
1589988632.504341,-0.11,-4.5,8.61414552142303,0.43666666666666665,0.5044444444444445,-0.7,-0.003272492347489368,0.001277249089445116,-0.004549741436934484
1589988632.5143409,-0.10754631528575335,-4.497546315285754,8.656990531856714,0.43666666666666665,0.5044444444444445,-0.7,-0.0022018704207528612,-0.0011110396382564053,-0.0008231753008123292
1589988632.5243409,-0.10037804211101997,-4.49037804211102,8.73584153677878,0.43666666666666665,0.5044444444444445,-0.7,0.000925878793784249,0.0020167095762807052,-4.123799717805168e-05
1589988632.5343409,-0.13,-4.4718902759407895,8.77189027594079,0.43666666666666665,0.49,-0.6911111111111111,0.0006784365457713087,0.001090830782496456,0.0006784365457713087
1589988632.5443408,-0.13,-4.479489609189572,8.77948960918957,0.43666666666666665,0.49,-0.6911111111111111,-0.0009794807810726335,0.001090830782496456,-0.0009794807810726335
1589988632.5543408,-0.1,-4.49,8.648543905325445,0.43666666666666665,0.49,-0.6911111111111111,-0.002261079209654666,0.0003371377126115674,0.0003371377126115674
1589988632.5643408,-0.10468055428099478,-4.49,8.69936110856199,0.43666666666666665,0.49,-0.6911111111111111,0.0005105692688854661,0.0008355461480537229,0.0005802615136109899
1589988632.5743408,-0.11995726058771804,-4.490042739412282,8.730128218236846,0.43663817372514535,0.48997625588206556,-0.6911775946413276,0.002181661564992912,-4.662146654296626e-06,-0.001090830782496456
1589988632.5843408,-0.11138013537555469,-4.4986198646244455,8.755859593873335,0.4309200902503698,0.4852111863197527,-0.7045197894158038,0.002181661564992912,-0.0009402813673297195,-0.001090830782496456
1589988632.5943408,-0.11979511185340265,-4.5,8.698975559267012,0.43,0.4844444444444445,-0.7066666666666667,-0.001157880271679567,0.0010684809527687523,-6.704948918311119e-05
1589988632.6043408,-0.11009660449545672,-4.4999033955045435,8.650193208990913,0.43,0.4844444444444445,-0.7066666666666667,-0.004342247298511478,-1.053791573717284e-05,-0.003219802768803504
1589988632.6143408,-0.11797592916403139,-4.485951858328063,8.68416849585178,0.43,0.4844444444444445,-0.7066666666666667,-0.0019608696876101234,-0.00042845515034809086,0.0017400778102273351
1589988632.6243408,-0.11017374158264817,-4.4703474831652965,8.738783808921463,0.43,0.4844444444444445,-0.7066666666666667,-0.001109783049151683,0.002124804765027231,3.790453331045402e-05
1589988632.6343408,-0.1320647585368549,-4.482064758536855,8.75587048292629,0.44222222222222224,0.4777777777777778,-0.7,0.001505970913865811,0.001731201130908178,0.0
1589988632.6443408,-0.1367881736725958,-4.49,8.725546781526681,0.44222222222222224,0.4777777777777778,-0.7,-0.00074047487989995,0.000175177951298253,-0.000175177951298253
1589988632.6543407,-0.12,-4.485240891988621,8.666656878039827,0.44222222222222224,0.4777777777777778,-0.7,0.001090830782496456,0.001090830782496456,-0.0008312617066945554
1589988632.6643407,-0.11854221999498872,-4.47,8.72,0.44222222222222224,0.4777777777777778,-0.7,0.001090830782496456,0.001090830782496456,0.0001590191303574137
1589988632.6743407,-0.11153595590077675,-4.47,8.72,0.44222222222222224,0.4777777777777778,-0.7,0.001090830782496456,0.001090830782496456,0.0009232839847840212
1589988632.6843407,-0.12,-4.48189497344427,8.764315079667192,0.4222222222222222,0.4844444444444445,-0.7066666666666667,-0.00020670953650221962,-0.00010335476825110981,0.0016648877237373629
1589988632.6943407,-0.12,-4.497100803016296,8.718697590951113,0.4222222222222222,0.4844444444444445,-0.7066666666666667,-0.001865408233558389,-0.0009327041167791945,-0.0024818590189030613
1589988632.7043407,-0.1,-4.486597466439781,8.65510380034033,0.4222222222222222,0.4844444444444445,-0.7066666666666667,-0.003992164295389374,-0.0016475690343911303,-0.001996082147694687
1589988632.7143407,-0.1,-4.470737001323501,8.678894498014747,0.4222222222222222,0.4844444444444445,-0.7066666666666667,-0.00226205593803453,-0.0042427315704233965,-0.001131027969017265
1589988632.7243407,-0.11982600074358656,-4.49973900111538,8.719652001487173,0.4222222222222222,0.4844444444444445,-0.7066666666666667,0.0021437008159874587,-3.796074900545322e-05,-0.001090830782496456
1589988632.7343407,-0.1,-4.495393911617136,8.77232318602856,0.4488888888888889,0.49,-0.7,0.001593277081989167,-0.0007558665828346486,-0.0020141794651620084
1589988632.7443407,-0.10323872096046133,-4.468380639519769,8.717045116158156,0.4488888888888889,0.49,-0.7,0.003833388652047669,0.0009141859565170709,-0.0009141859565170709
1589988632.7543406,-0.12333281916808062,-4.464999228752121,8.653332819168082,0.4488888888888889,0.49,-0.7,0.0005454995213409702,0.0,0.0003635541741036571
1589988632.7643406,-0.13090153757998282,-4.49,8.679098462420017,0.4488888888888889,0.49,-0.7,-0.0017846662497472338,0.0,0.0013876709345015557
1589988632.7743406,-0.09084519148123388,-4.49,8.719154808518766,0.4488888888888889,0.49,-0.7,-3.687843539334785e-05,0.0,-0.0021079046942062162
1589988632.7843406,-0.11147155988044138,-4.485585320358676,8.775886239521766,0.4488888888888889,0.4844444444444445,-0.6766666666666666,0.00048156684476167793,0.001090830782496456,0.0007697862193220041
1589988632.7943406,-0.12,-4.461818430158441,8.796361773811693,0.4488888888888889,0.4844444444444445,-0.6766666666666666,0.0029749524085922515,0.0008924708232317116,-0.001090830782496456
1589988632.8043406,-0.11895203567982056,-4.4810479643201795,8.662095928640358,0.4488888888888889,0.4844444444444445,-0.6766666666666666,-0.00022863034788194153,-0.0009193580215849997,-0.0010336731955259706
1589988632.8143406,-0.1,-4.498906344410877,8.702187311178248,0.4488888888888889,0.4844444444444445,-0.6766666666666666,-0.0037668265389530185,0.0014658656557535454,-0.00011929931820656103
1589988632.8243406,-0.1,-4.490731117824773,8.718537764350454,0.4488888888888889,0.4844444444444445,-0.6766666666666666,0.0006920678680491111,-0.0038848076326490105,-0.0010110781996069869
1589988632.8343406,-0.11903692228246837,-4.48,8.75759230570617,0.44222222222222224,0.4777777777777778,-0.6788888888888889,-5.25277410109964e-05,-0.0030623813834453825,-0.002076606082970919
1589988632.8443406,-0.10356608018885324,-4.48,8.718915200472134,0.44222222222222224,0.4777777777777778,-0.6788888888888889,-0.000896331280353862,0.0003128327739260798,-0.000388999004285188
1589988632.8543406,-0.10175228745711018,-4.465256862371331,8.67350457491422,0.44222222222222224,0.4777777777777778,-0.6788888888888889,0.0005734347293994666,-0.0007085409628968117,-0.003081347437689546
1589988632.8643405,-0.111348233995585,-4.491348233995585,8.695392935982339,0.44222222222222224,0.4777777777777778,-0.6788888888888889,0.003272492347489368,0.0013849698113749154,-0.0018875225361144525
1589988632.8743405,-0.11906401766004415,-4.499064017660044,8.726256070640177,0.44222222222222224,0.4777777777777778,-0.6788888888888889,0.003272492347489368,0.0030682926778299877,-0.00020419966965938086
1589988632.8843405,-0.09514052522708877,-4.5,8.763145966363881,0.4376186157827942,0.48330210550509145,-0.6963825933587153,0.004176408358122223,0.0005607443155908011,-0.0009039160106328555
1589988632.8943405,-0.10108985482710459,-4.478910145172896,8.759101451728954,0.43666666666666665,0.4844444444444445,-0.7,0.00023776943877160657,0.0008530613437248494,-0.0019438921262213053
1589988632.9043405,-0.10996592881025945,-4.47003407118974,8.670340711897406,0.43666666666666665,0.4844444444444445,-0.7,0.002174228384479858,-0.001083397601983402,-7.433180513053989e-06
1589988632.9143405,-0.11,-4.48,8.720838255296156,0.43666666666666665,0.4844444444444445,-0.7,-0.0009993913144326681,0.0022731010330566998,0.0009993913144326681
1589988632.9243405,-0.11,-4.48,8.728653090123158,0.43666666666666665,0.4844444444444445,-0.7,-0.00014692507549080285,0.0031255672719985653,0.00014692507549080285
1589988632.9343405,-0.11,-4.48094073606901,8.747177791792973,0.4488888888888889,0.4977777777777778,-0.6911111111111111,-0.0009369032031544947,0.001039521589382469,5.130919311398706e-05
1589988632.9443405,-0.11,-4.498007039244807,8.695978882265578,0.4488888888888889,0.4977777777777778,-0.6911111111111111,0.0018555641239821309,0.00010869914700359384,0.0009821316354928621
1589988632.9543405,-0.1288079390295401,-4.47039735365682,8.6519867682841,0.4488888888888889,0.4977777777777778,-0.6911111111111111,0.002094972444913562,4.334456003967498e-05,-0.001134175342536131
1589988632.9643404,-0.10350499708419636,-4.478831667638602,8.694158338193006,0.4488888888888889,0.4977777777777778,-0.6911111111111111,0.0002548905808001129,0.0009633854920963995,-0.0020542162745928556
1589988632.9743404,-0.10755477962699674,-4.472445220373003,8.715109559253994,0.4488888888888889,0.4977777777777778,-0.6911111111111111,-0.003296394468842054,0.0002667321652859425,-0.002181661564992912
1589988632.9843404,-0.11974937984801354,-4.479749379848014,8.749749379848014,0.4566666666666666,0.49,-0.6844444444444444,-0.001090830782496456,-0.0010088155295462262,0.001145507617796609
1589988632.9943404,-0.11149190849312911,-4.471491908493129,8.74149190849313,0.4566666666666666,0.49,-0.6844444444444444,-0.001090830782496456,0.0016934356523009713,0.0029470084056947413
1589988633.0043404,-0.11870507446713635,-4.478705074467137,8.680647462766432,0.4566666666666666,0.49,-0.6844444444444444,-0.002111034333378498,-0.0010202035508820417,0.0022522887966073264
1589988633.0143404,-0.10374279853741195,-4.463742798537412,8.688128600731293,0.4566666666666666,0.49,-0.6844444444444444,-0.0012949687753610385,-0.0002041379928645824,0.003068354354624786
1589988633.0243404,-0.11489827337107127,-4.467449136685535,8.712347410056607,0.4566666666666666,0.49,-0.6844444444444444,-0.001090830782496456,0.004062873799802946,0.0008347680676076006
1589988633.0343404,-0.11300520576224027,-4.47699479423776,8.74797917695104,0.44267707819114716,0.49,-0.6953252354809595,-0.004905899218385028,0.0024020991637714218,-0.0007630136871777145
1589988633.0443404,-0.11,-4.497923347938028,8.762385609106103,0.43666666666666665,0.49,-0.7,-0.0008643031831230671,-0.0009398123829141967,0.00030203679916451846
1589988633.0543404,-0.10981670725889472,-4.4703665854822106,8.660549878223316,0.43666666666666665,0.49,-0.7,0.0022016557014134914,0.0010708366460758767,0.004343328993565244
1589988633.0643404,-0.10102420152946469,-4.489487899235268,8.692048403058928,0.43666666666666665,0.49,-0.7,0.0030490462363253618,0.0,0.0030490462363253618
1589988633.0743403,-0.11611839856050382,-4.481940800719748,8.722236797121008,0.43666666666666665,0.49,-0.7,-0.00024399671537945903,0.0,-0.00024399671537945903
1589988633.0843403,-0.10164335331620517,-4.480821676658103,8.74671329336759,0.4566666666666666,0.4777777777777778,-0.7,-0.0029139682707225245,0.0008219377249213233,0.00017926203838342176
1589988633.0943403,-0.11843718032177067,-4.49,8.706092950804427,0.4566666666666666,0.4777777777777778,-0.7,0.001090830782496456,-0.002096422974367724,0.0019259457931173477
1589988633.1043403,-0.1016514951363036,-4.488348504863697,8.66220199351507,0.4566666666666666,0.4777777777777778,-0.7,0.001030780724769018,-0.0009707306670415801,-0.0009707306670415801
1589988633.1143403,-0.12910731146246418,-4.460892688537536,8.70178537707507,0.4566666666666666,0.4777777777777778,-0.7,4.8688606796291665e-05,0.001090830782496456,0.0010421421757001643
1589988633.1243403,-0.1147065286432851,-4.475293471356715,8.73058694271343,0.4566666666666666,0.4777777777777778,-0.7,0.0008341294663566229,0.001090830782496456,0.0002567013161398331
1589988633.1343403,-0.11849019725763771,-4.4715098027423625,8.77396078903055,0.4217625223852672,0.48343790928286967,-0.7047167762542432,-0.0016875797729330097,0.00016469393068663414,-0.0018522737036196437
1589988633.1443403,-0.09963298703686678,-4.463210995678955,8.773210995678955,0.4155555555555556,0.4844444444444445,-0.7055555555555556,-0.002181661564992912,0.0014811309791793379,-0.0007005305858135741
1589988633.1543403,-0.11991567884638885,-4.489915678846389,8.66030917756324,0.4155555555555556,0.4844444444444445,-0.7055555555555556,0.0010816327714989913,-0.0010816327714989913,0.0021755295576612686
1589988633.1643403,-0.11297192057870797,-4.49,8.69514039710646,0.4155555555555556,0.4844444444444445,-0.7055555555555556,0.001090830782496456,-0.0018574753199539777,0.0006483724900778686
1589988633.1743402,-0.1033970848658221,-4.4966029151341775,8.729808745402535,0.4155555555555556,0.4844444444444445,-0.7055555555555556,0.0032516297072683487,-0.0007411289484783167,0.002160798924771893
1589988633.1843402,-0.11325061253849439,-4.480124081192258,8.74,0.4295423132350774,0.4844444444444445,-0.7062917006965831,0.002917905525593505,0.0021681264065884784,0.0018270747430970489
1589988633.1943402,-0.12933028444721617,-4.47,8.684018293316702,0.43666666666666665,0.4844444444444445,-0.7066666666666667,0.0011638854165457804,0.00021916390214797316,0.001090830782496456
1589988633.2043402,-0.10937983164404742,-4.476873389451985,8.666253221096031,0.43666666666666665,0.4844444444444445,-0.7066666666666667,0.00034106030306537533,-0.0007497704794310806,-0.0004087101763657053
1589988633.2143402,-0.10981399578390444,-4.48,8.67962799156781,0.43666666666666665,0.4844444444444445,-0.7066666666666667,-0.002141081740074679,-2.028991245911645e-05,-2.028991245911645e-05
1589988633.2243402,-0.11,-4.487886753720705,8.727320522324229,0.43666666666666665,0.4844444444444445,-0.7066666666666667,-0.0004610388184902623,-0.0008603113732513248,0.0
1589988633.2343402,-0.11,-4.49,8.769358074859518,0.4421033471962073,0.4844444444444445,-0.6849199445485041,-0.0032024691771599025,-0.004293299959656358,0.0010674897257199674
1589988633.2443402,-0.11,-4.509422533885542,8.77,0.44222222222222224,0.4844444444444445,-0.6844444444444444,-0.001153822563846378,-0.0011853184545213397,0.001090830782496456
1589988633.2543402,-0.1005351248314659,-4.491070249662932,8.656421497977592,0.44222222222222224,0.4844444444444445,-0.6844444444444444,-0.0021232885011287887,-5.837306386412299e-05,5.837306386412299e-05
1589988633.2643402,-0.1,-4.498302127837815,8.66660425567563,0.44222222222222224,0.4844444444444445,-0.6844444444444444,-0.002181661564992912,0.0027168649817128684,-0.0018112433211419122
1589988633.2743402,-0.10631645758661888,-4.487367084826762,8.72684811827957,0.44222222222222224,0.4844444444444445,-0.6844444444444444,0.0005744129837339461,-0.0001726008384192049,-0.0008036242906294829
1589988633.2843401,-0.09928014672168729,-4.485359926639156,8.754640073360843,0.4392444852004687,0.487422181466198,-0.7040975087880177,0.0015969842680014599,-0.002181661564992912,0.0005846772969914521
1589988633.2943401,-0.11336693755786441,-4.49,8.765577958371908,0.43666666666666665,0.49,-0.7211111111111111,0.001090830782496456,0.000367275913086195,0.001090830782496456
1589988633.3043401,-0.10489767263753563,-4.474897672637535,8.686937199506445,0.43666666666666665,0.49,-0.7211111111111111,0.0002671266037807238,-0.0005565775749350084,0.0002671266037807238
1589988633.31434,-0.10908553515450067,-4.488171070309002,8.696342140618002,0.43666666666666665,0.49,-0.7211111111111111,0.0,-0.001090830782496456,0.0
