time,acc_x,acc_y,acc_z,mag_x,mag_y,mag_z,gyr_x,gyr_y,gyr_z
1589988712.4311738,-3.86,-0.67,8.91,0.3088888888888889,-0.37333333333333335,-0.6166666666666667,-0.001090830782496456,0.0,-0.002181661564992912
1589988712.4411738,-3.850628937843514,-0.6606289378435141,8.900628937843514,0.30264151411789825,-0.360838583791352,-0.6302026453371464,-0.0041575037019912185,-0.001022224306498254,-0.00013721295199640385
1589988712.4511738,-3.847121972594009,-0.67,8.8483416985341,0.3022222222222222,-0.36,-0.6311111111111111,-0.006380039122545795,-0.0023306600812923206,0.001090830782496456
1589988712.4611738,-3.84,-0.67,8.78778036860766,0.3022222222222222,-0.36,-0.6311111111111111,-0.0030569881985852707,-0.0002155041489040975,0.001090830782496456
1589988712.4711738,-3.8368817084700515,-0.67,8.87559145764974,0.3022222222222222,-0.36,-0.6311111111111111,-0.0015013558870598017,-0.0021112892993961217,0.0017711364604295664
1589988712.4811738,-3.833147277712495,-0.67,8.919441833137485,0.30099828088958525,-0.36,-0.629887169778474,0.000686629481970938,-0.004020008389000355,0.0027575202360111645
1589988712.4911737,-3.8538180010416174,-0.67,8.958545996875149,0.29444444444444445,-0.36,-0.6233333333333333,0.004779802436365797,-0.001348702952232965,-0.000832958612759947
1589988712.5011737,-3.86,-0.6747661919243624,8.918552136340368,0.29444444444444445,-0.36,-0.6233333333333333,0.0059740647991203336,0.0005199108866380537,-0.002181661564992912
1589988712.5111737,-3.86,-0.6873954412694588,8.861720514287434,0.29444444444444445,-0.36,-0.6233333333333333,0.007351702193665781,0.0018975482811835012,-0.002181661564992912
1589988712.5211737,-3.86,-0.67,8.88,0.29444444444444445,-0.36,-0.6233333333333333,0.008460084651514878,0.003361346216974958,0.0010019769130108663
1589988712.5311737,-3.86,-0.67,8.88,0.29444444444444445,-0.36,-0.6233333333333333,0.006278544447904679,0.004088526284845025,0.0002747968451407996
1589988712.5411737,-3.86,-0.659698438341411,8.88,0.3022222222222222,-0.3533333333333333,-0.6022222222222222,0.005404811001480825,0.002148766290991942,-0.003206701799487428
1589988712.5511737,-3.86,-0.6423242616295928,8.88,0.3022222222222222,-0.3533333333333333,-0.6022222222222222,0.0025619679848131937,0.00025353761321352127,0.0005837555560694132
1589988712.5611737,-3.848285117382529,-0.6617148826174711,8.805144647852414,0.3022222222222222,-0.3533333333333333,-0.6022222222222222,0.0009037661077459041,0.0,0.0
1589988712.5711737,-3.8408592117842852,-0.6691407882157148,8.827422364647145,0.3022222222222222,-0.3533333333333333,-0.6022222222222222,9.372546629820666e-05,0.0,0.0
1589988712.5811737,-3.86,-0.67,8.910692623548783,0.30353051114770274,-0.35294854247289786,-0.6017604731896997,0.001090830782496456,-0.0011663842912659856,-0.001955001038684323
1589988712.5911736,-3.86,-0.67,8.919434937574254,0.32004377097359155,-0.3480917013476365,-0.5959322638393859,0.001090830782496456,-0.0021200228161893627,0.0009059145360858075
1589988712.6011736,-3.8527483261574647,-0.655496652314929,8.889768412267891,0.3211111111111111,-0.3477777777777778,-0.5955555555555555,0.0007910349052062098,-0.0018818656877026658,0.0007910349052062098
1589988712.6111736,-3.857684795157415,-0.6711576024212924,8.815788012106463,0.3211111111111111,-0.3477777777777778,-0.5955555555555555,0.0,-0.001090830782496456,0.0
1589988712.6211736,-3.84,-0.6775359982612161,8.869856006955136,0.3211111111111111,-0.3477777777777778,-0.5955555555555555,-0.00026878089447903114,-0.001359611676975487,-0.0008063426834370934
1589988712.6311736,-3.840105213715359,-0.6701052137153594,8.900315641146078,0.32091237409321016,-0.3478362298418663,-0.5956256980324617,-0.001102307818441933,-0.002158707493101958,-0.003272492347489368
1589988712.6411736,-3.8523905708342965,-0.6776094291657038,8.922828287497111,0.3022222222222222,-0.3533333333333333,-0.6022222222222222,-0.0019208907396140503,0.00026077082537886157,-0.002750950696731645
1589988712.6511736,-3.8620942007106858,-0.67,8.879057992893141,0.3022222222222222,-0.3533333333333333,-0.6022222222222222,-0.001090830782496456,0.00017706334251963048,-0.001090830782496456
1589988712.6611736,-3.866786941231476,-0.671606529384262,8.812852235074097,0.3022222222222222,-0.3533333333333333,-0.6022222222222222,-0.00021460492982742878,-0.0020457761537527298,-0.001441321123564067
1589988712.6711736,-3.85,-0.6795876093340492,8.880103097666488,0.3022222222222222,-0.3533333333333333,-0.6022222222222222,0.004307092075881638,0.004340830708344149,-0.0032387537150268568
1589988712.6811736,-3.85,-0.6530992453187661,8.88672518867031,0.3022222222222222,-0.3533333333333333,-0.6022222222222222,0.000695301720151361,0.0028961145660520386,-0.0010716795015886906
1589988712.6911736,-3.85,-0.6575410582054358,8.925082116410872,0.2905281834185984,-0.34846081716515676,-0.6148907642594814,-0.001090830782496456,0.004095094189798055,0.0
1589988712.7011735,-3.847560758243611,-0.672439241756389,8.893411373654166,0.2888888888888889,-0.3477777777777778,-0.6166666666666667,0.0013834215668469757,0.004655913914336344,0.0002660799993819787
1589988712.7111735,-3.8434482420598615,-0.6817241210299307,8.790344726179583,0.2888888888888889,-0.3477777777777778,-0.6166666666666667,-0.0014669756409360424,0.001993589135773119,0.001090830782496456
1589988712.7211735,-3.85715331329238,-0.68857665664619,8.83145993987714,0.2888888888888889,-0.3477777777777778,-0.6166666666666667,-0.002961966998609839,0.0012460934569362208,0.001090830782496456
1589988712.7311735,-3.850473036896878,-0.6614191106906339,8.859053926206244,0.2888888888888889,-0.3477777777777778,-0.6166666666666667,-0.003272492347489368,0.002130061244155804,0.001090830782496456
1589988712.7411735,-3.842081089579812,-0.66,8.923351283361503,0.30472670972926463,-0.3574564460691185,-0.605228240504173,-0.004136311472506657,0.0013178424399756228,-0.0006368074675381222
1589988712.7511735,-3.8585888165512983,-0.6514111834487019,8.907299348961685,0.3088888888888889,-0.36,-0.6022222222222222,-0.005146281443363597,-0.001719852861314888,-0.00015393623455934135
1589988712.7611735,-3.852103944589085,-0.6684157783563394,8.83,0.3088888888888889,-0.36,-0.6022222222222222,-0.00235447333851313,0.0020088497914726943,-0.0008613260302523964
1589988712.7711735,-3.858118083307716,-0.6943542499231479,8.839409583461421,0.3088888888888889,-0.36,-0.6022222222222222,0.0008855455166927212,0.0048382981150710755,-0.00020528526580373475
1589988712.7811735,-3.8500595604057795,-0.6701786812173379,8.879702197971104,0.3088888888888889,-0.36,-0.6022222222222222,6.497032404201991e-06,0.002201152662205518,-0.001084333750092254
1589988712.7911735,-3.861479341088143,-0.6655619767355709,8.924082635647428,0.3088888888888889,-0.36,-0.6166666666666667,0.0031111212678135445,0.0023430326446687356,0.0012522018621722794
1589988712.8011734,-3.8661326196539,-0.6419336901730499,8.870663098269501,0.3088888888888889,-0.36,-0.6166666666666667,0.0015488629356207799,0.003272492347489368,0.0026035273179076668
1589988712.8111734,-3.852499197431782,-0.65,8.809993579454252,0.3088888888888889,-0.36,-0.6166666666666667,-0.00027297033545938606,0.0024546319004522983,0.005181183577022894
1589988712.8211734,-3.86,-0.6517638854391563,8.873527770878312,0.3088888888888889,-0.36,-0.6166666666666667,0.0012196112980784426,-0.0003848201067657877,0.008982685851155449
1589988712.8311734,-3.86,-0.6597776036989625,8.889555207397926,0.3088888888888889,-0.36,-0.6166666666666667,-0.0031511939819468594,-0.002133142218775908,0.015101813243190872
1589988712.8411734,-3.8341222633527234,-0.66,8.941755473294553,0.30313828074504967,-0.36479217345319936,-0.6166666666666667,-0.00044966917587077604,-0.0050044847366115044,0.021858218355393765
1589988712.8511734,-3.79,-0.6434079229656239,8.870771092151875,0.3022222222222222,-0.3655555555555556,-0.6166666666666667,-0.002181661564992912,-0.00028763362198741554,0.031406162775863014
1589988712.8611734,-3.79,-0.5986130153613112,8.815547938554756,0.3022222222222222,-0.3655555555555556,-0.6166666666666667,-0.002181661564992912,-0.00203036501111977,0.03981158457459605
1589988712.8711734,-3.79,-0.59046763637776,8.848129454488959,0.3022222222222222,-0.3655555555555556,-0.6166666666666667,-0.002181661564992912,-0.00114184199808404,0.055804998809239184
1589988712.8811734,-3.7709134139570812,-0.5327402418712435,8.878629879064379,0.3022222222222222,-0.3655555555555556,-0.6166666666666667,-0.002181661564992912,-0.004213866120753925,0.07754343627819883
1589988712.8911734,-3.7622766453902075,-0.4450430992922845,8.926340127658754,0.32281783451500173,-0.3578322009457633,-0.6106596130812727,-0.002181661564992912,-0.00941824690148424,0.11729423192123267
1589988712.9011734,-3.6337427654239987,-0.43750333903507743,8.914993321929845,0.3288888888888889,-0.3555555555555556,-0.6088888888888889,-0.005044910252933793,-0.022498688415843262,0.19185028880915958
1589988712.9111733,-3.502988660014394,-0.48462799789928224,8.813581334733811,0.3288888888888889,-0.3555555555555556,-0.6088888888888889,-0.0017909985479863423,-0.026391777774146617,0.19208526263374656
1589988712.9211733,-3.3479796152574353,-0.43567777323919005,8.84621481784054,0.3288888888888889,-0.3555555555555556,-0.6088888888888889,0.0017687622433033702,-0.018382315993744763,0.13334920957746632
1589988712.9311733,-3.207711081794195,-0.44746984545797214,8.902409536373916,0.3288888888888889,-0.3555555555555556,-0.6088888888888889,0.004087326084094099,-0.0041136408862349864,0.06364944163924971
1589988712.9411733,-3.131993675333802,-0.4740189739985945,9.0,0.2888888888888889,-0.3477777777777778,-0.6311111111111111,0.011451998431068292,0.0016345213886001884,-0.026267979479401748
1589988712.9511733,-3.1467312016865776,-0.429806394940267,9.0,0.2888888888888889,-0.3477777777777778,-0.6311111111111111,0.01547103528193344,0.005653558239465337,-0.07530022905995656
1589988712.9611733,-3.0718019309643934,-0.2330151355667671,8.90029436318101,0.2888888888888889,-0.3477777777777778,-0.6311111111111111,0.01596544145972613,0.010082157227615244,-0.13546347713089188
1589988712.9711733,-2.957623679721244,-0.12644876773982794,8.839399295851331,0.2888888888888889,-0.3477777777777778,-0.6311111111111111,0.013474458436773307,0.011742812576250459,-0.15040937526860884
1589988712.9811733,-2.6453828515273115,-0.3340750143313406,8.821700925395136,0.29119418739024017,-0.35100519567966953,-0.6163572007024631,0.01625847950578474,0.021052024652681786,-0.20793891442535056
1589988712.9911733,-2.2969905354656808,-0.5990494518993414,8.811887057337062,0.29392026185081627,-0.35482169992447615,-0.5989103241547759,0.02000532378637182,0.03175729402578774,-0.2732410576012968
1589988713.0011733,-1.7747191841840892,-1.2528415186610309,9.103981462175636,0.29444444444444445,-0.3555555555555556,-0.5955555555555555,0.017369180466126823,0.04902430117197817,-0.3931910172897766
1589988713.0111732,-1.7190676118808879,-0.9666334325302803,8.619017760676307,0.29444444444444445,-0.3555555555555556,-0.5955555555555555,0.062465399101245205,0.08284646514831695,-0.4443578807411609
1589988713.0211732,-1.7260393371410183,-0.7052491754484757,8.510140978199663,0.29444444444444445,-0.3555555555555556,-0.5955555555555555,0.028722826707722325,0.05987051645366488,-0.5428642766784884
1589988713.0311732,-2.1815380902582255,-1.01735017295471,8.855982624084948,0.29444444444444445,-0.3555555555555556,-0.5955555555555555,0.0011188233027777175,0.013863844112090545,-0.6155548189781758
1589988713.0411732,-2.288710141288717,-0.9903229782474721,9.014194608659926,0.3088888888888889,-0.36,-0.6166666666666667,0.022414654146306338,0.04831318940875364,-0.6760684649177091
1589988713.0511732,-2.2375195293663808,-0.9425065097887935,8.882506509788794,0.3088888888888889,-0.36,-0.6166666666666667,0.04076518479510275,0.05549566100560702,-0.7209194809156536
1589988713.0611732,-2.301409869083585,-0.962281973816717,8.90798690835851,0.3088888888888889,-0.36,-0.6166666666666667,0.02836160034490785,0.05503938858164797,-0.7714884780660015
1589988713.0711732,-2.3858872104733133,-0.9791774420946626,8.96712104733132,0.3088888888888889,-0.36,-0.6166666666666667,0.02836160034490785,0.05872540795810307,-0.8138777008952353
1589988713.0811732,-2.357909763551552,-0.98,8.892983432523724,0.3088888888888889,-0.36,-0.6166666666666667,0.03396240318259691,0.06520576544720881,-0.8425452387863721
1589988713.0911732,-2.3886598788078652,-0.9881099798013109,8.809450100993446,0.3142955420897628,-0.35008780246506455,-0.6166666666666667,0.036203585043610056,0.0704916624198156,-0.8936641190542614
1589988713.1011732,-2.434873604421045,-0.9969747208842089,8.779075837347373,0.31555555555555553,-0.3477777777777778,-0.6166666666666667,0.03067164765451182,0.06633905671838002,-0.9355933141797597
1589988713.1111732,-2.490175890466669,-1.01,8.760263835700004,0.31555555555555553,-0.3477777777777778,-0.6166666666666667,0.025079514660648977,0.06224450795968453,-0.9919201347497502
1589988713.1211731,-2.5043904836140576,-1.01,8.781585725421087,0.31555555555555553,-0.3477777777777778,-0.6166666666666667,0.024304228872357236,0.06767150847772672,-1.0206057089165446
1589988713.1311731,-2.517837454085255,-1.01,8.79,0.31555555555555553,-0.3477777777777778,-0.6166666666666667,0.029982812535741015,0.07408783816607246,-1.0609936632284824
1589988713.1411731,-2.568725279629578,-1.0489802237036625,8.87770550333324,0.32854896345677637,-0.3412810738271674,-0.596093770823067,0.03269711339051105,0.07526732399225547,-1.1051568705823969
1589988713.151173,-2.6003078507416904,-1.1009235522250707,8.937537194066477,0.3288888888888889,-0.3411111111111111,-0.5955555555555555,0.038246240000465975,0.0776504733965184,-1.1385760388074289
1589988713.161173,-2.609498017046824,-1.128494051140472,8.864015863625408,0.3288888888888889,-0.3411111111111111,-0.5955555555555555,0.0402512232608463,0.08366542317765938,-1.1636383295621828
1589988713.171173,-2.6003316102604117,-1.2170155076562956,8.898673558958354,0.3288888888888889,-0.3411111111111111,-0.5955555555555555,0.04247005438139206,0.08715794339576188,-1.190319060854493
1589988713.181173,-2.6295283310595727,-1.2273820827648931,8.87785375170532,0.3288888888888889,-0.3411111111111111,-0.5955555555555555,0.04254240051736178,0.08887698322349287,-1.2089029413476702
1589988713.191173,-2.6596253160950245,-1.2398126580475122,8.820936709762439,0.3812230651422873,-0.3214857950160867,-0.6162711669891925,0.04040161062609421,0.08944812416470939,-1.2365933906137276
1589988713.201173,-2.6269246126816803,-1.24,8.79519345951126,0.38222222222222224,-0.3211111111111111,-0.6166666666666667,0.034948791357896455,0.08854613289896399,-1.2532379501343982
1589988713.211173,-2.6472208132209767,-1.2853680220349615,8.735558373558046,0.38222222222222224,-0.3211111111111111,-0.6166666666666667,0.03084642415878733,0.08439818658407586,-1.2764325954266025
1589988713.221173,-2.6578014126980913,-1.3212056507923657,8.792411301584732,0.38222222222222224,-0.3211111111111111,-0.6166666666666667,0.031394264021704456,0.08654697658763817,-1.2929207129865088
1589988713.231173,-2.6175834773905926,-1.3441388408698027,8.817069420434901,0.38222222222222224,-0.3211111111111111,-0.6166666666666667,0.03703217168975709,0.08880877088467644,-1.305480495955566
1589988713.241173,-2.7297900776472206,-1.4099031127602555,8.849951556380127,0.40108060957267305,-0.30668999137253106,-0.6377436878230529,0.04035897749264313,0.09380440145579226,-1.3187985629006838
1589988713.251173,-2.715843793820006,-1.4524686185399807,8.835843793820006,0.4011111111111111,-0.30666666666666664,-0.6377777777777778,0.045765447864945116,0.09381144729469522,-1.3280796313169176
1589988713.261173,-2.739173834135564,-1.4991738341355638,8.791101554485914,0.4011111111111111,-0.30666666666666664,-0.6377777777777778,0.04375339225404155,0.09381144729469522,-1.3552417773950867
1589988713.271173,-2.753791777432245,-1.5206876661483675,8.838271221012857,0.4011111111111111,-0.30666666666666664,-0.6377777777777778,0.044385456068279865,0.09305922252627358,-1.3626726855588895
1589988713.281173,-2.7333397958601813,-1.5566602041398188,8.86,0.4011111111111111,-0.30666666666666664,-0.6377777777777778,0.046905194933106215,0.09417470507936644,-1.3744446710885692
1589988713.291173,-2.7014731554929408,-1.6163171112676489,8.84147315549294,0.43713553098594904,-0.2901983604381694,-0.6243972789671236,0.04294414135713759,0.09793372592081555,-1.3939673482936399
1589988713.301173,-2.729913749621709,-1.6299712498739027,8.820057500252194,0.44,-0.2888888888888889,-0.6233333333333333,0.038191621996394885,0.10035015968516448,-1.4071372117456258
1589988713.311173,-2.7225620143322016,-1.667189928338994,8.730744171986414,0.44,-0.2888888888888889,-0.6233333333333333,0.03655636064213548,0.097110998499193,-1.4128512180287698
1589988713.321173,-2.7567598958680994,-1.7259498698351246,8.75513984380215,0.44,-0.2888888888888889,-0.6233333333333333,0.036999886471740226,0.09298569691161658,-1.4198198781446894
1589988713.331173,-2.767813810013446,-1.73,8.814696670094124,0.44,-0.2888888888888889,-0.6233333333333333,0.041350018850502566,0.09613003430869721,-1.4236710966068842
1589988713.341173,-2.760592409844054,-1.795853131091618,8.81118481968811,0.4724039216482565,-0.25753025503573745,-0.6452843770305392,0.04356860941048337,0.09811014853530617,-1.42359879304725
1589988713.351173,-2.744223252144759,-1.8473302435657233,8.754781382506657,0.4744444444444445,-0.25555555555555554,-0.6466666666666666,0.04621469563108553,0.09989574664549922,-1.4261156354891025
1589988713.361173,-2.7844021151987266,-1.8688804230397453,8.74,0.4744444444444445,-0.25555555555555554,-0.6466666666666666,0.047874427528682095,0.09938772810833944,-1.4268066635053644
1589988713.371173,-2.771994978207315,-1.915012554481713,8.785012554481712,0.4744444444444445,-0.25555555555555554,-0.6466666666666666,0.048978576030393094,0.10319368760937361,-1.4238605987037174
1589988713.381173,-2.755117049600631,-1.9348829503993688,8.842090326397791,0.4744444444444445,-0.25555555555555554,-0.6466666666666666,0.05071086325534047,0.09957022922966344,-1.4210989540933752
1589988713.391173,-2.702294106749552,-1.9877058932504477,8.842110290031082,0.4744444444444445,-0.23634068188523633,-0.6453415029652654,0.04671562930172658,0.09687379400307908,-1.4183102141779829
1589988713.4011729,-2.6786420804148445,-2.007036879377733,8.817036879377733,0.4744444444444445,-0.22333333333333333,-0.6444444444444445,0.041276469464527676,0.09693581359382035,-1.415103776994632
1589988713.4111729,-2.685038219070134,-2.009847123719464,8.75038219070134,0.4744444444444445,-0.22333333333333333,-0.6444444444444445,0.03817907738737596,0.09871601676211121,-1.408295892633469
1589988713.4211729,-2.690916374936818,-2.035458187468409,8.727290937342044,0.4744444444444445,-0.22333333333333333,-0.6444444444444445,0.03758368149665827,0.09807480942574211,-1.399731445837915
1589988713.4311728,-2.666064677094329,-2.096558871509452,8.744344112849054,0.4744444444444445,-0.22333333333333333,-0.6444444444444445,0.038939131346852666,0.09338217015823824,-1.393178593692175
1589988713.4411728,-2.666138285371979,-2.1269308573140107,8.772672856714973,0.5042130472291982,-0.20155142885668426,-0.6444444444444445,0.041073550109504656,0.0926773884186132,-1.3843939472687592
1589988713.4511728,-2.68,-2.1913155278679834,8.825657763933991,0.52,-0.19,-0.6444444444444445,0.044368813724929575,0.09770110594811421,-1.3771021119870945
1589988713.4611728,-2.64137612998818,-2.2193119350059103,8.733440324970449,0.52,-0.19,-0.6444444444444445,0.04472406208235469,0.09957917396961553,-1.3710108333307893
1589988713.4711728,-2.62,-2.2654079768347755,8.736652762935641,0.52,-0.19,-0.6444444444444445,0.045496544303900585,0.09726650310349039,-1.3655843545859179
1589988713.4811728,-2.606350681915479,-2.3072986361690413,8.78047397712678,0.52,-0.19,-0.6444444444444445,0.044325983232183064,0.09673756367602217,-1.3661182185357343
1589988713.4911728,-2.5914448410123296,-2.354220635950681,8.798555158987671,0.5314068786502271,-0.15768051049102316,-0.6824673732785349,0.04363323129985824,0.09801716271947478,-1.3677441935453492
1589988713.5011728,-2.572919495193403,-2.4368622716296873,8.765838990386806,0.5333333333333333,-0.15222222222222226,-0.6888888888888889,0.04177003725749676,0.09910636744586176,-1.3688333982717364
1589988713.5111728,-2.54596550557998,-2.42596550557998,8.703919513019953,0.5333333333333333,-0.15222222222222226,-0.6888888888888889,0.03795589422085233,0.09664384457166775,-1.3689926320330523
1589988713.5211728,-2.499374233429819,-2.4606257665701814,8.698125153314036,0.5333333333333333,-0.15222222222222226,-0.6888888888888889,0.0370882466048795,0.09510679212494275,-1.3743105324415243
1589988713.5311728,-2.4556498487792178,-2.497480120976626,8.734350151220783,0.5333333333333333,-0.15222222222222226,-0.6888888888888889,0.03858705469828101,0.09789989426399466,-1.378535232914834
1589988713.5411727,-2.4294727578206254,-2.4994727578206257,8.755263621089687,0.5403514947862496,-0.12122534247184222,-0.69298281640309,0.04214076812588657,0.10156228917198881,-1.382771799814031
1589988713.5511727,-2.411192611882716,-2.516422164351852,8.768807388117283,0.5466666666666666,-0.09333333333333334,-0.6966666666666667,0.04568479908952738,0.10266818732999063,-1.3882373047920171
1589988713.5611727,-2.376603556798881,-2.55,8.728527824957538,0.5466666666666666,-0.09333333333333334,-0.6966666666666667,0.04588486122955918,0.10246812518995882,-1.3954730969277371
1589988713.5711727,-2.35,-2.561601933561913,8.689336555936523,0.5466666666666666,-0.09333333333333334,-0.6966666666666667,0.04472406208235469,0.10447264075488424,-1.4020670431961155
1589988713.5811727,-2.3337065732682376,-2.60606948277082,8.73303474138541,0.5466666666666666,-0.09333333333333334,-0.6966666666666667,0.04365765979647326,0.10581058590215622,-1.4085691506383216
1589988713.5911727,-2.2922652157750667,-2.6522652157750666,8.7832043526748,0.5466666666666666,-0.07442608300571871,-0.7078391327693481,0.04145156973486533,0.10834178812071378,-1.415404162261112
1589988713.6011727,-2.2822969310133776,-2.7039214829063565,8.728375448107021,0.5466666666666666,-0.06888888888888889,-0.7111111111111111,0.038930746303774896,0.10992335272667574,-1.41673863015743
1589988713.6111727,-2.2689736574415096,-2.7310263425584904,8.67692097232453,0.5466666666666666,-0.06888888888888889,-0.7111111111111111,0.036374896305203165,0.10957251533808444,-1.420597548627242
1589988713.6211727,-2.24814149028704,-2.7755755291388806,8.67371701942592,0.5466666666666666,-0.06888888888888889,-0.7111111111111111,0.03425980366841508,0.11167020373553165,-1.420947045671989
1589988713.6311727,-2.2527141378596562,-2.8190712067894848,8.702714137859656,0.5466666666666666,-0.06888888888888889,-0.7111111111111111,0.0331223056098793,0.1134464013796314,-1.4184773993803785
1589988713.6411726,-2.2009466630279877,-2.83,8.724763334243004,0.5466666666666666,-0.038542035167160246,-0.7471992614828965,0.03433535341934886,0.1134464013796314,-1.4132487274120271
1589988713.6511726,-2.157330315972163,-2.8413348420139184,8.73566742100696,0.5466666666666666,-0.027777777777777776,-0.76,0.036143024498238224,0.11591928029633469,-1.4072074944461834
1589988713.6611726,-2.14,-2.85,8.613347679065477,0.5466666666666666,-0.027777777777777776,-0.76,0.03846980910837947,0.12057284951661719,-1.395609842051939
1589988713.6711726,-2.13346820692714,-2.90878613765574,8.690231240675779,0.5466666666666666,-0.027777777777777776,-0.76,0.029294794841590543,0.11576047478570758,-1.3886717233983494
1589988713.6811726,-2.0836920917173605,-2.94578848853533,8.706326626111371,0.5466666666666666,-0.027777777777777776,-0.76,0.029049686397694577,0.1193012582234472,-1.3805910677091795
1589988713.6911726,-2.0559320648134385,-2.9559320648134384,8.707456518507508,0.5657810977321903,-0.04359661728028012,-0.7685685380638555,0.031430747694441145,0.12111926975346461,-1.3651842104844107
1589988713.7011726,-2.045204335980523,-3.004386992058431,8.732602167990262,0.5788888888888889,-0.054444444444444434,-0.7744444444444445,0.024087435605932406,0.11325170727614137,-1.347593606464139
1589988713.7111726,-1.9894069283051963,-3.027227581670686,8.628813856610392,0.5788888888888889,-0.054444444444444434,-0.7744444444444445,0.017086174508294083,0.11599518095627355,-1.32813538689685
1589988713.7211726,-1.947895531021301,-3.007895531021301,8.648945250609863,0.5788888888888889,-0.054444444444444434,-0.7744444444444445,0.01286040743568012,0.1210246892019776,-1.3060120849239027
1589988713.7311726,-1.9460645409883441,-3.0363872459300647,8.651806377034967,0.5788888888888889,-0.054444444444444434,-0.7744444444444445,0.011999138607461015,0.1195268924428842,-1.2877010555513606
1589988713.7411726,-1.9370883341334613,-3.0729116658665387,8.698102496399425,0.5953871286072439,-0.059465647836987254,-0.7687059262815384,0.006365361575249364,0.11428861386448497,-1.2633473989007344
1589988713.7511725,-1.9358538622940626,-3.1209770360584397,8.665607514765309,0.6044444444444445,-0.06222222222222223,-0.7655555555555555,0.0058267216222329735,0.10852422668501956,-1.24423848277195
1589988713.7611725,-1.9321855560612957,-3.153907221969352,8.623907221969352,0.6044444444444445,-0.06222222222222223,-0.7655555555555555,0.006357180078010468,0.10495816230251308,-1.22592060055562
1589988713.7711725,-1.9121053478086047,-3.1678946521913955,8.626052673904303,0.6044444444444445,-0.06222222222222223,-0.7655555555555555,0.006516255536855087,0.1001842324861725,-1.1991676044158486
1589988713.7811725,-1.8911152962944606,-3.2022117592638484,8.655538814822156,0.6044444444444445,-0.06222222222222223,-0.7655555555555555,0.012240404116308758,0.09247935100335102,-1.1744659360810206
1589988713.7911725,-1.8832970611596505,-3.2596735504368546,8.716485305798253,0.5861274380019416,-0.0754104668608243,-0.7802091607095578,0.014552323794006335,0.08764985626234927,-1.153103097427397
1589988713.8011725,-1.8943719039977673,-3.3156280960022326,8.736884288006697,0.5488888888888889,-0.10222222222222224,-0.81,0.016428274611176262,0.08113256577689672,-1.1217247229480471
1589988713.8111725,-1.8860631594108963,-3.31,8.681673688379965,0.5488888888888889,-0.10222222222222224,-0.81,0.019585579763032133,0.07668884882098136,-1.0936589059468085
1589988713.8211725,-1.849926076120475,-3.340221771638576,8.63014784775905,0.5488888888888889,-0.10222222222222224,-0.81,0.016354397893112077,0.07471787667883986,-1.0612815852370343
1589988713.8311725,-1.8354959464739207,-3.401528374682555,8.672520267630397,0.5488888888888889,-0.10222222222222224,-0.81,0.013306366862046776,0.0727025451400813,-1.0320749532126394
1589988713.8411725,-1.8360405271009448,-3.4641621084037792,8.669797364495276,0.5153304049947511,-0.0767177744626775,-0.7261037902646555,0.01749750072917923,0.06826832370058376,-0.9925233874440672
1589988713.8511724,-1.796112113014728,-3.4726853521691217,8.628056056507363,0.4933333333333334,-0.06,-0.6711111111111111,0.019422902744816103,0.06574277343057947,-0.9572247222340959
1589988713.8611724,-1.7687595629398953,-3.4924808741202096,8.603139344409842,0.4933333333333334,-0.06,-0.6711111111111111,0.02160947699090881,0.06361063473670592,-0.9294045171657147
1589988713.8711724,-1.754415625594521,-3.515584374405479,8.578831251189042,0.4933333333333334,-0.06,-0.6711111111111111,0.024607437965170224,0.06156819385204979,-0.8934047302235916
1589988713.8811724,-1.75,-3.52,8.642546758291006,0.4933333333333334,-0.06,-0.6711111111111111,0.023871627426431404,0.05986904324881446,-0.8569395197058638
1589988713.8911724,-1.75,-3.5893910461106144,8.744157938434027,0.504548047856261,-0.005328266700728057,-0.6353642085692794,0.022219320167633855,0.056152357195641746,-0.8190104928314325
1589988713.9011724,-1.7111969654397303,-3.5291121101432985,8.715675751615622,0.5111111111111111,0.02666666666666667,-0.6144444444444445,0.020123513867824478,0.05284843734271815,-0.7798808706422589
1589988713.9111724,-1.7109477923501877,-3.5206791633281322,8.839888457807954,0.5111111111111111,0.02666666666666667,-0.6144444444444445,0.020033027048135008,0.05182911360889815,-0.7685928463509686
1589988713.9211724,-1.7858321828501305,-3.66440635066728,9.83047706703482,0.5111111111111111,0.02666666666666667,-0.6144444444444445,0.02360136808528841,0.04973135856200114,-0.7409633329468691
1589988713.9311724,-1.3135310192558274,-3.051837809468655,7.649044447661793,0.5111111111111111,0.02666666666666667,-0.6144444444444445,0.13273252493165333,0.15482688233413316,-0.6626204959088601
1589988713.9411724,-1.1553451144385989,-2.9074872970906966,7.230206843832906,0.5136651827869958,0.035464024661380655,-0.6117484798976772,0.1866510599613225,0.01159805387755079,-0.6557544528162154
1589988713.9511724,-1.5162663570349073,-3.4399273839802427,10.274639315861256,0.5311111111111111,0.09555555555555556,-0.5933333333333334,-0.17002328140825415,-0.07837817603801475,-0.690457324860217
1589988713.9611723,-1.2956682476496995,-3.081658761751503,8.387147031422037,0.5311111111111111,0.09555555555555556,-0.5933333333333334,0.0069761155365574284,0.03757522628257398,-0.6241516716905372
1589988713.9711723,-1.2834196640475588,-3.156062351667089,8.360105532385539,0.5311111111111111,0.09555555555555556,-0.5933333333333334,0.043293683544362846,0.047091973471037066,-0.5773377564410158
1589988713.9811723,-1.4277319803765358,-3.435689966036312,9.216609920751393,0.5311111111111111,0.09555555555555556,-0.5933333333333334,-0.030766880162054953,-0.007066181255276737,-0.5759833065101253
1589988713.9911723,-1.5357638117161454,-3.6342361882838548,9.453954397523416,0.54240761320139,0.10920549558130918,-0.6083953361203719,0.006439824035719965,0.019014510524690272,-0.5477329520760505
1589988714.0011723,-1.4535417325324058,-3.4615973759089473,8.869458583623143,0.5577777777777778,0.12777777777777774,-0.6288888888888889,0.03861240931219632,0.03750036888912967,-0.516005379401964
1589988714.0111723,-1.430372917969416,-3.4411187539082486,8.701939817709814,0.5577777777777778,0.12777777777777774,-0.6288888888888889,0.006675227901931348,0.003883029342213902,-0.5053233447966013
1589988714.0211723,-1.4478883602730415,-3.5102488106143435,8.64074643184303,0.5577777777777778,0.12777777777777774,-0.6288888888888889,0.028137864153267304,0.01883535748936849,-0.47292612228267605
1589988714.0311723,-1.471697226302601,-3.5672935280394023,8.635825628618335,0.5577777777777778,0.12777777777777774,-0.6288888888888889,0.03208944597246638,0.021446338310781184,-0.44679028199069365
1589988714.0411723,-1.44693615498188,-3.548485078967384,8.560550310948056,0.5610250597785831,0.13968447844739734,-0.6115700515512605,0.024360651093497318,0.015690325298963494,-0.4182950738850831
1589988714.0511723,-1.37,-3.41,8.34,0.5644444444444444,0.15222222222222226,-0.5933333333333334,0.031634092692397225,0.02072578486743266,-0.3981532356112064
1589988714.0611722,-1.3514792598167251,-3.397652839877817,8.272090619327992,0.5644444444444444,0.15222222222222226,-0.5933333333333334,0.02557319464043658,0.017358619283010083,-0.3604409810656735
1589988714.0711722,-1.3637242308339947,-3.4611726925019846,8.37234538500397,0.5644444444444444,0.15222222222222226,-0.5933333333333334,0.018581725489332474,0.01203674079435374,-0.32089226098842166
1589988714.0811722,-1.4066557796080659,-3.581082078954842,8.572180488497587,0.5644444444444444,0.15222222222222226,-0.5933333333333334,0.01587784598864818,0.010786708540065424,-0.294772854016235
1589988714.0911722,-1.4325540852762024,-3.681168872085696,8.714891829447595,0.5652717683026441,0.15966813694601978,-0.606570515064529,0.014865519305722287,0.011186915309004822,-0.2658273967409009
1589988714.1011722,-1.4697280132541763,-3.7386773436421374,8.822880022090294,0.5666666666666667,0.17222222222222222,-0.6288888888888889,0.01598896175945551,0.009817477042468105,-0.23544956677118034
1589988714.1111722,-1.4317239403180582,-3.705537362614871,8.682798665547802,0.5666666666666667,0.17222222222222222,-0.6288888888888889,0.01644875210307751,0.008310666417169422,-0.2171770880677765
1589988714.1211722,-1.3575458418573225,-3.656318762785984,8.533577823239053,0.5666666666666667,0.17222222222222222,-0.6288888888888889,0.014952638548237347,0.007182969508404808,-0.20260681613598844
1589988714.1311722,-1.3930140279241305,-3.7060280558482614,8.740439278187566,0.5666666666666667,0.17222222222222222,-0.6288888888888889,0.013875979637013168,0.008269415456810512,-0.18749444323012385
1589988714.1411722,-1.339857655809182,-3.653807813969394,8.647046251175514,0.5824436465190505,0.1786081426386633,-0.6360260940602054,0.013843068815797442,0.00619172599581685,-0.17593043265357508
1589988714.1511722,-1.3589113475177306,-3.6771975177304963,8.68832659574468,0.6133333333333333,0.19111111111111112,-0.65,0.014482093823690272,0.005089073737829743,-0.16374337093837846
1589988714.1611722,-1.367994950148906,-3.634002330700505,8.617994950148905,0.6133333333333333,0.19111111111111112,-0.65,0.010253851728797614,0.003709078900473512,-0.15184313644353553
1589988714.1711721,-1.2957413732187022,-3.675741373218702,8.57062065716641,0.6133333333333333,0.19111111111111112,-0.65,0.009655734496812346,0.007218291034757788,-0.14315461440409735
1589988714.1811721,-1.3158704147964713,-3.6917408295929426,8.679352073982356,0.6133333333333333,0.19111111111111112,-0.65,0.004363323129985824,0.0050036860465871615,-0.1360225972323854
1589988714.1911721,-1.3181008415098294,-3.7083529452844024,8.678352945284402,0.6340354838584525,0.19066106436056504,-0.6414491117396247,0.004363323129985824,0.0030378260375288012,-0.13045786153542238
1589988714.201172,-1.3244665155757012,-3.727866062302804,8.686799093454207,0.6644444444444444,0.19,-0.6288888888888889,0.006174151673332827,0.004108878354741461,-0.13101608214597626
1589988714.211172,-1.3146205758478855,-3.736897120760572,8.64924115169577,0.6644444444444444,0.19,-0.6288888888888889,0.004114990603136369,0.006544984694978735,-0.1372717619935794
1589988714.221172,-1.2940721401580213,-3.76,8.634690713386007,0.6644444444444444,0.19,-0.6288888888888889,0.001090830782496456,0.005965831367814752,-0.14354546170603122
1589988714.231172,-1.305215180100037,-3.7383869884856824,8.644408674342879,0.6644444444444444,0.19,-0.6288888888888889,0.001090830782496456,0.004275346999368893,-0.1486169148113688
1589988714.241172,-1.3437266347478194,-3.7012546730504363,8.680037384403489,0.6942777814214818,0.1915334892838664,-0.6341863973240638,0.0016382851766502489,0.002181661564992912,-0.15585601630426588
1589988714.251172,-1.2913279209719541,-3.71,8.715311683887817,0.9022222222222224,0.20222222222222225,-0.6711111111111111,0.004508176837278842,0.0026546501025946313,-0.1644257407423788
1589988714.261172,-1.2582458153614815,-3.6882458153614817,8.643894978433778,0.9022222222222224,0.20222222222222225,-0.6711111111111111,0.002323286977417069,0.004696300402597817,-0.16594790435188547
1589988714.271172,-1.222681713848508,-3.663659143075746,8.599022570772762,0.9022222222222224,0.20222222222222225,-0.6711111111111111,0.0018891319634129521,0.00574668351406224,-0.1619213940237571
1589988714.281172,-1.1984051813044017,-3.67,8.595459758260798,0.9022222222222224,0.20222222222222225,-0.6711111111111111,0.003272492347489368,0.004784922635006628,-0.1507556401041776
1589988714.291172,-1.193745868389423,-3.702073692908654,8.633745868389422,1.0641180054754273,0.15869363898904917,-0.8027150732839209,0.0020229576498787287,0.005953967791526535,-0.13671865990968876
1589988714.301172,-1.2389592549476134,-3.8110407450523867,8.683122235157159,1.6088888888888888,0.012222222222222223,-1.2455555555555555,-0.0022195041229887144,0.007711500593466797,-0.12254486982017929
1589988714.311172,-1.2145105449548073,-3.858042179819229,8.661746921084623,1.6088888888888888,0.012222222222222223,-1.2455555555555555,-0.003272492347489368,0.008341404657706726,-0.09761785227212894
1589988714.321172,-1.2417465436841348,-3.919143778631443,8.577842396105096,1.6088888888888888,0.012222222222222223,-1.2455555555555555,-0.00042587643586238736,0.005596112724436409,-0.087834297847533
1589988714.331172,-1.2609220869054856,-3.9488182027794663,8.64,1.6088888888888888,0.012222222222222223,-1.2455555555555555,0.004262739051921768,0.0037031586603642236,-0.08158281053048745
1589988714.341172,-1.2455126819655458,-3.9110253639310915,8.670319750810503,1.4030820955085146,-0.018403788697476317,-1.1157012692560337,0.006544984694978735,0.0012796510876733583,-0.0797424969761709
1589988714.351172,-1.1956700684666064,-3.826185505748611,8.700515437282005,0.8622222222222222,-0.09888888888888887,-0.7744444444444445,0.007084777537690391,-0.001090830782496456,-0.08938065358227051
1589988714.361172,-1.16526072321411,-3.762891084821165,8.636777228794708,0.8622222222222222,-0.09888888888888887,-0.7744444444444445,0.007635815477475192,0.0003515498035674884,-0.10320501179000785
1589988714.371172,-1.1942785780669145,-3.8331442843866173,8.613711431226765,0.8622222222222222,-0.09888888888888887,-0.7744444444444445,0.006606850818121715,0.003210626224346388,-0.11921533499282481
1589988714.381172,-1.16,-3.8447370726597465,8.61421121797924,0.8622222222222222,-0.09888888888888887,-0.7744444444444445,0.005913526532838039,0.005195786678673577,-0.13908116368942944
1589988714.391172,-1.1573675338540204,-3.8642119458335675,8.66,0.8500543787030274,-0.08572655815899058,-0.7702324986108771,0.010621150314373117,0.004535617636340689,-0.1565634846759271
1589988714.401172,-1.1235024630541872,-3.934599014778325,8.657299507389162,0.6311111111111111,0.1511111111111111,-0.6944444444444444,0.00692704414638513,0.007341237430694622,-0.19389651497640822
1589988714.411172,-1.1875909037900874,-3.8510227405247814,8.627007580174928,0.6311111111111111,0.1511111111111111,-0.6944444444444444,0.006393756749295728,0.008551451839720437,-0.23085780409960985
1589988714.421172,-1.2283700204972818,-3.765814989751359,8.650220122983692,0.6311111111111111,0.1511111111111111,-0.6944444444444444,0.003829913585064867,0.011364821625392627,-0.26595603538831114
1589988714.431172,-1.207125249003984,-3.809312126494024,8.690412724103586,0.6311111111111111,0.1511111111111111,-0.6944444444444444,0.007635815477475192,0.01450939393219623,-0.2954950854813744
1589988714.441172,-1.1665014313695947,-3.8786801265632063,8.639636884134399,0.624151139236268,0.16690489344248574,-0.699530577737599,0.009738257449705818,0.020160564577993867,-0.3193757604931748
1589988714.4511719,-1.25,-3.745600153595952,8.696461420310806,0.6022222222222222,0.21666666666666667,-0.7155555555555555,0.014053267191558515,0.020084719740512878,-0.3493510994946592
1589988714.4611719,-1.2516515343468468,-3.659909206081081,8.740272381756757,0.6022222222222222,0.21666666666666667,-0.7155555555555555,0.00745566102708612,0.0158120943061176,-0.38319239315622405
1589988714.4711719,-1.2590317074887387,-3.704190244932432,8.607429265202702,0.6022222222222222,0.21666666666666667,-0.7155555555555555,0.0066506090227531935,0.018227250319116376,-0.40895405729487777
1589988714.4811718,-1.2173949850842538,-3.6718319761348064,8.625915988067403,0.6022222222222222,0.21666666666666667,-0.7155555555555555,0.014464963218349764,0.025250441544738607,-0.4460196431901323
1589988714.4911718,-1.2512118035959041,-3.725938885753447,8.652969442876723,0.6022222222222222,0.21666666666666667,-0.7155555555555555,0.010776120558489338,0.025988210076710695,-0.47036600474521106
1589988714.5011718,-1.3065181598062954,-3.5774326069410813,8.762790153349474,0.6022222222222222,0.23555555555555555,-0.73,0.017453292519943295,0.03381575425739013,-0.5159629601208237
1589988714.5111718,-1.103404358353511,-3.865177158999193,8.77971630347054,0.6022222222222222,0.23555555555555555,-0.73,0.017453292519943295,0.03381575425739013,-0.5159629601208237
1589988714.5211718,-1.0474570988841863,-3.9249141977683726,8.537113889957677,0.6022222222222222,0.23555555555555555,-0.73,0.017693241715154233,0.03106059858650913,-0.5178672342044192
1589988714.5311718,-1.0313536287034522,-3.9134585485186193,8.476052459907583,0.6022222222222222,0.23555555555555555,-0.73,0.013413897802536264,0.02750038069531851,-0.5170537909033202
1589988714.5411718,-0.9312308760706244,-3.9745535470022517,8.568061196574002,0.5885813627765268,0.22405825973704085,-0.719671920705402,0.026639786887723792,0.04011238149038884,-0.5214539808494572
1589988714.5511718,-0.8742950421380306,-4.094187988763192,8.698953002809201,0.5244444444444445,0.17,-0.6711111111111111,0.019572010390858513,0.034501012316335976,-0.5484244311077422
1589988714.5611718,-0.8026565646223678,-4.017218183679738,8.66807020238217,0.5244444444444445,0.17,-0.6711111111111111,-0.06356606881901668,0.15894401478836073,-0.6985088622139796
1589988714.5711718,-0.6843558037495014,-3.714395692062226,8.0422576785002,0.5244444444444445,0.17,-0.6711111111111111,-0.37817106055920513,0.4462476906896591,-1.621708144983307
1589988714.5811718,2.848746215026848,-5.315772336388227,2.102095764867375,0.5244444444444445,0.17,-0.6711111111111111,-1.9300892938067982,0.36606588156738396,-13.301753818643801
1589988714.5911717,1.7229882207067575,-8.841433973961562,4.303406075635462,0.5157479506785149,0.22028842047254943,-0.656742990976097,-1.7545610753122831,0.34048047788375685,-16.245033567015014
1589988714.6011717,-3.8953875127091226,-10.870672659210648,-0.8695771328218878,0.4988888888888889,0.31777777777777777,-0.6288888888888889,-1.1199143184278664,2.2212244215719297,-15.512602925806236
1589988714.6111717,-9.395865944482058,-13.212288873843377,5.048913563529676,0.4988888888888889,0.31777777777777777,-0.6288888888888889,-0.7813941669680113,2.8878813661504483,-12.58584422100677
1589988714.6211717,-7.520913113827319,-7.561238473984834,10.766570169795504,0.4988888888888889,0.31777777777777777,-0.6288888888888889,-0.2107449474170625,2.1624283067865138,-7.343766157196981
1589988714.6311717,0.818860553794668,1.597066915514939,-1.5116975849918748,0.4988888888888889,0.31777777777777777,-0.6288888888888889,0.9296320802547888,0.21181863511475393,-3.4364448652308237
1589988714.6411717,-0.17989477579521496,0.09218557430856134,-0.7491343941563561,0.4988888888888889,0.31777777777777777,-0.6288888888888889,0.9369933846987013,-0.015645672202139804,-3.2457870801334914
1589988714.6511717,-2.55301126952681,-0.871071416972492,11.018644409080576,0.29444444444444445,0.5811111111111111,-0.5911111111111111,2.1816987987025156,0.7604932046127029,-2.8178257449295274
1589988714.6611717,1.2598058937709546,1.6516146109052414,10.124314452091053,0.29444444444444445,0.5811111111111111,-0.5911111111111111,3.48767166417006,0.19529990254744692,-2.3482091160946097
1589988714.6711717,1.9235624431645952,5.086445513792058,10.30518319945438,0.29444444444444445,0.5811111111111111,-0.5911111111111111,2.538004573544491,0.1726657578532948,-1.9241612912596144
1589988714.6811717,-0.6206803331991453,1.127564177995231,-0.9048106400767969,0.29444444444444445,0.5811111111111111,-0.5911111111111111,0.9929622878189924,0.019773583804422335,-1.5093828205958002
1589988714.6911716,0.6030294245542833,1.0303493259892738,2.2919901434990577,0.27573690228857645,0.5855365511909939,-0.5967434893945983,-0.5554390493807636,0.052670888452592685,-1.0056308742274
1589988714.7011716,2.084926257428613,1.5775112335121033,13.675997608349036,0.19720903593113334,0.6041130357056578,-0.6203862878678069,-1.6140384425280998,0.13639723043213925,-0.7304116114827521
1589988714.7111716,1.149819356789237,-1.8517671289822757,20.016846680019654,0.19111111111111112,0.6055555555555555,-0.6222222222222222,-1.1777860444016763,-0.0292596672583535,-0.4778665576563265
1589988714.7211716,1.8155561014322967,-2.3589951249007974,14.088619477721931,0.19111111111111112,0.6055555555555555,-0.6222222222222222,0.16396624145120575,0.026070323910837502,-0.36461298198188874
1589988714.7311716,1.2722055019985894,-1.3544815424406302,8.942950858217728,0.19111111111111112,0.6055555555555555,-0.6222222222222222,0.8744566868194792,0.23021941344559696,-0.17862873445541366
1589988714.7411716,0.5891546002338339,-0.5005459124021945,2.8415918697724614,0.18406011731670516,0.603792807106954,-0.6222222222222222,0.2639196355616563,-0.022046377831115082,-0.008276343778484213
1589988714.7511716,1.1136971066907775,-1.6078213381555153,7.116971066907776,0.15555555555555556,0.5966666666666667,-0.6222222222222222,-0.5761862679212251,-0.10919677713988628,0.24625911264118241
1589988714.7611716,2.8153340549050476,-4.180893764964413,10.223959460789137,0.15555555555555556,0.5966666666666667,-0.6222222222222222,-0.6489230286834704,-0.09596155279848041,0.403479125941569
1589988714.7711716,18.069210741990204,-20.36667981779023,7.805069091047706,0.15555555555555556,0.5966666666666667,-0.6222222222222222,-0.04270344603628258,-0.22653659402240897,0.7671999365962072
1589988714.7811716,-0.02917119838872105,-0.7763162134944612,7.8241903323262845,0.15555555555555556,0.5966666666666667,-0.6222222222222222,0.08355615493665414,0.0938700533593943,1.2097966448278639
1589988714.7911716,-1.2540961247907225,-1.2467366981093553,7.551478214708645,0.15634908643790182,0.5970067513305294,-0.6259631535247118,0.6174610027162635,0.17197649517559999,1.4111103083268397
1589988714.8011715,-0.4491138878680222,-1.1354093674711094,4.7939858712074805,0.16300969596326695,0.5998612982699715,-0.6573631698585759,0.2699578345629585,-0.03260198285013602,1.5082617316815274
1589988714.8111715,0.16195652173913044,-2.175869565217391,9.009347826086955,0.16333333333333333,0.6,-0.6588888888888889,-0.5046989466059145,-0.2258493994020923,1.6116787674258508
1589988714.8211715,1.10073996598307,-2.452945396961936,10.946372504936365,0.16333333333333333,0.6,-0.6588888888888889,-0.3240718976662809,-0.31339943073638443,1.7071643775218746
1589988714.8311715,1.7239277824480461,-4.822699067466912,8.445421399386131,0.16333333333333333,0.6,-0.6588888888888889,0.10348177702041039,-0.03611566681823736,1.827916984389455
1589988714.8411715,3.785990648178007,-8.655237987745888,6.881272492744276,0.1666110215342721,0.5978791429288043,-0.653683148805045,-0.057556537717785426,-0.19627925771800356,2.21590492773118
1589988714.8511715,0.134854922908826,-2.8091271093844847,9.633304601189753,0.18222222222222226,0.5877777777777777,-0.6288888888888889,-0.12006581206705437,-0.1515513176357462,2.6723657735285573
1589988714.8611715,-0.14589768662669514,-2.365931139188389,7.77688736779805,0.18222222222222226,0.5877777777777777,-0.6288888888888889,0.016551008361723844,-0.1716090911250037,2.8082532253333916
1589988714.8711715,0.06095684152095475,-2.6092938754741417,8.53236909057267,0.18222222222222226,0.5877777777777777,-0.6288888888888889,-0.11206737187319064,-0.20866924787023786,2.920921845062063
1589988714.8811715,0.3990226025801258,-3.092098629440549,8.829786472345203,0.18222222222222226,0.5877777777777777,-0.6288888888888889,-0.16637386587594236,-0.25661626051932546,3.020790429034495
1589988714.8911715,0.6461706783369803,-4.38899030947171,9.256011253516725,0.19357854885207185,0.5861022541766524,-0.6337292904032511,-0.09255523579025103,-0.2330838386101555,3.1924610357314798
1589988714.9011714,0.10194214349432905,-3.2643698228622404,8.900192855018904,0.25,0.5777777777777777,-0.6577777777777778,-0.09167223086783438,-0.24571226340971647,3.582759148092956
1589988714.9111714,-0.07311217651304258,-2.8737756469739146,8.991563563253944,0.25,0.5777777777777777,-0.6577777777777778,-0.06496561435528911,-0.25364486816981596,3.7746105629463567
1589988714.9211714,-0.09524152448482162,-3.10008900214196,7.929239419454908,0.25,0.5777777777777777,-0.6577777777777778,-0.10681845021753726,-0.2667920193370224,3.8387261986997596
1589988714.9311714,-0.05703577970448163,-4.053014043228721,8.535129075589204,0.25,0.5777777777777777,-0.6577777777777778,-0.17282220308351048,-0.3018944590371929,3.8761686258629737
1589988714.9411714,-0.307120196909613,-5.1918661483463895,8.401962845031353,0.25329120353187085,0.5766807099338208,-0.6583263116997563,-0.14860494444284708,-0.2931055557604057,4.022145330105209
1589988714.9511714,-0.24976616983454122,-4.233234552948761,9.237692953839543,0.3188386630462386,0.554831556762365,-0.6692508882854842,-0.11017305667076409,-0.30829955790285707,4.266143129216342
1589988714.9611714,-0.3269139428257516,-3.3825853071055803,8.179353673223606,0.33,0.5511111111111111,-0.6711111111111111,-0.1870737339256421,-0.35116557692547273,3.7885979506348244
1589988714.9711714,-1.0502004562686618,-3.842474083269031,8.123008856979903,0.33,0.5511111111111111,-0.6711111111111111,-0.5113314032128559,-0.4747829178456401,1.1445936769692242
1589988714.9811714,-2.9991069211930084,-2.625287013117724,8.946193176099573,0.33,0.5511111111111111,-0.6711111111111111,-0.2772491703375934,0.024848339865166214,-1.2952339240486763
1589988714.9911714,-3.7049261616040345,-3.0774642814263418,11.89914515548085,0.34251130587905715,0.539412227691733,-0.6701362041594963,0.8115595047501674,0.4953006946350107,-1.1769669930067326
1589988715.0011714,-1.3263281883001135,-1.1131194295900175,5.393426511100308,0.4155555555555556,0.4711111111111111,-0.6644444444444444,0.27859764712862306,0.11939519428694771,-0.31657149772318127
1589988715.0111713,-1.2223441825418926,-4.327908892856557,11.513946501990205,0.4155555555555556,0.4711111111111111,-0.6644444444444444,-0.39161377216492615,-0.09496111779228547,-0.00793206888660214
1589988715.0211713,-0.7551581516486756,-4.451575783387115,10.229184917033859,0.4155555555555556,0.4711111111111111,-0.6644444444444444,-0.38411934711123996,-0.16316038578082984,0.24612894043335987
1589988715.0311713,-0.5140911075534856,-3.3168185125891427,8.9654523844176,0.4155555555555556,0.4711111111111111,-0.6644444444444444,0.10789297038239856,0.0034707289996618665,0.815049519131237
1589988715.0411713,-0.09985522632950483,-4.00932567641476,8.067510858025287,0.4155555555555556,0.4711111111111111,-0.6663894518976075,0.04190084476229253,-0.04736289485358836,1.0864718812266054
1589988715.0511713,4.151073521638207,-8.791799315115718,8.81541713589667,0.4155555555555556,0.4711111111111111,-0.6877777777777778,-0.09536843393593403,-0.097432816964453,0.9887263036418434
1589988715.0611713,0.25666245317276193,-4.86846935257751,9.86131713819494,0.4155555555555556,0.4711111111111111,-0.6877777777777778,0.09705984715104493,0.06134680294884656,0.1601280222399888
1589988715.0711713,-2.142377242552258,-2.1193899160585943,10.159537133556446,0.4155555555555556,0.4711111111111111,-0.6877777777777778,0.2152080602515832,0.15185802415629363,-0.3603665748278152
1589988715.0811713,0.043712075492401414,-2.970814176770725,8.165210036392898,0.4155555555555556,0.4711111111111111,-0.6877777777777778,0.10559767032011522,0.033043708352717666,0.06385073582298062
1589988715.0911713,0.9472744958351601,-6.534927937308198,9.10045128233231,0.41624147547372015,0.4705395111793073,-0.6869775378732526,-0.16645606689462003,-0.08271412111515734,0.2076241090976254
1589988715.1011713,-0.1725525853956304,-5.106167561105883,8.873828878093445,0.4222222222222222,0.4655555555555556,-0.68,-0.005453765489384005,-0.011743639442315917,-0.019751037102306943
1589988715.1111712,-0.04282528256869604,-4.5580421376144935,8.637385405503771,0.4222222222222222,0.4655555555555556,-0.68,0.0535196558528119,0.02079607780278693,-0.020227007195609163
1589988715.1211712,-0.02225704345096398,-4.51435739137259,8.493698956235121,0.4222222222222222,0.4655555555555556,-0.68,-0.008480441012597293,-0.003518697594863722,0.001935456317618558
1589988715.1311712,-0.03679114467821535,-4.481230993626246,8.662351295730184,0.4222222222222222,0.4655555555555556,-0.68,-0.007945111959610843,-0.004229042555929186,-0.0001750159080790134
1589988715.1411712,-0.020030370237167576,-4.539893704169914,8.570167036304422,0.4222222222222222,0.4655555555555556,-0.68,-0.015258379439120742,0.0021700664886419732,-0.0010891743430177505
1589988715.1511712,-0.014128241929289048,-4.5476152742121325,8.641102306494977,0.4088888888888889,0.4655555555555556,-0.68,-0.0001901881076842454,-0.0009006426748122106,-0.0015061795588837538
1589988715.1611712,-0.030642329130882034,-4.496146025214708,8.537707949570583,0.4088888888888889,0.4655555555555556,-0.68,0.0036228285417195284,-0.0042932558911397915,0.001020763543650424
1589988715.1711712,-0.03942936153892736,-4.4445651076885815,8.644864253850347,0.4088888888888889,0.4655555555555556,-0.68,0.008041929261055755,-0.0030857513477850333,0.00012449399980288977
1589988715.1811712,-0.030963040713752246,-4.512295674289982,8.568667366423771,0.4088888888888889,0.4655555555555556,-0.68,-0.0021169264465952277,-0.00031515433660749253,0.0019715586739212504
1589988715.1911712,-0.03799363468237925,-4.543980904047138,8.65592361618855,0.4088888888888889,0.4655555555555556,-0.68,-0.004144462625046425,-0.0008719702775570569,0.002181661564992912
1589988715.2011712,-0.01946260247751815,-4.577313012387591,8.543761782657372,0.4355555555555555,0.4577777777777778,-0.6944444444444444,-0.00404090776200753,0.003155250395497261,0.0
1589988715.2111712,-0.0043147098125609455,-4.5015735490628055,8.649797031312072,0.4355555555555555,0.4577777777777778,-0.6944444444444444,0.0050471754228806455,-0.00014950712628025763,0.0
1589988715.2211711,-0.011326452404067242,-4.487347095191866,8.54928516682847,0.4355555555555555,0.4577777777777778,-0.6944444444444444,0.005092420134014036,-0.0012355242938837535,0.0010184840268028072
1589988715.2311711,-0.02561391855296101,-4.458772162894078,8.649297429870726,0.4355555555555555,0.4577777777777778,-0.6944444444444444,0.0011961181642416814,-0.0027940450817926957,0.00023922363284833634
1589988715.2411711,-0.037987633965375106,-4.545851607584502,8.616098928277,0.4355555555555555,0.4577777777777778,-0.6944444444444444,-0.00958447270961993,-0.003272492347489368,0.002613947102623618
1589988715.251171,-0.04,-4.523885090134091,8.623057454932955,0.420183918933586,0.46375563646409934,-0.67138698951149,-0.006968782286082722,-0.0024340996272596525,0.0024340996272596525
1589988715.261171,-0.03,-4.555748169411536,8.56070863843141,0.4155555555555556,0.4655555555555556,-0.6644444444444444,-0.001485957411814388,-0.0021043611035286313,-0.0007816289366393342
1589988715.271171,-0.031828780487804874,-4.5,8.571828780487806,0.4155555555555556,0.4655555555555556,-0.6644444444444444,0.007037348462317258,-0.0007915972749174892,0.0030730033424367234
1589988715.281171,-0.04733484805452996,-4.499111616018177,8.59533030389094,0.4155555555555556,0.4655555555555556,-0.6644444444444444,0.0008970154636865205,0.002084753905587944,0.0008001078042815527
1589988715.291171,-0.023510366373189432,-4.491170122124396,8.642979267253622,0.4155555555555556,0.4655555555555556,-0.6644444444444444,-0.0008355497359820907,0.0012184713057536386,-0.0017987399952213645
1589988715.301171,-0.04947655181978484,-4.549476551819785,8.621308620450538,0.4222222222222222,0.4844444444444445,-0.6711111111111111,-0.007464517461069056,0.0010337314436944106,0.0
1589988715.311171,-0.03285657678362689,-4.532856576783627,8.662858558040933,0.4222222222222222,0.4844444444444445,-0.6711111111111111,-0.002025643348939934,-0.000779226593681963,0.0
1589988715.321171,-0.039860385084509495,-4.519162310507056,8.531814993901376,0.4222222222222222,0.4844444444444445,-0.6711111111111111,0.001151749281501529,0.002151202315490375,1.5229624751268257e-05
1589988715.331171,-0.0307248649590521,-4.464349189754312,8.650576755532322,0.4222222222222222,0.4844444444444445,-0.6711111111111111,0.005137871908287454,0.00015814100209741262,0.0010117602814477497
1589988715.341171,-0.014159573377089531,-4.499601066557276,8.64415957337709,0.4222222222222222,0.4844444444444445,-0.6711111111111111,-0.0023214973231839254,0.0,0.00022686953408909986
1589988715.351171,-0.029525417485265222,-4.51,8.659525417485264,0.4222222222222222,0.4584105544640908,-0.6505009482099978,-0.008623108416790193,-0.002129892643402185,-0.0010649463217010924
1589988715.361171,-0.01622086115434175,-4.516889569422829,8.597993875194538,0.4222222222222222,0.4577777777777778,-0.65,-0.004968969057687473,-0.001430126124536077,0.00041224009841721396
1589988715.371171,-0.018380036597179863,-4.52,8.561619963402821,0.4222222222222222,0.4577777777777778,-0.65,0.0022122287797010217,-0.00017671059463139106,0.002004950970361521
1589988715.381171,-0.027104513875707073,-4.491581944497172,8.588418055502828,0.4222222222222222,0.4577777777777778,-0.65,0.004047474590518816,-0.0007749822430294475,0.000631697078934017
1589988715.391171,-0.03,-4.487790134267367,8.662321074138937,0.4222222222222222,0.4577777777777778,-0.65,0.002663779478260902,-0.001090830782496456,0.0008497718258624609
1589988715.401171,-0.03,-4.529867772429392,8.630165284463262,0.42997428908349283,0.46552984463904845,-0.6799008293220438,-0.0032544626094500773,-0.0021780556173850536,0.0021780556173850536
1589988715.411171,-0.021426837610609706,-4.54,8.620725555531038,0.43,0.4655555555555556,-0.68,-0.0042076792912581484,-0.0014799403793156454,0.0021038396456290742
1589988715.421171,-0.039937771697155594,-4.54,8.500404483968488,0.43,0.4655555555555556,-0.68,-0.002188449619821431,-0.006528014557907438,0.0010942248099107155
1589988715.431171,-0.03,-4.519263109790929,8.572456300696905,0.43,0.4655555555555556,-0.68,0.003245698263376865,0.0,-0.0011176248666089589
1589988715.441171,-0.03,-4.495303895807152,8.652320347309495,0.43,0.4655555555555556,-0.68,0.0023745166587794157,0.0,-0.001988806471206408
1589988715.451171,-0.020387355036204154,-4.518837934891387,8.679612644963795,0.4225234983614921,0.4655555555555556,-0.6714554266988482,-0.0030612229488661074,-0.0031457307083154113,-0.0011330846622211082
1589988715.461171,-0.011869396413704771,-4.560653017931476,8.623085774895934,0.4222222222222222,0.4655555555555556,-0.6711111111111111,-0.006820137416372135,-0.0014986698130479846,-0.00020391951527576433
1589988715.471171,-0.01,-4.533152213839677,8.49945664151903,0.4222222222222222,0.4655555555555556,-0.6711111111111111,-0.004621213021685631,-8.59632972332687e-05,0.0
1589988715.481171,-0.017810025332615245,-4.522189974667384,8.568100253326152,0.4222222222222222,0.4655555555555556,-0.6711111111111111,-0.00010361510753890881,-0.000851941604489383,-0.000851941604489383
1589988715.491171,-0.02,-4.506105140344185,8.638632008795351,0.4222222222222222,0.4655555555555556,-0.6711111111111111,0.0041222189087025875,0.0004248632806066097,-0.0003329837509449231
1589988715.5011709,-0.02962437168862926,-4.519248743377258,8.66,0.42970784464671163,0.45806993313106614,-0.6711111111111111,0.0002048734624101817,-0.0010088813975323832,0.0010498560900144196
1589988715.5111709,-0.023440050118871684,-4.546239799524513,8.62064030071323,0.43,0.4577777777777778,-0.6711111111111111,-0.002862318104787494,-0.0003752512562995824,0.0003752512562995824
1589988715.5211709,-0.02,-4.545242802199777,8.526214010998885,0.43,0.4577777777777778,-0.6711111111111111,-0.004363323129985824,0.002414640843580811,0.0016097605623872073
1589988715.5311708,-0.02614405276969998,-4.5154237889212,8.5430083693879,0.43,0.4577777777777778,-0.6711111111111111,-0.0010122621847501513,0.0005916435913008301,0.002181661564992912
1589988715.5411708,-0.03600243699476938,-4.506002436994769,8.624021932952925,0.43,0.4577777777777778,-0.6711111111111111,0.0030551236956634425,-0.001090830782496456,0.0015268972606039164
1589988715.5511708,-0.027886311940647522,-4.491829467910971,8.690284220148381,0.4252891213102518,0.4658535698173461,-0.6711111111111111,0.00304192474751568,-0.001751529973731528,0.001090830782496456
1589988715.5611708,-0.003353020707322279,-4.521617448231694,8.660059062121967,0.4222222222222222,0.4711111111111111,-0.6711111111111111,-0.0041740015418189665,0.0014501459246138754,0.001998782654898153
1589988715.5711708,-0.013577550052879181,-4.53678877502644,8.575323474709164,0.4222222222222222,0.4711111111111111,-0.6711111111111111,-0.0047136134350539306,-0.002261581299577186,0.002181661564992912
1589988715.5811708,-0.011445046058645665,-4.522890092117291,8.574219815765417,0.4222222222222222,0.4711111111111111,-0.6711111111111111,-0.002496921709572086,-0.001563720999365217,0.001248460854786043
1589988715.5911708,-0.0228073798239675,-4.52,8.612018449559919,0.4222222222222222,0.4711111111111111,-0.6711111111111111,0.002009543681539426,-0.0017893649902518457,0.001090830782496456
1589988715.6011708,-0.045739599969579436,-4.51213020001521,8.65360939995437,0.41172915557583595,0.4711111111111111,-0.6894739777422871,0.0017879371073361945,-0.003040123572542789,0.0028077547975962095
1589988715.6111708,-0.035494641467260064,-4.51,8.60923124513541,0.4088888888888889,0.4711111111111111,-0.6944444444444444,-0.0004914583773695789,-0.0008990586076903155,0.001690203187623333
1589988715.6211708,-0.0022785557341029085,-4.500759518578034,8.534557111468205,0.4088888888888889,0.4711111111111111,-0.6944444444444444,-0.004114771256546497,-0.002015960316033361,8.285062447977538e-05
1589988715.6311707,-0.01876145160144876,-4.518761451601448,8.558142177402173,0.4088888888888889,0.4711111111111111,-0.6944444444444444,-0.004363323129985824,-0.002181661564992912,0.001023278446558887
1589988715.6411707,-0.012509142857142858,-4.505018285714286,8.582472571428571,0.4088888888888889,0.4711111111111111,-0.6944444444444444,0.0005394314052413907,-0.0005474100532505072,0.0002737050266252536
1589988715.6511707,-0.0234587046523051,-4.5,8.637105466283067,0.42683382842529566,0.4621386413429077,-0.6899582095603428,0.0007135446322666453,0.0,0.0022021753990894
1589988715.6611707,-0.03,-4.5,8.66,0.4355555555555555,0.4577777777777778,-0.6877777777777778,-0.0005619151162275859,-0.0005619151162275859,0.0004629167663514383
1589988715.6711707,-0.02519141995445313,-4.514425740136641,8.602297039453438,0.4355555555555555,0.4577777777777778,-0.6877777777777778,-0.0016153654958745295,-0.001090830782496456,-0.0006080574248586909
1589988715.6811707,-0.03646572104018912,-4.546465721040189,8.54,0.4355555555555555,0.4577777777777778,-0.6877777777777778,-0.003977793101656698,-0.005581159624155921,0.001988896550828349
1589988715.6911707,-0.032635363790186125,-4.527906091370558,8.584187817258883,0.4355555555555555,0.4577777777777778,-0.6877777777777778,-0.0003465371902093223,-0.0017248415672469338,-0.00022840999887298883
1589988715.7011707,-0.041292847080920334,-4.5143535764595395,8.62258569416184,0.4242627084746352,0.4577777777777778,-0.6783670718770108,0.001706760043391113,0.0,-0.00047490152160179877
1589988715.7111707,-0.03385321853218532,-4.51,8.664220172201722,0.4155555555555556,0.4577777777777778,-0.6711111111111111,0.00306233187815969,-0.000880670313166778,0.000880670313166778
1589988715.7211707,-0.03,-4.51,8.592132552791135,0.4155555555555556,0.4577777777777778,-0.6711111111111111,0.0004411520684944551,0.00032483935700100054,0.001090830782496456
1589988715.7311707,-0.021519691780821918,-4.518480308219178,8.566960616438356,0.4155555555555556,0.4577777777777778,-0.6711111111111111,-0.0038660051576576027,0.001090830782496456,-0.001684343592664691
1589988715.7411706,-0.014197012921631145,-4.514197012921631,8.587408961235106,0.4155555555555556,0.4577777777777778,-0.6711111111111111,-0.005629338517088607,-0.0008081922981577202,-0.00154865387144152
1589988715.7511706,-0.01,-4.514881447657703,8.624407238288518,0.42531845087096226,0.4642863746547156,-0.6781620910611271,-0.003350084674077903,-0.0005842115545424955,-0.0005583474456796506
1589988715.7611706,-0.003239699430127591,-4.513239699430128,8.636479398860256,0.4355555555555555,0.4711111111111111,-0.6855555555555556,0.0007374343960545157,0.001090830782496456,0.0014748687921090314
1589988715.7711706,-0.016801894147200645,-4.526801894147201,8.571193370484798,0.4355555555555555,0.4711111111111111,-0.6855555555555556,-0.0025747738855062445,0.001090830782496456,-0.0005675419360091139
1589988715.7811706,-0.011802337364047828,-4.53,8.568197662635953,0.4355555555555555,0.4711111111111111,-0.6855555555555556,-0.005060944897052901,-0.0006976217670670777,0.0015918480418488444
1589988715.7911706,-0.01660741750219021,-4.523392582497809,8.609644505013142,0.4355555555555555,0.4711111111111111,-0.6855555555555556,-0.004012639031643296,-0.0025323456633354405,0.0007401466841539274
1589988715.8011706,-0.030349092444069227,-4.5251745462220345,8.645523638666104,0.4252064631114863,0.4711111111111111,-0.6826808076544253,-0.0004502151952663191,0.00011424023517829073,0.0005644554304446097
1589988715.8111706,-0.033429978306532146,-4.510289934919596,8.66,0.4155555555555556,0.4711111111111111,-0.68,0.0014649833745024887,0.0011224577760180986,-0.0003425255984843905
1589988715.8211706,-0.03699167085674311,-4.493008329143257,8.604066633146056,0.4155555555555556,0.4711111111111111,-0.68,0.001090830782496456,0.0,-0.001090830782496456
1589988715.8311706,-0.04845392368610511,-4.515361771058315,8.605361771058314,0.4155555555555556,0.4711111111111111,-0.68,-0.0025978892933752893,0.0,-0.001090830782496456
1589988715.8411705,-0.04323009826653417,-4.513230098266534,8.616769901733464,0.4155555555555556,0.4711111111111111,-0.68,-0.005487937509091561,-0.0007384817205340643,-0.001090830782496456
1589988715.8511705,-0.04,-4.52564313888978,8.60435686111022,0.4311986944453352,0.4711111111111111,-0.6730474938267645,-0.0039853820796028686,-0.002797232526080368,-0.001090830782496456
1589988715.8611705,-0.0318745232206015,-4.5218745232206015,8.608125476779398,0.4355555555555555,0.4711111111111111,-0.6711111111111111,-0.0014997883088037566,0.00115926774922466,0.0006818732561891553
1589988715.8711705,-0.03,-4.514199753137214,8.569398271960502,0.4355555555555555,0.4711111111111111,-0.6711111111111111,0.0014400043471054838,0.00028353521779145687,0.001090830782496456
1589988715.8811705,-0.016953595333358263,-4.51,8.572616011666604,0.4355555555555555,0.4711111111111111,-0.6711111111111111,0.0018493503663615457,-0.001802401773060367,0.002513972763624278
1589988715.8911705,-0.01,-4.516496646699436,8.59,0.4355555555555555,0.4711111111111111,-0.6711111111111111,0.001090830782496456,-0.0014729873447179452,0.0011464696866644677
1589988715.9011705,-0.042550737236283394,-4.52,8.638826105854426,0.44640580130098334,0.456644116783874,-0.6900990411656097,-0.0015722201802754099,0.0015722201802754099,0.0
1589988715.9111705,-0.04397877764534499,-4.52,8.63795755529069,0.4488888888888889,0.4533333333333333,-0.6944444444444444,-0.00021122115717886773,0.0008680346264502159,0.000656813469271348
1589988715.9211705,-0.03305218234723569,-4.506104364694472,8.59526091173618,0.4488888888888889,0.4533333333333333,-0.6944444444444444,0.0033644987925387296,0.0,0.0018487201191772138
1589988715.9311705,-0.022235690849434924,-4.51552861830113,8.587764309150565,0.4488888888888889,0.4533333333333333,-0.6944444444444444,0.0018224589021092353,-0.0016939094852510587,0.0013347068223673827
1589988715.9411705,-0.03228624961762007,-4.513856875191189,8.60842937442643,0.4488888888888889,0.4533333333333333,-0.6944444444444444,-0.0022597240385873636,-0.001511550600776148,-0.00024939114593707217
1589988715.9511704,-0.019579776756401837,-4.515105055810899,8.6302101116218,0.4392460056905231,0.4624089881082658,-0.6910410739038447,-0.004363323129985824,-0.0005339555800072934,0.0005797948249710318
1589988715.9611704,0.0,-4.52,8.633254034323771,0.43,0.4711111111111111,-0.6877777777777778,-0.0014198403230675566,-0.0029434828069182673,0.001445790863263345
1589988715.9711704,-0.024584837545126352,-4.52,8.572635379061373,0.43,0.4711111111111111,-0.6877777777777778,0.0008939299192299477,-0.0016815333722959807,0.001984760701726404
1589988715.9811704,-0.014660330560372267,-4.5123301652801855,8.598349173599068,0.43,0.4711111111111111,-0.6877777777777778,-0.0005824675793101534,-0.001090830782496456,0.0013450123840896074
1589988715.9911704,-0.01619551459536429,-4.516195514595364,8.622391029190728,0.43,0.4711111111111111,-0.6877777777777778,-0.001090830782496456,-0.002442482389302345,0.00041500497909351163
1589988716.0011704,-0.02735345553468489,-4.52,8.63,0.4340852530748249,0.4670258580362862,-0.6820584234730229,-0.0018929683479917772,-0.002470354781994047,0.0
1589988716.0111704,-0.02210330636486929,-4.52,8.606309919094608,0.4355555555555555,0.4655555555555556,-0.68,-0.0013202659152784701,-0.0013202659152784701,0.0008613956497144418
1589988716.0211704,-0.026885684430512015,-4.513114315569488,8.572457262277952,0.4355555555555555,0.4655555555555556,-0.68,0.0026647274851830877,-0.002593054089568274,-0.00041139252457536124
1589988716.0311704,-0.023011939218523878,-4.489035817655572,8.59494030390738,0.4355555555555555,0.4655555555555556,-0.68,0.003601043948946785,-0.0025102131664503286,-0.0003285516014574167
1589988716.0411704,-0.028723251058437257,-4.497446502116874,8.623084876587656,0.4355555555555555,0.4655555555555556,-0.68,0.0023209332696905527,-0.002181661564992912,0.00047577953889940753
1589988716.0511703,-0.03783159695226248,-4.518915798476131,8.638915798476132,0.4370011575873805,0.46615788973548267,-0.680843267851898,0.000972562742829895,-0.002181661564992912,0.001090830782496456
1589988716.0611703,-0.023843727250667315,-4.521531181752001,8.633843727250667,0.4488888888888889,0.4711111111111111,-0.6877777777777778,0.0,-0.0013430903640832366,0.0006715451820416183
1589988716.0711703,-0.02079859166199888,-4.530798591661998,8.589392254140995,0.4488888888888889,0.4711111111111111,-0.6877777777777778,0.0005018589728705588,-0.0015055769186116765,0.0
1589988716.0811703,-0.019982279769110656,-4.5150088601154446,8.579911398845553,0.4488888888888889,0.4711111111111111,-0.6877777777777778,0.0016352796850783319,-5.798931998112367e-06,0.0
1589988716.0911703,-0.026184045584045582,-4.506184045584045,8.626184045584045,0.4488888888888889,0.4711111111111111,-0.6877777777777778,0.0013491494566876395,0.0003586999684209143,0.0008325121083052725
1589988716.1011703,-0.02,-4.5086399829224035,8.624319991461201,0.446008894581421,0.4634311262911967,-0.6844177844190653,-0.0004712379666000807,-0.0038920851633857433,0.0026528995315929925
1589988716.1111703,-0.03052974903010952,-4.52,8.603675627424726,0.44222222222222224,0.4533333333333333,-0.68,-0.0016651395011967394,-0.002123874910088801,0.00040094875398795143
1589988716.1211703,-0.03489833272924973,-4.52,8.559593330916998,0.44222222222222224,0.4533333333333333,-0.68,-0.0005121448546961884,0.0011351914978991755,-0.0010686504247950962
1589988716.1311703,-0.035901859912940245,-4.50229442026118,8.57541115947764,0.44222222222222224,0.4533333333333333,-0.68,0.003022209922601578,0.0006973201606825389,-0.0006437930467017073
1589988716.1411703,-0.04593684804059769,-4.501873696081195,8.62968424020299,0.44222222222222224,0.4533333333333333,-0.68,0.0024204941518795055,-0.0017384404418652288,-0.0004432211231276832
1589988716.1511703,-0.038306869175008626,-4.515846565412495,8.667539696237487,0.44222222222222224,0.4604791355041614,-0.6884450389291604,-0.00018469192226942062,-0.0015439002126099736,0.0006377613523829383
1589988716.1611702,-0.04405775619729108,-4.52,8.651884487605418,0.44222222222222224,0.4655555555555556,-0.6944444444444444,-0.0003240991228546843,-0.001090830782496456,0.001090830782496456
1589988716.1711702,-0.03761256843997712,-4.52,8.578062842199886,0.44222222222222224,0.4655555555555556,-0.6944444444444444,-0.002026888749261158,0.0002604283836776494,0.0004152011994094033
1589988716.1811702,-0.042065003622813374,-4.5260325018114065,8.55809750543422,0.44222222222222224,0.4655555555555556,-0.6944444444444444,-0.001956404613219759,0.0004327869153616516,0.0
1589988716.1911702,-0.04636387237821958,-4.526363872378219,8.602725148596024,0.44222222222222224,0.4655555555555556,-0.6944444444444444,-0.0002975507947117135,0.001189919981677114,0.00039663999389237124
1589988716.2011702,-0.04063277994124479,-4.520632779941244,8.654304980528797,0.44222222222222224,0.4655555555555556,-0.6944444444444444,0.0009527796148052325,0.003065415595952533,0.0010218051986508442
1589988716.2111702,-0.02460491939081119,-4.524604919390811,8.65,0.4222222222222222,0.4711111111111111,-0.6944444444444444,-0.0005023187822411674,-0.00067470521826941,-8.619321801412111e-05
1589988716.2211702,-0.024956746183783348,-4.519913492367567,8.594524208021616,0.4222222222222222,0.4711111111111111,-0.6944444444444444,0.0005595701695050987,0.0005406971318292711,0.001090830782496456
1589988716.2311702,-0.025490481310480047,-4.51,8.57294288786288,0.4222222222222222,0.4711111111111111,-0.6944444444444444,0.003379498769831535,-0.0017967558072579347,0.0004919121800771444
1589988716.2411702,-0.03521710451924164,-4.499565790961516,8.626085522596208,0.4222222222222222,0.4711111111111111,-0.6944444444444444,0.0032251274889677924,-0.0021342967064713362,0.0
1589988716.2511702,-0.04,-4.49,8.65,0.41803828456198405,0.46936780375267856,-0.6899118453125197,0.0014970663662178087,-0.0014331283818840076,0.0006845951987751031
1589988716.2611701,-0.03781206975676916,-4.4965637907296925,8.639060348783847,0.4088888888888889,0.4655555555555556,-0.68,0.0,-0.0019429953990657961,0.002420327730920028
