time,acc_x,acc_y,acc_z,mag_x,mag_y,mag_z,gyr_x,gyr_y,gyr_z
1589988753.0107262,-3.83,-0.83,8.91,0.31222222222222223,-0.3711111111111111,-0.6077777777777778,-0.004363323129985824,0.0,0.002181661564992912
1589988753.0207262,-3.82,-0.8239750839562344,8.926987541978116,0.31222222222222223,-0.37777777777777777,-0.6077777777777778,-0.001090830782496456,0.0,-0.001090830782496456
1589988753.0307262,-3.822770013432793,-0.8127700134327932,8.906149932836033,0.31222222222222223,-0.37777777777777777,-0.6077777777777778,-0.0004865075984125638,0.0006043231840838922,-0.0004865075984125638
1589988753.0407262,-3.8333507790168686,-0.8233507790168686,8.87,0.31222222222222223,-0.37777777777777777,-0.6077777777777778,0.0018218573618851595,0.0018161482752985603,0.0014563440721908076
1589988753.0507262,-3.8385548636113,-0.83,8.880115954720898,0.31222222222222223,-0.37777777777777777,-0.6077777777777778,0.00311485242171943,0.001248470708266394,0.002181661564992912
1589988753.0607262,-3.831752781291557,-0.83,8.9277305309591,0.31222222222222223,-0.37777777777777777,-0.6077777777777778,0.0023728603437743606,0.0019904627862114633,0.002181661564992912
1589988753.0707262,-3.83,-0.81,8.932040924617782,0.3055555555555556,-0.3655555555555556,-0.5844444444444444,0.001513770545643276,-0.0008682004427132441,-0.0004452606795664239
1589988753.0807261,-3.83,-0.806546906571731,8.905469065717309,0.3055555555555556,-0.3655555555555556,-0.5844444444444444,-0.002220852964414078,-0.00037667406063920727,-0.00105163938307529
1589988753.0907261,-3.83,-0.8032386909507165,8.848096727376792,0.3055555555555556,-0.3655555555555556,-0.5844444444444444,-0.0041866799407841125,-0.0007375444040930331,0.001090830782496456
1589988753.1007261,-3.8305027025587775,-0.82,8.890502702558777,0.3055555555555556,-0.3655555555555556,-0.5844444444444444,-0.003217656004933964,0.001118248953774158,0.001090830782496456
1589988753.110726,-3.85,-0.82,8.907757064405496,0.30493251789041553,-0.3648079103573875,-0.5870612026380326,-0.0008461644635322415,0.0019369952460286974,0.001090830782496456
1589988753.120726,-3.85,-0.82,8.890106886611822,0.3000296907255057,-0.3589245177594958,-0.6076530767306536,0.0010791712618553847,1.165952064107129e-05,0.001090830782496456
1589988753.130726,-3.8384588989251656,-0.8184588989251653,8.917705505374174,0.3,-0.3588888888888889,-0.6077777777777778,0.0020135535158561013,0.0018884082474499,0.00046136136667982266
1589988753.140726,-3.8332961835738217,-0.8174721376803661,8.893407632852357,0.3,-0.3588888888888889,-0.6077777777777778,0.0037280182760605052,0.0004555259285711372,0.00017977892535418153
1589988753.150726,-3.815906422618704,-0.797046788690648,8.94,0.3,-0.3588888888888889,-0.6077777777777778,0.0037190323692942668,0.0017351215431880133,-0.0014129761628422347
1589988753.160726,-3.83,-0.7933301052763113,8.938334947361843,0.2975949239671085,-0.36203398831651623,-0.60648273683699,0.0016367743633397824,0.0027276051458362386,-0.0018184034305574921
1589988753.170726,-3.833668838193226,-0.8136688381932258,8.918993485420323,0.2855555555555556,-0.37777777777777777,-0.6,-0.0006906226187795178,-0.0008004163274338763,-0.0016008326548677526
1589988753.180726,-3.8361031761885735,-0.8238968238114263,8.864928585697164,0.2855555555555556,-0.37777777777777777,-0.6,-0.001700310146987584,-0.001756584028246016,-0.003513168056492032
1589988753.190726,-3.83,-0.83,8.829857713429856,0.2855555555555556,-0.37777777777777777,-0.6,-0.0030636388252290626,-0.00022437457932528192,-0.0008819772602361509
1589988753.200726,-3.827910257107137,-0.823730771321411,8.870448714464315,0.2855555555555556,-0.37777777777777777,-0.6,-0.0013187863700002678,0.0006349196074888325,0.0006349196074888325
1589988753.210726,-3.822210550633255,-0.8066316518997663,8.898947246833723,0.2855555555555556,-0.37777777777777777,-0.6,-0.001940527897290707,-0.0006085634470920462,-0.0006085634470920462
1589988753.220726,-3.8309274452450595,-0.8,8.94,0.3,-0.3655555555555556,-0.6,0.0009390779091378136,0.0009896622002573611,0.0030701551830111785
1589988753.230726,-3.8530166412122897,-0.8,8.915866870301683,0.3,-0.3655555555555556,-0.6,-0.0008654035273477844,-0.0007617662730851741,-0.0004327017636738922
1589988753.240726,-3.85639241523381,-0.8,8.864810113021585,0.3,-0.3655555555555556,-0.6,0.002312837048773754,-0.0002623509675616845,0.001090830782496456
1589988753.250726,-3.83392575928009,-0.8,8.894765654293213,0.3,-0.3655555555555556,-0.6,0.0031297477119095916,-0.0018961722938333596,0.001090830782496456
1589988753.260726,-3.83,-0.8109392458100559,8.940939245810055,0.3005218032278088,-0.3655555555555556,-0.6013566883923029,0.0029651248749074407,-0.002181661564992912,0.00020491164838795157
1589988753.270726,-3.83,-0.8190753026070763,8.949075302607076,0.3050418347817091,-0.3655555555555556,-0.6131087704324436,0.000302606514208601,-0.002181661564992912,0.0019799238888538444
1589988753.280726,-3.837974335315426,-0.8079743353154262,8.84987167657713,0.3055555555555556,-0.3655555555555556,-0.6144444444444445,-0.0026095951296046293,0.001532762261086282,0.00022096573929491296
1589988753.290726,-3.8308075319527033,-0.8008075319527032,8.814037659763516,0.3055555555555556,-0.3655555555555556,-0.6144444444444445,-0.0002642642135574254,0.0030963162051177518,0.0010027427113106476
1589988753.300726,-3.8380022121085746,-0.8059933636742761,8.843984515239978,0.3055555555555556,-0.3655555555555556,-0.6144444444444445,-0.003709548571326183,0.00021792485288654696,-0.0004358497057730939
1589988753.310726,-3.8303970916211854,-0.8288087251364435,8.897220358651703,0.3055555555555556,-0.3655555555555556,-0.6144444444444445,-0.0012207787116546164,0.0010475148061104024,-0.002095029612220805
1589988753.320726,-3.8265383546414675,-0.82,8.94,0.3,-0.37777777777777777,-0.6077777777777778,0.0018460446455311065,0.0010488407704409364,0.00037760693151732514
1589988753.330726,-3.823315121479512,-0.8133697570409767,8.906848785204883,0.3,-0.37777777777777777,-0.6077777777777778,0.00363411600324602,-5.959815226500714e-06,0.0014524544382531078
1589988753.340726,-3.8334900361434014,-0.8034900361434014,8.878390397577414,0.3,-0.37777777777777777,-0.6077777777777778,0.0032212114728115892,0.0006588460220939326,0.001800957679268167
1589988753.350726,-3.838070534181561,-0.8080705341815612,8.95,0.3,-0.37777777777777777,-0.6077777777777778,0.0008803587116436736,-0.002181661564992912,0.0013013028533492383
1589988753.3607259,-3.8327763051600527,-0.8027763051600526,8.95,0.3,-0.37777777777777777,-0.6077777777777778,0.00030284791301890275,-0.002181661564992912,0.001878813651974009
1589988753.3707259,-3.838651977793199,-0.8,8.967303955586399,0.2942320148045338,-0.37200979258231165,-0.6077777777777778,0.0018875687412594816,-0.001237877194363171,0.003125445935622653
1589988753.3807259,-3.8234479700433583,-0.8265520299566417,8.901031730390224,0.2933333333333333,-0.3711111111111111,-0.6077777777777778,-0.0021629041771780095,0.0018243037667657275,0.0022004189528078144
1589988753.3907259,-3.81,-0.8345876745732653,8.79894313899357,0.2933333333333333,-0.3711111111111111,-0.6077777777777778,-0.0037729300119487817,0.001090830782496456,0.0002951965590185211
1589988753.4007258,-3.81,-0.82,8.85291096700904,0.2933333333333333,-0.3711111111111111,-0.6077777777777778,-0.002245169013398774,0.0009003084372788707,0.0011543382309023176
1589988753.4107258,-3.8113630165223733,-0.8193184917388132,8.903407541305933,0.29416628787478366,-0.3715654499519022,-0.6082321166185689,-0.003123810309523752,-0.002107320546010104,0.002107320546010104
1589988753.4207258,-3.8351453387139727,-0.81,8.939709322572055,0.3055555555555556,-0.37777777777777777,-0.6144444444444445,-0.000529561396939253,-0.000529561396939253,0.001090830782496456
1589988753.4307258,-3.8470625215294523,-0.81,8.900208405098175,0.3055555555555556,-0.37777777777777777,-0.6144444444444445,0.0013044502450693927,0.001090830782496456,0.0006635918573505826
1589988753.4407258,-3.8253902859111264,-0.81,8.827967619703756,0.3055555555555556,-0.37777777777777777,-0.6144444444444445,0.0028804996942684577,0.001090830782496456,-0.0024885070410475465
1589988753.4507258,-3.847834479246244,-0.8278344792462439,8.852993124522536,0.3055555555555556,-0.37777777777777777,-0.6144444444444445,0.0012089416174130571,0.0012089416174130571,0.0012089416174130571
1589988753.4607258,-3.833593582887701,-0.8135935828877006,8.938438502673797,0.3055555555555556,-0.37777777777777777,-0.6144444444444445,0.0019856620233250997,0.0019856620233250997,0.0019856620233250997
1589988753.4707258,-3.8384974997548778,-0.8192487498774389,8.96924874987744,0.3055555555555556,-0.3711111111111111,-0.6,-0.0012547281343052185,0.0020997128890885308,0.0010088821065920746
1589988753.4807258,-3.8220476517305615,-0.811023825865281,8.961023825865281,0.3055555555555556,-0.3711111111111111,-0.6,-0.0030491281935364715,0.0012025128594729045,0.00011168207697644854
1589988753.4907258,-3.8057000407000405,-0.7919000135666803,8.831400081400082,0.3055555555555556,-0.3711111111111111,-0.6,-0.012566382453521105,0.01059198021709776,-0.0015053494396355923
1589988753.5007257,-3.8270385632885633,-0.7990128544295212,8.874077126577127,0.3055555555555556,-0.3711111111111111,-0.6,-0.01877350706486948,0.01757499540486468,-0.0030571305924726854
1589988753.5107257,-3.8586652206115755,-0.8286652206115754,8.93733044122315,0.3055555555555556,-0.3711111111111111,-0.6,-0.016508063581920362,0.017501826468101136,-0.003272492347489368
1589988753.5207257,-3.8437171398527865,-0.8544242902208201,8.96442429022082,0.30103253884799624,-0.3711111111111111,-0.606332223390583,-0.010145815960964014,0.013900923504810252,-0.003272492347489368
1589988753.5307257,-3.828221168355249,-0.868221168355249,8.926442336710497,0.3,-0.3711111111111111,-0.6077777777777778,0.0002910606472459826,0.007635815477475192,-0.0023757019964902337
1589988753.5407257,-3.810138391894805,-0.8501383918948049,8.890276783789611,0.3,-0.3711111111111111,-0.6077777777777778,0.0032498480266541863,0.007635815477475192,-0.004348226916095703
1589988753.5507257,-3.8319835853282935,-0.8219835853282934,8.947934341313173,0.3,-0.3711111111111111,-0.6077777777777778,0.008726646259971648,0.004363323129985824,-0.002172708750401864
1589988753.5607257,-3.839323463530729,-0.8293234635307294,8.977293854122918,0.3,-0.3711111111111111,-0.6077777777777778,0.008726646259971648,0.004363323129985824,-0.0061759912918978085
1589988753.5707257,-3.8378479695272985,-0.8473840101575671,9.007384010157567,0.2933333333333333,-0.37333333333333335,-0.6077777777777778,0.013803369951663414,-0.007737035709941299,-0.009960157154809293
1589988753.5807257,-3.8908865760817193,-0.8298817898557708,8.98988178985577,0.2933333333333333,-0.37333333333333335,-0.6077777777777778,0.018563465392059036,-0.023075077875792736,-0.010888965735345271
1589988753.5907257,-3.7694674951002876,-0.7503911429881991,8.793466077311205,0.2933333333333333,-0.37333333333333335,-0.6077777777777778,0.0248176853178323,-0.05026869022136571,-0.0036343892536042834
1589988753.6007257,-2.9166633951005023,-0.5480460898241206,8.237124293341708,0.2933333333333333,-0.37333333333333335,-0.6077777777777778,0.028405859673335546,-0.02399333096196277,0.006620398993344639
1589988753.6107256,-3.3941865577889447,-0.5315797738693467,8.549984296482412,0.2933333333333333,-0.37333333333333335,-0.6077777777777778,-0.02637813149589302,0.1690977854541707,-0.020322547483325154
1589988753.6207256,-2.1361267182302726,-0.9452071895162907,9.022049653348295,0.3055555555555556,-0.3711111111111111,-0.6144444444444445,-0.13467445452244153,0.17790572256958245,-0.13024370036283997
1589988753.6307256,-1.4202355166417522,-1.2161139754110863,9.516693309740992,0.3055555555555556,-0.3711111111111111,-0.6144444444444445,-0.07552216953764604,0.06927366159428452,-0.22521211335936653
1589988753.6407256,-1.4728014738025355,-0.89,8.450693186785736,0.3055555555555556,-0.3711111111111111,-0.6144444444444445,0.07885682008959478,0.031967649985002844,-0.2753855547423264
1589988753.6507256,-1.6168634859176918,-0.89,8.673334478236432,0.3055555555555556,-0.3711111111111111,-0.6144444444444445,0.04671305880249682,0.06696863449762062,-0.3111008450613241
1589988753.6607256,-1.7591229253811902,-0.8701754149237619,8.93824585076238,0.3055555555555556,-0.3711111111111111,-0.6144444444444445,-0.00399976193274304,0.006085602307693422,-0.3855896204080263
1589988753.6707256,-1.9,-0.91,9.16,0.3055555555555556,-0.3655555555555556,-0.6144444444444445,-0.006544984694978735,0.01854412330243975,-0.4341506514335895
1589988753.6807256,-2.03276040250204,-0.89524884416644,9.00511286374762,0.3055555555555556,-0.3655555555555556,-0.6144444444444445,0.020005189825092744,0.037853341135219,-0.47035543487005055
1589988753.6907256,-2.1504853769051215,-0.8821682914549865,8.887346331639892,0.3055555555555556,-0.3655555555555556,-0.6144444444444445,0.02774381737531606,0.05241282396675183,-0.524244766696048
1589988753.7007256,-2.184748204165956,-0.923561153124467,8.882877693751066,0.3055555555555556,-0.3655555555555556,-0.6144444444444445,0.018155661757504552,0.04383727233381243,-0.596927720105462
1589988753.7107255,-2.2165466916851466,-0.9474100187638597,8.835179962472282,0.3055555555555556,-0.3655555555555556,-0.6144444444444445,0.015554154080797394,0.052508964589502966,-0.6350831660305004
1589988753.7207255,-2.213886204823025,-0.97,8.778016256453853,0.3055555555555556,-0.3655555555555556,-0.6,0.023349098657507495,0.05214348470735837,-0.6956538476990173
1589988753.7307255,-2.2772579218865143,-0.97,8.765161385408991,0.3055555555555556,-0.3655555555555556,-0.6,0.0206378163717575,0.051357015273008594,-0.7375598879514461
1589988753.7407255,-2.3669620179985738,-0.9726107567494652,8.723053783747327,0.3055555555555556,-0.3655555555555556,-0.6,0.02029946264478586,0.05273959673688683,-0.7804687089080461
1589988753.7507255,-2.431622762222265,-0.9968585358333494,8.844292679166747,0.3055555555555556,-0.3655555555555556,-0.6,0.02647118153888992,0.056266293247803426,-0.8157356740172121
1589988753.7607255,-2.456629013892052,-1.016629013892052,8.90434403704547,0.3055555555555556,-0.3655555555555556,-0.6,0.028480065578145496,0.0591417927212839,-0.8438860207441498
1589988753.7707255,-2.465371745844977,-1.03,8.958513016620092,0.3209830694056316,-0.35887029955385596,-0.5969144972299848,0.03197675217816231,0.061591388029953134,-0.8820319889404574
1589988753.7807255,-2.476940286944935,-1.1062312912522079,8.929179139165194,0.3388888888888889,-0.3511111111111111,-0.5933333333333334,0.03675448368627239,0.06402525324868379,-0.9394087929708922
1589988753.7907255,-2.51,-1.1410311184142958,8.861031118414296,0.3388888888888889,-0.3511111111111111,-0.5933333333333334,0.035922430775268833,0.07316064747437676,-0.9850916340420733
1589988753.8007255,-2.51,-1.162569066447571,8.882569066447571,0.3388888888888889,-0.3511111111111111,-0.5933333333333334,0.03435614699483514,0.07472693125481046,-1.0093690326387956
1589988753.8107255,-2.481522015186462,-1.1984779848135383,8.89,0.3388888888888889,-0.3511111111111111,-0.5933333333333334,0.030709288011582726,0.0760439405537073,-1.0457033162814602
1589988753.8207254,-2.49145850251746,-1.2028471658275133,8.854235829137567,0.35796311334885317,-0.3423687582336275,-0.6139970764982946,0.027111671618172024,0.07635815477475191,-1.0812028765011326
1589988753.8307254,-2.464444760882424,-1.2174079348040396,8.776665717352728,0.3655555555555556,-0.3388888888888889,-0.6222222222222222,0.028523216411287317,0.07870143240612429,-1.1290101705460915
1589988753.8407254,-2.495736924772019,-1.2607171155965022,8.710039618351033,0.3655555555555556,-0.3388888888888889,-0.6222222222222222,0.02968710665758623,0.07963064712224129,-1.1559763721227057
1589988753.8507254,-2.569570662223768,-1.2725760266573902,8.843005364433623,0.3655555555555556,-0.3388888888888889,-0.6222222222222222,0.03300592439233496,0.07977114758096192,-1.1814029103309305
1589988753.8607254,-2.561891466339552,-1.318651201962687,8.896759735623135,0.3655555555555556,-0.3388888888888889,-0.6222222222222222,0.03803194634552878,0.08228415855755884,-1.2015069981437059
1589988753.8707254,-2.585192357959271,-1.3172114630610936,8.957596178979637,0.37333333333333335,-0.32,-0.6222222222222222,0.0438954474963208,0.0847806188416148,-1.2340390073048932
1589988753.8807254,-2.5571658132467423,-1.3730710628200327,8.928739436326547,0.37333333333333335,-0.32,-0.6222222222222222,0.04536822488364158,0.09065062194250822,-1.2545070782119796
1589988753.8907254,-2.618279214021065,-1.399262520294742,8.832704092252612,0.37333333333333335,-0.32,-0.6222222222222222,0.041558831810060225,0.09160297021090358,-1.273554043579886
1589988753.9007254,-2.6280297060909303,-1.456207942636514,8.862118824363721,0.37333333333333335,-0.32,-0.6222222222222222,0.04057566467702669,0.0916297857297023,-1.2907325500547946
1589988753.9107254,-2.6104501706119074,-1.474887457347023,8.87,0.37333333333333335,-0.32,-0.6222222222222222,0.03929446116791462,0.09109664683747518,-1.3044126388833814
1589988753.9207253,-2.58661521980638,-1.47661521980638,8.87,0.3883768008605336,-0.3151108730536599,-0.6267352624803822,0.03707141065922044,0.09053895494720583,-1.3210970932771626
1589988753.9307253,-2.559109371986001,-1.5257083413706634,8.807328115958002,0.4177777777777778,-0.3055555555555556,-0.6355555555555555,0.03566618970999834,0.09281776895754111,-1.3462397217149538
1589988753.9407253,-2.566450248690055,-1.55,8.705973880894751,0.4177777777777778,-0.3055555555555556,-0.6355555555555555,0.037791859587466455,0.09470866917723691,-1.3649976677512343
1589988753.9507253,-2.57617072274612,-1.5808536137306017,8.727024336476722,0.4177777777777778,-0.3055555555555556,-0.6355555555555555,0.03817907738737596,0.09490227807719166,-1.3732867727079312
1589988753.9607253,-2.543921568627451,-1.6481045751633987,8.804117647058824,0.4177777777777778,-0.3055555555555556,-0.6355555555555555,0.04145869934782282,0.0962141268613704,-1.3818758426472424
1589988753.9707253,-2.5550283291892555,-1.7033522194595034,8.880866384054132,0.42166981435436174,-0.28674404543539994,-0.6316635189789717,0.046817396278113134,0.0964471066465336,-1.389176091744405
1589988753.9807253,-2.58,-1.753191194047114,8.893404402976444,0.4244444444444445,-0.2733333333333333,-0.6288888888888889,0.05361313223414117,0.09780340766840838,-1.3982361242959984
1589988753.9907253,-2.6009092935145977,-1.7809092935145978,8.834241883961074,0.4244444444444445,-0.2733333333333333,-0.6288888888888889,0.05226068902422513,0.0996953371584128,-1.4048578775110139
1589988754.0007253,-2.629731290421928,-1.829462580843856,8.888925161687713,0.4244444444444445,-0.2733333333333333,-0.6288888888888889,0.04481199708614848,0.09605173219555065,-1.4125525841630822
1589988754.0107253,-2.608819635400754,-1.886480972264657,8.875879756933836,0.4244444444444445,-0.2733333333333333,-0.6288888888888889,0.04703448145129031,0.09984380780791415,-1.4141661429122008
1589988754.0207253,-2.569194578561067,-1.9018793166908436,8.827852209496179,0.4655555555555556,-0.2344444444444445,-0.6288888888888889,0.046759293897602486,0.10250880760471784,-1.4236220290077222
1589988754.0307252,-2.541951198389157,-1.9654472037586332,8.75520319570442,0.4655555555555556,-0.2344444444444445,-0.6288888888888889,0.04180630761247368,0.10151821034769207,-1.4265938207787994
1589988754.0407252,-2.4800056525562115,-2.009983042331365,8.7,0.4655555555555556,-0.2344444444444445,-0.6288888888888889,0.0360004988135407,0.1014454129774758,-1.4322626672125411
1589988754.0507252,-2.4887865845999246,-1.983640246200226,8.7,0.4655555555555556,-0.2344444444444445,-0.6288888888888889,0.04078975429968659,0.09857185968578827,-1.4351362205042288
1589988754.0607252,-2.443753545002879,-2.0339541974966413,8.723123227498562,0.4655555555555556,-0.2344444444444445,-0.6288888888888889,0.044814706847678465,0.10153790753749417,-1.4422595839909622
1589988754.0707252,-2.4083055523356904,-2.0789259302190795,8.802314825547699,0.49367798771299415,-0.21516049096505802,-0.6546008268614041,0.046603725242234065,0.10096042879990103,-1.4521482797991367
1589988754.0807252,-2.4,-2.09,8.83,0.5044444444444445,-0.20777777777777776,-0.6644444444444444,0.05216243215694474,0.10260930706521558,-1.4649307225109527
1589988754.0907252,-2.3734028255297868,-2.1875229730574484,8.759074201412766,0.5044444444444445,-0.20777777777777776,-0.6644444444444444,0.048738935796915316,0.10459602489181456,-1.4906252762250534
1589988754.1007252,-2.4158104165670284,-2.26413458319384,8.841620833134057,0.5044444444444445,-0.20777777777777776,-0.6644444444444444,0.05099483918286209,0.10471975511965977,-1.5163341910107864
1589988754.1107252,-2.310406891495601,-2.246515762463343,8.86565615835777,0.5044444444444445,-0.20777777777777776,-0.6644444444444444,0.05212295775094823,0.11069713193496339,-1.5414920455226664
1589988754.1207252,-2.320454822211398,-2.2813644666341935,8.731667681441794,0.5311111111111111,-0.17777777777777778,-0.6644444444444444,0.05862371961584689,0.11772703549815793,-1.5878037628217263
1589988754.1307251,-2.345992450073064,-2.3579773502191914,8.8253056502679,0.5311111111111111,-0.17777777777777778,-0.6644444444444444,0.04283795561856181,0.11308416373425054,-1.624018162580204
1589988754.1407251,-2.295163384213208,-2.40916901127628,8.714659163915904,0.5311111111111111,-0.17777777777777778,-0.6644444444444444,0.037797133159161854,0.11064650006833028,-1.6638825996257989
1589988754.1507251,-2.2978818624044473,-2.4468227936066715,8.688940931202223,0.5311111111111111,-0.17777777777777778,-0.6644444444444444,0.05171781107423258,0.11895164771375391,-1.7064947664800971
1589988754.160725,-2.292642536031951,-2.4279276080958536,8.719429855872196,0.5311111111111111,-0.17777777777777778,-0.6644444444444444,0.056661007613308785,0.12320168534559259,-1.739315360393285
1589988754.170725,-2.2335737115461445,-2.504639432680783,8.77702190704488,0.5175270046314793,-0.11508190171793847,-0.6728038945857564,0.052684737106688015,0.12640642695084564,-1.781494200191185
1589988754.180725,-2.2171577062078227,-2.561369175168708,8.767157706207822,0.5166666666666667,-0.1111111111111111,-0.6733333333333333,0.057963385314377835,0.13213987852413683,-1.7975170987680755
1589988754.190725,-2.1946936859400674,-2.5976531570299666,8.706427900790235,0.5166666666666667,-0.1111111111111111,-0.6733333333333333,0.06359101360127146,0.13860233673818712,-1.8220215435747678
1589988754.200725,-2.1546958870472683,-2.6441301411909146,8.75178219766728,0.5166666666666667,-0.1111111111111111,-0.6733333333333333,0.06050793485153374,0.1386635698306071,-1.8435086562735319
1589988754.210725,-2.098136052794226,-2.679636541260442,8.782227405945331,0.5166666666666667,-0.1111111111111111,-0.6733333333333333,0.056762847887943405,0.14096014323907116,-1.852151374282727
1589988754.220725,-2.0737427317726906,-2.7338008775911633,8.815029072909237,0.5222286828687192,-0.08677729022713135,-0.6955813981415434,0.05358468366831352,0.1445382500432136,-1.8619205131203296
1589988754.230725,-2.047948365915535,-2.782051634084465,8.807948365915536,0.5255555555555556,-0.07222222222222223,-0.7088888888888889,0.049152597391338884,0.14456768477027956,-1.8680151089356813
1589988754.240725,-2.0180156021452946,-2.80465626523647,8.69740614334471,0.5255555555555556,-0.07222222222222223,-0.7088888888888889,0.04879592969366277,0.14239091276189475,-1.8693925056802474
1589988754.250725,-1.9926927642817847,-2.8619217071546457,8.677307235718215,0.5255555555555556,-0.07222222222222223,-0.7088888888888889,0.047199458664205385,0.14369592827267436,-1.8687399979248576
1589988754.260725,-1.960172758537951,-2.892370431096537,8.717284051827562,0.5255555555555556,-0.07222222222222223,-0.7088888888888889,0.042838664504377885,0.14398966328953214,-1.8718467777308048
1589988754.270725,-1.959431964885102,-2.9,8.73,0.5507074619158274,-0.030302378288435607,-0.7225128381673696,0.046595908552912776,0.1429607955259227,-1.864725511437539
1589988754.280725,-1.9176101862987107,-2.9423898137012894,8.704566111779226,0.5522222222222222,-0.027777777777777776,-0.7233333333333334,0.047830525920340726,0.14752284387200135,-1.8586809936484845
1589988754.290725,-1.8957944575109928,-2.999719398711525,8.636075058799468,0.5522222222222222,-0.027777777777777776,-0.7233333333333334,0.047221762278390554,0.14990257072242505,-1.8499369010769295
1589988754.300725,-1.906795864070625,-3.0535917281412503,8.70237725238844,0.5522222222222222,-0.027777777777777776,-0.7233333333333334,0.04324143453797476,0.15328286481654058,-1.8366997197157249
1589988754.310725,-1.8610013371537728,-3.046000382043935,8.706000382043936,0.5522222222222222,-0.027777777777777776,-0.7233333333333334,0.04254240051736178,0.1522800189110337,-1.828668890475173
1589988754.320725,-1.814491687461516,-3.108022166769291,8.717005541692323,0.5815095440256668,-0.03250153935897851,-0.779073719991502,0.036049841594507435,0.15162547876700738,-1.8130656120533586
1589988754.330725,-1.7747058267269775,-3.137647086636511,8.696470551151318,0.5866666666666667,-0.03333333333333333,-0.7888888888888889,0.03490658503988659,0.15162547876700738,-1.797304109216975
1589988754.340725,-1.7437996863974912,-3.1437996863974913,8.648998431987456,0.5866666666666667,-0.03333333333333333,-0.7888888888888889,0.027466742807263664,0.15094912947313258,-1.7763737145158194
1589988754.350725,-1.715716580492947,-3.2128502585211587,8.654283419507053,0.5866666666666667,-0.03333333333333333,-0.7888888888888889,0.01849259618199755,0.1487687078843397,-1.7499021881073682
1589988754.360725,-1.6959645753743693,-3.2791239861897075,8.66,0.5866666666666667,-0.03333333333333333,-0.7888888888888889,0.01974983350400032,0.14682195909681334,-1.7284879514445781
1589988754.370725,-1.6784712677600235,-3.3230574644799526,8.665764366119989,0.5924310327866549,-0.03333333333333333,-0.7920913145111045,0.018839400465853827,0.14239855605136745,-1.7024671307636192
1589988754.380725,-1.3655931954832088,-2.9394647308989588,8.18134697169673,0.5966666666666667,-0.03333333333333333,-0.7944444444444444,-0.00701401473666808,0.120402027315066,-1.6693817384600333
1589988754.390725,-1.4899091247509142,-3.207832789541682,8.36386186962139,0.5966666666666667,-0.03333333333333333,-0.7944444444444444,-0.02879079533253342,0.10428857754165281,-1.641056535175728
1589988754.400725,-1.5311223909688947,-3.326632827093316,8.306835864533419,0.5966666666666667,-0.03333333333333333,-0.7944444444444444,0.10672423309292091,0.16051947492936963,-1.5693043523607195
1589988754.4107249,-1.5071079886136516,-3.3834146932348133,8.671533523105808,0.5966666666666667,-0.03333333333333333,-0.7944444444444444,0.04860840010101476,0.13552523660291943,-1.5459960633363352
1589988754.4207249,-1.4614768053562888,-3.3518460066953613,9.030769966523193,0.5442323184016155,-0.09111812529890005,-0.800864976885063,-0.014832064232171083,0.07606935328207376,-1.5171810808969513
1589988754.4307249,-1.46,-3.35,9.04,0.5422222222222223,-0.09333333333333334,-0.8011111111111111,-0.016362461737446838,0.07417649320975901,-1.5162547876700738
1589988754.4407248,-1.4102316774769876,-3.4353171243251643,8.6418534198159,0.5422222222222223,-0.09333333333333334,-0.8011111111111111,0.02396637464067183,0.10209645685614885,-1.4425771058254337
1589988754.4507248,-1.409317532838378,-3.5279525985151343,8.653857795545402,0.5422222222222223,-0.09333333333333334,-0.8011111111111111,0.02280060606737809,0.095183863179241,-1.392256109186321
1589988754.4607248,-1.4245107087325073,-3.591574961127552,8.664296534082359,0.5422222222222223,-0.09333333333333334,-0.8011111111111111,0.017518347332622648,0.0860688850219825,-1.3593419229208168
1589988754.4707248,-1.4019207951305956,-3.6335099006086757,8.602118807304107,0.521942796483208,-0.06174422785525336,-0.7508025357200948,0.02711902482261655,0.08841507488795038,-1.3150002903616713
1589988754.4807248,-1.3640088941815678,-3.64,8.65665184303072,0.4844444444444445,-0.0033333333333333327,-0.6577777777777778,0.03185031843948865,0.08646393281334193,-1.259313547697084
1589988754.4907248,-1.3695088176115517,-3.6872103207480174,8.619508817611552,0.4844444444444445,-0.0033333333333333327,-0.6577777777777778,0.030078216049023474,0.0818123086872342,-1.2062637637376417
1589988754.5007248,-1.3384379564676394,-3.703047445584549,8.61,0.4844444444444445,-0.0033333333333333327,-0.6577777777777778,0.029282038610534453,0.07828422756444005,-1.1531450884613086
1589988754.5107248,-1.3145451518380395,-3.6963645444858817,8.686367874267448,0.4844444444444445,-0.0033333333333333327,-0.6577777777777778,0.02905586444908464,0.07407726073447331,-1.0974731835526044
1589988754.5207248,-1.1826538160469668,-3.621411350293542,9.386730919765167,0.49367242878886713,0.049573776908023476,-0.6337850184822788,0.03235517239889327,0.07187772210126755,-1.0373734992836596
1589988754.5307248,-1.0569889369889371,-3.480966810966811,8.074455667789001,0.5011111111111111,0.09222222222222222,-0.6144444444444445,0.1199964580792105,0.1621049398581766,-0.9398260121545056
1589988754.5407248,-1.1337737036484987,-3.6335312432718903,8.968088305924049,0.5011111111111111,0.09222222222222222,-0.6144444444444445,0.06849583035653477,0.07557588777498576,-0.9184795188620161
1589988754.5507247,-1.1616196815976259,-3.6151934875887237,9.464629666760235,0.5011111111111111,0.09222222222222222,-0.6144444444444445,-0.09663469425836782,-0.03591872132915166,-0.9053223157666128
1589988754.5607247,-1.1132510193634935,-3.566124830106084,8.553394877588124,0.5011111111111111,0.09222222222222222,-0.6144444444444445,0.01410826809899507,0.03868112179495919,-0.8264427101695192
1589988754.5707247,-1.1153957565747683,-3.6546525219158936,8.988851480116885,0.5067546125721707,0.14959782040966135,-0.6088009429833848,0.05804145534654372,0.07274029966395659,-0.7383902999601503
1589988754.5807247,-1.12,-3.67,9.15,0.5077777777777778,0.16,-0.6077777777777778,0.04799655442984406,0.06872233929727672,-0.7308566242726255
1589988754.5907247,-1.064452394691287,-3.5985816503173687,8.364398153491056,0.5077777777777778,0.16,-0.6077777777777778,0.04193725065337327,0.05141004279307446,-0.6555481344793457
1589988754.6007247,-1.1033837158242623,-3.694393676766276,8.579443481476346,0.5077777777777778,0.16,-0.6077777777777778,0.03120990173013127,0.041914357889763464,-0.5960234201347606
1589988754.6107247,-1.1052546633973743,-3.73,8.685424438995625,0.5077777777777778,0.16,-0.6077777777777778,0.024608511363210805,0.028565316438463866,-0.5632205570206771
1589988754.6207247,-1.0936315789473685,-3.7336315789473686,8.70357894736842,0.5106023391812865,0.1765438596491228,-0.60253216374269,0.028648661077143762,0.02190847508424461,-0.5227318521869464
1589988754.6307247,-1.1,-3.6991487344272658,8.78,0.5155555555555555,0.20555555555555555,-0.5933333333333334,0.03288733995271527,0.022721729094261983,-0.45898431189796146
1589988754.6407247,-1.1069918889774486,-3.72894322284214,8.710081110225515,0.5155555555555555,0.20555555555555555,-0.5933333333333334,0.03446317452442668,0.01930682007487961,-0.4053987270916816
1589988754.6507246,-1.0988861740508142,-3.7055446962032565,8.674443087025407,0.5155555555555555,0.20555555555555555,-0.5933333333333334,0.027995769012369623,0.014785632702264274,-0.36045216061837465
1589988754.6607246,-1.1143942918376415,-3.738304017145396,8.67,0.5155555555555555,0.20555555555555555,-0.5933333333333334,0.01966138308928461,0.01090830782496456,-0.31261189989834803
1589988754.6707246,-1.130335776523751,-3.8148321117381245,8.67,0.5219983712063883,0.21414597642333258,-0.6003130502884022,0.017489920056758,0.00985410457928281,-0.25891548224918687
1589988754.6807246,-1.12,-3.82,8.713916747809153,0.5288888888888889,0.22333333333333333,-0.6077777777777778,0.015763639982729866,0.008127824505254675,-0.20082302912562058
1589988754.6907246,-1.1106466632177963,-3.815323331608898,8.67517330574237,0.5288888888888889,0.22333333333333333,-0.6077777777777778,0.012210758650625098,0.0045749431731499065,-0.15222760832982357
1589988754.7007246,-1.1,-3.8301159030628926,8.622185444900628,0.5288888888888889,0.22333333333333333,-0.6077777777777778,0.009165507185546014,-0.0002257519942266402,-0.10416710662817516
1589988754.7107246,-1.0894754876664259,-3.8336887191660645,8.680524512333573,0.5288888888888889,0.22333333333333333,-0.6077777777777778,0.010391500143679419,-0.002181661564992912,-0.051215569161306415
1589988754.7207246,-1.0855256190171376,-3.8431537141028254,8.7342049521371,0.5338005502374555,0.23806831737903342,-0.6034800740977819,0.01090830782496456,-0.004592667691489486,-0.006433200644935019
1589988754.7307246,-1.083368200314552,-3.8501046009436553,8.750104600943656,0.5377777777777778,0.25,-0.6,0.008738056452893385,-0.01016207031509736,0.03840956873078785
1589988754.7407246,-1.1140730538922154,-3.860443832335329,8.692297724550897,0.5377777777777778,0.25,-0.6,0.007635815477475192,-0.011999138607461015,0.07356980840090707
1589988754.7507246,-1.1094715719063546,-3.8494715719063546,8.67,0.5377777777777778,0.25,-0.6,0.0039036419306729356,-0.014238442735542369,0.10265483798623838
1589988754.7607245,-1.0830175182769426,-3.8230175182769424,8.641695863794904,0.5377777777777778,0.25,-0.6,0.003416662486772552,-0.016506631876730023,0.12484974995421454
1589988754.7707245,-1.0643323281747838,-3.8156676718252163,8.688012061902594,0.5724135500429879,0.25692715445304204,-0.6245599112426036,0.002508581862375711,-0.016216798341536554,0.14948270008123804
1589988754.7807245,-1.0794354310658423,-3.832956954043895,8.636344367648842,0.5988888888888889,0.26222222222222225,-0.6433333333333333,-0.0038560147289688597,-0.01809839981864485,0.17377927712952773
1589988754.7907245,-1.1118855124802969,-3.861885512480297,8.651127915560965,0.5988888888888889,0.26222222222222225,-0.6433333333333333,-0.004157645624556915,-0.0184412845497253,0.19062726617609896
1589988754.8007245,-1.0984956621378295,-3.853746385114858,8.615486986413488,0.5988888888888889,0.26222222222222225,-0.6433333333333333,-0.0033271916157337203,-0.017453292519943295,0.2065499127695406
1589988754.8107245,-1.0904722766907256,-3.870944553381451,8.632361383453627,0.5988888888888889,0.26222222222222225,-0.6433333333333333,-0.00324673364988442,-0.020244766220196806,0.22106066498996446
1589988754.8207245,-1.1146872629822522,-3.8818764221064876,8.744061788946757,0.6629481496463344,0.2799296601551747,-0.6433333333333333,-0.004738166938341283,-0.022907446432425576,0.2336079453631257
1589988754.8307245,-1.12,-3.85,8.779967561894766,0.7355555555555555,0.3,-0.6433333333333333,-0.005457692360853685,-0.024541038769891704,0.2448835491616187
1589988754.8407245,-1.0950413645184354,-3.7786896129098153,8.65737922581963,0.7355555555555555,0.3,-0.6433333333333333,-0.0028835545207408103,-0.026957814433412056,0.2525228139789283
1589988754.8507245,-1.0530275128795352,-3.6651375643976762,8.446926449632796,0.7355555555555555,0.3,-0.6433333333333333,-0.0030072876258432934,-0.02786622470839762,0.25974781763954463
1589988754.8607244,-1.0868776713736947,-3.7871308770221286,8.686371260076829,0.7355555555555555,0.3,-0.6433333333333333,-0.011317952171732286,-0.025457321666844192,0.27749447332664817
1589988754.8707244,-1.1222075831391656,-3.86,8.66428341453082,0.8832183388641766,0.330906163948316,-0.7539577773070677,-0.016858453552254484,-0.02569831885129058,0.29146388511849936
1589988754.8807244,-1.1072999807210333,-3.837299980721033,8.698924956622324,1.4044444444444444,0.44,-1.1444444444444444,-0.015241636788697527,-0.02585541819937902,0.3199952205603805
1589988754.8907244,-1.1364847325471583,-3.9245906482311064,8.63675763372642,1.4044444444444444,0.44,-1.1444444444444444,-0.01664261165824393,-0.026003095132947514,0.34717833832642403
1589988754.9007244,-1.1942664762795736,-4.01819985720968,8.613933380930106,1.4044444444444444,0.44,-1.1444444444444444,-0.016595161920374333,-0.02575087348013046,0.3811506536706136
1589988754.9107244,-1.218296509305855,-4.021703490694145,8.67637207444684,1.4044444444444444,0.44,-1.1444444444444444,-0.01654828374613379,-0.02889496510134346,0.40800337048395485
1589988754.9207244,-1.223168787761923,-4.0008917170158975,8.751783434031795,1.2941330171925363,0.28566520499159653,-1.0761323220636756,-0.014774851182213,-0.033966872906737146,0.4349600920926498
1589988754.9307244,-1.1939443037974684,-3.97,8.671832911392405,0.92,-0.23777777777777775,-0.8444444444444444,-0.011108247441806949,-0.038839651370092806,0.4873837459388
1589988754.9407244,-1.1960038715554544,-3.9219690275563655,8.641988385333638,0.92,-0.23777777777777775,-0.8444444444444444,-0.010472397833152552,-0.037960066588503524,0.518591089707293
1589988754.9507244,-1.1778469920544834,-3.878923496027242,8.624461748013621,0.92,-0.23777777777777775,-0.8444444444444444,-0.011512437399761008,-0.04010889447886174,0.5399272618571173
1589988754.9607244,-1.1732664722337955,-3.8744221574112654,8.659799416701388,0.92,-0.23777777777777775,-0.8444444444444444,-0.011034373521610432,-0.04350716560321236,0.5535117090249703
1589988754.9707243,-1.207681882112262,-3.8764636235775476,8.702927247155095,0.8131228458992172,-0.11164701871030983,-0.7957210359573229,-0.01251778882454212,-0.04472406208235469,0.5526525325524916
1589988754.9807243,-1.2594890084190833,-3.87,8.709489008419084,0.6177777777777778,0.11888888888888888,-0.7066666666666667,-0.017453292519943295,-0.04472406208235469,0.5399612373357456
1589988754.9907243,-1.2815655598126863,-3.872811480062438,8.703450759188307,0.6177777777777778,0.11888888888888888,-0.7066666666666667,-0.017453292519943295,-0.04411069228305822,0.5338275393427809
1589988755.0007243,-1.262312525499796,-3.8765312117503057,8.612312525499796,0.6177777777777778,0.11888888888888888,-0.7066666666666667,-0.01739022816993116,-0.04241627181733751,0.5164418842354889
1589988755.0107243,-1.3236130994989264,-3.7896403006442374,8.656746599856836,0.6177777777777778,0.11888888888888888,-0.7066666666666667,-0.017098401617549136,-0.039256829132215426,0.4677179039754968
1589988755.0207243,-1.363295121119072,-3.731676219720232,8.691790856363015,0.6112591455324311,0.13136741347283823,-0.7066666666666667,-0.01580141519885475,-0.0365397049841625,0.42212650299037824
1589988755.0307243,-1.33,-3.7629467461812096,8.754106507637582,0.5788888888888889,0.19333333333333333,-0.7066666666666667,-0.007187864983512166,-0.03281451357368628,0.3863175276043454
1589988755.0407243,-1.3248019269330464,-3.8107922922678146,8.648019269330463,0.5788888888888889,0.19333333333333333,-0.7066666666666667,-0.010254860334408105,-0.03106707088128735,0.3561831117996616
1589988755.0507243,-1.3486298586005518,-3.83,8.638173144800735,0.5788888888888889,0.19333333333333333,-0.7066666666666667,-0.009717837548142053,-0.02898174535690062,0.3352836082037162
1589988755.0607243,-1.3304333050127441,-3.7728076596300895,8.672374354617345,0.5788888888888889,0.19333333333333333,-0.7066666666666667,-0.009503651991520493,-0.027686683998401483,0.32324700291450975
1589988755.0707242,-1.284485070984445,-3.734601362392038,8.688737559153704,0.5788888888888889,0.19684570167434162,-0.7066666666666667,-0.007021544619415943,-0.02836160034490785,0.3182091103475784
1589988755.0807242,-1.366876704142233,-3.8918630710043702,8.73813692899563,0.5788888888888889,0.20555555555555555,-0.7066666666666667,-0.007501320560468476,-0.0263174079862102,0.31913525133871673
1589988755.0907242,-1.325496323914455,-3.87099264782891,8.645638130747155,0.5788888888888889,0.20555555555555555,-0.7066666666666667,-0.004839129255008472,-0.023967339763266215,0.31643373927893964
1589988755.1007242,-1.2988049252767986,-3.8264147758303957,8.644024626383992,0.5788888888888889,0.20555555555555555,-0.7066666666666667,-0.006455837807138551,-0.02425900207401234,0.3025924295818587
1589988755.1107242,-1.2861091379416536,-3.927690775831982,8.707963620686115,0.5788888888888889,0.20555555555555555,-0.7066666666666667,-0.00044426904808484466,-0.0213822675207021,0.28083738474396314
1589988755.1207242,-1.2409977189564225,-4.020997718956423,8.72,0.5698866078453114,0.18154947277268238,-0.6959972965409452,0.002181661564992912,-0.019089123988262898,0.2424867894249462
1589988755.1307242,-1.2089266789348823,-3.9612433762720882,8.714463339467441,0.5488888888888889,0.12555555555555556,-0.6711111111111111,0.002785617539107749,-0.014365696993778128,0.17147026474492053
1589988755.1407242,-2.0542932593912986,-5.3253647586980914,6.905236020334059,0.5488888888888889,0.12555555555555556,-0.6711111111111111,0.0016768273545683951,-0.007969394944334872,0.07239841094793571
1589988755.1507242,-1.9675864875057059,-7.075485977413016,-1.467961217077189,0.5488888888888889,0.12555555555555556,-0.6711111111111111,-0.751398810604132,0.7749196883241042,-2.588600986483641
1589988755.1607242,0.6191210350584307,-4.947667779632721,-5.683352253756261,0.5488888888888889,0.12555555555555556,-0.6711111111111111,-1.6236944264545043,1.0908141195554542,-7.477195296714811
1589988755.1707242,-0.3541806343906512,-5.073706844741236,0.5625836393989987,0.5488888888888889,0.12555555555555556,-0.6711111111111111,-1.037845798802403,-1.4824896960376732,-11.68048734100362
1589988755.1807241,-0.46043267854074793,-4.551878758375809,1.9204799266937753,0.4955555555555556,0.21666666666666667,-0.6266666666666667,-1.1764731810427294,-0.6418211616240824,-11.839087068443428
1589988755.1907241,-1.050468009200582,-5.243173731399333,5.191458480026288,0.4955555555555556,0.21666666666666667,-0.6266666666666667,-0.7496194462687724,0.46439661420613043,-11.190585111802008
1589988755.2007241,-0.7083815028901734,-3.8933097837722115,2.5884906872190108,0.4955555555555556,0.21666666666666667,-0.6266666666666667,0.060259117812011986,1.6700233951227952,-10.481254929894149
1589988755.210724,-0.8767739816031538,-4.124513797634691,3.921882391590013,0.4955555555555556,0.21666666666666667,-0.6266666666666667,0.6876835200176836,2.482833708673687,-9.904846711133969
1589988755.220724,-1.968454647256439,-4.251791713325868,8.394837625979843,0.45327112106507406,0.2912019410227697,-0.6245166106756252,1.7815660886827476,3.0759192657293712,-9.139211165876127
1589988755.230724,-2.4411496322977637,-3.544553504427435,11.736458051928562,0.3644444444444445,0.4477777777777778,-0.62,2.798199679889754,1.8767898323205636,-8.270048036586802
1589988755.240724,0.6710100558659218,-0.17370055865921796,-0.5877251396648044,0.3644444444444445,0.4477777777777778,-0.62,1.799823013949684,-0.13564182173034253,-7.246140983117074
1589988755.250724,-0.363334323922734,-1.2002789747399703,-0.4868551263001486,0.3644444444444445,0.4477777777777778,-0.62,0.2510538131250952,0.08244780271256451,-6.687682218149685
1589988755.260724,1.5923655012844102,-1.794405436426242,11.049585344968936,0.3644444444444445,0.4477777777777778,-0.62,-0.6936815309312504,0.832683588131177,-6.108444705001576
1589988755.270724,1.655022482823123,-2.3955484010216193,17.448612180294255,0.29234209064274896,0.4822615122046756,-0.6180406969075626,-0.908947826221466,1.1289386394129433,-5.598744849201798
1589988755.280724,-1.1275431099600735,-1.151109312614654,6.341750296751916,0.16,0.5455555555555556,-0.6144444444444445,0.10213745131323976,0.3936016685417183,-4.920485781163582
1589988755.290724,0.2986888528654525,-1.4058319824544674,6.8719757795365695,0.16,0.5455555555555556,-0.6144444444444445,0.6658659102563691,0.11825346286359169,-4.409434992611716
1589988755.300724,1.0813640713843382,-1.2545814333164442,4.919840117097337,0.16,0.5455555555555556,-0.6144444444444445,0.47125732112211177,0.2684859845970633,-4.01530088586505
1589988755.310724,3.9598287152733445,-5.764107185202751,6.4497221867532515,0.16,0.5455555555555556,-0.6144444444444445,-0.18129032153599334,0.24551783151694107,-3.605460081692558
1589988755.320724,18.22110669269076,-25.159139198482336,11.713541526057533,0.16,0.5455555555555556,-0.6144444444444445,-0.5727100981600372,0.18459321809784685,-2.7425004888796347
1589988755.330724,0.24381857033154153,1.1476241193950119,15.060173950786284,0.04444444444444445,0.5811111111111111,-0.6077777777777778,0.33186152850525047,0.14927850449386612,-1.438136611608415
1589988755.340724,0.6954734999513761,0.8474717494894486,5.100677623261694,0.04444444444444445,0.5811111111111111,-0.6077777777777778,0.5698183249936285,0.0977899934710419,-1.1671131105821746
1589988755.350724,0.7500787163184983,0.4825128670905237,5.008195579775962,0.04444444444444445,0.5811111111111111,-0.6077777777777778,0.041525546754326154,0.06491153203138916,-0.9563286719527784
1589988755.360724,1.1151593248561913,0.038066908870723615,8.738367014835,0.04444444444444445,0.5811111111111111,-0.6077777777777778,-0.4952342855260684,-0.012139476150796497,-0.7459534473654625
1589988755.370724,9.594541490719827,-9.42479387213984,10.182025925562211,0.032826890132792136,0.5852461728152586,-0.6052179776752104,-0.3340967554643345,0.025434364563458562,-0.5403200342151422
1589988755.380724,2.275922416345869,-1.7349084140615085,10.463678666610264,-0.021111111111111112,0.6044444444444445,-0.5933333333333334,0.2523231558870406,0.05227750804560525,-0.44033556368067195
1589988755.390724,2.0074037417906876,-0.8015594473776192,7.96207822071782,-0.021111111111111112,0.6044444444444445,-0.5933333333333334,0.23924598628100827,-0.0197058112289785,-0.21449695645410372
1589988755.400724,4.668946554621849,-3.6359149579831933,8.98963025210084,-0.021111111111111112,0.6044444444444445,-0.5933333333333334,-0.1216891221045648,-0.04109872722663128,-0.0818425586164967
1589988755.410724,2.5568973141172617,-3.5156223386832623,9.381688503111693,-0.021111111111111112,0.6044444444444445,-0.5933333333333334,-0.13401175944675586,0.08496376633849996,0.007122199607891618
1589988755.420724,2.7596774877997032,-2.9841191031897587,8.570893273923192,-0.03566859985383219,0.6000330842193775,-0.6017149177609606,0.021367291194362294,-0.013265911083109969,0.036944785268147616
1589988755.430724,3.2052496271336244,-2.9847503728663756,8.301998674252888,-0.057777777777777775,0.5933333333333334,-0.6144444444444445,0.02099844737037673,-0.022116598634383648,0.01581695596083852
1589988755.440724,3.163545268739988,-3.026454731260012,8.153716511075512,-0.057777777777777775,0.5933333333333334,-0.6144444444444445,0.015943736492594167,-0.022622069722161905,0.005707534205273396
1589988755.450724,3.0378375354617013,-3.039054021656611,8.380136053062692,-0.057777777777777775,0.5933333333333334,-0.6144444444444445,0.008711892345404378,-0.013355278335218827,0.0007960140081005624
1589988755.4607239,2.889212987386696,-3.049212987386696,8.854270778379934,-0.057777777777777775,0.5933333333333334,-0.6144444444444445,2.861658616016313e-05,0.007521349132834539,0.0024472151140769853
1589988755.4707239,2.932552242212953,-3.1054925397912387,8.777246259519808,-0.05202653440965089,0.5928540630526561,-0.6161218904268148,-0.00044935736087773487,0.016961604885283817,0.003272492347489368
1589988755.4807239,2.800443740095087,-2.998958003169572,9.123724247226624,-0.031111111111111114,0.5911111111111111,-0.6222222222222222,0.007335880230623948,0.0018938274520203923,0.0028588928788486753
1589988755.4907238,3.0022395444172942,-3.1192744199196265,8.54791857670793,-0.031111111111111114,0.5911111111111111,-0.6222222222222222,-0.00923248739687801,-0.007343320654680145,0.0
1589988755.5007238,2.8149439115082964,-3.1006902477892697,9.073787769896573,-0.031111111111111114,0.5911111111111111,-0.6222222222222222,-0.007441461288124356,-0.006156276316277064,-0.00019435418935083562
1589988755.5107238,2.9269966591144736,-3.13197995468684,8.720100226565801,-0.031111111111111114,0.5911111111111111,-0.6222222222222222,-0.003596461675542345,-0.0020700274482019646,-0.001090830782496456
1589988755.5207238,2.9281491216703994,-3.0910186402088,8.882123910186403,-0.032582480301599936,0.5919033868290666,-0.6214299465042668,0.003383608757094129,0.003383608757094129,-0.000979714372891695
1589988755.5307238,2.9902604446254375,-3.09878255557818,8.517219887825556,-0.043797024724037306,0.5979419876719175,-0.6153913456614158,0.004230520544855802,0.004230520544855802,-0.00013280258513002213
1589988755.5407238,2.805494612947035,-3.0927473064735174,9.143680217292893,-0.045555555555555564,0.5988888888888889,-0.6144444444444445,0.003763953835932905,0.0015403577530361454,-0.0018819769179664525
1589988755.5507238,2.835874332277048,-3.107937166138524,8.832288094160253,-0.045555555555555564,0.5988888888888889,-0.6144444444444445,0.0004500405350547623,0.004025792728694752,-0.00022502026752738115
1589988755.5607238,2.9742550931531877,-3.1157449068468126,8.665321521891531,-0.045555555555555564,0.5988888888888889,-0.6144444444444445,-0.0017175029056042176,0.0026458202243816063,0.0008587514528021088
1589988755.5707238,2.997290228705742,-3.094532328470694,8.505467671529306,-0.044340517437931916,0.5982813698300771,-0.6132294063268208,0.0005964304412746917,0.004760943424168952,0.0001988101470915639
1589988755.5807238,3.014379527067686,-3.0833889767991263,8.55900944973144,-0.03888888888888889,0.5955555555555555,-0.6077777777777778,0.0022988184782481757,0.0033805446199448603,0.0008474123151861579
1589988755.5907238,2.9816619492299807,-3.111432614945731,8.61977066571575,-0.03888888888888889,0.5955555555555555,-0.6077777777777778,0.0002594275620143014,-0.003247475857815231,0.0003375645861276893
1589988755.6007237,2.9651847380743344,-3.114445785776997,8.62370683347966,-0.03888888888888889,0.5955555555555555,-0.6077777777777778,-0.0019391815660962295,-0.007635815477475192,-0.0002827835945332578
1589988755.6107237,2.9834013819095477,-3.071133793969849,8.519622068676716,-0.03888888888888889,0.5955555555555555,-0.6077777777777778,-0.0042396453936537825,-0.00747091182903247,-0.001090830782496456
1589988755.6207237,3.0476086815538594,-3.1,8.544706543591516,-0.038018115393761216,0.5970483101186316,-0.6085241550593158,-0.00048020229695319456,-0.002783989559054759,-0.0007244536911704992
1589988755.6307237,2.8718937897739742,-3.100270541396282,8.82,-0.031111111111111114,0.6088888888888889,-0.6144444444444445,0.004392834618286223,0.0011793652473976544,0.0022111730532933115
1589988755.6407237,2.921927091963546,-3.11,8.822581844005208,-0.031111111111111114,0.6088888888888889,-0.6144444444444445,0.00404597645424002,0.004081687638337372,0.0029908568558409164
1589988755.6507237,2.9053237336339643,-3.1072827897204642,8.770221373850214,-0.031111111111111114,0.6088888888888889,-0.6144444444444445,0.0,0.0011976807166860061,0.002181661564992912
1589988755.6607237,2.9791417716148194,-3.107821835644443,8.64128734257777,-0.031111111111111114,0.6088888888888889,-0.6144444444444445,-0.0014220498494310224,-0.002088043370896188,0.0016128416252205028
1589988755.6707237,2.92,-3.13,8.741767093257495,-0.030397953943990207,0.6088888888888889,-0.6137312872773235,-0.00475401350089417,0.004129942992789787,0.00035007020579405466
1589988755.6807237,2.9074462651628004,-3.12246775909768,8.84753224090232,-0.024444444444444446,0.6088888888888889,-0.6077777777777778,0.0019124708062393707,0.0032771815966501313,0.002450852323746453
1589988755.6907237,2.875328615028415,-3.096447589981057,8.84868553988634,-0.024444444444444446,0.6088888888888889,-0.6077777777777778,0.003782061399878985,0.0051887073247294455,0.00038750782007122576
1589988755.7007236,2.908300611709875,-3.088300611709875,8.73339877658025,-0.024444444444444446,0.6088888888888889,-0.6077777777777778,-4.0989563338783347e-05,-0.0019962870591646474,0.0015025693574917684
1589988755.7107236,2.9410309840715687,-3.1197938031856864,8.67,-0.024444444444444446,0.6088888888888889,-0.6077777777777778,-0.004295845380293975,-0.005476646495712896,-0.0010458456160352232
1589988755.7207236,2.979163757364172,-3.1121672485271654,8.67,-0.024444444444444446,0.6088888888888889,-0.6077777777777778,-0.001800061204522163,-0.0063085745543035,0.0006180105011459847
1589988755.7307236,2.9473586231787703,-3.1264781642383603,8.75088045894041,-0.045555555555555564,0.6022222222222222,-0.6077777777777778,-0.0007066580965271097,0.0008987444395117828,-0.0002881295144770097
1589988755.7407236,2.9234562999829037,-3.0946083999772047,8.758847900005698,-0.045555555555555564,0.6022222222222222,-0.6077777777777778,0.0027697938921702556,-0.0008394815548368999,-0.002895468506000034
1589988755.7507236,2.9286805986009035,-3.108680598600903,8.650555211192774,-0.045555555555555564,0.6022222222222222,-0.6077777777777778,0.0036437012996839912,0.003272492347489368,0.001090830782496456
1589988755.7607236,2.921252457274418,-3.101252457274418,8.709980341804659,-0.045555555555555564,0.6022222222222222,-0.6077777777777778,-0.0004077213081481925,0.003272492347489368,0.001090830782496456
1589988755.7707236,2.9201365129474,-3.1098634870526,8.7302730258948,-0.045464546923955663,0.6022222222222222,-0.6077777777777778,-0.001090830782496456,0.0011057220350197642,0.002181661564992912
1589988755.7807236,2.9290830169361377,-3.1009169830638625,8.748166033872275,-0.039500210931463865,0.6022222222222222,-0.6077777777777778,-0.001090830782496456,0.0020816342296840033,0.002181661564992912
1589988755.7907236,2.918407843137255,-3.0878980392156863,8.744776470588235,-0.03888888888888889,0.6022222222222222,-0.6077777777777778,0.0013201191352094366,0.0053985429314138324,0.0030432039947763875
1589988755.8007236,2.9431602810227924,-3.0813679437954415,8.669151213136182,-0.03888888888888889,0.6022222222222222,-0.6077777777777778,0.0017340030047551089,0.0004939527021793853,0.0018832225248343766
1589988755.8107235,2.9003298341638755,-3.089934033167225,8.789076464341148,-0.03888888888888889,0.6022222222222222,-0.6077777777777778,-0.001069243186951994,-0.0032437088867634184,1.4391730362974843e-05
1589988755.8207235,2.9388182899246855,-3.09,8.7220679926318,-0.03888888888888889,0.6022222222222222,-0.6077777777777778,-0.0021494354218394387,-0.006448306265518316,-0.003175813918028948
1589988755.8307235,2.9413929359384627,-3.0927858718769254,8.747463576553836,-0.03888888888888889,0.6022222222222222,-0.6144444444444445,-0.003272492347489368,-0.004363323129985824,-0.0017258243450766811
1589988755.8407235,2.9497296813818052,-3.10945936276361,8.672432867563753,-0.03888888888888889,0.6022222222222222,-0.6144444444444445,-0.003272492347489368,-0.004363323129985824,0.0010023692215538082
1589988755.8507235,2.894012555797884,-3.0973249628014106,8.708662481400706,-0.03888888888888889,0.6022222222222222,-0.6144444444444445,0.004217422483958597,0.003418392993516594,-0.0009449301364692298
1589988755.8607235,2.9196600150832634,-3.0802266566111576,8.700113328305578,-0.03888888888888889,0.6022222222222222,-0.6144444444444445,0.0032848545479147164,0.0043509609295604755,-1.2362200425348763e-05
1589988755.8707235,2.9108605688543414,-3.1074182934369756,8.846230898330536,-0.03888888888888889,0.6022222222222222,-0.6144444444444445,-0.000715336783787093,0.004363323129985824,0.0019939145656382305
1589988755.8807235,2.977289685563765,-3.0906775786090583,8.724743050263411,-0.03888888888888889,0.6022222222222222,-0.6222222222222222,-0.0031246676266249,0.002033836844128444,0.001090830782496456
1589988755.8907235,2.94949537788675,-3.0976261555283124,8.773383088698187,-0.03888888888888889,0.6022222222222222,-0.6222222222222222,-0.001608723307011605,0.000517892524515149,0.001090830782496456
1589988755.9007235,2.9586553376906317,-3.1,8.654033986928106,-0.03888888888888889,0.6022222222222222,-0.6222222222222222,2.9335980782431923e-05,0.00100282284014916,0.001090830782496456
1589988755.9107234,2.9221037037037036,-3.1,8.76368888888889,-0.03888888888888889,0.6022222222222222,-0.6222222222222222,0.0008267689308521287,-0.0013894760100599303,0.001090830782496456
1589988755.9207234,2.918600508905852,-3.082798982188295,8.739796437659033,-0.03888888888888889,0.6022222222222222,-0.6222222222222222,0.001090830782496456,-0.0049961715228845315,0.00015266079653258283
1589988755.9307234,2.9277343927825026,-3.0877343927825023,8.768671963912512,-0.044045150743890586,0.607378484077224,-0.627378484077224,-0.001440243336825199,-0.007141536658696716,0.0
1589988755.9407234,2.9753818181818183,-3.11,8.67,-0.045555555555555564,0.6088888888888889,-0.6288888888888889,-0.001090830782496456,-0.002390902742362687,0.00012594137216095447
1589988755.9507234,2.945475935828877,-3.11,8.67,-0.045555555555555564,0.6088888888888889,-0.6288888888888889,-0.001090830782496456,0.003317992241090824,0.0009414977983685989
1589988755.9607234,2.9306749738671622,-3.1,8.716749738671624,-0.045555555555555564,0.6088888888888889,-0.6288888888888889,0.0031252358931531227,0.004510579584322069,0.001090830782496456
1589988755.9707234,2.9376342730093414,-3.1,8.786342730093414,-0.045555555555555564,0.6088888888888889,-0.6288888888888889,0.0016069523473750658,0.006028863130100126,0.001090830782496456
1589988755.9807234,2.94,-3.1,8.8000855894571,-0.045555555555555564,0.5967712760031196,-0.607958466631651,9.336361445948021e-06,0.0033005014318272124,-0.00107215805960456
1589988755.9907234,2.931428277804041,-3.108571722195959,8.774284833412123,-0.045555555555555564,0.5966666666666667,-0.6077777777777778,-0.0028050895291081043,0.0014024326614172982,-0.001090830782496456
1589988756.0007234,2.928863431398835,-3.108863431398835,8.677955980208155,-0.045555555555555564,0.5966666666666667,-0.6077777777777778,0.00024796080331396274,-0.003148511945832387,0.00024796080331396274
1589988756.0107234,2.92,-3.09926971660449,8.74292113358204,-0.045555555555555564,0.5966666666666667,-0.6077777777777778,0.002340984686546619,-0.002022338443439205,0.002102000004216058
1589988756.0207233,2.92,-3.093779435826952,8.764882256692191,-0.045555555555555564,0.5966666666666667,-0.6077777777777778,0.00353877814188398,-0.0008245449881018438,0.0015031032765473779
1589988756.0307233,2.92,-3.09,8.784983224035381,-0.045555555555555564,0.6066331147374308,-0.6149757680511074,0.0011018106256632646,-0.0027179270869354655,3.6599477222696263e-06
1589988756.0407233,2.932526654771748,-3.1150533095434962,8.777473345228252,-0.045555555555555564,0.6166666666666667,-0.6222222222222222,-0.0014984385336564638,-0.004087707849809384,0.0002756152801764403
1589988756.0507233,2.9695786229910106,-3.1,8.601123672023972,-0.045555555555555564,0.6166666666666667,-0.6222222222222222,6.128680165891965e-05,3.0643400829459824e-05,1.5321700414729912e-05
1589988756.0607233,2.948155815853991,-3.1,8.658251157722692,-0.045555555555555564,0.6166666666666667,-0.6222222222222222,0.003177107797998395,0.0015885538989991975,0.0007942769494995987
1589988756.0707233,2.931764426125555,-3.1,8.770591312618896,-0.045555555555555564,0.6166666666666667,-0.6222222222222222,0.004363323129985824,0.003978385063746586,0.00019246903311961883
1589988756.0807233,2.9200367002629273,-3.1,8.81988989921122,-0.051090722076151535,0.5967400671925212,-0.6222222222222222,0.002189668320298265,0.004363323129985824,-0.0010868274048437794
1589988756.0907233,2.931412098386572,-3.1271758032268564,8.75940926210071,-0.05111111111111112,0.5966666666666667,-0.6222222222222222,-0.002104643545593606,-0.0020276255261943003,0.0010138127630971501
1589988756.1007233,2.9504923246437786,-3.0909846492875563,8.623938597150225,-0.05111111111111112,0.5966666666666667,-0.6222222222222222,-0.0009834222072134552,0.0,-5.3704287641500326e-05
1589988756.1107233,2.9569947657829596,-3.1077460743372196,8.70450785132556,-0.05111111111111112,0.5966666666666667,-0.6222222222222222,0.0012547408821244263,0.0001639100996279703,-0.0009269206828684856
1589988756.1207232,2.9252924169989227,-3.083969312749192,8.752061374501615,-0.05111111111111112,0.5966666666666667,-0.6222222222222222,0.0029838357786777367,0.0018930049961812798,0.0008021742136848239
1589988756.1307232,2.929286677575387,-3.09,8.815720065452323,-0.024444444444444446,0.6088888888888889,-0.6077777777777778,0.0020260387532703493,-0.00038905702930640686,0.0010130193766351746
1589988756.1407232,2.921744735943035,-3.09,8.77046841565821,-0.024444444444444446,0.6088888888888889,-0.6077777777777778,0.00038064233479809077,-0.004502548075487053,0.00019032116739904539
1589988756.1507232,2.921620466044324,-3.120810233022162,8.642430699066487,-0.024444444444444446,0.6088888888888889,-0.6077777777777778,-0.004186557705671925,-0.005277388488168381,0.0010024480703395065
1589988756.1607232,2.94,-3.1287693529178244,8.676153235410878,-0.024444444444444446,0.6088888888888889,-0.6077777777777778,-0.0021145401790115897,-0.0029368854175827568,0.0
1589988756.1707232,2.94,-3.1129115862303633,8.755442068848183,-0.024444444444444446,0.6088888888888889,-0.6077777777777778,-0.0012496331767951232,0.0013876495934995754,0.0
1589988756.1807232,2.9325573813249872,-3.102557381324987,8.777442618675012,-0.029406190227786472,0.6039271431055468,-0.6284517185417029,0.0013447604834297075,0.003805389075610354,-0.0008118637553087212
1589988756.1907232,2.922087626838669,-3.107912373161331,8.78,-0.031111111111111114,0.6022222222222222,-0.6355555555555555,0.0013185555442950555,0.002637111088590111,0.0014984872795971136
1589988756.2007232,2.94,-3.11,8.662019884758784,-0.031111111111111114,0.6022222222222222,-0.6355555555555555,0.002087232173336739,3.14764638853909e-05,0.0031780629558331953
1589988756.2107232,2.94,-3.11,8.728362896847814,-0.031111111111111114,0.6022222222222222,-0.6355555555555555,-0.0010142963891024556,0.0010653193180317892,7.65343933940006e-05
1589988756.2207232,2.94,-3.11,8.737788884446221,-0.031111111111111114,0.6022222222222222,-0.6355555555555555,0.0006084402005528012,0.0002411952909718274,-0.0008496354915246286
1589988756.2307231,2.94,-3.08203405458569,8.78660990902385,-0.03836154140371008,0.6084368767587357,-0.6158758161899298,0.001090830782496456,-0.0010168704706515093,0.0009429101588065627
1589988756.2407231,2.931876316058469,-3.088123683941531,8.765628948175406,-0.03888888888888889,0.6088888888888889,-0.6144444444444445,0.001090830782496456,0.0015676385707118648,0.00020467433142701567
1589988756.2507231,2.9434954795395103,-3.10349547953951,8.70601808184196,-0.03888888888888889,0.6088888888888889,-0.6144444444444445,-0.0003812976681284335,-0.0014986595615693122,0.0014721284506248895
1589988756.260723,2.95,-3.11,8.68928591719338,-0.03888888888888889,0.6088888888888889,-0.6144444444444445,-0.0031167036461471074,-0.0012466194838387165,0.002181661564992912
1589988756.270723,2.9579864,-3.1020136000000003,8.7379184,-0.03888888888888889,0.6088888888888889,-0.6144444444444445,-0.002401311251356398,0.0015227125059024532,0.0013104804688599423
1589988756.280723,2.93,-3.1004214688630274,8.809578531136973,-0.024444444444444446,0.6088888888888889,-0.6144444444444445,0.0022276366859583087,0.00427137288805503,0.0
1589988756.290723,2.93,-3.1082817038661195,8.801718296133881,-0.024444444444444446,0.6088888888888889,-0.6144444444444445,0.003085055315861213,0.002556535628249223,0.0
1589988756.300723,2.93,-3.11,8.683646045974971,-0.024444444444444446,0.6088888888888889,-0.6144444444444445,0.002214805058192044,0.002181661564992912,0.0
1589988756.310723,2.9492459841482632,-3.090754015851737,8.689622992074131,-0.024444444444444446,0.6088888888888889,-0.6144444444444445,-0.0009674552272617267,-0.0030668664220981526,-0.001049705597418213
1589988756.320723,2.942006499425356,-3.097993500574644,8.721974002298577,-0.024444444444444446,0.6088888888888889,-0.6144444444444445,0.0006530805148485697,-0.001528581050144342,0.0006530805148485697
1589988756.330723,2.9494783722592945,-3.081043255481411,8.777391861296472,-0.019178682078169685,0.6025699740493592,-0.6144444444444445,5.690075965655676e-05,-0.0031586908281762546,0.001090830782496456
1589988756.340723,2.9204741181859823,-3.1001580393953274,8.768419606046724,-0.01888888888888889,0.6022222222222222,-0.6144444444444445,-3.447884745407946e-05,0.0021471827175388323,0.0021299432938117926
1589988756.350723,2.9492943197434727,-3.109764773247824,8.67235226752176,-0.01888888888888889,0.6022222222222222,-0.6144444444444445,-0.0021303430485648837,5.131851642802823e-05,-0.0010138530078544136
1589988756.360723,2.959821882951654,-3.11,8.69946564885496,-0.01888888888888889,0.6022222222222222,-0.6144444444444445,0.0010325421147294703,-0.0021428024531482542,-0.001090830782496456
1589988756.370723,2.968014199572068,-3.0939716008558644,8.732056798288271,-0.01888888888888889,0.6022222222222222,-0.6144444444444445,0.0002166172234683198,-0.0004332344469366396,-0.0002166172234683198
1589988756.380723,2.9412978986402964,-3.080432632880099,8.778269468479603,-0.012510644142288148,0.608600466968823,-0.6006249141601429,0.0010436378561832595,0.002087275712366519,0.0
1589988756.390723,2.94,-3.0962356713426855,8.804353507014028,-0.012222222222222223,0.6088888888888889,-0.6,0.0002053122787416176,0.0012961430612380737,0.0
1589988756.400723,2.914322114120431,-3.09144070470681,8.690169865895346,-0.012222222222222223,0.6088888888888889,-0.6,0.000933674278228823,0.002024505060725279,0.000933674278228823
1589988756.410723,2.944220022053821,-3.09,8.746995049621097,-0.012222222222222223,0.6088888888888889,-0.6,0.0020240371183468365,0.0003152488932921507,0.001090830782496456
1589988756.420723,2.942429390483847,-3.1051412190323058,8.767570609516152,-0.012222222222222223,0.6088888888888889,-0.6,-0.0011216399959991697,-0.0008258253902480204,0.001090830782496456
1589988756.430723,2.9305670310612864,-3.11,8.74170109318386,-0.04366545201793415,0.6225142884670307,-0.6073367536189994,-0.0001237069872565737,0.0019961010841080514,0.001090830782496456
1589988756.440723,2.936813772953507,-3.11,8.746813772953507,-0.045555555555555564,0.6233333333333333,-0.6077777777777778,0.0007432673282627162,-4.81404197952371e-05,0.001090830782496456
1589988756.450723,2.9491582730971286,-3.11,8.6858920883201,-0.045555555555555564,0.6233333333333333,-0.6077777777777778,9.18181616107734e-05,0.0009071944592749092,0.001090830782496456
1589988756.460723,2.936350561412531,-3.096350561412531,8.686824719293734,-0.045555555555555564,0.6233333333333333,-0.6077777777777778,0.0,0.0003463693937461533,0.0025797535599970615
1589988756.470723,2.936774660109922,-3.09,8.730647960659532,-0.045555555555555564,0.6233333333333333,-0.6077777777777778,0.0,-0.0007390007788853631,0.0017944907897186418
1589988756.480723,2.94,-3.097610914753207,8.765221829506414,-0.04048161238675092,0.6123397898009233,-0.6187713213101879,0.0,0.002230057255805368,0.00026060877292100005
1589988756.490723,2.94,-3.1094770685301545,8.77,-0.03888888888888889,0.6088888888888889,-0.6222222222222222,0.0,0.003272492347489368,0.0
1589988756.500723,2.9218180995065417,-3.11,8.697272398026167,-0.03888888888888889,0.6088888888888889,-0.6222222222222222,0.00297500651138277,0.0022808235103617784,-0.00099166883712759
1589988756.5107229,2.9390870889006315,-3.0909129110993683,8.728174177801263,-0.03888888888888889,0.6088888888888889,-0.6222222222222222,0.0011904139353838303,-0.0009414560531653951,-4.9791576443687256e-05
1589988756.5207229,2.932469835431874,-3.082469835431874,8.760120658272504,-0.03888888888888889,0.6088888888888889,-0.6222222222222222,-0.0013734098099563196,-0.001090830782496456,0.0016428270616351834
1589988756.5307229,2.9385803297260233,-3.08,8.77,-0.04460910870623777,0.60316866907154,-0.6222222222222222,-0.002181661564992912,-0.0020267995614080174,0.0012456927860813507
1589988756.5407228,2.94,-3.088893912211458,8.778893912211457,-0.045555555555555564,0.6022222222222222,-0.6222222222222222,0.0007288644001309298,-0.0002413109215770176,0.0001206554607885088
1589988756.5507228,2.94,-3.0978397966471998,8.693762236880803,-0.045555555555555564,0.6022222222222222,-0.6222222222222222,0.0019460199336242497,0.0008551891511277938,0.0017103783022555876
1589988756.5607228,2.9311174704710603,-3.1,8.7144126476447,-0.045555555555555564,0.6022222222222222,-0.6222222222222222,0.001212727901332788,0.00012189711883633199,0.00024379423767266397
1589988756.5707228,2.935494044259187,-3.094505955740813,8.73648213277756,-0.045555555555555564,0.6022222222222222,-0.6222222222222222,0.000491523522664556,0.0,-0.0005993072598319
1589988756.5807228,2.94,-3.09,8.758258843303537,-0.03683788762404394,0.5939633789186849,-0.6190104498264022,0.0,-0.00045045002516566157,-0.00018993073216513282
1589988756.5907228,2.94,-3.0948625850838027,8.750549659664788,-0.024444444444444446,0.5822222222222222,-0.6144444444444445,0.0,-0.000560405033304417,-0.0005004464650796613
1589988756.6007228,2.94,-3.094907822254866,8.714723466764598,-0.024444444444444446,0.5822222222222222,-0.6144444444444445,0.0016664112703006822,0.0005554704234335607,-0.002181661564992912
1589988756.6107228,2.9343883521834746,-3.078776704366949,8.71122329563305,-0.024444444444444446,0.5822222222222222,-0.6144444444444445,0.0020482207117304054,0.0023151024182554185,0.0002668817065250126
1589988756.6207228,2.9353144918495215,-3.085943475548564,8.757201442946648,-0.024444444444444446,0.5822222222222222,-0.6144444444444445,0.0022502730430533227,0.001533328956654068,0.0016019404347144787
1589988756.6307228,2.94557683177718,-3.09442316822282,8.80115366355436,-0.024444444444444446,0.5970937736280354,-0.61878198027114,0.0014474784160836817,0.0,0.002307506736766914
1589988756.6407228,2.9585132770295974,-3.107026554059195,8.784460168911208,-0.024444444444444446,0.6088888888888889,-0.6222222222222222,-0.0027859633931414853,0.0,0.0014151834187283777
1589988756.6507227,2.9472873424913932,-3.09093101373709,8.72279304121127,-0.024444444444444446,0.6088888888888889,-0.6222222222222222,-0.0018857565337170926,-0.001386735813772275,-0.000989272938161957
1589988756.6607227,2.964803973890554,-3.08,8.739607947781108,-0.024444444444444446,0.6088888888888889,-0.6222222222222222,0.0007129651007071749,-0.0003778656817892811,-0.0012797636233910965
1589988756.6707227,2.9635653123187664,-3.0993040630437005,8.7693040630437,-0.024444444444444446,0.6088888888888889,-0.6222222222222222,0.0017927463223404894,0.0007019155398440334,-0.001090830782496456
1589988756.6807227,2.9525126325528435,-3.1025126325528434,8.78,-0.04025110905510877,0.6088888888888889,-0.6272138005203268,0.0005481713867488062,0.001090830782496456,0.0013594044848697026
1589988756.6907227,2.95,-3.0913336645962732,8.745334658385094,-0.045555555555555564,0.6088888888888889,-0.6288888888888889,0.0009453505429823944,-0.0007998703034683328,0.002181661564992912
1589988756.7007227,2.9569333864118894,-3.0969333864118895,8.677599522292994,-0.045555555555555564,0.6088888888888889,-0.6288888888888889,-0.0004217994825099088,-0.0003345156499932736,-8.728383251663512e-05
1589988756.7107227,2.96,-3.1,8.722792164987288,-0.045555555555555564,0.6088888888888889,-0.6288888888888889,0.0015559670272599889,-0.0008822659365854815,-0.0019730967190819374
1589988756.7207227,2.965316527026025,-3.1,8.755949581078076,-0.045555555555555564,0.6088888888888889,-0.6288888888888889,0.002181661564992912,0.0012289417518885337,-0.00044183216420416987
1589988756.7307227,2.9617502787068006,-3.0917502787068005,8.790624303232999,-0.04280564845782238,0.6061389817911558,-0.6229307568438004,0.0008318040749471303,0.0023725873541255134,0.0006408782858145288
1589988756.7407227,2.942770760762624,-3.087229239237376,8.805541521525248,-0.03888888888888889,0.6022222222222222,-0.6144444444444445,-0.0018794184519125526,-0.00048634455633573734,0.0007885876694160967
1589988756.7507226,2.9771505680478954,-3.112290340828737,8.703408523075472,-0.03888888888888889,0.6022222222222222,-0.6144444444444445,-0.002181661564992912,-0.0002803311182189898,0.0002803311182189898
1589988756.7607226,2.9756492290621606,-3.098473843593241,8.748929240158116,-0.03888888888888889,0.6022222222222222,-0.6144444444444445,-0.002181661564992912,-0.0023481394037326337,-0.0007827131345775444
1589988756.7707226,2.97,-3.09,8.77361817244933,-0.03888888888888889,0.6022222222222222,-0.6144444444444445,-0.0014855121709074462,-0.0004878947711475048,-0.001090830782496456
1589988756.7807226,2.9595571648562036,-3.09,8.785664252715694,-0.03888888888888889,0.6097642698260753,-0.6185055470003653,4.830582064245352e-05,0.001090830782496456,-0.0005212624809270012
1589988756.7907226,2.95,-3.104512922465209,8.8,-0.03888888888888889,0.6166666666666667,-0.6222222222222222,0.0002992736540447533,0.0018823879109481586,0.0
1589988756.8007226,2.95,-3.098407135711904,8.736239246415472,-0.03888888888888889,0.6166666666666667,-0.6222222222222222,0.0,0.0002847835815790595,0.0
1589988756.8107226,2.9557564601039124,-3.1072693803117364,8.724538760623473,-0.03888888888888889,0.6166666666666667,-0.6222222222222222,0.0,-0.0004628983945404395,-0.0006279323879560165
1589988756.8207226,2.947760922580912,-3.0894023064522793,8.762239077419087,-0.03888888888888889,0.6166666666666667,-0.6222222222222222,0.0006675381199049324,0.0006675381199049324,-0.001090830782496456
1589988756.8307226,2.9550230205563843,-3.0925345308345764,8.800046041112768,-0.04806962367334588,0.6058167073759447,-0.6113722629315003,0.0002714521190474126,0.0002714521190474126,0.0005479265444016308
1589988756.8407226,2.9519321954090643,-3.1,8.785796586227193,-0.05111111111111112,0.6022222222222222,-0.6077777777777778,-0.0008800609594959047,-0.0017601219189918094,0.001090830782496456
