time,acc_x,acc_y,acc_z,mag_x,mag_y,mag_z,gyr_x,gyr_y,gyr_z
1589988772.4295075,-3.73,-0.68,8.93,0.3022222222222222,-0.3566666666666667,-0.6222222222222222,-0.004363323129985824,0.008726646259971648,0.0
1589988772.4395075,-3.74,-0.67617987507031,8.974606708309897,0.3022222222222222,-0.3566666666666667,-0.6222222222222222,-0.0018507535147770627,0.009143357246600448,0.0011766337189094073
1589988772.4495075,-3.7238704194710723,-0.6519352097355361,9.012259161057855,0.2959496075720836,-0.3521862276308534,-0.6105730807291077,-0.004187562102416539,0.016186700709877554,-0.0017594642949709987
1589988772.4595075,-3.7025670866596134,-0.65,8.94155188996826,0.29444444444444445,-0.3511111111111111,-0.6077777777777778,-0.00545415391248228,0.017453292519943295,-0.002181661564992912
1589988772.4695075,-3.7332750039770017,-0.6583187509942504,8.871768743040247,0.29444444444444445,-0.3511111111111111,-0.6077777777777778,-0.010898763706353076,0.019268162451233563,0.000540643331942486
1589988772.4795074,-3.748258229542684,-0.635225311371949,8.868258229542683,0.29444444444444445,-0.3511111111111111,-0.6077777777777778,-0.014701637905685305,0.024139119581976686,0.001090830782496456
1589988772.4895074,-3.723649876449344,-0.6563501235506558,8.889762592662992,0.29444444444444445,-0.3511111111111111,-0.6077777777777778,-0.015990219102241385,0.027244872439291492,-0.0010649336593765537
1589988772.4995074,-3.5697531666125366,-0.5375446573562845,8.7052127314063,0.30050449280069286,-0.3511111111111111,-0.5913290750965321,-0.021461980504336734,0.047059835823504134,0.004617696790860281
1589988772.5095074,-3.5713106853179735,-0.5495728223815681,8.765669918890325,0.3022222222222222,-0.3511111111111111,-0.5866666666666667,-0.06256285756039101,0.13978203391011734,0.020063874852239684
1589988772.5195074,-3.645125031414928,-0.5672361146016587,8.753819426991706,0.3022222222222222,-0.3511111111111111,-0.5866666666666667,-0.09932015645365067,0.2078987357469029,0.039483537194064514
1589988772.5295074,-3.894234015879649,-0.778217300459674,9.092367739239448,0.3022222222222222,-0.3511111111111111,-0.5866666666666667,-0.12065682476089863,0.20592697130174964,0.05018277441849973
1589988772.5395074,-4.1065685266135254,-0.8598225764978144,9.276923373617898,0.3022222222222222,-0.3511111111111111,-0.5866666666666667,-0.08259964785063548,0.11531797977927338,0.049642477554474866
1589988772.5495074,-4.027821308863125,-0.836955327215781,9.194343645255234,0.2912073312941493,-0.3511111111111111,-0.609614356100152,0.006974567870875886,-0.011148963113261898,0.05179084618263168
1589988772.5595074,-3.8304157356873376,-0.7060730376176697,8.928668546939672,0.2888888888888889,-0.3511111111111111,-0.6144444444444445,0.03215683321938895,-0.038749005605445974,0.03386110398590314
1589988772.5695074,-3.7538100108290218,-0.6630166847150363,8.790793326113986,0.2888888888888889,-0.3511111111111111,-0.6144444444444445,0.025036738669754414,-0.033001623402054425,0.01244891544376049
1589988772.5795074,-3.782111836274273,-0.69,8.828447345097091,0.2888888888888889,-0.3511111111111111,-0.6144444444444445,0.002981129520644169,-0.007944053617368435,-0.001090830782496456
1589988772.5895073,-3.79,-0.69,8.904786683647073,0.2888888888888889,-0.3511111111111111,-0.6144444444444445,-0.00357750994122599,0.001090830782496456,-0.001090830782496456
1589988772.5995073,-3.8049784828019475,-0.6974892414009737,8.952467724202922,0.3088601992914856,-0.3610967663124095,-0.6036266513097045,0.0005383739046516201,-0.004627815757913894,-0.0019077802882693632
1589988772.6095073,-3.7977288417400104,-0.6938644208700052,8.929322104350026,0.31555555555555553,-0.3644444444444445,-0.6,0.005528100856713466,-0.009222136128355178,-0.002181661564992912
1589988772.6195073,-3.79637341517096,-0.69,8.85901267863232,0.31555555555555553,-0.3644444444444445,-0.6,0.011807205952343067,-0.008822612587530622,-0.0014864298191815993
1589988772.6295073,-3.7938290144868394,-0.69,8.873196898592123,0.31555555555555553,-0.3644444444444445,-0.6,0.013507650076844402,-0.004943215095037093,-0.0017639808781059808
1589988772.6395073,-3.78484382647386,-0.6951561735261401,8.91546852057842,0.31555555555555553,-0.3644444444444445,-0.6,0.013652420670178167,-0.007209651309034251,-0.0016192102847722143
1589988772.6495073,-3.7864229532210296,-0.6935770467789701,8.93642295322103,0.3069916179275158,-0.35588050681640465,-0.6,0.012779529154847103,-0.014411485368981614,-0.0024921018001032784
1589988772.6595073,-3.782473408166266,-0.6523670408313318,8.94,0.3022222222222222,-0.3511111111111111,-0.6,0.008715043383651774,-0.014720414125542217,-0.0008094209296324374
1589988772.6695073,-3.7659053898575094,-0.6470473050712453,8.862479644216302,0.3022222222222222,-0.3511111111111111,-0.6,0.0007171399026532702,-0.0072621245976320055,-0.001537483461071538
1589988772.6795073,-3.7239514949831087,-0.5995320929763526,8.772322391972974,0.3022222222222222,-0.3511111111111111,-0.6,-0.011619138109489554,0.008219978929343032,-0.000608748807576805
1589988772.6895072,-3.703828332700342,-0.6046866691986327,8.78703000379795,0.3022222222222222,-0.3511111111111111,-0.6,-0.03344869156339398,0.03799927466819499,0.0006732244669793927
1589988772.6995072,-3.878506532159529,-0.7556649644412419,9.045628622450579,0.306982396413143,-0.3479376616504973,-0.5904796516181584,-0.04861847048548084,0.06591281523233003,0.005764120866247838
1589988772.7095072,-3.880776532908307,-0.7715425182823926,9.070776532908308,0.3088888888888889,-0.3466666666666667,-0.5866666666666667,-0.019973780484937215,0.026436359694917214,0.00427976708748633
1589988772.7195072,-3.8247645038347526,-0.7197308615254318,8.924158942266974,0.3088888888888889,-0.3466666666666667,-0.5866666666666667,0.0072115037060124215,-0.0022844161514775467,0.002174321951672581
1589988772.7295072,-3.771858938153064,-0.6546025134142898,8.785487150522451,0.3088888888888889,-0.3466666666666667,-0.5866666666666667,0.021131342259456547,-0.014287079929573746,0.001090830782496456
1589988772.7395072,-3.758928446937288,-0.6364998257122033,8.82435671958678,0.3088888888888889,-0.3466666666666667,-0.5866666666666667,0.00716057109387876,-0.003358235788120051,0.001503785434177348
1589988772.7495072,-3.791114934054231,-0.6822298681084624,8.932229868108463,0.3072784285883327,-0.34716219291299166,-0.5856756141740167,-0.004971425323390295,0.005210913035120491,0.002181661564992912
1589988772.7595072,-3.7958218655222926,-0.6916437310445852,8.954178134477708,0.29444444444444445,-0.3511111111111111,-0.5777777777777777,-0.009361713272298806,0.0028167285773200695,0.0008143702544850162
1589988772.7695072,-3.7797090800029993,-0.6902909199970009,8.882818100022494,0.29444444444444445,-0.3511111111111111,-0.5777777777777777,-0.00984921149126533,0.003304226796286595,-0.0005295481668496142
1589988772.7795072,-3.7806137091607943,-0.7,8.857761691223574,0.29444444444444445,-0.3511111111111111,-0.5777777777777777,-0.014381636025682295,0.008415539364156514,0.0005788880334529559
1589988772.7895072,-3.79,-0.7043495197438634,8.917398078975454,0.29444444444444445,-0.3511111111111111,-0.5777777777777777,-0.016029915512238608,0.011524679604892786,0.0006163717799282269
1589988772.7995071,-3.8029951811752927,-0.7143317270584308,8.952995181175293,0.2978135654898907,-0.3429289600007417,-0.5907729589530704,-0.009928137077415643,0.008073199094939037,-0.0004725181216709203
1589988772.8095071,-3.8051028709742485,-0.72,8.930274322597997,0.3022222222222222,-0.3322222222222222,-0.6077777777777778,-0.0011132737475636188,0.0027382984387747215,0.0010758688057850138
1589988772.8195071,-3.7835687883051534,-0.7007063649154603,8.799963036272148,0.3022222222222222,-0.3322222222222222,-0.6077777777777778,0.004286270670639854,-0.0017153146916994682,0.00046634687329344393
1589988772.829507,-3.78,-0.6707387134391585,8.769261286560841,0.3022222222222222,-0.3322222222222222,-0.6077777777777778,0.004053433626412198,0.0016300286537559187,0.001010249646608667
1589988772.839507,-3.790674761422931,-0.6653373807114656,8.822699045691724,0.3022222222222222,-0.3322222222222222,-0.6077777777777778,-0.00138525099488623,0.005527758965579723,0.00043500781160206274
1589988772.849507,-3.8,-0.6871996145117667,8.900132433860788,0.2945779491058815,-0.3462367229355136,-0.6033186184599123,-0.009831923335667453,0.00591958906309514,0.0001599604812707366
1589988772.859507,-3.7940568660488627,-0.7059431339511373,8.912170598146588,0.2888888888888889,-0.3566666666666667,-0.6,-0.011145083352437359,0.006102449258322317,0.0030357168200165693
1589988772.869507,-3.779314268215119,-0.71,8.851914206968035,0.2888888888888889,-0.3566666666666667,-0.6,-0.010983109558913046,0.0071278009532012064,0.006111771904653237
1589988772.879507,-3.776078958190541,-0.7160789581905415,8.889026456477039,0.2888888888888889,-0.3566666666666667,-0.6,-0.01332536155141133,0.005646481061549715,0.011614484309326142
1589988772.889507,-3.7651128345990195,-0.7249623884669933,8.949924776933987,0.2888888888888889,-0.3566666666666667,-0.6,-0.012556862344103383,0.0027393853016352806,0.019593926266955736
1589988772.899507,-3.755279108677466,-0.6983253479352042,8.954720891322534,0.29182172704303666,-0.34728158457339386,-0.6,-0.008604862125154947,0.0022425536324012624,0.03257530652179973
1589988772.909507,-3.796808120381088,-0.691033211646336,8.944741697088416,0.29444444444444445,-0.3388888888888889,-0.6,-0.006544984694978735,0.001551716743595395,0.04615301058544831
1589988772.919507,-3.8096964273878173,-0.679544641081726,8.863861602704315,0.29444444444444445,-0.3388888888888889,-0.6,-0.004330208494976652,-0.0022147762000020842,0.05845051210983561
1589988772.929507,-3.772154700986098,-0.661896866009268,8.81974216502317,0.29444444444444445,-0.3388888888888889,-0.6,-0.002830534947900177,-0.005012196512893089,0.0643590161672909
1589988772.939507,-3.764918770673701,-0.6798375413474019,8.8449187706737,0.29444444444444445,-0.3388888888888889,-0.6,-0.004345601640072135,-0.003307935327316745,0.06328590687470813
1589988772.949507,-3.7861570109407854,-0.6738429890592144,8.876928351567976,0.3022237460085264,-0.35265226857918786,-0.5880318437475661,-0.007804095897461083,-0.001090830782496456,0.062177354602297986
1589988772.959507,-3.7878421410750733,-0.617447493762758,8.875684282150146,0.3088888888888889,-0.3644444444444445,-0.5777777777777777,-0.01114369371892399,-0.0030801557971802855,0.0668191129698936
1589988772.969507,-3.74024811895378,-0.5590818702973844,8.824664994625582,0.3088888888888889,-0.3644444444444445,-0.5777777777777777,-0.015853589763670274,-0.0019542911573550356,0.07848568518124402
1589988772.979507,-3.7096241943119335,-0.5867222606605732,8.88597064928444,0.3088888888888889,-0.3644444444444445,-0.5777777777777777,-0.02029765136268969,0.0002345637730105085,0.1040046633259705
1589988772.989507,-3.72052879056502,-0.6072473599013335,9.00132197641255,0.3088888888888889,-0.3644444444444445,-0.5777777777777777,-0.012201025966497013,-0.006931774304127251,0.15043113972171487
1589988772.999507,-3.6839893338910383,-0.5360106661089616,8.98735822092091,0.29821511148291446,-0.34724780306815234,-0.5825216788470997,-0.009602801361964251,-0.010179148149969456,0.20007465439782873
1589988773.009507,-3.6902316028047313,-0.5398841985976345,8.999768397195268,0.2888888888888889,-0.3322222222222222,-0.5866666666666667,-0.01087041190465756,-0.01204966650120368,0.24957694912304967
1589988773.019507,-3.6958989046327,-0.533525273841825,8.927120892372626,0.2888888888888889,-0.3322222222222222,-0.5866666666666667,-0.006482172310457535,-0.017131557182125275,0.3005284298167922
1589988773.029507,-3.5566057926829266,-0.47097743902439027,8.83,0.2888888888888889,-0.3322222222222222,-0.5866666666666667,-0.005438922189970591,-0.023384319072371203,0.37372847016595706
1589988773.039507,-3.387982081209929,-0.37399104060496463,8.856008959395036,0.2888888888888889,-0.3322222222222222,-0.5866666666666667,-0.00994954951843533,-0.028929027815483954,0.41945133454116373
1589988773.049507,-3.2808882812996756,-0.30271062503974056,8.874088828129967,0.2967704513822655,-0.343387769087839,-0.590607447913355,-0.015669204684540874,-0.030097239951050164,0.43950790888755153
1589988773.059507,-3.1949933857131407,-0.25988615409284055,8.874045538362862,0.3022222222222222,-0.3511111111111111,-0.5933333333333334,-0.017784267353291954,-0.03015712460432733,0.4429752039760116
1589988773.069507,-2.446791870440151,-0.09175098212138222,8.941299607151446,0.3022222222222222,-0.3511111111111111,-0.5933333333333334,-0.02328647798949602,-0.023737878862089258,0.42646857206739935
1589988773.0795069,-1.943274788717699,-0.3892790317532084,9.065497165513165,0.3022222222222222,-0.3511111111111111,-0.5933333333333334,-0.005945336959155034,-0.010693540911608996,0.31920937976832847
1589988773.0895069,-1.700613611172689,-1.3678523608955886,9.220536909776103,0.3022222222222222,-0.3511111111111111,-0.5933333333333334,0.06725500141472551,0.02054171472962811,0.19891607633885539
1589988773.0995069,-1.6546609665025165,-1.3588478813788625,8.883110557930625,0.2883578356212157,-0.3530367203612509,-0.5956440644335012,0.1102913213610768,0.05304209690899983,0.10487234982569113
1589988773.1095068,-1.7431675710698955,-0.8007329715720418,8.48657082692152,0.26222222222222225,-0.3566666666666667,-0.6,0.070375680778093,0.051284728518962416,-0.018538469040669293
1589988773.1195068,-1.8722435585014785,-0.7774633655002112,8.918365337752217,0.26222222222222225,-0.3566666666666667,-0.6,-0.02914375759571631,-0.003288477163517762,-0.2223401428505105
1589988773.1295068,-1.9707175523806146,-0.7876183216931968,9.013083986244549,0.26222222222222225,-0.3566666666666667,-0.6,-0.0324884420966909,0.008027179589889279,-0.3517204747202644
1589988773.1395068,-2.054127233220666,-0.8319084983099952,8.752381699662,0.26222222222222225,-0.3566666666666667,-0.6,0.04101913512722187,0.05937285025589414,-0.5419559143870804
1589988773.1495068,-2.10537797810689,-0.8973110109465551,8.77567224726336,0.27356671674894467,-0.3566666666666667,-0.5924370036488517,0.04136910770404428,0.06471653894146392,-0.6715986643781768
1589988773.1595068,-2.183414157919517,-0.883946741629047,8.839201124435704,0.2822222222222222,-0.3566666666666667,-0.5866666666666667,0.02563582246429325,0.05612098850373287,-0.7359331550271103
1589988773.1695068,-2.2473038468994933,-0.8897548951726812,8.926323427590217,0.2822222222222222,-0.3566666666666667,-0.5866666666666667,0.01359796838205534,0.050418847096357015,-0.7771152874137137
1589988773.1795068,-2.333496762257169,-0.9,8.926993524514339,0.2822222222222222,-0.3566666666666667,-0.5866666666666667,0.02628690276043726,0.05773027665737488,-0.8474846995257178
1589988773.1895068,-2.3466905694326843,-0.9099282917019476,8.943452847163421,0.2822222222222222,-0.3566666666666667,-0.5866666666666667,0.03781025235195207,0.06943652288246169,-0.9110795516678751
1589988773.1995068,-2.3274516007532955,-0.9258172002510986,8.914182799748902,0.2850107553881565,-0.3543428890283881,-0.5922437329985353,0.03926990816987242,0.0744544804441986,-0.9705672981671484
1589988773.2095068,-2.3053961209327416,-0.9476232744035505,8.869357330260158,0.2888888888888889,-0.3511111111111111,-0.6,0.03926990816987242,0.07585594947420626,-1.0266657637218395
1589988773.2195067,-2.3193318787878785,-0.9703340606060605,8.756837333333333,0.2888888888888889,-0.3511111111111111,-0.6,0.03926990816987242,0.0768489096271536,-1.0790479060499465
1589988773.2295067,-2.335367912877512,-0.9738962613674638,8.713896261367463,0.2888888888888889,-0.3511111111111111,-0.6,0.03775406120374783,0.07904509866178636,-1.1283348356212335
1589988773.2395067,-2.3263037419566377,-1.0010887741300873,8.785443870650438,0.2888888888888889,-0.3511111111111111,-0.6,0.0343846190008831,0.08084024473836625,-1.1726461313284997
1589988773.2495067,-2.3224198749161418,-1.0272596247484256,8.88,0.29372863872117266,-0.34654023626950975,-0.5983867500559054,0.032425994906892804,0.08343107427939438,-1.2153638148790256
1589988773.2595067,-2.3451412099540248,-1.055047069984675,8.882523534992337,0.3088888888888889,-0.3322222222222222,-0.5933333333333334,0.03463131007485173,0.08646117585989789,-1.2608278003772981
1589988773.2695067,-2.408060513200431,-1.0772242052801724,8.875551589439656,0.3088888888888889,-0.3322222222222222,-0.5933333333333334,0.03736192773179861,0.09132699349707439,-1.3080012289807372
1589988773.2795067,-2.4446748394629307,-1.0993496789258612,8.85467483946293,0.3088888888888889,-0.3322222222222222,-0.5933333333333334,0.04431315913844408,0.0934005443507846,-1.341806174201874
1589988773.2895067,-2.4812575737923623,-1.1687626229872703,8.895010098389816,0.3088888888888889,-0.3322222222222222,-0.5933333333333334,0.04799655442984406,0.0987212873793758,-1.3912273971248517
1589988773.2995067,-2.5027941576086956,-1.2139707880434782,8.908823369565217,0.32379106280193237,-0.3266339070048309,-0.5874345561594203,0.050434916934413584,0.10175205808524158,-1.4246893253859696
1589988773.3095067,-2.51,-1.2609785678977474,8.839745251041593,0.3622222222222222,-0.31222222222222223,-0.5722222222222222,0.05592481670244302,0.1049332455167849,-1.4653615540895555
1589988773.3195066,-2.5138088016933624,-1.28,8.750955991533187,0.3622222222222222,-0.31222222222222223,-0.5722222222222222,0.05371058749851393,0.10845986452991395,-1.4926190179268313
1589988773.3295066,-2.541040595399188,-1.3020811907983763,8.714162381596752,0.3622222222222222,-0.31222222222222223,-0.5722222222222222,0.047769531731132346,0.10701492803400854,-1.5289875923938092
1589988773.3395066,-2.5745617154811717,-1.34,8.787087656903765,0.3622222222222222,-0.31222222222222223,-0.5722222222222222,0.043315543950001895,0.10844770354993291,-1.5562865201916636
1589988773.3495066,-2.6000836202656172,-1.3523954746679785,8.807270044269552,0.36525222714106137,-0.3091922173033831,-0.5810367819861179,0.04254240051736178,0.10636056207139324,-1.5792069379683507
1589988773.3595066,-2.5791496322663385,-1.4082992645326773,8.899149632266338,0.3744444444444445,-0.3,-0.6077777777777778,0.041544330464897285,0.10372168506719527,-1.6062724096131602
1589988773.3695066,-2.5769153594704055,-1.4518077342159905,8.870746078411218,0.3744444444444445,-0.3,-0.6077777777777778,0.04464267755264355,0.10634426119935546,-1.6284475892077865
1589988773.3795066,-2.5530736199246147,-1.507705520301541,8.813073619924616,0.3744444444444445,-0.3,-0.6077777777777778,0.05433374572346218,0.11390916782376362,-1.6474519501195488
1589988773.3895066,-2.5522260756247768,-1.5722260756247768,8.824452151249554,0.3744444444444445,-0.3,-0.6077777777777778,0.05984345316518669,0.11690006834601828,-1.6704280603089807
1589988773.3995066,-2.5828997395833335,-1.6144986979166667,8.885799479166668,0.38990972222222225,-0.2942005208333333,-0.6055224247685185,0.05517416416456748,0.11425344571636903,-1.6946159891820884
1589988773.4095066,-2.5940059299942293,-1.6740355799653752,8.871958490040395,0.42777777777777776,-0.28,-0.6,0.05978205491497744,0.12152243034225232,-1.7145755862722236
1589988773.4195065,-2.597981386612022,-1.7200930669398906,8.799720799180328,0.42777777777777776,-0.28,-0.6,0.06325803335650788,0.12522534342493585,-1.7261651471185662
1589988773.4295065,-2.590818989071038,-1.7559050546448087,8.692284836065573,0.42777777777777776,-0.28,-0.6,0.059351551499416975,0.12444404705351762,-1.7394471854326754
1589988773.4395065,-2.514021350578448,-1.7979715325620695,8.781957298843103,0.42777777777777776,-0.28,-0.6,0.05127292842203261,0.11322901155207195,-1.7566645761850148
1589988773.4495065,-2.4935759781619655,-1.8252320291173796,8.82284804367607,0.42777777777777776,-0.28,-0.6,0.04755585482344877,0.11248559683235519,-1.7655855528216158
1589988773.4595065,-2.520890995076947,-1.8771279606155755,8.846436019692211,0.4544444444444444,-0.2411111111111111,-0.6433333333333333,0.05194939417722399,0.12365264836489413,-1.7809161844341066
1589988773.4695065,-2.529020428732023,-1.9421634298561847,8.813918285071908,0.4544444444444444,-0.2411111111111111,-0.6433333333333333,0.05815687970987783,0.12719978295498202,-1.7871236699667603
1589988773.4795065,-2.4087618140863385,-1.974603023477231,8.751682418781785,0.4544444444444444,-0.2411111111111111,-0.6433333333333333,0.05440647399391525,0.12094715172619908,-1.8014637338718007
1589988773.4895065,-2.432404104414974,-2.0364451485647135,8.78,0.4544444444444444,-0.2411111111111111,-0.6433333333333333,0.05803443623991033,0.125099608192232,-1.8055871921416538
1589988773.4995065,-2.44,-2.1258777782325735,8.785877778232573,0.46071407455918933,-0.23797629605373866,-0.6416353085105899,0.062433821059449134,0.13077146067099912,-1.807569874871311
1589988773.5095065,-2.44,-2.16879763415333,8.82879763415333,0.5064952542079962,-0.2150857062293352,-0.6292362390223715,0.06430655306019609,0.12983509467062568,-1.8159971688746726
1589988773.5195065,-2.4269354060942847,-2.2114521573400077,8.793224873131415,0.5077777777777778,-0.21444444444444444,-0.6288888888888889,0.06032998837412562,0.12938662300822287,-1.8229366433443288
1589988773.5295064,-2.4058065140121383,-2.2855482747781513,8.71,0.5077777777777778,-0.21444444444444444,-0.6288888888888889,0.0607768699912717,0.13059004007104488,-1.8325675450634782
1589988773.5395064,-2.359784518481684,-2.352553870379579,8.720215481518316,0.5077777777777778,-0.21444444444444444,-0.6288888888888889,0.05888135686748481,0.1270230226925276,-1.8465684468860166
1589988773.5495064,-2.316462593797301,-2.367735660687256,8.761603491030884,0.5112158491943362,-0.20455998912183898,-0.6357650317220057,0.05563236990731925,0.11974438497217438,-1.858245607486669
1589988773.5595064,-2.2306714771008456,-2.4460876788415282,8.793240844057626,0.5255555555555556,-0.16333333333333333,-0.6644444444444444,0.057003475146614246,0.1264631239804545,-1.8783676277144603
1589988773.5695064,-2.1859958901146443,-2.5380287691974908,8.737967120917153,0.5255555555555556,-0.16333333333333333,-0.6644444444444444,0.05890486225480863,0.13395715832318586,-1.8960878942816362
1589988773.5795064,-2.170841935830025,-2.586105376113317,8.699158064169975,0.5255555555555556,-0.16333333333333333,-0.6644444444444444,0.060236848695433554,0.13986749581767483,-1.9125824648825616
1589988773.5895064,-2.1479042322597595,-2.6,8.71790423225976,0.5255555555555556,-0.16333333333333333,-0.6644444444444444,0.0637254109775979,0.14289883250703572,-1.9367144177251718
1589988773.5995064,-2.1412434020091946,-2.61616422611953,8.718703814064362,0.5287331384679418,-0.15628738861456382,-0.6707996102692169,0.06531421283112261,0.14303446662570046,-1.9633367430422421
1589988773.6095064,-2.149204093799682,-2.7306367249602546,8.779363275039746,0.5511111111111111,-0.10666666666666667,-0.7155555555555555,0.06434165218762516,0.14393757135053495,-1.9934166670719995
1589988773.6195064,-2.1075278219395868,-2.7639777424483305,8.746022257551669,0.5511111111111111,-0.10666666666666667,-0.7155555555555555,0.06343241698273151,0.141209865735854,-2.0179660176041287
1589988773.6295063,-2.09,-2.7528134051869317,8.688542270124621,0.5511111111111111,-0.10666666666666667,-0.7155555555555555,0.05937448162368264,0.14289883250703572,-2.0611857163147986
1589988773.6395063,-2.09,-2.816384809700236,8.730923206466825,0.5511111111111111,-0.10666666666666667,-0.7155555555555555,0.056292452960142805,0.14289883250703572,-2.085841945623118
1589988773.6495063,-2.0748577623416513,-2.853428158438899,8.750857039609725,0.5522538305907441,-0.10209578874813462,-0.7144128360759225,0.05444805060601215,0.14763610971226415,-2.123348665294199
1589988773.6595063,-2.024335187006886,-2.887109875328743,8.759277468832185,0.5634810695540253,-0.05718683289500981,-0.7031855971126413,0.05352952426624283,0.15131021507134138,-2.1398821394100462
1589988773.6695063,-1.9562631592428472,-2.8868684203785766,8.747508772828564,0.5644444444444444,-0.05333333333333334,-0.7022222222222222,0.05886993644660389,0.15612467726123283,-2.157628361969785
1589988773.6795063,-1.8899645152009208,-2.9632741920015344,8.660053227198619,0.5644444444444444,-0.05333333333333334,-0.7022222222222222,0.06726273719912859,0.16434280605019852,-2.1638433719484316
1589988773.6895063,-1.9179394623049444,-3.0444726452340665,8.619296860312089,0.5644444444444444,-0.05333333333333334,-0.7022222222222222,0.07071758138844199,0.1724279642760369,-2.1674040641788612
1589988773.6995063,-1.8820962586952434,-3.087484489565708,8.67664598608761,0.5644444444444444,-0.05333333333333334,-0.7022222222222222,0.06367978481710698,0.1661721451015169,-2.173659883353381
1589988773.7095063,-1.825629406057993,-3.124370593942007,8.752147892637705,0.5577777777777778,-0.0033333333333333327,-0.7233333333333334,0.05255384484007201,0.1589785036837513,-2.167238305720155
1589988773.7195063,-1.7828126952092644,-3.1896888664648504,8.65499687665177,0.5577777777777778,-0.0033333333333333327,-0.7233333333333334,0.061700158723010705,0.16376105639839028,-2.15166337776982
1589988773.7295063,-1.7806238185255199,-3.23296786389414,8.56578449905482,0.5577777777777778,-0.0033333333333333327,-0.7233333333333334,0.05994414148803776,0.16459584856266468,-2.134260946472598
1589988773.7395062,-1.7495818716670075,-3.21334502666394,8.653763154996932,0.5577777777777778,-0.0033333333333333327,-0.7233333333333334,0.048676888681344586,0.15698841122815724,-2.117435554369127
1589988773.7495062,-1.7429838443266372,-3.2661292453869026,8.713145401060265,0.5577777777777778,-0.0033333333333333327,-0.7233333333333334,0.04219929048737836,0.1555489449628314,-2.1023211585832056
1589988773.7595062,-1.693874723951014,-3.299225055209797,8.712324834370609,0.5762278881973721,0.0028167034731981524,-0.7643335787102099,0.04027620558918003,0.15992945821103477,-2.064290713177156
1589988773.7695062,-1.65,-3.2981041918233567,8.683791616353286,0.5777777777777777,0.0033333333333333327,-0.7677777777777778,0.0465482782466513,0.16172507880566317,-2.016362704221725
1589988773.7795062,-1.6366082144931275,-3.3480868877847327,8.591478673291604,0.5777777777777777,0.0033333333333333327,-0.7677777777777778,0.03864384366143729,0.16295116293092868,-1.9823712613417928
1589988773.7895062,-1.5892440472349487,-3.341320578176421,8.632076530941474,0.5777777777777777,0.0033333333333333327,-0.7677777777777778,0.036429574020043036,0.16442734269185819,-1.9565381155255261
1589988773.7995062,-1.5217313003452244,-3.3497114499424625,8.630288550057537,0.5777777777777777,0.0033333333333333327,-0.7677777777777778,0.025403867282471404,0.17001222242692068,-1.9123001402884865
1589988773.8095062,-1.4960766668614505,-3.3818977775180663,8.661897777518066,0.6043592590428329,0.008649629586344364,-0.7438544446392281,0.021609600236425483,0.16321058654746112,-1.8746006994433646
1589988773.8195062,-1.438153044411235,-3.419630608882247,8.628153044411237,0.6111111111111112,0.01,-0.7377777777777778,0.019393188163720765,0.1567169837976665,-1.8187430372572666
1589988773.8295062,-1.3979731386749434,-3.411594627734989,8.587973138674943,0.6111111111111112,0.01,-0.7377777777777778,0.014133650801926434,0.148827677754975,-1.7784199174835102
1589988773.8395061,-1.3236485115680232,-3.3533974484023252,8.609748936834302,0.6111111111111112,0.01,-0.7377777777777778,0.01854412330243975,0.12765458829503476,-1.7135162623726583
1589988773.8495061,-1.3793770733505344,-3.451245853298931,8.652076422164885,0.6104881844616457,0.009976928642612388,-0.7387006320732823,0.018340271033097433,0.1228108733791166,-1.6712696287246538
1589988773.8595061,-1.3383431152984788,-3.5080571858830796,8.720857788246196,0.5811111111111111,0.008888888888888889,-0.7822222222222223,0.012753281002441625,0.1031426879268946,-1.6145295305583527
1589988773.8695061,-1.28982242015954,-3.4999408067198465,8.599585647038927,0.5811111111111111,0.008888888888888889,-0.7822222222222223,0.029504087009090872,0.11016745204693122,-1.5693697327814375
1589988773.879506,-1.25726208296594,-3.49958270961921,8.545058543687329,0.5811111111111111,0.008888888888888889,-0.7822222222222223,0.0359391242518705,0.10729111574124123,-1.505814445288967
1589988773.889506,-1.2400606967826604,-3.5597875612606886,8.639666167695369,0.5811111111111111,0.008888888888888889,-0.7822222222222223,0.02186627308912247,0.0960328348110428,-1.4607813215681733
1589988773.899506,-1.21,-3.5604698458632265,8.640201362512812,0.5806785546021093,0.009030588434941242,-0.7813869406875978,0.03164873618755825,0.10253077180708635,-1.394740587705717
1589988773.909506,-1.21,-3.6194720765257933,8.665488032796768,0.5263590406587935,0.026824911968096388,-0.6764940861763675,0.033487634743063516,0.1016113225293337,-1.3404930803183115
1589988773.919506,-1.1787015324207886,-3.6532461689480287,8.805067622839069,0.5166666666666667,0.03,-0.6577777777777778,0.027313065504296928,0.08617563181722003,-1.258649539233368
1589988773.929506,-1.1565175827927618,-3.708706043018095,8.605670877432571,0.5166666666666667,0.03,-0.6577777777777778,0.04021437620142278,0.0837064586905722,-1.1814028832065986
1589988773.939506,-1.1377099143949971,-3.7477099143949975,8.678854957197498,0.5166666666666667,0.03,-0.6577777777777778,0.02462280118304428,0.07137030767664382,-1.115528486819261
1589988773.949506,-1.1207334102361728,-3.7307334102361724,8.670366705118086,0.5166666666666667,0.03,-0.6577777777777778,0.02925242451195053,0.0667406843477376,-1.04793598621723
1589988773.959506,-1.0019481305207114,-3.595341023676038,8.459058605251482,0.4955555555555556,0.1111111111111111,-0.6222222222222222,0.04945392864189635,0.055108227322239564,-0.9522280008947281
1589988773.969506,-0.7936774026273334,-3.268580606130445,7.8543777368057155,0.4955555555555556,0.1111111111111111,-0.6222222222222222,0.11295981392180199,-0.006979312081614007,-0.8971796588409001
1589988773.979506,-0.7408351133749589,-3.1302160696680907,7.060253039763392,0.4955555555555556,0.1111111111111111,-0.6222222222222222,0.18265523220687707,-0.01537334743031462,-0.7989786571291733
1589988773.989506,-1.1442425887718535,-4.011677272233684,9.47175849712238,0.4955555555555556,0.1111111111111111,-0.6222222222222222,-0.09049908377320343,0.15531454551952265,-0.7120921789748069
1589988773.999506,-1.0066789310611928,-3.5964417118512784,8.701259682416731,0.4959772785954041,0.1131933686203632,-0.6216950684224116,-0.24879327972225374,0.09259524701773485,-0.6707654518562173
1589988774.009506,-0.8977725990797091,-3.5124883479293456,8.12267240611548,0.5133333333333333,0.1988888888888889,-0.6,0.09232184880385197,0.04197436540512279,-0.5664461618454975
1589988774.019506,-0.9973848894166544,-3.736616001187472,8.813732670328038,0.5133333333333333,0.1988888888888889,-0.6,0.04002915035811705,0.03993698754360066,-0.5284151084304175
1589988774.029506,-1.0048741571162971,-3.7735926963953714,9.311693537197879,0.5133333333333333,0.1988888888888889,-0.6,-0.03601491173470324,-0.01363664097560239,-0.46850060614189104
1589988774.039506,-0.9434993016186016,-3.7019363651302277,8.57305665105579,0.5133333333333333,0.1988888888888889,-0.6,0.06127814293186936,0.02489146157698464,-0.37112839815520954
1589988774.049506,-1.0078029103240111,-3.80807754653351,9.114071099849081,0.5131807576613896,0.20050619101149184,-0.5996338183873352,-0.007545940988082422,0.01824454167113052,-0.32217925261359204
1589988774.059506,-0.9452842317079988,-3.753373702744499,8.660810679882992,0.5088391827575,0.24652688499272316,-0.5892140386179998,-0.004988542271256826,0.009719879281711866,-0.2710312782770801
1589988774.069506,-1.08796316992634,-3.977057912115824,8.937100076200151,0.5077777777777778,0.2577777777777778,-0.5866666666666667,0.034289408111257975,0.010661437053513113,-0.18524833579534647
1589988774.079506,-1.0067159440661124,-3.864271381140489,8.417777185371884,0.5077777777777778,0.2577777777777778,-0.5866666666666667,0.009558879589195672,-0.0004578724075524954,-0.12403967078191681
1589988774.089506,-1.0766571209615619,-4.014149961682732,8.8124498850482,0.5077777777777778,0.2577777777777778,-0.5866666666666667,0.029175818650916785,-0.005727642564279076,-0.05543442501600108
1589988774.099506,-1.0428225708869439,-3.954939499052152,8.634818497156454,0.5077777777777778,0.2577777777777778,-0.5866666666666667,0.015335405375925199,-0.008495725219277394,0.001772616520630807
1589988774.109506,-1.0664684712574735,-4.003519532534876,8.779976007584699,0.5288888888888889,0.2911111111111111,-0.5866666666666667,0.017516843232674693,-0.011421947859847088,0.08284351450677277
1589988774.119506,-1.0421221678308148,-3.8899034498771354,8.5040512354159,0.5288888888888889,0.2911111111111111,-0.5866666666666667,0.010434790641261835,-0.014962974155553518,0.1350736523684426
1589988774.1295059,-1.0910928767642323,-4.024371507056928,8.842185753528465,0.5288888888888889,0.2911111111111111,-0.5866666666666667,0.0030161620961226838,-0.01902098074879962,0.21671158629630757
1589988774.1395059,-1.0961138733822764,-4.057668324029366,8.835906014970114,0.5288888888888889,0.2911111111111111,-0.5866666666666667,0.008291398688323074,-0.02400961413264143,0.2803888587724667
1589988774.1495059,-1.0584704995422807,-4.035082299725368,8.60251709716214,0.5288888888888889,0.2911111111111111,-0.5866666666666667,-0.006491119650685011,-0.0346858773774806,0.32309391175182345
1589988774.1595058,-0.9403094622001538,-3.8306189244003077,8.850251940695152,0.5311111111111111,0.2888888888888889,-0.6077777777777778,0.004633379845143349,-0.0324717453044335,0.40346175724424355
1589988774.1695058,-0.954975872438632,-3.8599517448772644,8.38826001818309,0.5311111111111111,0.2888888888888889,-0.6077777777777778,0.01743223725062593,-0.02047281648679358,0.4482577581634326
1589988774.1795058,-1.0682204919483278,-3.900444877012918,8.593771721819147,0.5311111111111111,0.2888888888888889,-0.6077777777777778,-0.02833627438513728,-0.0677032396630329,0.5013243237335536
1589988774.1895058,-1.038531587329676,-3.907867103167581,8.489860555653868,0.5311111111111111,0.2888888888888889,-0.6077777777777778,-0.009714571027577137,-0.05070081485830409,0.5482834017656619
1589988774.1995058,-1.0628128001756456,-3.926406400087823,8.845550402063836,0.5311111111111111,0.2888888888888889,-0.6077777777777778,-0.008837474691423246,-0.05028904442628857,0.6100986898491989
1589988774.2095058,-1.0405340270551509,-3.878434547346514,8.561675338189385,0.5703990750375766,0.2888888888888889,-0.6184182680078621,-0.010621036800579332,-0.05448328580977834,0.6576464641136
1589988774.2195058,-1.0628409885013659,-3.921420494250683,8.614318022997267,0.5844444444444444,0.2888888888888889,-0.6222222222222222,-0.016749841451197883,-0.060776620048800696,0.7151791108519434
1589988774.2295058,-1.0983685915761388,-3.939184295788069,8.543262816847722,0.5844444444444444,0.2888888888888889,-0.6222222222222222,-0.021594166833982634,-0.056901159742572885,0.7510271186845506
1589988774.2395058,-1.1221431968610045,-3.951837025880861,8.73908148705957,0.5844444444444444,0.2888888888888889,-0.6222222222222222,-0.019768546376875255,-0.05801441991022073,0.7805117767257069
1589988774.2495058,-1.180325789703143,-4.001707819745551,8.714146090127226,0.5844444444444444,0.2888888888888889,-0.6222222222222222,-0.023395252849884553,-0.06345447961973467,0.7959252792359964
1589988774.2595057,-1.1723369383664606,-3.8931159178219477,8.64012673292133,0.6766666666666666,0.2677777777777778,-0.6222222222222222,-0.019308884594519432,-0.06352310581548767,0.8183780073030352
1589988774.2695057,-1.1986082345081008,-3.928144312677468,8.75396901620177,0.6766666666666666,0.2677777777777778,-0.6222222222222222,-0.027906146152733888,-0.06638885966822582,0.8212437611557735
1589988774.2795057,-1.2097700216450216,-3.910459956709957,8.564599567099567,0.6766666666666666,0.2677777777777778,-0.6222222222222222,-0.02516436823809397,-0.06440918966107455,0.822461323255436
1589988774.2895057,-1.2422776914146283,-3.893861154292686,8.624555382829257,0.6766666666666666,0.2677777777777778,-0.6222222222222222,-0.02420887051284353,-0.06787996610559072,0.8154445101257283
1589988774.2995057,-1.2358489859731794,-3.8970755070134104,8.654151014026821,0.6766666666666666,0.2677777777777778,-0.6222222222222222,-0.020911004874123045,-0.06640688504167748,0.8029543105495597
1589988774.3095057,-1.285519612590799,-3.9277598062954,8.706266343825666,0.9881933817594836,0.25029938122141515,-0.7085860640301318,-0.023672454248024298,-0.06141234678669927,0.7853662572573694
1589988774.3195057,-1.29,-3.8408079721923527,8.610897746880392,1.0133333333333334,0.2488888888888889,-0.7155555555555555,-0.025079315098098263,-0.06541067535250647,0.7724159159000131
1589988774.3295057,-1.3158966641064498,-3.857264442737633,8.592735557262367,1.0133333333333334,0.2488888888888889,-0.7155555555555555,-0.021322590881246967,-0.06262495911265871,0.770424935449405
1589988774.3395057,-1.3402427712567995,-3.866747590418933,8.603495180837866,1.0133333333333334,0.2488888888888889,-0.7155555555555555,-0.022933928668427778,-0.057025019066642715,0.7723346762434931
1589988774.3495057,-1.35,-3.897505384657867,8.630629038493401,1.0133333333333334,0.2488888888888889,-0.7155555555555555,-0.028498835255303112,-0.05604172513828315,0.789150977931321
1589988774.3595057,-1.4239424596207866,-3.9570542924859553,8.73410858497191,1.344954061329588,-0.04464026899968784,-0.9642711015527465,-0.029076739890121578,-0.058189722709594896,0.8124382134399839
1589988774.3695056,-1.469889047566736,-3.970110952433264,8.601997143798748,1.5066666666666666,-0.18777777777777774,-1.0855555555555556,-0.03159778359351813,-0.06645595650156591,0.850509125424364
1589988774.3795056,-1.4605945066859414,-4.026432959884351,8.59059450668594,1.5066666666666666,-0.18777777777777774,-1.0855555555555556,-0.02342625138716549,-0.06654067773228381,0.8816274152418546
1589988774.3895056,-1.5147278295976612,-3.856695206274073,8.726819573994153,1.5066666666666666,-0.18777777777777774,-1.0855555555555556,-0.02390242645216473,-0.06952561779150128,0.9124273543945649
1589988774.3995056,-1.5605139095349332,-3.81569165427904,8.683280526651094,1.5066666666666666,-0.18777777777777774,-1.0855555555555556,-0.027533782786120564,-0.07334867565097172,0.9381878127273171
1589988774.4095056,-1.5898067864750534,-3.790193213524947,8.699710179712579,0.790321222485574,-0.006215568423122958,-0.7323345300837726,-0.029441892964373988,-0.07525678582922514,0.9716562349655539
1589988774.4195056,-1.6310576271186439,-3.7524677966101696,8.734359322033898,0.7833333333333333,-0.004444444444444445,-0.7288888888888889,-0.02941397472015698,-0.07522886758500813,0.971776401575353
1589988774.4295056,-1.659493559322034,-3.8188183050847457,8.582701016949153,0.7833333333333333,-0.004444444444444445,-0.7288888888888889,-0.028380015047608977,-0.07419490791246014,0.9676405628851609
1589988774.4395056,-1.6941974847466068,-3.700308803386876,8.58,0.7833333333333333,-0.004444444444444445,-0.7288888888888889,-0.030226783797185446,-0.07790686011431419,0.9563758033606907
1589988774.4495056,-1.7213110722705471,-3.651585236972604,8.72917750589383,0.7833333333333333,-0.004444444444444445,-0.7288888888888889,-0.032093046819282066,-0.07621513897567289,0.9444033327734204
1589988774.4595056,-1.7237107946673933,-3.614843178669574,8.701951125343507,0.6764168426790216,0.08639963258209495,-0.710720073483581,-0.027922602332920002,-0.07320918635998101,0.9272612628408736
1589988774.4695055,-1.689541408093265,-3.6710700477823823,8.70076431984456,0.6133333333333333,0.14,-0.7,-0.02398160234263968,-0.07088732598998727,0.9062802817871667
1589988774.4795055,-1.5842389579720306,-3.6894926386480207,8.547970554592082,0.6133333333333333,0.14,-0.7,-0.021530071819790293,-0.0649923589355497,0.886503537801421
1589988774.4895055,-1.699017916390179,-3.7041716434417165,8.721532846715329,0.6133333333333333,0.14,-0.7,-0.029398866775775422,-0.06603205767267255,0.8593538846173854
1589988774.4995055,-1.6810467517449303,-3.5619776566307357,8.666512204187834,0.6133333333333333,0.14,-0.7,-0.018645669272941014,-0.06569084968678668,0.843554743577261
1589988774.5095055,-1.7147386759581882,-3.5647386759581883,8.766759581881534,0.6075338753387534,0.15491289198606273,-0.7,-0.02747221218078183,-0.06707659111323155,0.8196054004792187
1589988774.5195055,-1.7207256988705422,-3.5521770966116266,8.670885483058132,0.6055555555555555,0.16,-0.7,-0.01949406090261216,-0.0595381539882569,0.7853538614328434
1589988774.5295055,-1.7590260371206008,-3.595530376640701,8.6274783023995,0.6055555555555555,0.16,-0.7,-0.022091690186606474,-0.05961437563164197,0.757674020266455
1589988774.5395055,-1.7717379860418745,-3.6695720837487538,8.659572083748754,0.6055555555555555,0.16,-0.7,-0.018590801724358744,-0.0590944471222112,0.7078967570588277
1589988774.5495055,-1.7628071115534036,-3.6728071115534036,8.684385776893192,0.6055555555555555,0.16,-0.7,-0.015884047693421208,-0.054981750188503396,0.6650053537659778
1589988774.5595055,-1.730160819779739,-3.7495711472540294,8.709892786813509,0.5989246266177198,0.13789690354054734,-0.7419958832729601,-0.016356614165241055,-0.046940809080582305,0.5828720349020718
1589988774.5695055,-1.6454478635168244,-3.6748425453482882,8.606658499853896,0.5988888888888889,0.13777777777777778,-0.7422222222222222,-0.008164055230629986,-0.04178171958058707,0.501544373598291
1589988774.5795054,-1.7142966661145682,-3.623564583678395,8.655722499585927,0.5988888888888889,0.13777777777777778,-0.7422222222222222,-0.009661942738341004,-0.03132093343053627,0.3970477702534627
1589988774.5895054,-1.617974888618874,-3.4994248683677602,8.641449979748886,0.5988888888888889,0.13777777777777778,-0.7422222222222222,0.003335229476332826,-0.021437542012269353,0.28521668385611976
1589988774.5995054,-1.5955896571523829,-3.446768971457149,8.64,0.5988888888888889,0.13777777777777778,-0.7422222222222222,0.0012194740170841487,-0.019939822589207245,0.18668535675817666
1589988774.6095054,-1.7168772836084163,-3.810631850825249,8.487747259669902,0.5246421821847045,0.09924467683003654,-0.651058544370249,0.010149454081036857,-0.010408177647629975,0.03629077330067945
1589988774.6195054,-19.91893566786666,-11.163699331432046,-5.4405201271681705,0.5111111111111111,0.09222222222222222,-0.6344444444444445,-1.0111568622002025,2.085767216889234,-1.360273278718141
1589988774.6295054,-9.13837511307669,-3.0153721982108745,-2.3193323952156,0.5111111111111111,0.09222222222222222,-0.6344444444444445,-0.34984194212776565,-0.34514638104048556,-3.3954763092376608
1589988774.6395054,-1.5191486633758573,-0.28766651708442853,-0.4866049105711905,0.5111111111111111,0.09222222222222222,-0.6344444444444445,-0.10522520578289998,-0.9750923707490379,-4.013849240762938
1589988774.6495054,-0.555035807753951,-0.7174820961230245,0.08785944695786252,0.5111111111111111,0.09222222222222222,-0.6344444444444445,-0.027208317502842597,-0.5477134588491286,-3.823134790227932
1589988774.6595054,-0.028833904364665597,-0.38354238045583194,-0.23384179949352002,0.6311510336494696,0.20278530877071024,-0.6544510982008375,0.06794297945830613,-0.276669817919602,-3.546903838573132
1589988774.6695054,0.14100798496946923,-0.3883139971817755,-0.0618020197275716,0.6377777777777778,0.2088888888888889,-0.6555555555555556,0.0411090519433675,-0.2188658201794406,-3.3417703751497996
1589988774.6795053,1.6978661856792814,-2.005164715491424,4.512840321263273,0.6377777777777778,0.2088888888888889,-0.6555555555555556,0.02385353350334588,-0.1484460916333249,-3.1555874660743797
1589988774.6895053,3.1855691422406043,-0.1092591260564646,8.242003236827909,0.6377777777777778,0.2088888888888889,-0.6555555555555556,1.3287019212391713,1.3776929932139277,-2.9824266917963613
1589988774.6995053,1.9414978584414386,2.091603241610945,8.25059224108711,0.6377777777777778,0.2088888888888889,-0.6555555555555556,0.9096044392142064,2.112969745966504,-2.7155034376005034
1589988774.7095053,-0.11439174393141693,0.829591855751759,4.043004239854634,0.5514276248013377,0.24702687312014993,-0.6426030326090896,-0.07886676571419382,0.8768967729518897,-2.1777619072046166
1589988774.7195053,2.647673469387755,-0.783112244897959,12.949484693877551,0.5044444444444445,0.2677777777777778,-0.6355555555555555,0.4033858840892838,-0.392337326592284,-1.795196358597628
1589988774.7295053,1.4764852170473648,-0.11336720063284889,6.194770345100364,0.5044444444444445,0.2677777777777778,-0.6355555555555555,0.5851395156175558,0.07086001922956303,-1.6020606070342345
1589988774.7395053,0.7950245445993329,-0.3670224920892842,3.9969802445907807,0.5044444444444445,0.2677777777777778,-0.6355555555555555,0.022442045200259497,0.1696824084768268,-1.4185725656389125
1589988774.7495053,-0.20491163433308401,-1.60464970352887,7.192501870934315,0.5044444444444445,0.2677777777777778,-0.6355555555555555,-0.5015100017184844,0.15542445348629172,-1.190400693528743
1589988774.7595053,-0.09997844349342211,-3.2321848153431603,11.316505943889682,0.4941265564185203,0.3059539634736972,-0.6159515683062996,0.06921897938915222,0.09856296717105305,-0.9017188667152982
1589988774.7695053,-0.04727673438098888,-2.775622844001533,9.356420084323496,0.4933333333333334,0.3088888888888889,-0.6144444444444445,0.20700008816171295,0.09645573985272465,-0.8145094224594953
1589988774.7795053,-0.15773138023519703,-2.233266762946152,6.972050753043119,0.4933333333333334,0.3088888888888889,-0.6144444444444445,0.07656803898926734,0.04256220516123628,-0.6493115882565885
1589988774.7895052,-0.47022483048495184,-2.8327919425829733,8.92668622863714,0.4933333333333334,0.3088888888888889,-0.6144444444444445,-0.12242855092808423,0.040363117940157324,-0.4639669379296587
1589988774.7995052,-0.4667055734476605,-2.5136445875812834,7.853436993579356,0.4933333333333334,0.3088888888888889,-0.6144444444444445,0.0719042964266902,0.039381678662776254,-0.3093148927682434
1589988774.8095052,-0.5405557215416792,-2.887112040633403,8.848891544666866,0.48729628523055474,0.3149259369916675,-0.6275247153337982,-0.042748768623569355,0.0014240768162886927,-0.15100106206662348
1589988774.8195052,-0.5591376466707507,-3.0039635266952547,9.12792705339051,0.4866666666666667,0.31555555555555553,-0.6288888888888889,-0.01224515510644919,-0.002181661564992912,-0.013940181026661266
1589988774.8295052,-0.56,-2.9442265902265903,8.700140322140323,0.4866666666666667,0.31555555555555553,-0.6288888888888889,0.02644432304655441,0.0014057214375365196,0.049835391971683816
1589988774.8395052,-0.5875125772360469,-3.0838569065063983,8.888499172772395,0.4866666666666667,0.31555555555555553,-0.6288888888888889,-0.023020555165013168,-0.016713979075061933,0.18812928728373973
1589988774.8495052,-0.605033327688921,-3.195033327688921,9.234833361555395,0.4866666666666667,0.31555555555555553,-0.6288888888888889,-0.024805540019339066,-0.02013310814650453,0.26703895562814284
1589988774.8595052,-0.5774058968794432,-3.196378432986605,9.12670395869191,0.48224030698362813,0.330444219943958,-0.6236577365362069,-0.0007190846638487833,-0.020200899592310896,0.33885887256475805
1589988774.8695052,-0.4698536323351685,-3.0729918087820596,8.378243588022022,0.4744444444444445,0.3566666666666667,-0.6144444444444445,-0.02634311663565565,-0.02816649001829509,0.421367556018297
1589988774.8795052,-0.5076376805382934,-3.153214974499636,8.593463763768053,0.4744444444444445,0.3566666666666667,-0.6144444444444445,-0.00863363602374927,-0.03766369922999196,0.4497071101664665
1589988774.8895051,-0.52,-3.1974346989771156,8.703246265302822,0.4744444444444445,0.3566666666666667,-0.6144444444444445,-0.005631210218505623,-0.03782496477532927,0.4675553071862201
1589988774.8995051,-0.5145397569190219,-3.335585590862498,8.993012154048909,0.4744444444444445,0.3566666666666667,-0.6144444444444445,-0.005353744448449878,-0.03837989631544076,0.4760974318276867
1589988774.9095051,-0.3103068545422024,-3.5345914899536934,8.68398155692907,0.4820351195641853,0.361337851355738,-0.637216469803667,-0.0026436013132576036,-0.03405509229103206,0.47158953692942224
1589988774.9195051,-0.2951619569969397,-3.5051047255673464,8.731390644251023,0.4888888888888889,0.3655555555555556,-0.6577777777777778,0.0051757343232293794,-0.029144920983123584,0.46404980249990097
1589988774.929505,0.31028728767234215,-4.525404004616038,8.121543943473771,0.4888888888888889,0.3655555555555556,-0.6577777777777778,-0.005448279375844616,-0.03176138904269604,0.47020877816280304
1589988774.939505,-5.984864771550236,-21.864406721141673,6.589586833927955,0.4888888888888889,0.3655555555555556,-0.6577777777777778,-0.23105802127712075,0.06961029488763205,-0.2661448840248754
1589988774.949505,-2.8836903443972544,-8.271430124192346,6.54847265554236,0.4888888888888889,0.3655555555555556,-0.6577777777777778,-0.3797721188450533,-0.03505450732369082,-3.0755673654623394
1589988774.959505,-0.6240944034926761,-2.959194533202569,11.825918567496599,0.5002143552644992,0.35989282236775044,-0.6653280886948513,0.5401132199598755,0.4567309763187569,-4.323377962050659
1589988774.969505,-0.6,-3.42,12.74,0.5022222222222222,0.3588888888888889,-0.6666666666666666,0.7101308394051928,0.5541420375081997,-4.342597345118391
1589988774.979505,0.4406113205863321,-2.9449383101671094,8.68312398206198,0.5022222222222222,0.3588888888888889,-0.6666666666666666,0.2050798620708062,0.12147621653444168,-3.983139239100269
1589988774.989505,-0.3482761215085113,-3.3250587792720774,10.395876986739395,0.5022222222222222,0.3588888888888889,-0.6666666666666666,-0.2476620854402739,0.1681508521270071,-3.668602314343405
1589988774.999505,-0.7151426727846285,-3.3216324921135647,10.634631846859765,0.5022222222222222,0.3588888888888889,-0.6666666666666666,-0.22341317925838652,0.2828390563305877,-3.3937859968830733
1589988775.009505,0.0566487224497757,-2.680731031792471,7.32098108055393,0.49512376741867675,0.3677619573933208,-0.6681877641245693,0.19025952641872707,0.2476769269675499,-3.093572610234966
1589988775.019505,-0.3810416393011953,-3.4002187048469725,9.661588401418626,0.4711111111111111,0.3977777777777778,-0.6733333333333333,-0.003046925506645398,0.1790598801110569,-2.765094694411244
1589988775.029505,-5.234166372929151,-8.624630243214664,7.4209418399718015,0.4711111111111111,0.3977777777777778,-0.6733333333333333,0.04822441002438315,0.21349815437316502,-2.2732424421306034
1589988775.039505,-1.0208741776803167,-2.676534107746104,10.79163397143365,0.4711111111111111,0.3977777777777778,-0.6733333333333333,-0.15819658185445507,-0.031109397461511146,0.1215720013653856
1589988775.049505,0.07834302325581399,-0.6116569767441862,10.902790697674419,0.4711111111111111,0.3977777777777778,-0.6733333333333333,0.1103388020574031,-0.17789420609898599,2.0730731658190495
1589988775.059505,-0.904087108334099,-1.6354740420839842,6.7330609207020125,0.4430088721451397,0.42894571554003696,-0.6626033875463261,0.30872886655955883,-0.06186661366763885,2.5953890135646
1589988775.069505,2.4345196367402213,-4.479502907671473,5.869627180753605,0.41,0.4655555555555556,-0.65,-0.15538351377339898,-0.17994554186073755,2.3927712985298473
1589988775.079505,1.8020141864932757,-3.7403007241022608,8.497713166839073,0.41,0.4655555555555556,-0.65,-0.46550450039680535,-0.36253012288871356,0.91165896519664
1589988775.089505,-0.9398746423731366,-2.0046928173467853,11.1220810118958,0.41,0.4655555555555556,-0.65,0.13001397905438328,0.14319420766960517,-0.4885618115592244
1589988775.099505,-0.29065253434391286,-1.8141520606347703,7.205742539081005,0.41,0.4655555555555556,-0.65,0.5070913692684833,0.2482242028219043,-0.5428274455985653
1589988775.109505,0.12523233112065602,-4.261507223740726,9.40938207731355,0.4255232331120656,0.44572031324569394,-0.6448255889626447,-0.05908471516301206,-0.03483651800992929,-0.4088301518615552
1589988775.119505,0.17,-5.13,10.88,0.43,0.44,-0.6433333333333333,-0.2356194490192345,-0.09490227807719166,-0.3905174201337313
1589988775.129505,-0.19587926771397887,-5.052602462598966,9.775326057094334,0.43,0.44,-0.6433333333333333,0.036851494450732464,0.05476485988518455,-0.7850246453268666
1589988775.139505,-3.570319620108671,-8.006863613533628,7.8886649011460666,0.43,0.44,-0.6433333333333333,0.11642234076246237,0.1350367920437563,-0.639619220849873
1589988775.149505,-0.8511545967942862,-6.376293704841791,7.913730379536584,0.43,0.44,-0.6433333333333333,0.019834122881158975,-0.028370840834885003,0.03428402967593708
1589988775.159505,1.0452499272863256,-4.173174886774421,8.335163086383846,0.43,0.44609299040179495,-0.6570425617373721,-0.015155055695359205,-0.07267764901869343,0.20677187669402472
1589988775.169505,-0.7328322002472187,-4.7171453955500615,8.672939585908528,0.43,0.4533333333333333,-0.6733333333333333,-0.019060253797448988,0.021873963482707922,-0.10350129275341094
1589988775.1795049,-0.319452479338843,-4.68118332081142,8.301656649135987,0.43,0.4533333333333333,-0.6733333333333333,-0.011252009672755286,0.0019670399938687515,-0.004467099574639172
1589988775.1895049,-0.048241485258547434,-4.531813209561788,8.20060578326905,0.43,0.4533333333333333,-0.6733333333333333,-0.003566194928573376,-0.0066408967955512484,0.035721612079398446
1589988775.1995049,0.054543376623376626,-4.547572294372294,8.693942164502165,0.43,0.4533333333333333,-0.6733333333333333,-0.007835055011566495,-0.010347120248376338,0.0
1589988775.2095048,0.053075379322512356,-4.609231871912491,8.66,0.43,0.4533333333333333,-0.6733333333333333,0.004950789778463317,-0.002349553855726918,-0.0008391487154869745
1589988775.2195048,0.004310722100656456,-4.600175054704596,8.591728665207878,0.43,0.4533333333333333,-0.6733333333333333,0.006394607584919049,-0.0018809073448735393,-0.0009404536724367696
1589988775.2295048,0.0,-4.548499682354356,8.550750158822822,0.43,0.4533333333333333,-0.6733333333333333,0.003695163288383197,0.0,-0.0005863302080330275
1589988775.2395048,0.004684417530278437,-4.548737670121114,8.550631164939443,0.43,0.4533333333333333,-0.6733333333333333,0.00013769882895541463,0.0010219813680187487,-0.002623802834524579
1589988775.2495048,0.001006263198743751,-4.565503131599372,8.589465552406908,0.43,0.4533333333333333,-0.6733333333333333,0.0002709996731274705,0.0007100648221206828,-0.0028917263871135945
1589988775.2595048,-0.005837936046511628,-4.539189680232558,8.633351744186047,0.41566400193798453,0.4561080426356589,-0.6821199127906976,0.003272492347489368,-0.001090830782496456,-0.0006368200345780546
1589988775.2695048,0.005988937233845584,-4.557911497870765,8.687856184039992,0.3955555555555556,0.46,-0.6944444444444444,0.0013126172207539866,-0.001090830782496456,0.0
1589988775.2795048,0.003702793982192201,-4.5459195578753455,8.620353085661652,0.3955555555555556,0.46,-0.6944444444444444,-0.00480843031756267,-0.001777749399291123,-0.002060755850384002
1589988775.2895048,0.010598584077624955,-4.5517957522328745,8.57119716815525,0.3955555555555556,0.46,-0.6944444444444444,-0.008791941653750204,-0.003337787741267923,-0.0009602399949393465
1589988775.2995048,0.02,-4.58,8.571774029071676,0.3955555555555556,0.46,-0.6944444444444444,-0.007497974527359708,-0.0037006081256691394,9.675827602142876e-05
1589988775.3095047,0.020523826043079254,-4.58,8.536809738560029,0.39834929445197825,0.46,-0.6928729663152067,-0.0018388182215144143,-0.0020673804505000793,-0.0020102398932536633
1589988775.3195047,0.01839398965752756,-4.556787979315055,8.625181968972583,0.4488888888888889,0.46,-0.6644444444444444,0.0056293424643399405,-0.00042200644478470565,0.001090830782496456
1589988775.3295047,0.009215021150929844,-4.547645063452789,8.57,0.4488888888888889,0.46,-0.6644444444444444,0.007635815477475192,-0.0020960336557754753,8.56279092174366e-05
1589988775.3395047,0.011212558536800872,-4.571212558536801,8.548031396342003,0.4488888888888889,0.46,-0.6644444444444444,0.005239412565614365,-0.0013553700180007067,-0.0006115502001242906
1589988775.3495047,0.0,-4.551063605687648,8.555745577249409,0.4488888888888889,0.46,-0.6644444444444444,0.002181661564992912,0.0006034260824744385,-0.00048740470002201744
1589988775.3595047,0.0,-4.54,8.60795758143895,0.4418154831653777,0.46324197762327596,-0.6644444444444444,0.0018923157387319388,-0.0005786916525219461,-0.001380176608757429
1589988775.3695047,-0.0017443785071252675,-4.54,8.636977514028501,0.4222222222222222,0.4722222222222222,-0.6644444444444444,0.0012811129596862014,-0.0016108150334236753,-0.002181661564992912
1589988775.3795047,-0.01,-4.554061958192941,8.624298635872943,0.4222222222222222,0.4722222222222222,-0.6644444444444444,0.0006477398790891318,0.0007073503610205109,-0.0014147007220410219
1589988775.3895047,-0.009153060848413372,-4.576612243393654,8.540846939151585,0.4222222222222222,0.4722222222222222,-0.6644444444444444,-0.0023664350244833373,-0.000554320378471276,-9.23867297452127e-05
1589988775.3995047,0.007607612949128425,-4.570430451796514,8.55,0.4222222222222222,0.4722222222222222,-0.6644444444444444,-0.005193184968608617,-0.004470330098421753,-0.000260968943873663
1589988775.4095047,0.010969749462676034,-4.57484874731338,8.59515125268662,0.43225583393035993,0.4692121387097809,-0.6714679726401409,-0.0035898421170482927,-0.0030609258344500845,0.0015833545454848632
1589988775.4195046,0.0,-4.554217049993113,8.65427713124914,0.4444444444444444,0.4655555555555556,-0.68,0.0018662505709354392,-0.00452102862701456,0.0007819736367913324
1589988775.4295046,0.0,-4.570965158189828,8.645482579094914,0.4444444444444444,0.4655555555555556,-0.68,0.004996765114214843,-0.002639050363260349,-0.0014075517746109656
1589988775.4395046,0.0,-4.539440407392573,8.606055959260742,0.4444444444444444,0.4655555555555556,-0.68,0.004824072276657955,-0.001090830782496456,-0.0013212053558325216
1589988775.4495046,-0.0023919727731486914,-4.583256190587959,8.597608027226851,0.4444444444444444,0.4655555555555556,-0.68,0.0011379665522553099,-0.0008299070293120554,0.0002609237531844005
1589988775.4595046,-0.004965925299804533,-4.542585186750489,8.600068149400391,0.4388510281108939,0.4655555555555556,-0.6819576957167427,-0.0019070953827749202,0.0005491323644359834,0.0013653969647144477
1589988775.4695046,0.001568190263842438,-4.5504886659234485,8.63,0.4222222222222222,0.4655555555555556,-0.6877777777777778,0.00028882085935664245,0.0003421260425221142,0.0003421260425221142
1589988775.4795046,0.011403436141585592,-4.536754295176982,8.58719312771683,0.4222222222222222,0.4655555555555556,-0.6877777777777778,0.0027653497398538807,-0.001014285215270975,-0.002181661564992912
1589988775.4895046,0.020890644978724296,-4.555445322489362,8.563664032531914,0.4222222222222222,0.4655555555555556,-0.6877777777777778,0.0017819776176049387,-0.0009936764865896197,-0.001684823321698102
1589988775.4995046,0.01,-4.564541397212861,8.590906047909646,0.4222222222222222,0.4655555555555556,-0.6877777777777778,-0.001982775462537107,-0.0009919962874706475,-0.00029772059748161314
1589988775.5095046,0.0014338190277947832,-4.59,8.618566180972206,0.4336437968518292,0.45794117246915095,-0.6844464851774757,-0.004519728523190593,0.0015580434771422995,-0.001245232690732761
1589988775.5195045,-0.0045923395156417055,-4.562961697578208,8.63540766048436,0.4488888888888889,0.4477777777777778,-0.68,-0.0009129553404382791,0.002181661564992912,-0.0031835546264602794
1589988775.5295045,0.007430954494447887,-4.5548619089888955,8.606560704774985,0.4488888888888889,0.4477777777777778,-0.68,0.002712013563671285,-0.00025011260676933164,-0.0017763658696992046
1589988775.5395045,0.01649734527300103,-4.569492035819003,8.562259291544496,0.4488888888888889,0.4477777777777778,-0.68,0.00564519409231564,-0.003217082050985665,-0.0008997906026630961
1589988775.5495045,0.0058843191599002795,-4.540595117059651,8.63471079789975,0.4488888888888889,0.4477777777777778,-0.68,0.005261225400248154,0.0015397819176276209,0.0
1589988775.5595045,0.017567443350371165,-4.581486051726299,8.663918608375928,0.4488888888888889,0.4477777777777778,-0.68,0.002712363099709228,0.00026535076735815784,0.0
1589988775.5695045,0.0047830047498210685,-4.55,8.65260849762509,0.4177777777777778,0.4722222222222222,-0.68,0.0,-0.0011381718022065957,0.0
1589988775.5795045,-0.005366947048757562,-4.545366947048757,8.60440336458509,0.4177777777777778,0.4722222222222222,-0.68,0.0010107753552302606,-0.0018363847419101721,0.0
1589988775.5895045,0.0,-4.54,8.563801088741034,0.4177777777777778,0.4722222222222222,-0.68,0.002181661564992912,-0.0007636663786214711,0.00037089943222358543
1589988775.5995045,0.0010269530715556164,-4.543080859214667,8.611026953071555,0.4177777777777778,0.4722222222222222,-0.68,0.0017335687559400512,-0.004363323129985824,0.0009788075802332407
1589988775.6095045,0.012116719096965212,-4.5742334381939305,8.62,0.4177777777777778,0.4696351211037092,-0.6816463370754174,-0.002874356269653238,-0.0034397301904387227,-0.00023089823488677526
1589988775.6195045,0.017568052462261816,-4.587568052462261,8.60540831477357,0.4177777777777778,0.46,-0.6877777777777778,-0.00439301661824977,0.0,-0.0005602621353802016
1589988775.6295044,0.005924207089552239,-4.567772621268657,8.547772621268656,0.4177777777777778,0.46,-0.6877777777777778,0.0011321694024021636,0.0008892000739594479,0.000646230745516732
1589988775.6395044,0.008660365997329634,-4.55866036599733,8.53866036599733,0.4177777777777778,0.46,-0.6877777777777778,0.004835672820864463,0.002181661564992912,0.0004723496908786392
1589988775.6495044,0.013166130472131922,-4.5631661304721325,8.587586282403276,0.4177777777777778,0.46,-0.6877777777777778,0.00545415391248228,0.0006907425160803072,0.0003453712580401536
1589988775.6595044,0.0011163589523400601,-4.55223271790468,8.66,0.4198864557988646,0.45925576069844,-0.6854210199895043,0.004723498686765461,-0.0018163339521345024,-0.0009690549115436529
1589988775.6695044,0.005753591429267105,-4.557260774287801,8.66,0.43666666666666665,0.4533333333333333,-0.6666666666666666,-0.001554042100897678,0.0006276194640952339,-0.0018528452736048886
1589988775.6795044,0.0,-4.548403582718651,8.62218387776607,0.43666666666666665,0.4533333333333333,-0.6666666666666666,-0.002640005900630912,-0.0013750330069139994,-0.0020716014517958253
1589988775.6895044,0.0041942135718043136,-4.555805786428196,8.590971067859021,0.43666666666666665,0.4533333333333333,-0.6666666666666666,-0.002357456892991657,-0.0028149746202405126,0.000175795327998745
1589988775.6995044,0.006981215423126275,-4.5530187845768735,8.62,0.43666666666666665,0.4533333333333333,-0.6666666666666666,-0.0007615324682785161,-0.001852363250774972,-0.0014201290967143958
1589988775.7095044,0.0033940686179492153,-4.561697034308974,8.625091102926923,0.43666666666666665,0.4544646895393164,-0.6702492946522797,-0.0005553531789546311,-0.0012759485088146662,-0.002181661564992912
1589988775.7195044,0.01965419654971894,-4.5698270982748594,8.649481294824579,0.43666666666666665,0.45988473218323966,-0.6874127630247033,-0.0032159103902503583,-0.0021628009125799087,-0.002181661564992912
1589988775.7295043,0.0,-4.578439634661141,8.592198173305702,0.43666666666666665,0.46,-0.6877777777777778,-0.005198839730947017,-0.001261040236853298,-0.001090830782496456
1589988775.7395043,0.0,-4.56,8.516746055234506,0.43666666666666665,0.46,-0.6877777777777778,-5.049843588808946e-05,-0.0023591367207301582,-0.0007863789069100528
1589988775.7495043,0.0,-4.56,8.55594573124192,0.43666666666666665,0.46,-0.6877777777777778,0.004938193110269046,-0.00022112605809138574,-7.370868603046184e-05
1589988775.7595043,0.0035413522322112123,-4.546458647767789,8.653541352232212,0.43548621592259623,0.4588195492559296,-0.6877777777777778,0.006158683092322883,0.0005113783785126767,-0.0007045291798406031
1589988775.7695043,0.01847540752240491,-4.5360983699103805,8.665426222567215,0.43,0.4533333333333333,-0.6877777777777778,0.004030708648921172,-0.0023479688055252383,0.001090830782496456
1589988775.7795043,0.006869191530990148,-4.56686919153099,8.608691915309901,0.43,0.4533333333333333,-0.6877777777777778,0.0008155886641542922,-0.002930974122279713,0.000749312557286801
1589988775.7895043,0.0018950184368447692,-4.560947509218422,8.546632564528956,0.43,0.4533333333333333,-0.6877777777777778,-0.0022850187872083417,-0.0020783043427774826,-0.00010335722221542951
1589988775.7995043,0.016805518805518806,-4.566805518805519,8.619583443583444,0.43,0.4533333333333333,-0.6877777777777778,-0.003272492347489368,-0.0007423669403918425,-0.00039390309828722897
1589988775.8095043,0.008291889713923905,-4.56,8.641708110286077,0.4311387401907174,0.4533333333333333,-0.6864492475552741,-0.0028998404914992414,0.0,0.0009045048545013928
1589988775.8195043,0.0,-4.557450839561293,8.644901679122587,0.43666666666666665,0.4533333333333333,-0.68,-0.0013689010501028514,0.00027807026760639543,-0.00027807026760639543
1589988775.8295043,0.002252736822122382,-4.553379105233184,8.617609947478327,0.43666666666666665,0.4533333333333333,-0.68,-0.001935926097949478,0.0007222275819313054,-0.0012136985160181729
1589988775.8395042,0.008963846810538228,-4.571722885107904,8.531036153189461,0.43666666666666665,0.4533333333333333,-0.68,0.0,-0.0018806971745076284,-0.002181661564992912
1589988775.8495042,-0.018314566935198163,-4.551685433064802,8.564213582662004,0.43666666666666665,0.4533333333333333,-0.68,0.00036770445378463736,-0.0009989046690502966,-0.0019058832246544339
1589988775.8595042,-0.005393324194020424,-4.56460667580598,8.59651668951495,0.43666666666666665,0.4533333333333333,-0.68,0.0031866823198217504,-0.00029416020254101837,0.00020835017487340086
1589988775.8695042,0.0,-4.559921916074384,8.66960958037192,0.43666666666666665,0.4533333333333333,-0.6877777777777778,0.005420083372610324,-1.7035269935978147e-05,-8.517634967989073e-06
1589988775.8795042,0.0,-4.55175464901178,8.628773245058904,0.43666666666666665,0.4533333333333333,-0.6877777777777778,0.0018564408443074235,-0.001798856534087428,-0.000899428267043714
1589988775.8895042,0.0,-4.57,8.532015076833865,0.43666666666666665,0.4533333333333333,-0.6877777777777778,-0.002071756173019146,-0.001090830782496456,-0.00098092539052269
1589988775.8995042,0.0,-4.57,8.547216222093361,0.43666666666666665,0.4533333333333333,-0.6877777777777778,-0.0012426623141062573,-0.001090830782496456,-0.00015183153160980138
1589988775.9095042,0.0,-4.54,8.65,0.43662284604805435,0.4534136711341225,-0.6875878884304578,-0.0010836606505429055,-0.003250981951628717,0.0021744914330393615
1589988775.9195042,0.0,-4.54,8.65,0.43096755925895963,0.4637816969141296,-0.6630816456777139,-0.00015831651353439386,-0.00047494954060318126,0.00124914729603085
1589988775.9295042,0.0016911616670022146,-4.5783088383329975,8.629706059995973,0.43,0.4655555555555556,-0.6588888888888889,-0.0014597850234052633,0.00018447712045440367,-0.0019971844445385084
1589988775.9395041,0.009367827662572981,-4.570632172337428,8.537586068049123,0.43,0.4655555555555556,-0.6588888888888889,-0.0031345737383877423,0.001021871477945643,-0.0011597900870472689
1589988775.9495041,0.007800462060264456,-4.577800462060265,8.588798151758942,0.43,0.4655555555555556,-0.6588888888888889,0.0,-0.0004798647383864733,-0.0008508984133032193
1589988775.9595041,0.0009280529566941392,-4.5709280529566945,8.616287788173222,0.43,0.4655555555555556,-0.6588888888888889,0.0,-0.0019791918184031486,-0.00010123487329488168
1589988775.969504,-0.00793849745493513,-4.547938497454935,8.64175398981974,0.4177777777777778,0.4655555555555556,-0.6666666666666666,0.002181661564992912,-0.0017319114781226023,0.0006410806956261463
1589988775.979504,0.0,-4.54,8.608663846546568,0.4177777777777778,0.4655555555555556,-0.6666666666666666,0.002181661564992912,0.0,-0.00107261181603218
1589988775.989504,0.0,-4.552305101454038,8.536152550727019,0.4177777777777778,0.4655555555555556,-0.6666666666666666,0.0011749528064074514,-0.000671139172390307,0.0
1589988775.999504,0.0,-4.576564248142272,8.558589379644319,0.4177777777777778,0.4655555555555556,-0.6666666666666666,-0.0014656131712392894,-0.0018068791762500785,-0.00018739119437141672
1589988776.009504,0.0004739286909943087,-4.559052142618011,8.601895714763977,0.4179884127515531,0.4655555555555556,-0.6669826191273295,-0.003117399546035915,-5.169760048448428e-05,-0.001090830782496456
1589988776.019504,0.00925008369601607,-4.541499832607968,8.637000334784064,0.42188892608711825,0.4655555555555556,-0.6728333891306774,-0.00024540953660449243,-0.001009027603628292,-0.001090830782496456
1589988776.029504,-0.010585558758367678,-4.556276294161088,8.61861852919456,0.4222222222222222,0.4655555555555556,-0.6733333333333333,0.0003423187435458898,-6.387455185878654e-05,0.0
1589988776.039504,0.008071537603475606,-4.568071537603476,8.553856924793049,0.4222222222222222,0.4655555555555556,-0.6733333333333333,0.0004597429389917474,0.001760936335989773,0.0
1589988776.049504,0.001915399518581577,-4.561915399518582,8.566169200962838,0.4222222222222222,0.4655555555555556,-0.6733333333333333,-0.0015548485382986092,0.00041787535112953523,0.0
1589988776.059504,0.0,-4.569127733755943,8.612180665610142,0.4220283852790984,0.4655555555555556,-0.673624088748019,0.0012335550129289558,9.514948695499989e-05,-0.000995681295541456
1589988776.069504,0.0,-4.547618479096685,8.66476304180663,0.4177777777777778,0.4655555555555556,-0.68,0.003064404974738668,0.001142527040795187,0.0005712635203975935
1589988776.079504,0.0,-4.539197443181818,8.671171875,0.4177777777777778,0.4655555555555556,-0.68,-0.0009157400461014282,-0.002094116196795398,-0.0009157400461014282
1589988776.089504,0.0,-4.531358216208134,8.584940378289474,0.4177777777777778,0.4655555555555556,-0.68,0.0007945139726728261,-0.001238989187408271,0.0007945139726728261
1589988776.099504,0.0,-4.561648555148555,8.604945665445666,0.4177777777777778,0.4655555555555556,-0.68,0.0012825142136494248,0.0,-0.0007311718419590611
1589988776.109504,-0.0005899243017488907,-4.5697050378491255,8.63058992430175,0.41813828707329104,0.4655555555555556,-0.6793445285536124,-0.0031759662093358053,0.0,0.001058655403111935
1589988776.119504,-0.015939013632051132,-4.555939013632051,8.647969506816025,0.43,0.4655555555555556,-0.6577777777777778,0.00044298489374571036,0.0006644773406185656,-0.0008859697874914207
1589988776.129504,-0.001976397742971755,-4.541976397742972,8.640988198871487,0.43,0.4655555555555556,-0.6577777777777778,0.0019660700153439014,0.002949105023015852,-0.003932140030687803
1589988776.139504,0.016174906220256427,-4.561912546889872,8.537650187559487,0.43,0.4655555555555556,-0.6577777777777778,0.0012994572845404565,-0.00041725300408800107,0.0008822042804524555
1589988776.149504,0.0005195677733609537,-4.56974021611332,8.568960864453278,0.43,0.4655555555555556,-0.6577777777777778,0.002153323538954148,-0.002124985512915385,2.8338026038763524e-05
1589988776.159504,-0.009974736379613358,-4.5799494727592265,8.62007579086116,0.4299494727592267,0.4655555555555556,-0.6577637424331185,-2.7558334795055456e-06,0.0010935866159759616,0.0010798074485784338
1589988776.169504,-0.0007605448154657298,-4.561521089630931,8.647718365553603,0.4115210896309314,0.4655555555555556,-0.6526447471197032,-0.0010078682128786456,0.0020986989953751013,-0.0029406420690181265
1589988776.179504,0.0,-4.544263404571035,8.64081467943034,0.41,0.4655555555555556,-0.6522222222222223,0.0,0.0006257654880642794,-0.0017165962705607354
1589988776.189504,0.0,-4.559443368741065,8.572504840665207,0.41,0.4655555555555556,-0.6522222222222223,0.0,-0.0010301117313218646,-6.071905117459135e-05
1589988776.199504,-0.008919714848589475,-4.56,8.60108028515141,0.41,0.4655555555555556,-0.6522222222222223,0.0026832881989731455,-0.0003535224891097335,-0.0009729899527932115
1589988776.209504,-0.0004011211081097546,-4.56,8.60959887889189,0.41,0.4655555555555556,-0.6522222222222223,-0.0019628839388753077,-0.003141225771818805,-4.375552522352085e-05
1589988776.2195039,0.0,-4.5515373116943625,8.605388064916912,0.4222222222222222,0.46,-0.68,-0.0031047976556391305,0.0,0.0009231360906462185
1589988776.2295039,0.0,-4.55967968628669,8.580960941139928,0.4222222222222222,0.46,-0.68,-0.0022166023708462892,0.0,3.494080585337688e-05
1589988776.2395039,0.0,-4.578461827978289,8.537690860108553,0.4222222222222222,0.46,-0.68,0.0007552537044850864,0.002349450103998597,-0.0005033656170170545
1589988776.2495039,0.0,-4.57015332197615,8.579233390119251,0.4222222222222222,0.46,-0.68,-0.0010573811162529528,0.0032557675143676168,-0.0032223178481241136
1589988776.2595038,0.0,-4.541360695652174,8.630118782608696,0.4222222222222222,0.46,-0.68,-0.001090830782496456,0.0009294447395973714,-0.0009294447395973714
1589988776.2695038,0.01995920345760795,-4.559979601728804,8.649959203457609,0.43,0.4655555555555556,-0.6733333333333333,-0.0010886056762834224,-0.0021749862463538113,0.0
1589988776.2795038,0.0030173284323625656,-4.551508664216181,8.633017328432363,0.43,0.4655555555555556,-0.6733333333333333,-0.00016456973674614309,0.0005971215722580269,0.0
1589988776.2895038,0.007823731219685319,-4.547823731219685,8.580881343901574,0.43,0.4655555555555556,-0.6733333333333333,0.002181661564992912,0.00023739409765532714,-0.001328224880151783
