time,acc_x,acc_y,acc_z,mag_x,mag_y,mag_z,gyr_x,gyr_y,gyr_z
1589988798.9112933,-3.82,-0.95,8.9,0.3288888888888889,-0.3144444444444445,-0.6322222222222222,-0.015271630954950384,0.009817477042468105,-0.003272492347489368
1589988798.9212933,-3.8316441018332577,-0.9262330763749433,8.925411025458315,0.3555555555555556,-0.3088888888888889,-0.6044444444444445,-0.0045052152211468586,0.003593728127578043,-0.006134077070426239
1589988798.9312932,-3.8926548342511134,-0.946093547750159,8.881251617998727,0.3555555555555556,-0.3088888888888889,-0.6044444444444445,0.0013294058920971048,0.0030849396206421133,-0.004977003693280982
1589988798.9412932,-3.9147078427503343,-0.9552921572496655,8.908213729746322,0.3555555555555556,-0.3088888888888889,-0.6044444444444445,-0.0007047624518806174,0.0026314687198617064,0.005386779703131219
1589988798.9512932,-3.905479318949716,-0.9735620431508513,9.000686129452555,0.3555555555555556,-0.3088888888888889,-0.6044444444444445,-0.003765622152239163,-0.00038855863175292797,0.02788386353245131
1589988798.9612932,-3.896373009823848,-0.9936269901761517,9.060880970528455,0.34830157520325206,-0.31090388343119546,-0.6145194171559771,-0.003967679876789965,-0.0025773048181887705,0.05570597419474761
1589988798.9712932,-3.898678954890249,-0.9956605225548756,9.066981567664627,0.33555555555555555,-0.3144444444444445,-0.6322222222222222,-0.003272492347489368,-0.003272492347489368,0.08255293358144411
1589988798.9812932,-3.8978808946622148,-0.9960595526688927,8.98334492064218,0.33555555555555555,-0.3144444444444445,-0.6322222222222222,-0.003933487005428034,-0.003272492347489368,0.10415620328833297
1589988798.9912932,-3.859600462518759,-0.9696004625187591,8.909600462518759,0.33555555555555555,-0.3144444444444445,-0.6322222222222222,-0.0017104630293304332,-0.003272492347489368,0.11945891938443592
1589988799.0012932,-3.8251238298602503,-0.95,8.899917446759833,0.33555555555555555,-0.3144444444444445,-0.6322222222222222,0.001622738431409334,-0.002190666726549812,0.12760919122897155
1589988799.0112932,-3.8044222949875857,-0.95,8.915577705012414,0.3392740255638316,-0.32250112946237597,-0.6123903821780833,0.0026640591151667614,-0.0016992640148190629,0.12068236463223915
1589988799.0212932,-3.787291389876998,-0.9690629151845026,8.939062915184502,0.3422222222222222,-0.3288888888888889,-0.5966666666666667,0.00564739734622201,-0.0007953672525012731,0.09681086962973175
1589988799.0312932,-3.802509141799467,-0.9856272854498668,8.876845289151731,0.3422222222222222,-0.3288888888888889,-0.5966666666666667,0.010091181953718852,0.0,0.06639584755164538
1589988799.0412931,-3.839935963963168,-0.9999679819815841,8.86485591891713,0.3422222222222222,-0.3288888888888889,-0.5966666666666667,0.011455469528216916,0.0010873381584881978,0.02788778374582892
1589988799.0512931,-3.8727989437947943,-1.0057336854017351,8.931331572991324,0.3422222222222222,-0.3288888888888889,-0.5966666666666667,0.005789097804203183,0.002181661564992912,-0.004318883399880349
1589988799.0612931,-3.89,-0.979279862749303,9.001440274501395,0.3422222222222222,-0.3219821764719899,-0.6066430290466319,-0.0025976416845372393,0.0025583642905031077,-0.0170765897944331
1589988799.071293,-3.89,-0.94,9.076238550247117,0.3422222222222222,-0.3088888888888889,-0.6255555555555555,-0.00504384339475643,0.0024518713120376683,-0.009387182936107392
1589988799.081293,-3.8848496922216005,-0.950300615556799,9.003045998880806,0.3422222222222222,-0.3088888888888889,-0.6255555555555555,-0.0021160774243821566,0.0005290193560955392,0.008923398681803914
1589988799.091293,-3.8759381823280785,-0.96,8.94,0.3422222222222222,-0.3088888888888889,-0.6255555555555555,0.0013292267248260635,0.0013292267248260635,0.01881623555448655
1589988799.101293,-3.863584078875297,-0.9632079605623516,8.936792039437648,0.3422222222222222,-0.3088888888888889,-0.6255555555555555,0.003972360773578933,0.0029225581344445857,0.02504807985405638
1589988799.111293,-3.844436787238508,-0.9533103617155251,8.924436787238509,0.33171393145051575,-0.31568837115293424,-0.6138109952812955,0.0066678586584447185,0.0009679568190304731,0.027877621935392616
1589988799.121293,-3.833984622342831,-0.9460153776571687,8.92601537765717,0.3233333333333333,-0.3211111111111111,-0.6044444444444445,0.005667287742440881,0.002624703646712413,0.02179984122812682
1589988799.131293,-3.8458829948255837,-0.946029251293604,8.898234010348833,0.3233333333333333,-0.3211111111111111,-0.6044444444444445,0.003930181638136365,0.003930181638136365,0.013555019093298168
1589988799.141293,-3.863779792012301,-0.9368898960061506,8.868660623963097,0.3233333333333333,-0.3211111111111111,-0.6044444444444445,0.003951011782140585,0.002254713195512543,0.0062787766081727585
1589988799.151293,-3.8547907093003135,-0.9347907093003134,8.929162837201254,0.3233333333333333,-0.3211111111111111,-0.6044444444444445,0.005976739229959672,-0.0005225853174773924,0.0037950776649667605
1589988799.161293,-3.86,-0.94,8.981941371681415,0.3258683628318584,-0.31806907571288107,-0.6105285152409046,0.004553977182678789,-9.532702634648237e-05,0.003865571251910837
1589988799.171293,-3.864184830442661,-0.9483696608853223,9.011630339114678,0.3288888888888889,-0.3144444444444445,-0.6177777777777778,0.000812179005077998,0.0024603133424113697,0.0028159981608510635
1589988799.181293,-3.87,-0.9571354637026745,8.979948245918722,0.3288888888888889,-0.3144444444444445,-0.6177777777777778,-0.0014033032195665592,0.0028009609446353074,0.0015567166908527054
1589988799.191293,-3.86593403252774,-0.9459340325277398,8.942197902416781,0.3288888888888889,-0.3144444444444445,-0.6177777777777778,-0.002181661564992912,-0.00020377428662230487,0.0
1589988799.201293,-3.862698324726036,-0.942698324726036,8.962698324726038,0.3288888888888889,-0.3144444444444445,-0.6177777777777778,-0.0018873199977597708,0.0007964892152633148,0.0002943415672331412
1589988799.211293,-3.867254158279479,-0.95,8.97,0.3273634212663771,-0.3129189768219327,-0.6199134324492943,0.0010058432883288647,-0.0005990497345215201,0.0004917810479749358
1589988799.221293,-3.862676599291519,-0.9473234007084809,8.959293602833924,0.3233333333333333,-0.3088888888888889,-0.6255555555555555,0.007128928074898176,-0.0015977181850734714,-0.0007988590925367357
1589988799.231293,-3.880399142379896,-0.9451995711899478,8.872804716910574,0.3233333333333333,-0.3088888888888889,-0.6255555555555555,0.006457905336060892,-0.0017015556929330673,0.001134370461955378
1589988799.241293,-3.885902992216985,-0.9418059844339708,8.860970077830146,0.3233333333333333,-0.3088888888888889,-0.6255555555555555,0.003916408909401835,-0.004166320788657347,0.002181661564992912
1589988799.251293,-3.8754655037240298,-0.927732751862015,8.92453449627597,0.3233333333333333,-0.3088888888888889,-0.6255555555555555,0.0022832187233005987,-0.005701472318529472,0.002676298377087297
1589988799.261293,-3.8660740755188017,-0.9220246918396006,8.954172842877204,0.3258079566928451,-0.31293827256809,-0.6212812061163988,-0.002415988492719858,-0.005661546221496468,0.006571919313691494
1589988799.271293,-3.8895867379006916,-0.9295867379006915,9.011653048397234,0.33555555555555555,-0.3288888888888889,-0.6044444444444445,-0.007545655673642204,-0.002136581663076418,0.015722429974115323
1589988799.281293,-3.874181788024548,-0.925818211975452,9.012181622159563,0.33555555555555555,-0.3288888888888889,-0.6044444444444445,-0.005136819676386653,-0.001090830782496456,0.02935328114087121
1589988799.291293,-3.8602680378172165,-0.9397319621827832,8.92174224581191,0.33555555555555555,-0.3288888888888889,-0.6044444444444445,-0.004377942325080485,-0.001090830782496456,0.03694205465393288
1589988799.301293,-3.8678311659687017,-0.9321688340312982,8.958675336125193,0.33555555555555555,-0.3288888888888889,-0.6044444444444445,-0.0028914108420327045,-0.0007097492770397924,0.03576083273003644
1589988799.311293,-3.860127286753361,-0.9398727132466387,8.989490852986556,0.33555555555555555,-0.3288888888888889,-0.6044444444444445,-0.005412499419851134,-0.003230837854858222,0.03492046987076364
1589988799.3212929,-3.83,-0.933085087626503,8.963085087626503,0.3288888888888889,-0.3144444444444445,-0.5966666666666667,0.002558811528756717,-0.0022222806737878715,0.0370882466048795
1589988799.3312929,-3.82809690624262,-0.9180969062426199,8.930969062426199,0.3288888888888889,-0.3144444444444445,-0.5966666666666667,0.003272492347489368,-0.003740537154227692,0.03688065127962679
1589988799.3412929,-3.8390369301480414,-0.9252295441184331,8.869036930148042,0.3288888888888889,-0.3144444444444445,-0.5966666666666667,0.001195885406517546,0.0022317403230584587,0.03682805859877177
1589988799.3512928,-3.8662292284671724,-0.9481146142335862,8.916968471897725,0.3288888888888889,-0.3144444444444445,-0.5966666666666667,-0.0017703341988159478,0.006813160745121264,0.03797341370428748
1589988799.3612928,-3.852399304045237,-0.9447986080904741,9.001996520226186,0.33048842491904695,-0.31791010584312024,-0.6001323280653424,0.001832064296378998,0.003795939289311939,0.03839686395943592
1589988799.3712928,-3.85760289229293,-0.952808676878791,9.04239710770707,0.33555555555555555,-0.3288888888888889,-0.6111111111111112,0.00815878325264141,0.005977121687648498,0.04384981995527733
1589988799.3812928,-3.8453122479001567,-0.8924979832012528,8.99374697480188,0.33555555555555555,-0.3288888888888889,-0.6111111111111112,0.007260704896857314,0.007124461048353034,0.04799655442984406
1589988799.3912928,-3.8267394547673943,-0.8190587277905873,8.95210090872101,0.33555555555555555,-0.3288888888888889,-0.6111111111111112,0.0033989890678249803,0.003169815477415783,0.0489608884920049
1589988799.4012928,-3.8063927265126973,-0.7547490855888808,8.994429093949211,0.33555555555555555,-0.3288888888888889,-0.6111111111111112,0.001001184076742959,8.964670575349696e-05,0.04978472349875365
1589988799.4112928,-3.8,-0.7268037759299263,9.02,0.33555555555555555,-0.3262749681886781,-0.6133516145684347,8.97378029574231e-06,0.0025482630859236448,0.050553791296063445
1589988799.4212928,-3.7737567266297662,-0.7899923124231242,8.997505765682657,0.33555555555555555,-0.3211111111111111,-0.6177777777777778,0.00627122876866726,0.004499362508591672,0.05467757850342863
1589988799.4312928,-3.612637895979537,-0.8152921886272709,8.919849806519316,0.33555555555555555,-0.3211111111111111,-0.6177777777777778,0.015111372480969137,0.008903288301159011,0.060092205841501815
1589988799.4412928,-3.3700578656977527,-0.8001157313955053,8.90621988965146,0.33555555555555555,-0.3211111111111111,-0.6177777777777778,0.020947738324993512,0.018994342385997363,0.07069467174158064
1589988799.4512928,-3.44436087135224,-0.86,9.002255651459103,0.33555555555555555,-0.3211111111111111,-0.6177777777777778,0.0290368722736148,0.021986121099101263,0.07171870903156698
1589988799.4612927,-3.5577726728882504,-0.8561136635558746,9.01052237377363,0.33555555555555555,-0.316361144346069,-0.6208004839009864,0.03981782941790742,0.012423072149899994,0.06114851767259955
1589988799.4712927,-3.5338162988115447,-0.8277331069609507,9.084433276740238,0.33555555555555555,-0.3088888888888889,-0.6255555555555555,0.030172342403757487,0.010964645808671762,0.05781403147231216
1589988799.4812927,-3.4412426146010184,-0.7707646859083193,9.07019117147708,0.33555555555555555,-0.3088888888888889,-0.6255555555555555,0.020850906306593035,0.005527141418659165,0.05781403147231216
1589988799.4912927,-3.1364530245860682,-0.7142280456918385,8.93525731810272,0.33555555555555555,-0.3088888888888889,-0.6255555555555555,0.02864834256589902,0.009586872922945154,0.027513477109234498
1589988799.5012927,-2.7968101859030687,-0.6708693854344343,8.949710204855188,0.33555555555555555,-0.3088888888888889,-0.6255555555555555,0.029436625254175397,0.011951720987774268,-0.004806113110096724
1589988799.5112927,-2.391909571394946,-0.6475454175850042,8.900060556780005,0.3391885343927798,-0.3139191672788917,-0.6202458172549971,0.026708839871233438,0.025644431968624554,-0.10324534908522648
1589988799.5212927,-2.0547873760144273,-0.6900944995491434,8.975212623985572,0.35,-0.3288888888888889,-0.6044444444444445,0.014708176035703069,0.034105212943299115,-0.2175091006266964
1589988799.5312927,-1.7622597952102903,-0.8862301768638402,8.977354827790471,0.35,-0.3288888888888889,-0.6044444444444445,0.01539545598766941,0.058802342438692805,-0.37397122398065596
1589988799.5412927,-1.4970578093663136,-1.1257355476584214,8.731471095316843,0.35,-0.3288888888888889,-0.6044444444444445,0.04158498262673956,0.08787046682279612,-0.49558329650164246
1589988799.5512927,-1.650538129496403,-1.1789658273381296,8.717903597122302,0.35,-0.3288888888888889,-0.6044444444444445,0.06665501877185916,0.10161724402935654,-0.6948714508676574
1589988799.5612926,-1.8065669861945604,-1.32850754483328,8.85552217584736,0.34522389885183996,-0.3274958593873422,-0.6082255245200712,0.05709768440338659,0.07505569191364427,-0.8254983397338815
1589988799.5712926,-2.02,-1.23,9.11,0.3233333333333333,-0.3211111111111111,-0.6255555555555555,0.03381575425739013,0.04908738521234052,-0.904298718689562
1589988799.5812926,-2.0897129665255867,-1.1995005771450558,9.044644093882262,0.3233333333333333,-0.3211111111111111,-0.6255555555555555,0.03714272518724504,0.06049414268612878,-0.9632336323041346
1589988799.5912926,-2.194204116515918,-1.164734705505306,8.936326472473471,0.3233333333333333,-0.3211111111111111,-0.6255555555555555,0.043000998488238254,0.08146503900574718,-1.0700338345354568
1589988799.6012926,-2.2408764255585063,-1.17,8.952455085142946,0.3233333333333333,-0.3211111111111111,-0.6255555555555555,0.042197990423403754,0.08667324560957897,-1.1291814684759227
1589988799.6112926,-2.302230894687791,-1.1883463420316869,9.016942276328052,0.3372629633944289,-0.3211111111111111,-0.6211388435849643,0.037845531476803085,0.08599524571566436,-1.1860478943648447
1589988799.6212926,-2.33,-1.235505686310284,8.987977254758864,0.3688888888888889,-0.3211111111111111,-0.6111111111111112,0.03828940102608493,0.09204039797371262,-1.2374251251995847
1589988799.6312926,-2.33,-1.2482597457884814,8.936961016846075,0.3688888888888889,-0.3211111111111111,-0.6111111111111112,0.041071905162206615,0.09551852814386473,-1.2687282967309537
1589988799.6412926,-2.328271033445203,-1.3269158662191876,8.786915866219188,0.3688888888888889,-0.3211111111111111,-0.6111111111111112,0.043256029311882375,0.100167830995686,-1.3294423471512335
1589988799.6512926,-2.3213368161753762,-1.354652735298494,8.814652735298495,0.3688888888888889,-0.3211111111111111,-0.6111111111111112,0.04174321778179331,0.09941142523064146,-1.3589421719879706
1589988799.6612926,-2.3986734934338783,-1.3739795196983655,8.891989759849183,0.3694047525534918,-0.3198582993542183,-0.6106689422557372,0.04406732955851104,0.10370127404693878,-1.40476182845438
1589988799.6712925,-2.3807026714368344,-1.4278919856894963,8.918945992844748,0.3763934055523421,-0.30288585635701043,-0.6046786682567227,0.049948267304852925,0.10468143033799576,-1.4312260483129184
1589988799.6812925,-2.3987150722167194,-1.4629050240722397,8.93256985556656,0.37666666666666665,-0.3022222222222222,-0.6044444444444445,0.049227549090269274,0.10471975511965977,-1.4577764980204495
1589988799.6912925,-2.4333433121781822,-1.4780059873069094,8.89800598730691,0.37666666666666665,-0.3022222222222222,-0.6044444444444445,0.048361253213789715,0.10471975511965977,-1.4788787007212463
1589988799.7012925,-2.4636909799554565,-1.5021030066815144,8.926309020044544,0.37666666666666665,-0.3022222222222222,-0.6044444444444445,0.05190107267503154,0.10586676733165562,-1.4921394708717513
1589988799.7112925,-2.440337416481069,-1.5098875278396438,8.949662583518931,0.37666666666666665,-0.3022222222222222,-0.6044444444444445,0.05020275361377508,0.11011256498479675,-1.4997819066474056
1589988799.7212925,-2.55,-1.5841205688375928,8.949662613355319,0.4011111111111111,-0.27555555555555555,-0.5966666666666667,0.04649304248816572,0.11239237377089725,-1.5108374369313537
1589988799.7312925,-2.5596201090822857,-1.6348100545411428,8.901139672753143,0.4011111111111111,-0.27555555555555555,-0.5966666666666667,0.044420274633703086,0.11322549327238646,-1.514294034212326
1589988799.7412925,-2.585969921755919,-1.6661203129763236,8.814030078244082,0.4011111111111111,-0.27555555555555555,-0.5966666666666667,0.046685916977121975,0.10930288491987122,-1.518216642564841
1589988799.7512925,-2.572004230565838,-1.7346765379869558,8.83133615371056,0.4011111111111111,-0.27555555555555555,-0.5966666666666667,0.045742016984969935,0.11031966079190447,-1.517272742572689
1589988799.7612925,-2.6031812360257884,-1.8010604120085962,8.854241648034385,0.406766641823624,-0.2719030253037243,-0.5959597253276026,0.04553377312512861,0.11247124360324552,-1.5153294036211893
1589988799.7712924,-2.6294480607785897,-1.8102759696107051,8.890137984805353,0.4544444444444444,-0.2411111111111111,-0.59,0.05237492936714942,0.1133711423430337,-1.5074528823735047
1589988799.7812924,-2.5990275788290327,-1.8254862105854837,8.897743105292742,0.4544444444444444,-0.2411111111111111,-0.59,0.05320451932037327,0.10922319257691447,-1.5033049326073853
1589988799.7912924,-2.6172930163024133,-1.8910827934790346,8.872165586958069,0.4544444444444444,-0.2411111111111111,-0.59,0.053214479450722836,0.10356986711426246,-1.496383604693534
1589988799.8012924,-2.5799692105075818,-1.9060123157969673,8.902024631593935,0.4544444444444444,-0.2411111111111111,-0.59,0.049957362948249096,0.10275558798864401,-1.4931264881910602
1589988799.8112924,-2.616215544367527,-1.916307426054122,8.936215544367526,0.45598625970211865,-0.2395692958534368,-0.5935041255856234,0.04881217183241426,0.10362892433716332,-1.4797069450878382
1589988799.8212924,-2.5866828172178917,-1.983220279474756,8.906682817217892,0.4666666666666667,-0.2288888888888889,-0.6177777777777778,0.04582017812038042,0.10362892433716332,-1.4729992606457922
1589988799.8312924,-2.5774681917005386,-2.0375954248983836,8.862022875508082,0.4666666666666667,-0.2288888888888889,-0.6177777777777778,0.043080876414171784,0.1033527468943201,-1.465510337800674
1589988799.8412924,-2.5693092906074844,-2.0620721281775465,8.752762837570062,0.4666666666666667,-0.2288888888888889,-0.6177777777777778,0.04160225914828838,0.10261343826137839,-1.4597936259889277
1589988799.8512924,-2.5564437027584175,-2.0953344458623735,8.802447040345537,0.4666666666666667,-0.2288888888888889,-0.6177777777777778,0.04363323129985824,0.10324099248688079,-1.4476534495295872
1589988799.8612924,-2.5399578974641317,-2.1200421025358684,8.859978948732065,0.46673917658955066,-0.22879532769807084,-0.617794150986171,0.043640120311180156,0.10144267009795578,-1.4431622362314893
1589988799.8712924,-2.521991768810951,-2.1499588440547552,8.844024693567146,0.5011111111111111,-0.18444444444444444,-0.6255555555555555,0.04907840637794939,0.1010037473916589,-1.4392448280761412
1589988799.8812923,-2.5294970027735526,-2.187485013867764,8.821508991679341,0.5011111111111111,-0.18444444444444444,-0.6255555555555555,0.057265346614193254,0.10755329958065403,-1.436788746005268
1589988799.8912923,-2.485552517291298,-2.258328775936947,8.856091362393437,0.5011111111111111,-0.18444444444444444,-0.6255555555555555,0.0493902280514251,0.09829531099852293,-1.42983807470517
1589988799.9012923,-2.483192416909971,-2.284201895772507,8.958403791545013,0.5011111111111111,-0.18444444444444444,-0.6255555555555555,0.052011638896234044,0.10236397422286893,-1.4205548589431047
1589988799.9112923,-2.416775839693817,-2.2983879198469084,8.984626399489695,0.5018872978514884,-0.18265324427434274,-0.6259137955895758,0.05954964802825137,0.10651398856409376,-1.4086499683234837
1589988799.9212923,-2.3614213756241336,-2.270710687812067,8.892368959373558,0.5152133725349307,-0.15190076423562995,-0.6320642915973185,0.07061974614348215,0.1185904592352546,-1.3965734976523227
1589988799.9312923,-2.4563699963937973,-2.451233321312658,8.943973314100253,0.5155555555555555,-0.1511111111111111,-0.6322222222222222,0.048907769873253654,0.10365111072595985,-1.38479476944068
1589988799.9412923,-2.4714869940186395,-2.5214869940186393,9.018921964111838,0.5155555555555555,-0.1511111111111111,-0.6322222222222222,0.0007441138068385901,0.06721484119961331,-1.3873269043169645
1589988799.9512923,-2.44,-2.4834018830525273,8.80195800297324,0.5155555555555555,-0.1511111111111111,-0.6322222222222222,0.02863174042595474,0.08757025194548605,-1.3685089069604623
1589988799.9612923,-2.4386852100742127,-2.4561356863203416,8.677092269035237,0.5163346903263926,-0.14882240272177746,-0.6338778836102509,0.07336377232640544,0.11628862973005123,-1.3380669132368677
1589988799.9712923,-2.399041948203777,-2.5881736580339627,9.031736580339627,0.5333333333333333,-0.09888888888888887,-0.67,0.048261118774420846,0.10132317258408091,-1.3299219468667716
1589988799.9812922,-2.3502565194055265,-2.58,8.945382650700523,0.5333333333333333,-0.09888888888888887,-0.67,0.01580328755627669,0.07665196500180066,-1.330561717308206
1589988799.9912922,-2.365782051044771,-2.58,8.66592308119413,0.5333333333333333,-0.09888888888888887,-0.67,0.047981170427026,0.09443447921984632,-1.315319562264167
1589988800.0012922,-2.3572529279453964,-2.6781686186302647,8.952674474521059,0.5333333333333333,-0.09888888888888887,-0.67,0.04947109232199521,0.095094131632019,-1.3058243330068877
1589988800.0112922,-2.337733964166602,-2.6651559761110684,8.900623904444274,0.5333333333333333,-0.09888888888888887,-0.67,0.036695960402589656,0.08870656567231625,-1.3065340625579658
1589988800.0212922,-2.291159509202454,-2.6988404907975463,8.821739263803682,0.565700408997955,-0.06760071574642128,-0.6678421949556919,0.04752224380585979,0.09782694263375924,-1.2972823867626764
1589988800.0312922,-2.280995211963532,-2.718009576072936,8.937062244474081,0.5666666666666667,-0.06666666666666668,-0.6677777777777778,0.039156124447812676,0.0932634204346636,-1.2979800703862894
1589988800.0412922,-2.254974361311789,-2.7812564096720527,8.731256409672053,0.5666666666666667,-0.06666666666666668,-0.6677777777777778,0.03232495135931252,0.09136127315462665,-1.2987683028495687
1589988800.0512922,-2.2184765109246563,-2.7922852336130157,8.746093956301376,0.5666666666666667,-0.06666666666666668,-0.6677777777777778,0.04422550144830002,0.09700084620317546,-1.2957407827277714
1589988800.0612922,-2.2006124622002643,-2.8190813066996037,8.817550151198944,0.5666666666666667,-0.06666666666666668,-0.6677777777777778,0.03837950517372503,0.0960265134907463,-1.2937921173029132
1589988800.0712922,-2.181966118296565,-2.8650847042585874,8.792949177444846,0.5606553727655217,-0.02558949167550935,-0.6757928363126378,0.04309705570987757,0.09796030018868876,-1.2897909253827955
1589988800.0812922,-2.132907965112408,-2.8647280232583943,8.791087906966423,0.56,-0.021111111111111112,-0.6766666666666666,0.04208598930667345,0.09894839142127343,-1.2880726165831569
1589988800.0912921,-2.1064069800705636,-2.8853895298941548,8.735389529894155,0.56,-0.021111111111111112,-0.6766666666666666,0.03728421544193713,0.1022311381204009,-1.2831239556500982
1589988800.1012921,-2.0914518150097354,-2.9172590750486767,8.777421780116823,0.56,-0.021111111111111112,-0.6766666666666666,0.03786234048675403,0.10486037520029041,-1.2793861394180317
1589988800.1112921,-2.0995375243382877,-2.9576876216914387,8.874450292059453,0.56,-0.021111111111111112,-0.6766666666666666,0.03609831235997327,0.09956829081994817,-1.2785041253546414
1589988800.121292,-2.073521204616813,-3.0,8.857840401538937,0.5733333333333334,0.015555555555555557,-0.7266666666666667,0.03661709530904777,0.1014472627721704,-1.269639983368792
1589988800.131292,-2.0469387658750766,-3.0,8.836224446437845,0.5733333333333334,0.015555555555555557,-0.7266666666666667,0.034739620619091846,0.1014472627721704,-1.2640279923295312
1589988800.141292,-2.023953863944493,-3.003627681633304,8.76,0.5733333333333334,0.015555555555555557,-0.7266666666666667,0.03328812935142945,0.10118345031919006,-1.2554499053975057
1589988800.151292,-1.9821413190844566,-3.028715208549326,8.76,0.5733333333333334,0.015555555555555557,-0.7266666666666667,0.029639296469202096,0.09935903387807637,-1.247240031412494
1589988800.161292,-1.9734936154210878,-3.0755446920523846,8.753493615421087,0.5733333333333334,0.015555555555555557,-0.7266666666666667,0.028742694669260552,0.10281428349789626,-1.2418514291864429
1589988800.171292,-1.97,-3.090942507483712,8.795287462581442,0.5914483183659095,0.015555555555555557,-0.753839144215531,0.02638556201510819,0.1086718317792591,-1.2243634814424766
1589988800.181292,-1.97,-3.1270429453093302,8.747322698443206,0.5933333333333334,0.015555555555555557,-0.7566666666666667,0.02399827721492203,0.10736237637722405,-1.20758019255657
1589988800.191292,-1.969151782396512,-3.168727673594768,8.672544652810464,0.5933333333333334,0.015555555555555557,-0.7566666666666667,0.023905751027708023,0.11022017212574904,-1.193904549710335
1589988800.201292,-1.948678190954774,-3.1439654271356785,8.73198271356784,0.5933333333333334,0.015555555555555557,-0.7566666666666667,0.021239867651883154,0.11097636581561551,-1.1800720544480583
1589988800.211292,-1.9318166834170853,-3.194549949748744,8.757274974874372,0.5933333333333334,0.015555555555555557,-0.7566666666666667,0.013882647067320524,0.1072977555233342,-1.1635183081327927
1589988800.221292,-1.9080352893524377,-3.2,8.819345096450814,0.6133333333333333,-0.008888888888888889,-0.7477777777777778,0.005382715017380302,0.11330352358942744,-1.1395087816941512
1589988800.231292,-1.8777551567104205,-3.20112242164479,8.797653361907313,0.6133333333333333,-0.008888888888888889,-0.7477777777777778,0.004363323129985824,0.11077499098220774,-1.1156528078967134
1589988800.241292,-1.8543276115510456,-3.208452984968467,8.699484328322821,0.6133333333333333,-0.008888888888888889,-0.7477777777777778,0.004138318914335031,0.10673266352291459,-1.0949349111150335
1589988800.251292,-1.7524465603127561,-3.1836698404691344,8.69203880026063,0.6133333333333333,-0.008888888888888889,-0.7477777777777778,-0.00017791888669257201,0.10318412712043189,-1.0691264437522139
1589988800.261292,-1.805341446497257,-3.2630121697458856,8.736117872081048,0.6133333333333333,-0.008888888888888889,-0.7477777777777778,-0.004024543559139246,0.0935675654393152,-1.0479700080537575
1589988800.271292,-1.825173010380623,-3.3468973471741634,8.745173010380624,0.6377777777777778,-0.01,-0.8,-0.001241181738100062,0.08485896005957004,-1.0137573597864684
1589988800.281292,-1.852323124042879,-3.389292496171516,8.758384379785605,0.6377777777777778,-0.01,-0.8,0.003779319390995378,0.07828640281799182,-0.98596243718062
1589988800.291292,-1.8683809341500768,-3.453523736600306,8.678095329249617,0.6377777777777778,-0.01,-0.8,0.007282590103878139,0.07653476746155044,-0.9623153598686613
1589988800.301292,-1.870266113650813,-3.520088704550271,8.710709636402168,0.6377777777777778,-0.01,-0.8,0.010898631659566253,0.06763150851478028,-0.9323990625687155
1589988800.311292,-1.8893132209136871,-3.526437740304562,8.7615019224365,0.6377777777777778,-0.01,-0.8,0.010206059295571085,0.06763150851478028,-0.9136996087408459
1589988800.321292,-1.8723594324750394,-3.5645507094062006,8.80382028376248,0.5717475331348164,-0.056835406083961,-0.7639137035090793,0.009817477042468105,0.06537016987213785,-0.8821020605757363
1589988800.331292,-1.8470399630932473,-3.5735199815466236,8.797039963093248,0.5422222222222223,-0.07777777777777778,-0.7477777777777778,0.013351778842512126,0.0636521558072821,-0.8514588151969006
1589988800.341292,-1.84,-3.611420107971675,8.682307719273645,0.5422222222222223,-0.07777777777777778,-0.7477777777777778,0.018886217258136776,0.05784630593001485,-0.8119266586725765
1589988800.351292,-1.847103850283786,-3.6413115508513574,8.688415401135144,0.5422222222222223,-0.07777777777777778,-0.7477777777777778,0.01653531465941629,0.05517338097705575,-0.7813268328607216
1589988800.361292,-1.8177812790732573,-3.658054680231686,8.748328081390113,0.5422222222222223,-0.07777777777777778,-0.7477777777777778,0.016150260268939228,0.05014839255487856,-0.7431012251773512
1589988800.3712919,-1.7879845618972725,-3.6893539174703034,8.76,0.5291760366798652,-0.009285303680403215,-0.6686852779272381,0.01796346957562021,0.04828688129325383,-0.7090936449361603
1589988800.3812919,-1.7498007303077725,-3.6200996348461136,8.690298904538341,0.5244444444444445,0.015555555555555557,-0.64,0.017377213189938196,0.04464798275234959,-0.666117211455309
1589988800.3912919,-1.7352143974960876,-3.6273928012519563,8.71217840375587,0.5244444444444445,0.015555555555555557,-0.64,0.0118082858977848,0.03907905546019619,-0.638272574994542
1589988800.4012918,-1.691553605820672,-3.610776802910336,8.700776802910335,0.5244444444444445,0.015555555555555557,-0.64,0.022399030116509188,0.040233634873389774,-0.5937192597643457
1589988800.4112918,-1.6982097140445713,-3.6510485702228563,8.77388742640114,0.5244444444444445,0.015555555555555557,-0.64,0.016638660275707304,0.03856965719330651,-0.5627682658710466
1589988800.4212918,-1.6709515218633895,-3.425809695627322,10.319057766504715,0.5311111111111111,0.10444444444444444,-0.5966666666666667,0.04932490356113003,0.14879511347877827,-0.4909277467708827
1589988800.4312918,-1.4836524721348956,-3.463269505573021,8.378639611317519,0.5311111111111111,0.10444444444444444,-0.5966666666666667,0.19152575556854823,0.05317729919792809,-0.46314137339012285
1589988800.4412918,-1.3022031226912278,-3.28134635275575,8.623218736147367,0.5311111111111111,0.10444444444444444,-0.5966666666666667,-0.1309130451998481,-0.16751269331504517,-0.5075928231283128
1589988800.4512918,-1.4805724094881398,-3.3951516853932584,9.666531210986266,0.5311111111111111,0.10444444444444444,-0.5966666666666667,-0.1249972235156844,0.04721792459227559,-0.4463021454640115
1589988800.4612918,-1.4936632334581772,-3.5129691011235953,9.12980742821473,0.5311111111111111,0.10444444444444444,-0.5966666666666667,0.03493736253761995,0.054357861469655246,-0.39989255576104377
1589988800.4712918,-1.6708681378049286,-3.8847570959564477,9.499514191912896,0.549097230880051,0.13941745510627196,-0.6036612687990321,0.022104430329647776,0.030346293130033453,-0.37252249746836685
1589988800.4812918,-1.378530900939203,-3.3154622579523054,8.343590422448113,0.5511111111111111,0.14333333333333334,-0.6044444444444445,-0.036754753330441016,-0.02333004691742357,-0.3767152887153063
1589988800.4912918,-1.5082197657789975,-3.550523325474433,8.854240327754802,0.5511111111111111,0.14333333333333334,-0.6044444444444445,0.01806433146133861,0.019994713643821622,-0.3493057463194165
1589988800.5012918,-1.5794773593644234,-3.7105226406355767,8.88627168762692,0.5511111111111111,0.14333333333333334,-0.6044444444444445,0.03101458599448223,0.01751792081419288,-0.32937388506458265
1589988800.5112917,-1.5720059496241405,-3.7179940503758595,8.975928604510313,0.5511111111111111,0.14333333333333334,-0.6044444444444445,0.0065644547944490005,0.00284784209417294,-0.3285588806912482
1589988800.5212917,-1.5250622467412,-3.645103744568667,8.745352731533467,0.5561041948065334,0.16330566811502223,-0.5936260964376963,0.03349664777646845,0.017699971628693165,-0.31281722875697227
1589988800.5312917,-1.5607906550176185,-3.703030844234204,8.831976637544045,0.5577777777777778,0.17,-0.59,0.015429750607401841,0.013032471334520577,-0.30303533982612646
1589988800.5412917,-1.601282038905247,-3.8582478158034466,8.933205097263118,0.5577777777777778,0.17,-0.59,0.023527446068661313,0.010087854803153497,-0.29199302783349984
1589988800.5512917,-1.4348427879484442,-3.5689434364994663,8.165308266973154,0.5577777777777778,0.17,-0.59,0.022221389899734878,0.013776025922648164,-0.2666909771458618
1589988800.5612917,-1.5884306385550258,-3.8499123749412476,8.89499261397972,0.5577777777777778,0.17,-0.59,0.020346781047918268,0.008301461764410515,-0.2525782860295466
1589988800.5712917,-1.578775149237232,-3.900481980986071,8.956566438204732,0.5752855774191171,0.19672243103151793,-0.6019790208072322,0.013302443835984307,0.009977375518876494,-0.22753022609734336
1589988800.5812917,-1.6245581082380083,-3.9660774776506775,8.961731231375564,0.5788888888888889,0.20222222222222225,-0.6044444444444445,0.015129004017494679,0.01090830782496456,-0.20875344971411355
1589988800.5912917,-1.4424233407119789,-3.7430003265957836,8.298077802373262,0.5788888888888889,0.20222222222222225,-0.6044444444444445,0.012049490124510603,0.009830064921730502,-0.1845643961893618
1589988800.6012917,-1.612499345663933,-3.9578939103123365,8.979997382655732,0.5788888888888889,0.20222222222222225,-0.6044444444444445,0.016950917455111403,0.0018946308862274868,-0.17048542146847998
1589988800.6112916,-1.5530376854175594,-3.9184301483340476,9.003822611250536,0.5788888888888889,0.20222222222222225,-0.6044444444444445,0.012416120809621164,0.005288473874431564,-0.15732537062953236
1589988800.6212916,-1.53,-3.861707736031731,8.72195415222212,0.5990986948721418,0.2075405922178151,-0.6172085324338674,0.015085345851771315,0.006544984694978735,-0.13814324773147496
1589988800.6312916,-1.5205174106099557,-3.8789651787800885,8.880686609020799,0.6,0.20777777777777776,-0.6177777777777778,0.012168460833619964,0.005510594654535263,-0.12503199810923174
1589988800.6412916,-1.52,-3.889504090713363,8.652397732165925,0.6,0.20777777777777776,-0.6177777777777778,0.01925628690430356,0.006490889383459785,-0.1108771480818884
1589988800.6512916,-1.5016051119979699,-3.844012779994925,8.777961660015224,0.6,0.20777777777777776,-0.6177777777777778,0.007595528041022752,0.0005252716730220078,-0.10315091050652588
1589988800.6612916,-1.4540764914235682,-3.9088852628646475,8.698152982847136,0.6,0.20777777777777776,-0.6177777777777778,0.008214810588159127,0.0,-0.09919844176830608
1589988800.6712916,-1.4660377358490566,-3.9885849056603773,8.845754716981132,0.6130188679245283,0.2200733752620545,-0.6228406708595388,0.005886369882905404,0.0007100690942665609,-0.09178414857628199
1589988800.6812916,-1.4886267028148743,-4.08038691970412,9.009013622518994,0.62,0.22666666666666666,-0.6255555555555555,0.0024812685336030775,0.003913912677070575,-0.08365215689125607
1589988800.6912916,-1.4476612000895113,-4.023467600140661,8.759918800549855,0.62,0.22666666666666666,-0.6255555555555555,0.0008621053868123586,0.0050231012190761004,-0.08092380520245983
1589988800.7012916,-1.4454137612986533,-3.99906032097399,8.596353440324663,0.62,0.22666666666666666,-0.6255555555555555,0.005544422624717644,0.0026819426001234575,-0.0810167527784207
1589988800.7112916,-1.4711017227945633,-3.993347415808155,8.77207670331573,0.62,0.22666666666666666,-0.6255555555555555,0.0056991210192086075,0.003512850975106889,-0.08483983392799724
1589988800.7212915,-1.5092002156721782,-4.009200215672178,8.961100377426312,0.6978672417924755,0.22179996405463695,-0.651511302819714,0.0016798676419519918,0.00545415391248228,-0.09204433671632861
1589988800.7312915,-1.4804983419138529,-4.026583609681024,8.848327806379508,0.7266666666666667,0.22,-0.6611111111111111,-0.0017818108575048373,0.0068904747324829265,-0.10099305139469844
1589988800.7412915,-1.442621409921671,-3.9344177545691905,8.57145691906005,0.7266666666666667,0.22,-0.6611111111111111,0.009049623311499319,0.001948685173326567,-0.11704187077864843
1589988800.7512915,-1.4332966438738486,-3.913296643873849,8.607033561261513,0.7266666666666667,0.22,-0.6611111111111111,0.005058526058210958,0.0025532762241848566,-0.1320625642673093
1589988800.7612915,-1.43,-3.958509145343126,8.683119240305002,0.7266666666666667,0.22,-0.6611111111111111,0.004533451297120744,0.006212229512649158,-0.13971140424311382
1589988800.7712915,-1.4124517877344838,-3.9766023836459787,8.77264463679655,0.9619426977821042,0.22649933787611706,-0.7202550857837764,0.0033546296754776036,0.006812433248270969,-0.1432694549576437
1589988800.7812915,-1.382721209720021,-3.934081814580032,8.680409072900158,1.1288888888888888,0.2311111111111111,-0.7622222222222222,0.007687713495091984,0.007338977544652431,-0.13659878772726297
1589988800.7912915,-1.317608050148466,-3.9567394070792288,8.579781778762314,1.1288888888888888,0.2311111111111111,-0.7622222222222222,0.0009484680339112324,0.005691270920960088,-0.11873438829918215
1589988800.8012915,-1.3442800734618918,-4.097120293847567,8.612850091827363,1.1288888888888888,0.2311111111111111,-0.7622222222222222,0.0009348439839617814,0.006388997896444061,-0.09802201404788516
1589988800.8112915,-1.3927499251870323,-4.198374862842893,8.76249975062344,1.1288888888888888,0.2311111111111111,-0.7622222222222222,-0.0012408159346753206,0.007322200267369328,-0.07858075105698922
1589988800.8212914,-1.4043695038651887,-4.258152480674057,8.82,1.2765330097572725,-0.052916138356033704,-0.9674225258020097,-0.0009532778640770289,0.00702162362701725,-0.06523872128972873
1589988800.8312914,-1.3757813174310487,-4.215416846482797,8.731198163913845,1.3911111111111112,-0.2733333333333333,-1.1266666666666667,0.000880616148590748,0.0039031362492064924,-0.052950763848579094
1589988800.8412914,-1.3756713377747147,-4.205671337774715,8.641943946703423,1.3911111111111112,-0.2733333333333333,-1.1266666666666667,0.006040006640571502,0.001416551400711226,-0.04941310583055529
1589988800.8512914,-1.3906318980258043,-4.241895694077413,8.696318980258043,1.3911111111111112,-0.2733333333333333,-1.1266666666666667,0.007497956713885947,0.0005798800821455395,-0.05495511541559053
1589988800.8612914,-1.385487238415848,-4.231299302442261,8.785162412805281,1.3911111111111112,-0.2733333333333333,-1.1266666666666667,0.006509551717483949,0.0016185296849972907,-0.06794660955231238
1589988800.8712914,-1.382861349379081,-4.198574232919388,8.754277301241839,1.1086377710446331,-0.15091234109541624,-0.9580400859187186,0.0062328598967608916,0.002649313425231012,-0.08649096863796986
1589988800.8812914,-1.3518912154031288,-4.189381949458483,8.747490734055354,0.7322222222222222,0.012222222222222223,-0.7333333333333333,0.006612403550561188,0.0017731054004391249,-0.12393806697792405
1589988800.8912914,-1.3712802304357745,-4.089183493041296,8.718719769564226,0.7322222222222222,0.012222222222222223,-0.7333333333333333,0.012138790084264193,0.0037926155465698563,-0.16209062880915587
1589988800.9012914,-1.3741259796045513,-4.134614224349936,8.75699216316359,0.7322222222222222,0.012222222222222223,-0.7333333333333333,0.011167700710647228,0.008207860488606313,-0.1878513835239934
1589988800.9112914,-1.37,-4.159537748505915,8.754191059885352,0.7322222222222222,0.012222222222222223,-0.7333333333333333,0.011491541078137976,0.011466329170187849,-0.22189246318988284
1589988800.9212914,-1.398452893142506,-4.060331899200984,8.7143094213715,0.6746841494229324,0.11149120496385401,-0.7055127267051052,0.008744748553227582,0.013240630275098125,-0.26279970711536627
1589988800.9312913,-1.3506034214618974,-4.046264385692068,8.71,0.6311111111111111,0.18666666666666668,-0.6844444444444444,0.0029308231101724375,0.01754524124220038,-0.30700931914450097
1589988800.9412913,-1.3651726816443595,-4.06,8.618551027724665,0.6311111111111111,0.18666666666666668,-0.6844444444444444,0.018295987978051365,0.01854412330243975,-0.33366646918497117
1589988800.9512913,-1.401830065359477,-4.06,8.703703703703704,0.6311111111111111,0.18666666666666668,-0.6844444444444444,0.0115951272065364,0.021719177606176712,-0.3707992872309576
1589988800.9612913,-1.3840853559211599,-4.118307949177391,8.73704267796058,0.6311111111111111,0.18666666666666668,-0.6844444444444444,0.007958409268910656,0.022200734145459616,-0.40016529333487455
1589988800.9712913,-1.3470258178767827,-4.127025817876783,8.722341939292262,0.6038824508169274,0.24112398725503395,-0.700611461494116,0.013738835272508725,0.02682880466246619,-0.4310364951042386
1589988800.9812913,-1.4014416143938209,-4.096959394602317,8.773761412594594,0.5955555555555555,0.2577777777777778,-0.7055555555555556,0.012758290793435736,0.02668604023723142,-0.4583676451270343
1589988800.9912913,-1.42,-4.042324275316695,8.694648550633389,0.5955555555555555,0.2577777777777778,-0.7055555555555556,0.011132369473088091,0.02617993877991494,-0.49589760218091555
1589988801.0012913,-1.3622795262138871,-4.209574807334573,8.734133859762347,0.5955555555555555,0.2577777777777778,-0.7055555555555556,0.015805451015000135,0.03107708196995052,-0.516556475430597
1589988801.0112913,-1.2900623808698666,-4.3499376191301335,8.75184653675903,0.5955555555555555,0.2577777777777778,-0.7055555555555556,0.02092040608389987,0.03421180138763349,-0.5287473882914624
1589988801.0212913,-1.2187152216455372,-4.416788054113844,8.718715221645537,0.5958410618565472,0.2577777777777778,-0.7078396059634893,0.02494896041964518,0.0351868801954332,-0.5388306826040525
1589988801.0312912,-1.1848230997489158,-4.392765350376627,8.760707601004336,0.6,0.2577777777777778,-0.7411111111111112,0.02207967493358753,0.04009767966871046,-0.5657308384919323
1589988801.0412912,-1.2398598942668735,-4.28693131082924,8.726791205096111,0.6,0.2577777777777778,-0.7411111111111112,0.017463481296376544,0.04036073895236887,-0.5897282954463954
1589988801.0512912,-1.2374258365788913,-4.169505125075084,8.66277238466159,0.6,0.2577777777777778,-0.7411111111111112,0.02085537241083567,0.04340641611012448,-0.6167081547407066
1589988801.0612912,-1.2043672773753729,-4.169876438005965,8.676774605879846,0.6,0.2577777777777778,-0.7411111111111112,0.0258415813833843,0.04690572364734761,-0.6569157728211645
1589988801.0712912,-1.178101386431252,-4.26,8.777341668773213,0.5797469120198426,0.22841080020654952,-0.7046555527468278,0.02747787617489697,0.05088240817303325,-0.7048284943851274
1589988801.0812912,-1.0709441900754857,-4.271509301654086,8.775472095037744,0.5555555555555556,0.19333333333333333,-0.6611111111111111,0.028495417560068705,0.053749164827922136,-0.7617802798398798
1589988801.0912912,-0.9844905423295263,-4.237388650795432,8.6150640608522,0.5555555555555556,0.19333333333333333,-0.6611111111111111,0.03857507781886137,0.05933214326923725,-0.8202594919444851
1589988801.1012912,-0.8956988054607509,-4.203488623435723,8.741625142207052,0.5555555555555556,0.19333333333333333,-0.6611111111111111,0.03642878417277641,0.06037624282052753,-0.8858172343902468
1589988801.1112912,1.4745759278018231,-1.1067335850446636,-0.03811769039506352,0.5555555555555556,0.19333333333333333,-0.6611111111111111,-0.4334567146948949,0.8046285889290082,-2.3190196521762383
1589988801.1212912,1.8198148148148148,-4.9366666666666665,-0.1911111111111108,0.5289094650205762,0.28469135802469137,-0.6222839506172839,-1.411434029700183,-0.115244252113746,-10.718038655699111
1589988801.1312912,0.5979776093157751,-7.582226368645227,1.9517810949161813,0.5166666666666667,0.32666666666666666,-0.6044444444444445,-1.5657056197452548,0.6617548322136049,-14.902589444341595
1589988801.1412911,-0.5171987145152652,-7.541835596584644,2.423768549733766,0.5166666666666667,0.32666666666666666,-0.6044444444444445,-0.9953904955006089,2.1274631981596928,-14.834012287166608
1589988801.1512911,0.30689790972432607,0.24995304453196088,-0.8634731899424413,0.5166666666666667,0.32666666666666666,-0.6044444444444445,-0.32851801535766,2.0401052044803905,-9.741102695415755
1589988801.1612911,0.9077534181523181,0.147584241872613,5.632821781198677,0.5166666666666667,0.32666666666666666,-0.6044444444444445,-0.029933947262007543,0.3116058204142498,-3.9809366609307952
1589988801.171291,-0.08378680772230873,-0.8724017648205928,10.036165659126365,0.4178907468798752,0.4597689699254637,-0.6086476750736697,0.52726397659991,0.1350963770989369,-1.6769748128215316
1589988801.181291,0.09205350433345016,-0.17174640549070685,10.781017985070887,0.36,0.5377777777777778,-0.6111111111111112,1.7524303904327811,0.31894523691699117,-1.4590577332797907
1589988801.191291,2.069908291833347,3.792301956622309,11.44790513511307,0.36,0.5377777777777778,-0.6111111111111112,3.1148666908783125,0.15338460555751382,-1.2213569216958664
1589988801.201291,1.3614980268140686,2.73792503222206,5.203667468342656,0.36,0.5377777777777778,-0.6111111111111112,2.8380700283302396,-0.0012819533684728102,-1.0155378614704653
1589988801.211291,-0.035737386233100646,0.2790664487054873,-2.5197614208712555,0.36,0.5377777777777778,-0.6111111111111112,2.155640763936944,-0.15269307987568725,-0.8122207255604952
1589988801.221291,1.741417061794071,0.8129250992637138,13.171584364519486,0.2863506504075487,0.5737460647880447,-0.6222441523285747,-0.37467831832531395,0.02377856360177899,-0.1935821585346142
1589988801.231291,2.159572236038888,-2.3188564322857785,20.208428668324665,0.2644444444444444,0.5844444444444444,-0.6255555555555555,-1.7524056190098976,0.1337729466199546,0.13342584391968654
1589988801.241291,0.6332413153577288,-0.9220353330004518,5.84776493806025,0.2644444444444444,0.5844444444444444,-0.6255555555555555,-1.0198336679430253,-0.14937801513112983,0.24685116481497557
1589988801.251291,0.27,-0.4,2.13,0.2644444444444444,0.5844444444444444,-0.6255555555555555,-0.7777623479199731,-0.2268928027592628,0.26070855701665296
1589988801.261291,0.6678869283637325,-1.8477309674861222,8.583680280200898,0.2648880224395688,0.5868841234176285,-0.6255555555555555,0.4059825704671915,0.1282689621284252,0.43709907361304334
1589988801.271291,0.8688430148030664,-2.3258678628072955,9.151900938408671,0.26642791582224573,0.5953535370223515,-0.6255555555555555,0.06205107500784662,-0.2368275484361102,0.6253165293699157
1589988801.281291,0.7962377397160005,-2.078336993119602,8.373585126628605,0.26666666666666666,0.5966666666666667,-0.6255555555555555,-0.28895534147331386,-0.1723233181818069,0.7699492784286536
1589988801.291291,0.6605149778777109,-2.053104736345833,8.228083702038152,0.26666666666666666,0.5966666666666667,-0.6255555555555555,-0.48106096405499854,-0.037742096288389385,0.9297905091608701
1589988801.301291,0.5911421645515471,-3.1336817339227148,8.171658348780836,0.26666666666666666,0.5966666666666667,-0.6255555555555555,-0.002294275494342246,-0.023357435517519294,1.1109130814167636
1589988801.311291,3.3174731876641004,-15.560816608072624,6.391003738151395,0.26666666666666666,0.5966666666666667,-0.6255555555555555,0.11714324054235789,-0.12945832735630183,1.3611451892672368
1589988801.321291,3.7094632310248863,-16.52489578953691,7.8354822111438125,0.26214898903949296,0.5903419179886236,-0.6341391430471855,-0.17099569121089567,-0.1970927917591248,2.2563372497296
1589988801.331291,0.10838718643596695,-1.9720672642623862,9.323862830936001,0.25555555555555554,0.5811111111111111,-0.6466666666666666,-0.16707523857602397,-0.20968980022916064,3.525935900243053
1589988801.341291,-0.45122443174471827,-2.4558503788368546,7.484136174394249,0.25555555555555554,0.5811111111111111,-0.6466666666666666,0.13215226923759946,-0.2270797934566115,3.8653967469889223
1589988801.351291,-0.30105636804826863,-2.683175662381952,8.249624213011543,0.25555555555555554,0.5811111111111111,-0.6466666666666666,-0.05480596614999349,-0.26962467503209697,3.893825461999203
1589988801.361291,-0.0742840079628401,-2.9771439946914398,9.137859323158594,0.25555555555555554,0.5811111111111111,-0.6466666666666666,-0.2715394136845325,-0.31178260060035373,3.9113687014504173
1589988801.371291,-0.021694434710585853,-3.0099216335892454,9.032379981523366,0.32249646926401404,0.560572421677834,-0.6626412028925488,-0.19925128764499087,-0.2859151888172763,3.9470371043833943
1589988801.381291,-0.1879350601970084,-2.911032469901496,8.632173172807978,0.3533333333333333,0.5511111111111111,-0.67,-0.02687021458883143,-0.28231172906582364,3.961346083441203
1589988801.391291,7.501167808403905,-10.341968283078915,5.993909056583418,0.3533333333333333,0.5511111111111111,-0.67,-0.0727862855988823,-0.30245720882826593,3.893380884299363
1589988801.401291,3.5372119463770586,-4.722248006108941,3.949997666723231,0.3533333333333333,0.5511111111111111,-0.67,-0.40132900997399285,-0.4111282077801175,1.3052555495286398
1589988801.411291,-1.5321044902686713,-0.990579329458727,11.05780078181555,0.3533333333333333,0.5511111111111111,-0.67,-0.26061686667558975,-0.05931458090483516,-1.3859539463105683
1589988801.4212909,-0.8725956911231214,-1.0171859036055377,9.074623528540755,0.4026781997811834,0.5120771122792297,-0.6744189432639865,0.7023173510379942,0.6191054645421673,-2.359415134360197
1589988801.4312909,-0.7269271291986414,-1.112350295634671,7.642017392124796,0.42777777777777776,0.4922222222222222,-0.6766666666666666,0.7196782160969691,0.3081002588829418,-2.018322777806655
1589988801.4412909,-0.6412971143128432,-1.4789055856004623,9.581631920075962,0.42777777777777776,0.4922222222222222,-0.6766666666666666,0.02965665511281579,0.10114576782568098,-0.882909059512772
1589988801.4512908,-0.33775997475632846,-1.6159725825678424,9.416829114367857,0.42777777777777776,0.4922222222222222,-0.6766666666666666,-0.3596310601609395,0.0660241374984854,0.42391511565458573
1589988801.4612908,-0.2247342995169082,-2.242157809983897,9.671867954911434,0.42777777777777776,0.4922222222222222,-0.6766666666666666,-0.1970855442275682,-0.281283276751566,0.6924421663299283
1589988801.4712908,-0.6102845643424345,-4.319456978135538,7.990417056455999,0.42464597459419606,0.49117828782769496,-0.669359125904976,-0.04320190639021235,-0.1241653059526629,0.798417601968618
1589988801.4812908,3.66404590853338,-9.64886280007009,8.279324513755038,0.4211111111111111,0.49,-0.6611111111111111,-0.0971249389768342,0.02410330814447903,1.1152524327941236
1589988801.4912908,3.9649277231082465,-7.94655174753987,8.672791991856124,0.4211111111111111,0.49,-0.6611111111111111,-0.17235748214721436,-0.19576529676823126,0.973785490878597
1589988801.5012908,-1.2310755448314807,-4.204787843006391,7.4359496367790126,0.4211111111111111,0.49,-0.6611111111111111,0.02851753731715223,0.02734477592219625,-0.08072567803866426
1589988801.5112908,-1.0600391565634357,-3.0688121113135245,7.684244194568336,0.4211111111111111,0.49,-0.6611111111111111,0.22381681390281807,0.14989463545178167,-0.3477499416899771
1589988801.5212908,1.2858913785428108,-4.698083988722362,8.645833803234902,0.4324248239930092,0.48667243738767707,-0.6664352112908278,0.06644880125919508,-0.04013978866032146,0.17446617069361584
1589988801.5312908,0.3092414953720397,-6.244174780622671,8.956058420483231,0.44,0.4844444444444445,-0.67,-0.11947671954963132,-0.0956224178364741,0.1785784007736102
1589988801.5412908,-0.4461466522092708,-5.915951477365139,8.93129981024668,0.44,0.4844444444444445,-0.67,-0.11019312941730391,-0.059215788947081606,0.05949330173899618
1589988801.5512908,-0.06207399405887118,-4.497464633665012,8.513823718814267,0.44,0.4844444444444445,-0.67,0.028753777339707624,0.03317739878731997,-0.05245554817126137
1589988801.5612907,0.003980306497468968,-4.704610868409495,8.815921225989877,0.44,0.4844444444444445,-0.67,-0.0010962013521904606,0.010029198515334589,-0.0010166765784116241
1589988801.5712907,-0.04718847707711224,-4.56202880730722,8.672348146847005,0.4384025606495306,0.4864412436325312,-0.6648083221109745,-0.009953404559963797,-0.0020108995074905683,0.0010054497537452841
1589988801.5812907,-0.05573387314439946,-4.525733873144399,8.700137112010797,0.4355555555555555,0.49,-0.6555555555555556,-0.0029672363811486593,0.0012509370657681354,-0.0006254685328840677
1589988801.5912907,-0.05,-4.532476166893648,8.672476166893649,0.4355555555555555,0.49,-0.6555555555555556,-0.000637184552657952,-0.0004536462298385039,-0.0004536462298385039
1589988801.6012907,-0.04593460610050472,-4.562196181698486,8.69,0.4355555555555555,0.49,-0.6555555555555556,0.0017738627234171029,-0.00020389942078790453,0.0002395662600663713
1589988801.6112907,-0.0404936722475173,-4.5834557057326215,8.69,0.4355555555555555,0.49,-0.6555555555555556,0.004040215399552177,0.001090830782496456,0.0021278102765873042
1589988801.6212907,-0.05,-4.616286480580113,8.69,0.43317177135414936,0.4862540533977904,-0.6555555555555556,-0.002181661564992912,0.0014251557349464973,0.0007565058300464147
1589988801.6312907,-0.05273203883495146,-4.542732038834951,8.695464077669902,0.42777777777777776,0.4777777777777778,-0.6555555555555556,-0.0006915655349225103,0.002181661564992912,0.0008940576180422409
1589988801.6412907,-0.06,-4.544685884237016,8.688743536948067,0.42777777777777776,0.4777777777777778,-0.6555555555555556,0.005011532664292915,0.0010223013537905474,0.002113132136287003
1589988801.6512907,-0.06,-4.524055325788157,8.707204239827634,0.42777777777777776,0.4777777777777778,-0.6555555555555556,0.004805690550263183,0.0005797647149051844,0.0005110660675912716
1589988801.6612906,-0.056034138275517585,-4.5258634468979295,8.720170691377588,0.42777777777777776,0.4777777777777778,-0.6555555555555556,0.0015420587282134097,0.0015234391873154456,0.0
1589988801.6712906,-0.04780460683081811,-4.556586179507546,8.685609213661635,0.4321685641161415,0.4792413732238991,-0.6601902744682728,-0.0020487517619468786,0.002181661564992912,0.0002394802448626056
1589988801.6812906,-0.043425991641037776,-4.5868519832820756,8.666574008358962,0.4477777777777778,0.4844444444444445,-0.6766666666666666,-0.004333000769696414,0.0018079438507309568,0.001090830782496456
1589988801.6912906,-0.05,-4.578520541100046,8.64772602348574,0.4477777777777778,0.4844444444444445,-0.6766666666666666,-0.0011774992095884753,0.001425551567631268,0.0007561099973616438
1589988801.7012906,-0.03343287973519676,-4.5355223734216015,8.664178987372807,0.4477777777777778,0.4844444444444445,-0.6766666666666666,0.002295625766641003,0.0027840590570651857,-0.0006023974920722736
1589988801.7112906,-0.03783274972702285,-4.531083625136488,8.713374562295266,0.4477777777777778,0.4844444444444445,-0.6766666666666666,0.003272492347489368,0.002786179539019573,-0.0020634563994360463
1589988801.7212906,-0.05467705207601779,-4.527984421885973,8.724677052076018,0.4445248651575664,0.48267012846978374,-0.6710479994135743,0.0018208834852130183,0.001310696247627102,-0.002691848802578828
1589988801.7312906,-0.04511081423628952,-4.560221628472579,8.704889185763712,0.4355555555555555,0.4777777777777778,-0.6555555555555556,-0.0027391649142494844,-0.001090830782496456,-0.0005333274332398834
1589988801.7412906,-0.06,-4.570400713759262,8.65472128476667,0.4355555555555555,0.4777777777777778,-0.6555555555555556,-0.0017977825604229966,-0.0006632406875693182,0.0023736010672778694
1589988801.7512906,-0.05621309600400314,-4.541893451997998,8.618934519979984,0.4355555555555555,0.4777777777777778,-0.6555555555555556,0.002388205137452522,0.00020654357245961024,0.003537148840147383
1589988801.7612906,-0.04122167417256416,-4.549389162913718,8.693891629137179,0.4355555555555555,0.4777777777777778,-0.6555555555555556,0.0032058603578086747,0.0010241987928157623,0.0002665279587227747
1589988801.7712905,-0.05,-4.537957768187423,8.742042231812578,0.43172403753938887,0.4810198314837649,-0.6587976092615427,-0.000578705233254131,0.001090830782496456,-0.0002893526166270655
1589988801.7812905,-0.05,-4.56,8.704145696544758,0.4211111111111111,0.49,-0.6677777777777778,-0.002181661564992912,0.0006584717263960008,0.0006386054419053645
1589988801.7912905,-0.05373682391567306,-4.548789528252981,8.661315880421634,0.4211111111111111,0.49,-0.6677777777777778,-0.0017740373093944005,0.0,0.0020496195806938337
1589988801.8012905,-0.05570092047683718,-4.534299079523163,8.640747698807907,0.4211111111111111,0.49,-0.6677777777777778,-0.00038739554045652764,0.0009379136560532377,0.00023447841401330943
1589988801.8112905,-0.04721201262690897,-4.542787987373091,8.687212012626908,0.4211111111111111,0.49,-0.6677777777777778,0.002181661564992912,0.003969968861126553,0.001090830782496456
1589988801.8212905,-0.06,-4.5365588440239115,8.704919133017933,0.4211111111111111,0.49,-0.6716037701250597,0.0018239321170491225,0.003093627623517473,0.001090830782496456
1589988801.8312905,-0.05528747231110017,-4.5652874723111,8.706437361555501,0.4211111111111111,0.49,-0.6911111111111111,-0.0015421710799256444,0.003209775618276675,0.0005767737558545745
1589988801.8412905,-0.04550013196093956,-4.56,8.653000791765637,0.4211111111111111,0.49,-0.6911111111111111,-0.0017999139752356407,0.0033816042151500057,0.0004908594574179091
1589988801.8512905,-0.048460520070941475,-4.551539479929058,8.641151300177354,0.4211111111111111,0.49,-0.6911111111111111,0.0,0.001720211778527309,0.0001679312095652501
1589988801.8612905,-0.04935270631662209,-4.54,8.680647293683377,0.4211111111111111,0.49,-0.6911111111111111,0.0007742930466739129,0.001090830782496456,-0.0007036842591594995
1589988801.8712904,-0.03380025203231944,-4.54,8.707600504064638,0.4211111111111111,0.49147787579034646,-0.685410733062632,0.001974389970087974,0.001298102377401394,0.0
1589988801.8812904,-0.05157590560390794,-4.5431518112078155,8.736848188792184,0.4211111111111111,0.4977777777777778,-0.6611111111111111,0.0005751168795810204,0.002181661564992912,0.00034380926861029036
1589988801.8912904,-0.05879029206371048,-4.557580584127421,8.72241941587258,0.4211111111111111,0.4977777777777778,-0.6611111111111111,-0.0017857855685724517,0.002181661564992912,0.0019177442340459385
1589988801.9012904,-0.03569637021990638,-4.574303629780093,8.605190320586416,0.4211111111111111,0.4977777777777778,-0.6611111111111111,-0.002651114749052369,0.002181661564992912,0.0008837049163507896
1589988801.9112904,-0.06,-4.547146135886985,8.69283091290412,0.4211111111111111,0.4977777777777778,-0.6611111111111111,0.0015565414117693086,0.0028042781297006355,0.0
1589988801.9212904,-0.06,-4.5380123524193,8.7440370572579,0.4211111111111111,0.49623182965945545,-0.6611111111111111,0.005020516479325803,0.004146504413407586,0.00021681871657823847
1589988801.9312904,-0.06,-4.537527214906022,8.697418355281934,0.4211111111111111,0.49,-0.6611111111111111,0.0024514005748938784,0.002040854688596134,0.0015013766687942006
1589988801.9412904,-0.05573374927179449,-4.5542662507282055,8.651467498543589,0.4211111111111111,0.49,-0.6611111111111111,0.0003927671394702816,0.0006980636430261744,0.0019489736839841871
1589988801.9512904,-0.04,-4.569967101255027,8.62009869623492,0.4211111111111111,0.49,-0.6611111111111111,-0.0021708954758760347,0.0032653149547447833,0.001090830782496456
1589988801.9612904,-0.04,-4.56,8.663199089874858,0.4211111111111111,0.49,-0.6611111111111111,0.0019547091946823863,0.001090830782496456,0.0013787902532250995
1589988801.9712903,-0.04,-4.56,8.69501023890785,0.4211111111111111,0.49,-0.6611111111111111,0.004036744030188591,0.001090830782496456,0.002072801865060501
1589988801.9812903,-0.043386089305309364,-4.523386089305309,8.736613910694691,0.4211111111111111,0.4844444444444445,-0.6611111111111111,0.004900106345505256,0.0007214657378451069,0.0005367832155194323
1589988801.9912903,-0.06,-4.542517905977341,8.710767678083084,0.4211111111111111,0.4844444444444445,-0.6611111111111111,0.0016323396954898784,-0.0009077234926621114,-0.0022732152099100844
1589988802.0012903,-0.06,-4.5631761449296855,8.630471565210943,0.4211111111111111,0.4844444444444445,-0.6611111111111111,-0.004363323129985824,0.0007186472241967705,-0.002528125230889997
1589988802.0112903,-0.06,-4.547062226151126,8.68468886924437,0.4211111111111111,0.4844444444444445,-0.6611111111111111,-0.0027610160568034767,0.0009613842439094082,-0.0014112921971329254
1589988802.0212903,-0.058376418367665904,-4.54,8.723247163264668,0.4221934988660005,0.48534643424018564,-0.662554294784297,0.001090830782496456,0.003272492347489368,-0.0014732404360145628
1589988802.0312903,-0.05348785261945884,-4.543487852619458,8.746975705238917,0.42777777777777776,0.49,-0.67,0.002232227883131435,0.0036529580477010276,0.0014207301645695926
1589988802.0412903,-0.05681209462927535,-4.546812094629275,8.71218141943913,0.42777777777777776,0.49,-0.67,0.002276843943942488,0.004363323129985824,0.0
1589988802.0512903,-0.053047803524882226,-4.5460956070497645,8.622191214099528,0.42777777777777776,0.49,-0.67,-0.0011842701938100917,0.0036983955491972772,0.0
1589988802.0612903,-0.06,-4.557366655072938,8.663166724635309,0.42777777777777776,0.49,-0.67,0.0008035774117594655,0.001607154823518931,0.000574506741473981
1589988802.0712903,-0.0564653350400381,-4.548232667520019,8.703534664959962,0.43131244273773967,0.49,-0.67,0.000192786067206902,0.0,0.002181661564992912
1589988802.0812902,-0.043366558273245676,-4.54,8.713266883453509,0.4477777777777778,0.49,-0.67,0.0003563617033915563,0.00036723453955244984,0.0010799579463355623
1589988802.0912902,-0.047192639635238565,-4.542807360364762,8.671926396352385,0.4477777777777778,0.49,-0.67,-0.001090830782496456,-0.00013411125888044694,-0.00017212425146377868
1589988802.1012902,-0.04,-4.55361196151323,8.605417942269845,0.4477777777777778,0.49,-0.67,-0.0008938288423052772,-0.002484484586724653,0.002181661564992912
1589988802.1112902,-0.042250771198555415,-4.56549845760289,8.648006169588443,0.4477777777777778,0.49,-0.67,0.0004910421015481375,0.001090830782496456,0.0026727036665410496
1589988802.1212902,-0.050234579174407254,-4.550234579174407,8.711172895872037,0.44759532730879437,0.4898696782364404,-0.6697914851783047,0.0022072501834305156,0.001065242164058852,0.004312145893110617
1589988802.1312902,-0.06,-4.553974085646021,8.757991361882008,0.44,0.4844444444444445,-0.6611111111111111,0.003272492347489368,0.000657325287000759,0.0019625531359926587
1589988802.1412902,-0.06,-4.530848005881272,8.75028266862709,0.44,0.4844444444444445,-0.6611111111111111,0.003272492347489368,0.0031799892555864338,0.0011216651464641006
1589988802.1512902,-0.05316890916175763,-4.553168909161758,8.66,0.44,0.4844444444444445,-0.6611111111111111,-0.0003725782082192149,0.001090830782496456,0.0014634089907156708
1589988802.1612902,-0.042581042024683644,-4.545162084049367,8.670324168098734,0.44,0.4844444444444445,-0.6611111111111111,-0.0008092827733522665,0.0013723787916406455,0.0019001135558487225
1589988802.1712902,-0.048391468924254145,-4.56,8.701608531075745,0.44,0.4848912586321517,-0.6640600847499785,8.773176060128606e-05,0.002269393325594198,0.001090830782496456
1589988802.1812901,-0.03131995604216696,-4.56,8.718680043957834,0.44,0.4896333455438425,-0.6953578583671384,0.0010188383483795607,0.003200499913372473,0.001090830782496456
1589988802.1912901,-0.04258202998597778,-4.542582029985978,8.661925790098156,0.44,0.49,-0.6977777777777778,0.0002458634454864194,0.0008449673370100366,0.0016183500069862208
1589988802.2012901,-0.04600602505153005,-4.55399397494847,8.615990962422705,0.44,0.49,-0.6977777777777778,-0.002181661564992912,0.002836817265658296,-0.00043567508183107225
1589988802.2112901,-0.03226968304649171,-4.567730316953509,8.646809049139476,0.44,0.49,-0.6977777777777778,-0.001934077551630563,0.0008432467691341072,-0.001934077551630563
1589988802.22129,-0.040684579367751016,-4.559315420632249,8.67616121430976,0.4381744550193306,0.49,-0.6932899797002989,-0.0010161547577559789,0.00022402807422143147,-0.0009414787330155016
1589988802.23129,-0.05,-4.55,8.748508491508492,0.4133333333333333,0.49,-0.6322222222222222,0.0018802936799785313,0.0023323455075001023,0.001404213062492878
1589988802.24129,-0.05,-4.547843793225464,8.69843793225464,0.4133333333333333,0.49,-0.6322222222222222,0.0056041620057422385,0.0,0.002416867237302036
1589988802.25129,-0.05,-4.541097725737447,8.630977257374465,0.4133333333333333,0.49,-0.6322222222222222,0.0026606347750510275,0.0,0.0031527490449748392
1589988802.26129,-0.058075475179922495,-4.531924524820078,8.675773574460232,0.4133333333333333,0.49,-0.6322222222222222,0.00243275998132177,0.0028526261644055686,-0.001090830782496456
1589988802.27129,-0.05033548625207603,-4.539664513747924,8.698993541243771,0.4133333333333333,0.49,-0.6322222222222222,-0.0009444472901488964,0.001164022528670235,-0.001090830782496456
1589988802.28129,-0.02430350693624059,-4.5385654976879195,8.724303506936241,0.42777777777777776,0.4844444444444445,-0.6611111111111111,0.001090830782496456,0.0012473107104543977,-0.0007778709265805726
1589988802.29129,-0.04553903533938637,-4.5314869882202045,8.745539035339386,0.42777777777777776,0.4844444444444445,-0.6611111111111111,0.001090830782496456,0.0020194563126120385,0.0007664202777347092
1589988802.30129,-0.0312544720748665,-4.538745527925133,8.636272360374333,0.42777777777777776,0.4844444444444445,-0.6611111111111111,0.0012276724580011136,-0.0008171474314871409,-0.00013684167550465754
1589988802.31129,-0.03864648138030701,-4.531353518619693,8.673232406901535,0.42777777777777776,0.4844444444444445,-0.6611111111111111,0.002034015587488589,0.0007955388274878104,-0.0009431848049921332
1589988802.32129,-0.05906996159625981,-4.54906996159626,8.71813992319252,0.42777777777777776,0.4844444444444445,-0.6611111111111111,-0.003018863717563452,0.004211145952030274,-5.0725725985183373e-05
