time,acc_x,acc_y,acc_z,mag_x,mag_y,mag_z,gyr_x,gyr_y,gyr_z
1589988836.5666044,-3.9,-0.83,9.04,0.3288888888888889,-0.3233333333333333,-0.5877777777777777,-0.011999138607461015,0.009817477042468105,0.006544984694978735
1589988836.5766044,-3.888444290024067,-0.808444290024067,9.06,0.33555555555555555,-0.3288888888888889,-0.5955555555555555,-0.009890098026733825,0.005623855545520735,0.007635815477475192
1589988836.5866044,-3.8813355479475273,-0.8013355479475273,9.06,0.33555555555555555,-0.3288888888888889,-0.5955555555555555,-0.005237437217583405,0.006399299013712472,0.007635815477475192
1589988836.5966043,-3.873257849031396,-0.821628924515698,8.916515698062792,0.33555555555555555,-0.3288888888888889,-0.5955555555555555,-0.003272492347489368,0.005074075531620455,0.008904334360380305
1589988836.6066043,-3.8872668670674684,-0.8286334335337341,8.944533734134936,0.33555555555555555,-0.3288888888888889,-0.5955555555555555,-0.003272492347489368,0.008130369152879563,0.009668407765695084
1589988836.6166043,-3.87,-0.8644267071077942,8.954644410743505,0.33369779125815363,-0.32950814365468956,-0.5967940650871568,-0.0018776855926585742,0.004261997805874378,0.010806982500853114
1589988836.6266043,-3.87,-0.8142096021071956,8.996491998244004,0.31695875625795406,-0.3350878219880894,-0.6079534217539566,0.000861232604466911,0.0033490250734992165,0.009894009768477954
1589988836.6366043,-3.886427373739632,-0.8157150841735786,8.935002794607525,0.31555555555555553,-0.33555555555555555,-0.6088888888888889,0.002259360303463115,0.0028050805391027045,0.004830734938372487
1589988836.6466043,-3.9080196375502596,-0.8019803624497407,8.887921449798963,0.31555555555555553,-0.33555555555555555,-0.6088888888888889,0.0063289606629110115,0.0008748067504287323,0.005680888566707841
1589988836.6566043,-3.9,-0.8121716798963715,8.930858399481858,0.31555555555555553,-0.33555555555555555,-0.6088888888888889,0.005217260384413206,-0.0009475741122762966,0.0017078745088547637
1589988836.6666043,-3.9,-0.8184892530614089,8.962446265307046,0.31555555555555553,-0.33555555555555555,-0.6088888888888889,0.004528120056503567,-0.003704135423914853,0.00032959385303548533
1589988836.6766043,-3.89,-0.83,9.024766293614219,0.31555555555555553,-0.3233333333333333,-0.6166666666666667,0.011136671346250848,-0.004477504890628968,-0.0001141817606431445
1589988836.6866043,-3.89,-0.83,8.981622160961159,0.31555555555555553,-0.3233333333333333,-0.6166666666666667,0.013019189265533635,-0.005418763850270362,-0.001055440720284538
1589988836.6966043,-3.896948849935077,-0.8269488499350769,8.905255750324615,0.31555555555555553,-0.3233333333333333,-0.6166666666666667,0.014513629013737334,-0.008301473160042011,-0.000332828841283409
1589988836.7066042,-3.89,-0.8143088451971672,8.95327936120661,0.31555555555555553,-0.3233333333333333,-0.6166666666666667,0.016513248324326886,-0.010438285727156354,-0.000883894554267039
1589988836.7166042,-3.89,-0.7943736434354156,8.99979483198403,0.31555555555555553,-0.3233333333333333,-0.6166666666666667,0.020862434671726132,-0.012612878900855978,-0.00015903016303383123
1589988836.7266042,-3.871885423638067,-0.7818854236380672,9.008114576361933,0.3288888888888889,-0.3233333333333333,-0.5955555555555555,0.02181661564992912,-0.015539790480466777,-0.004300831418714444
1589988836.7366042,-3.882276526198352,-0.7945530523967039,8.968128633223072,0.3288888888888889,-0.3233333333333333,-0.5955555555555555,0.02082329370820034,-0.011750808122028819,-0.008478315774539454
1589988836.7466042,-3.89,-0.8086564216336138,8.86470252428235,0.3288888888888889,-0.3233333333333333,-0.5955555555555555,0.01723345002383074,-0.01090830782496456,-0.007635815477475192
1589988836.7566042,-3.89,-0.7915160130785321,8.93,0.3288888888888889,-0.3233333333333333,-0.5955555555555555,0.01401542879918092,-0.011239050571510568,-0.006974329984383172
1589988836.7666042,-3.889933774834437,-0.8000331125827815,8.930099337748343,0.3288447387785136,-0.3233075791022811,-0.5955997056659308,0.013093581412416068,-0.01308996938995747,-0.0032688803250307706
1589988836.7766042,-3.873300947773328,-0.8083495261133363,8.95504857834001,0.31775618740444056,-0.3168392574674051,-0.6066882570400038,0.014000761400325986,-0.01308996938995747,-0.0023617003371208516
1589988836.7866042,-3.88663070720279,-0.7883153536013948,8.934838182412552,0.31555555555555553,-0.31555555555555553,-0.6088888888888889,0.014904098125106312,-0.01127584065480863,-0.00545415391248228
1589988836.7966042,-3.871395881006865,-0.7806979405034326,8.866281464530893,0.31555555555555553,-0.31555555555555553,-0.6088888888888889,0.013242236387056518,-0.012937702392858423,-0.00545415391248228
1589988836.8066041,-3.88,-0.79,8.946163319508113,0.31555555555555553,-0.31555555555555553,-0.6088888888888889,0.005247723136263284,-0.004416344665509918,-0.00607910160701665
1589988836.8166041,-3.879941843926799,-0.7900145390183002,9.029956382945098,0.31558463359215594,-0.31558463359215594,-0.6088695035311553,0.001086072899883715,-0.0010844869390128013,-0.001090830782496456
1589988836.8266041,-3.850606409960802,-0.7946967950195989,9.0,0.33555555555555555,-0.33555555555555555,-0.5955555555555555,-0.004206376298471462,0.0047187171571169036,-0.001090830782496456
1589988836.836604,-3.873783257929159,-0.7831083710354204,8.962699547574955,0.33555555555555555,-0.33555555555555555,-0.5955555555555555,-0.011173759766010897,0.009743858302628743,-7.361873983936069e-05
1589988836.846604,-3.8684905915798025,-0.7928301971932675,8.896981183159605,0.33555555555555555,-0.33555555555555555,-0.5955555555555555,-0.015415706660034409,0.013234045095041499,0.0015642083212026705
1589988836.856604,-3.89,-0.7981046056311766,8.938104605631176,0.33555555555555555,-0.33555555555555555,-0.5955555555555555,-0.01771710149344654,0.015948950832950233,0.0
1589988836.866604,-3.89,-0.7902837963826217,8.930283796382621,0.33555555555555555,-0.33555555555555555,-0.5955555555555555,-0.014304629704503868,0.014242714938478895,0.0
1589988836.876604,-3.88085373580124,-0.79914626419876,8.95743879259628,0.3243767882015155,-0.33555555555555555,-0.6016530650213956,-0.010189989559312846,0.011187692212598115,0.001995405306570541
1589988836.886604,-3.871785879808435,-0.7935717596168701,8.96571296153252,0.3233333333333333,-0.33555555555555555,-0.6022222222222222,-0.010518689291188597,0.012388757141236977,0.0022984460130494617
1589988836.896604,-3.8798854858643597,-0.8097709717287194,8.900916113085124,0.3233333333333333,-0.33555555555555555,-0.6022222222222222,-0.008751629368809142,0.014155817063616431,-0.002119203792899177
1589988836.906604,-3.9065011230346895,-0.81,8.973498876965312,0.3233333333333333,-0.33555555555555555,-0.6022222222222222,-0.014508294415364643,0.012899135255061036,0.002563329834785782
1589988836.916604,-3.8903973815054425,-0.81,8.989602618494558,0.3233333333333333,-0.33555555555555555,-0.6022222222222222,-0.01099500302067083,0.012020812406387582,0.004319975532132689
1589988836.926604,-3.880329078014184,-0.81,9.028683687943262,0.3287060677698976,-0.3237355397951142,-0.5882531126871552,-0.00352377024688997,0.00777940284856125,-0.001966280508363825
1589988836.936604,-3.909387033398821,-0.8212259332023575,8.992644400785855,0.3288888888888889,-0.3233333333333333,-0.5877777777777777,-0.0020479329975513034,0.0010239664987756517,0.003272492347489368
1589988836.946604,-3.901539152399663,-0.8369216952006736,8.898469828795958,0.3288888888888889,-0.3233333333333333,-0.5877777777777777,-0.0003357909633011826,0.0001678954816505913,0.003272492347489368
1589988836.956604,-3.88202975361857,-0.83594049276286,8.943044630427854,0.3288888888888889,-0.3233333333333333,-0.5877777777777777,0.002181661564992912,0.005786271571685241,0.0037153158930933166
1589988836.966604,-3.896099156365832,-0.8078016872683361,8.964148734548749,0.3288888888888889,-0.3233333333333333,-0.5877777777777777,0.002181661564992912,0.008088372212893274,0.006784783414704027
1589988836.976604,-3.8991095027542424,-0.7908904972457576,8.981780994491515,0.31555555555555553,-0.33555555555555555,-0.6022222222222222,0.006350708333498622,0.003369630528229425,0.002981077805269197
1589988836.986604,-3.8913602427758085,-0.8027204855516168,8.987757815017725,0.31555555555555553,-0.33555555555555555,-0.6022222222222222,0.00466008206828986,0.00302790790761766,-0.0001483794691520182
1589988836.996604,-3.897951620341257,-0.8159032406825137,8.912048379658744,0.31555555555555553,-0.33555555555555555,-0.6022222222222222,0.0063215411363790755,-0.004560379678083641,-0.0008673872238967962
1589988837.006604,-3.89,-0.8033590280687055,8.924198785085881,0.31555555555555553,-0.33555555555555555,-0.6022222222222222,0.005637360473312958,-0.0014572439041578126,9.160328041533918e-05
1589988837.016604,-3.89,-0.8385018852115627,8.968127356514454,0.31555555555555553,-0.33555555555555555,-0.6022222222222222,0.00755410599112816,-0.005290734939788215,0.0010499760393229399
1589988837.026604,-3.88,-0.8128204032200612,8.97,0.3288888888888889,-0.3233333333333333,-0.5877777777777777,0.0057152114182646,-0.006591585454345911,0.0016595465534282716
1589988837.036604,-3.8839156031451263,-0.79,8.96412659528231,0.3288888888888889,-0.3233333333333333,-0.5877777777777777,0.005904295628567189,-0.003058929325352186,0.0
1589988837.046604,-3.8993376240278894,-0.7903311879860553,8.941655939930275,0.3288888888888889,-0.3233333333333333,-0.5877777777777777,0.003272492347489368,-0.002181661564992912,-7.225400999641314e-05
1589988837.056604,-3.88,-0.8,8.99234096692112,0.3288888888888889,-0.3233333333333333,-0.5877777777777777,0.0035278522253256884,-0.0024370214428292326,-0.0019263016871565914
1589988837.066604,-3.88,-0.8,9.009016777989821,0.3288888888888889,-0.3233333333333333,-0.5877777777777777,0.005346901029009246,-0.00425607024651279,-0.0001072528834730334
1589988837.076604,-3.88,-0.79,8.991688032707366,0.3088888888888889,-0.33,-0.5877777777777777,0.00363796714711312,-0.004910136925327752,0.001272169778214632
1589988837.0866039,-3.882716123937381,-0.7918107492915873,8.940946253542062,0.3088888888888889,-0.33,-0.5877777777777777,0.00019752210666470877,-0.0020829005116605576,0.0019841394583282033
1589988837.0966039,-3.9022000278719746,-0.8048000185813166,8.875999907093417,0.3088888888888889,-0.33,-0.5877777777777777,0.0016144315850019552,-0.0013744457724919343,0.0005672299799909567
1589988837.1066039,-3.8802260979363137,-0.7802260979363138,8.879773902063686,0.3088888888888889,-0.33,-0.5877777777777777,0.003264271194529702,-0.004338659671106825,0.0010826096295367897
1589988837.1166039,-3.893088401253918,-0.7734557993730408,8.912721003134797,0.3088888888888889,-0.33,-0.5877777777777777,0.0025586307984173926,-0.008646492424417677,0.0003769692334244806
1589988837.1266038,-3.8669641745194903,-0.7782589563701274,8.96303582548051,0.3208184925346285,-0.3244940290865817,-0.6052133523369357,-0.004124725122888235,-0.009106483056998517,0.0
1589988837.1366038,-3.8504207374324357,-0.7895792625675642,8.998737787702693,0.3233333333333333,-0.3233333333333333,-0.6088888888888889,-0.00858896025717678,0.0006777727741118511,-0.0010449354482315
1589988837.1466038,-3.887644924164883,-0.8388224620824416,8.955887689587792,0.3233333333333333,-0.3233333333333333,-0.6088888888888889,-0.013218418850760416,0.009497343024789327,0.0009623813216935095
1589988837.1566038,-3.8746357122918025,-0.8323178561459011,8.988410719270494,0.3233333333333333,-0.3233333333333333,-0.6088888888888889,-0.013927961289119165,0.01375459765494182,0.0002528388833347605
1589988837.1666038,-3.885735726983942,-0.8142642730160581,9.023603590475913,0.3233333333333333,-0.3233333333333333,-0.6088888888888889,-0.013322549403501726,0.01784638326180698,0.001716501537904399
1589988837.1766038,-3.89,-0.7936895902025436,9.021844795101272,0.3233333333333333,-0.316990396189878,-0.6152318260323442,-0.01842753851461665,0.016764933594220023,0.002181661564992912
1589988837.1866038,-3.8908097612899413,-0.7824292838698232,8.911092625810648,0.3233333333333333,-0.31555555555555553,-0.6166666666666667,-0.015359962209104558,0.011084970333272909,0.003272492347489368
1589988837.1966038,-3.8990774871380416,-0.8072324614141255,8.82014764148154,0.3233333333333333,-0.31555555555555553,-0.6166666666666667,-0.016261831194739552,0.012888708304542895,0.003272492347489368
1589988837.2066038,-3.909041740052325,-0.8190417400523247,8.869582599476752,0.3233333333333333,-0.31555555555555553,-0.6166666666666667,-0.011581018828037946,0.007217695698052122,0.003272492347489368
1589988837.2166038,-3.9018696670713564,-0.8118696670713565,8.941303329286436,0.3233333333333333,-0.31555555555555553,-0.6166666666666667,-0.008451611635257462,0.0040882885052716395,0.003272492347489368
1589988837.2266037,-3.89,-0.8109600283403201,9.01192005668064,0.33555555555555555,-0.33555555555555555,-0.6166666666666667,-0.011789692914323005,0.0023387458348464196,0.004468045976554829
1589988837.2366037,-3.89,-0.8274694455924898,9.04493889118498,0.33555555555555555,-0.33555555555555555,-0.6166666666666667,-0.00818789680637403,0.005040092915808151,0.006268944030529316
1589988837.2466037,-3.853366202215077,-0.79,8.984488269620103,0.33555555555555555,-0.33555555555555555,-0.6166666666666667,-0.007146221211300053,0.00545415391248228,0.00993987560901189
1589988837.2566037,-3.881828041188677,-0.79,9.02,0.33555555555555555,-0.33555555555555555,-0.6166666666666667,-0.0031727881674753523,0.005354449732468264,0.0118056454450907
1589988837.2666037,-3.898249872753612,-0.79,9.02,0.33555555555555555,-0.33555555555555555,-0.6166666666666667,-0.00227711619867521,0.004458777763668122,0.019866693164291977
1589988837.2766037,-3.9091614307019045,-0.8174842921057135,9.001677138596191,0.31723269415174654,-0.32435825136433893,-0.6095411094540744,-0.003181018627127467,0.001365251943582159,0.03171871255091277
1589988837.2866037,-3.909459868250841,-0.8402700658745795,8.877839473003364,0.31555555555555553,-0.3233333333333333,-0.6088888888888889,-0.00011783846771729184,0.0021227423311342662,0.029334592659687023
1589988837.2966037,-3.8927651402073757,-0.8486174298963122,8.811060560829503,0.31555555555555553,-0.3233333333333333,-0.6088888888888889,-0.0037600631187610437,0.0003016300056123901,0.025692368008643263
1589988837.3066037,-3.8967243101990623,-0.8365513796018753,8.813448620398125,0.31555555555555553,-0.3233333333333333,-0.6088888888888889,-0.0036298146743666175,-0.0029340338224768253,0.019221040352464833
1589988837.3166037,-3.907398656680932,-0.822601343319068,8.901385223490252,0.31555555555555553,-0.3233333333333333,-0.6088888888888889,-0.003272492347489368,-0.003556254884317455,0.009905915772099889
1589988837.3266037,-3.903779985007496,-0.8262200149925037,8.985980134932534,0.32039334499416955,-0.31573109278693984,-0.6137266783275029,0.00011999956321690798,-0.003950990729630623,0.002886326802486406
1589988837.3366036,-3.9,-0.7992656244486008,9.043050781663549,0.3233333333333333,-0.3111111111111111,-0.6166666666666667,0.00469611178491337,-0.0035251730566790047,0.0
1589988837.3466036,-3.880652058989737,-0.7964493136700878,8.9984054906393,0.3233333333333333,-0.3111111111111111,-0.6166666666666667,0.007564686875674331,0.00024506259116405076,0.0014070219754613675
1589988837.3566036,-3.87,-0.8,8.97,0.3233333333333333,-0.3111111111111111,-0.6166666666666667,0.007813079546253229,0.0030952282787113316,-0.0005590385761623465
1589988837.3666036,-3.8842953862538514,-0.7928523068730745,8.991443079380776,0.3233333333333333,-0.3111111111111111,-0.6166666666666667,0.0037373536341308152,0.0009334152414827422,0.002027938692179046
1589988837.3766036,-3.8896650619452875,-0.79,8.968995185835862,0.3233333333333333,-0.3377777777777778,-0.5955555555555555,0.0019989811948379005,0.0021451254909619095,0.0
1589988837.3866036,-3.8800953706450065,-0.79,8.94028611193502,0.3233333333333333,-0.3377777777777778,-0.5955555555555555,-0.003220475729829427,0.0011012341060284445,0.0
1589988837.3966036,-3.9096734314706305,-0.7998911438235434,8.781741698823305,0.3233333333333333,-0.3377777777777778,-0.5955555555555555,-0.00543040517885354,0.001090830782496456,-0.001078956415682086
1589988837.4066036,-3.91,-0.7900959702062643,8.888944327731092,0.3233333333333333,-0.3377777777777778,-0.5955555555555555,-0.00437379185550539,-0.0032306174454111046,0.0021502553884342147
1589988837.4166036,-3.898798889083629,-0.7956005554581856,8.946005554581856,0.3233333333333333,-0.3377777777777778,-0.5955555555555555,-0.0031414714714123465,-0.003272492347489368,0.0009598099064194344
1589988837.4266036,-3.886375914681613,-0.796375914681613,9.011744511910322,0.3233333333333333,-0.3305296071410037,-0.6032064023388171,-0.002181661564992912,-0.002481839582751356,0.0
1589988837.4366035,-3.88,-0.7984246259310527,9.041575374068946,0.3233333333333333,-0.31777777777777777,-0.6166666666666667,-0.004019629824314934,-0.0029287990418184794,0.0018379682593220228
1589988837.4466035,-3.8872370547798485,-0.8,8.94591828786197,0.3233333333333333,-0.31777777777777777,-0.6166666666666667,-0.003573882917138639,0.0014641489295937416,0.0006027811392985423
1589988837.4566035,-3.8743932748538015,-0.8078033625730995,8.9256067251462,0.3233333333333333,-0.31777777777777777,-0.6166666666666667,-0.004123707157661127,0.004974921967832887,0.0
1589988837.4666035,-3.884329799517162,-0.81,8.951494699275743,0.3233333333333333,-0.31777777777777777,-0.6166666666666667,-0.005926461772018113,0.0031094459494338464,0.0007815693210161444
1589988837.4766035,-3.9013332669124243,-0.821333266912424,8.976999900368636,0.3189259517562795,-0.32155553341525245,-0.6122592850896129,-0.0040724494121145965,0.001563527744276877,0.0029452322446445606
1589988837.4866035,-3.902981651376147,-0.8019266055045872,8.982981651376146,0.31555555555555553,-0.3244444444444444,-0.6088888888888889,-0.0029472446371119846,0.0018564138546155282,0.004363323129985824
1589988837.4966035,-3.8822603286010526,-0.79,8.938607433402456,0.31555555555555553,-0.3244444444444444,-0.6088888888888889,-0.006497655619713298,0.0008915962561033403,0.006943453747764967
1589988837.5066035,-3.87,-0.79,8.968626309662397,0.31555555555555553,-0.3244444444444444,-0.6088888888888889,-0.005529077097775983,-0.0015987845810978324,0.01432239229381406
1589988837.5166035,-3.8820080149338083,-0.8020080149338084,8.977991985066192,0.31555555555555553,-0.3244444444444444,-0.6088888888888889,-0.0037083875136620626,-0.002181661564992912,0.018327268586418123
1589988837.5266035,-3.903930683434389,-0.81,8.997861366868777,0.32097304355781786,-0.3244444444444444,-0.6042453277440927,-0.00251269143191713,9.774118172380108e-05,0.01887515316936397
1589988837.5366035,-3.9010704388905015,-0.81,8.983211316671506,0.3233333333333333,-0.3244444444444444,-0.6022222222222222,-0.004129789591477702,-0.0018313612572307292,0.02049225132892454
1589988837.5466034,-3.9,-0.81,8.890554797754579,0.3233333333333333,-0.3244444444444444,-0.6022222222222222,0.0032254219776974716,0.0010706577668713577,0.02072578486743266
1589988837.5566034,-3.9,-0.8022477277374027,8.897752272262597,0.3233333333333333,-0.3244444444444444,-0.6022222222222222,0.003272492347489368,-0.0006004526611704717,0.024108351754766517
1589988837.5666034,-3.8934142305570876,-0.8197573083287368,8.932928847214562,0.3233333333333333,-0.3244444444444444,-0.6022222222222222,0.0011173043370633863,-0.0018092267859717832,0.024370711993943157
1589988837.5766034,-3.9068335806656775,-0.83,8.961222387110451,0.31522827597578496,-0.3244444444444444,-0.6022222222222222,0.0012241725313172015,-0.004630006627627315,0.020937845886629027
1589988837.5866034,-3.9123662174303684,-0.8223662174303683,8.977633782569631,0.3088888888888889,-0.3244444444444444,-0.6022222222222222,-0.00031648793915881046,-0.0023814021880591988,0.01521325729690412
1589988837.5966034,-3.884560040290668,-0.8284799865697772,8.912160107441784,0.3088888888888889,-0.3244444444444444,-0.6022222222222222,0.0007592152945974447,-0.001090830782496456,0.006780615864078324
1589988837.6066034,-3.917244697821596,-0.8020664766338033,8.955867046732395,0.3088888888888889,-0.3244444444444444,-0.6022222222222222,-0.0039876270760754624,-0.0021065223542108395,0.006469845484196663
1589988837.6166034,-3.9047376288559725,-0.7923688144279863,8.990524742288056,0.3088888888888889,-0.3244444444444444,-0.6022222222222222,-0.0010335902784276568,0.0019805044994547975,0.004880118269199652
1589988837.6266034,-3.891378170749384,-0.8158654877518481,9.0,0.3146367750559662,-0.3186965582773671,-0.5897684688602213,-0.0009404956748000318,-0.0023704817013108226,0.004363323129985824
1589988837.6366034,-3.8972879595516186,-0.7981361213451439,9.007287959551618,0.31555555555555553,-0.31777777777777777,-0.5877777777777777,0.0004991553416024976,0.0007024729627580157,0.004363323129985824
1589988837.6466033,-3.9,-0.8169988471884206,8.902004611246317,0.31555555555555553,-0.31777777777777777,-0.5877777777777777,0.0030542423561662653,0.0011999557781580074,0.008290146277325442
1589988837.6566033,-3.892484657231913,-0.7974539716957388,8.920061371072348,0.31555555555555553,-0.31777777777777777,-0.5877777777777777,0.0057318825172218086,-0.000548762663991838,0.008726646259971648
1589988837.6666033,-3.89,-0.7953303424281267,8.961982054568761,0.31555555555555553,-0.31777777777777777,-0.5877777777777777,0.0036377338940549726,-0.0005093806223117034,0.008145196099786896
1589988837.6766033,-3.895331042085468,-0.7786758316581286,9.01665521042734,0.3226636116695127,-0.32133180583475635,-0.5954781719012313,-0.0012352751413485252,0.0005815264809612453,0.00530970955363021
1589988837.6866033,-3.894176339993657,-0.7483526799873137,9.02252901998097,0.3288888888888889,-0.3244444444444444,-0.6022222222222222,-0.003907755107660631,-0.00017969473784607004,0.006448806148345683
1589988837.6966033,-3.88080546923555,-0.7675835922933499,8.90886016159105,0.3288888888888889,-0.3244444444444444,-0.6022222222222222,-0.0033603554111385544,0.0009151046551980834,0.00972961397881892
1589988837.7066033,-3.88,-0.7827663852672231,8.893616807366389,0.3288888888888889,-0.3244444444444444,-0.6022222222222222,-0.003968790649024177,0.0003945324809616469,0.015387863454746575
1589988837.7166033,-3.8860774856566422,-0.7960774856566422,8.92038742828321,0.3288888888888889,-0.3244444444444444,-0.6022222222222222,-0.004363323129985824,-0.0019888525303337597,0.021858877519662683
1589988837.7266033,-3.89,-0.806575574526893,8.966302298107571,0.3288888888888889,-0.3156770117419205,-0.5978385058709602,-0.002211471398025492,-0.0011206406155290362,0.025432845036228918
1589988837.7366033,-3.89,-0.81,8.997361768836344,0.3288888888888889,-0.3111111111111111,-0.5955555555555555,-0.0020377683767600113,0.0009469375942635554,0.023339125997124278
1589988837.7466033,-3.8965399082093928,-0.790380275371821,8.941140826115463,0.3288888888888889,-0.3111111111111111,-0.5955555555555555,-0.0007548749270914776,-0.0017627424933064127,0.022194053113474856
1589988837.7566032,-3.908249415843823,-0.771750584156177,8.967745910906762,0.3288888888888889,-0.3111111111111111,-0.5955555555555555,-0.0008998716740056126,-0.0014727489994781425,0.018217128953906668
1589988837.7666032,-3.8884092619392185,-0.7556061746261457,8.994393825373855,0.3288888888888889,-0.3111111111111111,-0.5955555555555555,-0.002660953562064341,-0.004231076341632225,0.01980847668929512
1589988837.7766032,-3.8992982085665013,-0.7210526871502481,9.038596417133002,0.31602341651122134,-0.3239765834887786,-0.5955555555555555,-0.004325046345058186,-0.00545415391248228,0.022830892862570302
1589988837.7866032,-3.7728497915003105,-0.7381643154999556,8.985507053500134,0.31555555555555553,-0.3244444444444444,-0.5955555555555555,-0.010307581477084557,-0.00545415391248228,0.028851704779524312
1589988837.7966032,-4.032218479977701,-0.8453748954752393,8.87462510452476,0.31555555555555553,-0.3244444444444444,-0.5955555555555555,-0.012824077486410184,-0.0016226145895910302,0.036157624942463995
1589988837.8066032,-3.9363304664575534,-0.808017403622382,8.86,0.31555555555555553,-0.3244444444444444,-0.5955555555555555,-0.006609487529066658,-0.004331071712941863,0.04680896939621572
1589988837.8166032,-3.876821195039459,-0.7768211950394589,8.886357609921083,0.31555555555555553,-0.3244444444444444,-0.5955555555555555,0.0006682230146305233,-0.006891738525229807,0.059522515977695895
1589988837.8266032,-3.883572043119591,-0.8039301077989777,8.94750215091857,0.31555555555555553,-0.3244444444444444,-0.6046035843019496,-0.004129908860620218,-0.009856535839908066,0.05399565447593748
1589988837.8366032,-3.906199058258702,-0.8469984304311697,8.964600313913767,0.31555555555555553,-0.3244444444444444,-0.6088888888888889,-0.007635815477475192,-0.010319293445096378,0.037307097614976886
1589988837.8466032,-3.8848402015030143,-0.8418721612024114,8.931872161202412,0.31555555555555553,-0.3244444444444444,-0.6088888888888889,-0.004567544236924421,-0.004448002371504254,0.020367159271172164
1589988837.8566031,-3.87,-0.7551056740762843,8.966088815953055,0.31555555555555553,-0.3244444444444444,-0.6088888888888889,-0.003900931087119456,0.00033209339352744055,0.018081731259573384
1589988837.8666031,-3.8643896504455104,-0.6887793008910212,9.033662097326937,0.31555555555555553,-0.3244444444444444,-0.6088888888888889,-0.005587311528906282,0.000957673166072454,0.01732013490351929
1589988837.8766031,-3.8776270571151983,-0.6623729428848015,9.06,0.32730692696568786,-0.3244444444444444,-0.5971375174787565,-0.009429205170890985,0.0,0.02501512316518358
1589988837.886603,-3.8829636803874092,-0.6614818401937046,9.06,0.3288888888888889,-0.3244444444444444,-0.5955555555555555,-0.010302408111878152,-0.0006465747592133957,0.02763473198814508
1589988837.896603,-3.877171126158701,-0.7384866215238972,8.964118729866543,0.3288888888888889,-0.3244444444444444,-0.5955555555555555,-0.010101676792059415,-0.004363323129985824,0.03998180595291378
1589988837.906603,-3.8848065288887086,-0.8478452231109668,8.863922611555482,0.3288888888888889,-0.3244444444444444,-0.5955555555555555,-0.009582427346471162,-0.002844601804239611,0.040927258767989166
1589988837.916603,-3.8933537138117926,-0.8799388585646228,8.883292572376416,0.3288888888888889,-0.3244444444444444,-0.5955555555555555,-0.007283321043275611,-0.003631656277668491,0.027669950468467784
1589988837.926603,-3.8755720077560376,-0.911641988365944,8.94049797285387,0.3192702273929138,-0.33406310594041955,-0.6051742170515306,-0.0015195293951486416,-0.00042869861265218585,0.013947366615261842
1589988837.936603,-3.876788522670236,-0.9064229546595283,9.000731136021415,0.31555555555555553,-0.3377777777777778,-0.6088888888888889,0.003702564748184181,-0.0018712210160508889,0.009427281925690888
1589988837.946603,-3.8944212410501193,-0.878368138424821,8.998368138424821,0.31555555555555553,-0.3377777777777778,-0.6088888888888889,0.007813823961373033,0.0006602910673285528,0.008726646259971648
1589988837.956603,-3.9,-0.8161598639455783,9.020765792031098,0.31555555555555553,-0.3377777777777778,-0.6088888888888889,0.014599694034167702,0.004698682039648364,0.004531612135545895
1589988837.966603,-3.893901265204068,-0.7756050608162728,9.048296204387796,0.31555555555555553,-0.3377777777777778,-0.6088888888888889,0.0170277305024153,0.00545415391248228,0.003937761112457833
1589988837.976603,-3.89,-0.76,9.054759113617253,0.31963180051991447,-0.33078992926744816,-0.6019010403785593,0.015166524442396438,0.004882461893095566,0.002648247071825681
1589988837.986603,-3.8944171158374035,-0.7688342316748069,9.05,0.3233333333333333,-0.3244444444444444,-0.5955555555555555,0.011644471612369789,0.0048451557225150516,0.001090830782496456
1589988837.996603,-3.8946768427395058,-0.7853231572604941,8.948860012050613,0.3233333333333333,-0.3244444444444444,-0.5955555555555555,0.008656144282504816,0.004292821152518991,0.0005101644025148118
1589988838.006603,-3.8950193817711956,-0.7849806182288043,8.849961236457608,0.3233333333333333,-0.3244444444444444,-0.5955555555555555,0.007635815477475192,0.0010823738894406246,0.0010950592290243717
1589988838.016603,-3.8964533564261825,-0.7587201385570951,8.84,0.3233333333333333,-0.3244444444444444,-0.5955555555555555,0.00686205788050252,-0.0007039519840101203,0.002181661564992912
1589988838.026603,-3.8980316018171046,-0.7280316018171045,8.852047402725656,0.32020993262668157,-0.3244444444444444,-0.5888625540413018,0.0006355387403136573,-0.0008761118494852041,0.002619717489735514
1589988838.036603,-3.900906251220179,-0.7581874975596423,8.888187497559642,0.31555555555555553,-0.3244444444444444,-0.5788888888888889,-0.006544984694978735,-0.002181661564992912,0.003272492347489368
1589988838.046603,-3.89,-0.7592588840013839,8.882345178668512,0.31555555555555553,-0.3244444444444444,-0.5788888888888889,-0.0072991529547994085,-0.0006733250453515663,0.003272492347489368
1589988838.056603,-3.918366840825368,-0.7216331591746322,8.948008812269762,0.31555555555555553,-0.3244444444444444,-0.5788888888888889,-0.009956572215561819,0.002320756738086626,0.027253645307717837
1589988838.066603,-3.822035532295827,-0.7202823302575403,9.01084699077262,0.31555555555555553,-0.3244444444444444,-0.5788888888888889,-0.005300166644604733,-9.239236072652824e-05,0.04045313131309539
1589988838.076603,-3.8236726365903424,-0.8181217411017909,9.076285422806619,0.31209980100254414,-0.33135595355046726,-0.5875282752714174,0.003958125615335984,-0.003272492347489368,0.04759135691519422
1589988838.086603,-3.90839586645469,-0.8709896661367249,9.075187599364071,0.3088888888888889,-0.3377777777777778,-0.5955555555555555,0.015863610426500724,-0.005804121562574148,0.04747160295470626
1589988838.096603,-3.874217956656347,-0.8435544891640867,9.03066346749226,0.3088888888888889,-0.3377777777777778,-0.5955555555555555,0.02181661564992912,-0.00552652698885658,0.028552850336278673
1589988838.106603,-3.879817409029796,-0.8135767879602724,9.046423212039727,0.3088888888888889,-0.3377777777777778,-0.5955555555555555,0.028301847589636442,-0.0036427418033516774,0.010267396838692301
1589988838.116603,-3.8579560412773217,-0.794659340212887,9.033296701064435,0.3088888888888889,-0.3377777777777778,-0.5955555555555555,0.04386818049110733,-0.011428550879962765,0.007784456350331823
1589988838.126603,-3.83,-0.7453786918345306,8.996613607550358,0.3059141350111909,-0.32885351614468394,-0.607950363379297,0.05989571174005978,-0.019030866267461297,0.012737934832597367
1589988838.1366029,-3.3212206556703854,-0.5706566970091027,8.791563205803847,0.3022222222222222,-0.31777777777777777,-0.6233333333333333,0.04324471009035091,0.014623821859082769,0.012251408624164562
1589988838.1466029,-2.823174700242427,-0.5746578723218381,9.03971520300522,0.3022222222222222,-0.31777777777777777,-0.6233333333333333,-0.03347778659232156,0.08377004821049726,-0.05311274067725777
1589988838.1566029,-2.552588553228453,-0.8005530354212914,9.236283177299489,0.3022222222222222,-0.31777777777777777,-0.6233333333333333,-0.012378049908127436,0.05816156862249273,-0.13235975000339298
1589988838.1666028,-2.1365481189294653,-1.0764282987657463,9.032405098188914,0.3022222222222222,-0.31777777777777777,-0.6233333333333333,0.05459601820385702,0.06415898194376275,-0.19858568149338918
1589988838.1766028,-1.7581212666195645,-0.7443637998586935,8.75705054916822,0.31749045467845644,-0.32259932486922016,-0.618511786241891,0.06081327312600385,0.08933132700918099,-0.32156365851809204
1589988838.1866028,-1.713726984388516,-0.9200381019071548,8.833542859496644,0.3233333333333333,-0.3244444444444444,-0.6166666666666667,0.026904388452699487,0.03663321330857676,-0.46785005250437195
1589988838.1966028,-1.7690615243342516,-1.0264783370899073,8.912300692879205,0.3233333333333333,-0.3244444444444444,-0.6166666666666667,0.01089290014749579,0.020756600222370206,-0.5614454041150898
1589988838.2066028,-1.8895064895864775,-0.9467763356474495,8.97967099305765,0.3233333333333333,-0.3244444444444444,-0.6166666666666667,0.014469641495709291,0.03956772176563699,-0.6368657315277461
1589988838.2166028,-2.085827671503958,-0.908027209762533,9.036054419525065,0.3233333333333333,-0.3244444444444444,-0.6166666666666667,0.03228958053678028,0.05867977047411307,-0.7076696704408195
1589988838.2266028,-2.210742446717152,-0.8921484893434304,9.008593957373721,0.3233333333333333,-0.3244444444444444,-0.6104599196745344,0.029056090549549798,0.061158910904282916,-0.7626061104938135
1589988838.2366028,-2.271518276093214,-0.9129109656559284,9.061518276093214,0.3233333333333333,-0.3244444444444444,-0.5877777777777777,0.022451689838784455,0.057206356014123994,-0.8420790401453856
1589988838.2466028,-2.3046527381631488,-0.9253472618368511,9.015556189389617,0.3233333333333333,-0.3244444444444444,-0.5877777777777777,0.03430049879792906,0.0677602396146827,-0.9045105999681928
1589988838.2566028,-2.3477416191988048,-0.9640318890652723,8.923709730133533,0.3233333333333333,-0.3244444444444444,-0.5877777777777777,0.03951625929952669,0.07417649320975901,-0.9698362426022809
1589988838.2666028,-2.3489839669254815,-1.0162700413431482,8.909491983462742,0.3233333333333333,-0.3244444444444444,-0.5877777777777777,0.03479575302451466,0.07474961660485022,-1.0197036436564337
1589988838.2766027,-2.3621656329169216,-1.0614437552779477,8.916082816458461,0.33345955110347525,-0.3208704852314532,-0.6032649343674066,0.034479286601106635,0.07643689940973077,-1.0712525918898204
1589988838.2866027,-2.4191429211636852,-1.1140000746909662,8.886285618254472,0.3422222222222222,-0.31777777777777777,-0.6166666666666667,0.040765915146965336,0.08221748488183067,-1.1157952741677863
1589988838.2966027,-2.4690143588050835,-1.15,8.820985641194916,0.3422222222222222,-0.31777777777777777,-0.6166666666666667,0.04322221187809897,0.08571085400766516,-1.159622543208113
1589988838.3066027,-2.5180253475061325,-1.15,8.872865903515944,0.3422222222222222,-0.31777777777777777,-0.6166666666666667,0.03913790248237489,0.08277113378223312,-1.1991008662585745
1589988838.3166027,-2.535387352625938,-1.154612647374062,8.948450589496248,0.3422222222222222,-0.31777777777777777,-0.6166666666666667,0.039185400936261654,0.08382495578500558,-1.2270923598204586
1589988838.3266027,-2.5756145798788026,-1.1650682866532003,9.010546293225604,0.35573765329742296,-0.3115832052016441,-0.6059669503987994,0.03980787464278619,0.08893995336513343,-1.2573686997855267
1589988838.3366027,-2.624842342342342,-1.1893693693693692,9.03063063063063,0.3688888888888889,-0.3055555555555556,-0.5955555555555555,0.03874169056123112,0.09321443855562621,-1.2819104313898386
1589988838.3466027,-2.622245328829304,-1.229386677926739,8.963471972975826,0.3688888888888889,-0.3055555555555556,-0.5955555555555555,0.040716787593715754,0.09447932637613503,-1.3026072937629862
1589988838.3566027,-2.5930429964037724,-1.2727177526971705,8.885760749100944,0.3688888888888889,-0.3055555555555556,-0.5955555555555555,0.0433367704697296,0.09427387783223691,-1.3226443514612645
1589988838.3666027,-2.564172974885037,-1.2958270251149628,8.88,0.3688888888888889,-0.3055555555555556,-0.5955555555555555,0.0417693846531544,0.09458446315890259,-1.3355807784200124
1589988838.3766026,-2.5551529023988278,-1.3134352682658854,8.884294085332357,0.3718470365622902,-0.30431504201509696,-0.5955555555555555,0.04226135328956971,0.09437354175027936,-1.3482065228850273
1589988838.3866026,-2.6249053788238483,-1.3649053788238485,8.93,0.4033333333333333,-0.2911111111111111,-0.5955555555555555,0.03926990816987242,0.09751106393165458,-1.3616140418974578
1589988838.3966026,-2.65,-1.4035363803417131,8.902927239316574,0.4033333333333333,-0.2911111111111111,-0.5955555555555555,0.040324615338466756,0.09356438224707422,-1.3682514368901895
1589988838.4066026,-2.6458924544666087,-1.4641075455333912,8.835183000867302,0.4033333333333333,-0.2911111111111111,-0.5955555555555555,0.04472406208235469,0.09529168479885303,-1.3797062364971862
1589988838.4166026,-2.645883266066439,-1.4788248990996584,8.914708165166097,0.4033333333333333,-0.2911111111111111,-0.5955555555555555,0.04504494446869912,0.09432502844392088,-1.3825961825722353
1589988838.4266026,-2.6688481849180725,-1.522120462295181,8.97212046229518,0.4111983865938421,-0.27931353122034797,-0.6171844520219547,0.04678008011263657,0.09962255129635916,-1.3874111118007808
1589988838.4366026,-2.7024041628872872,-1.6060104072182173,8.971994796390891,0.4211111111111111,-0.2644444444444444,-0.6444444444444445,0.04799655442984406,0.10266922029884627,-1.3886275861179884
1589988838.4466026,-2.711577326049969,-1.637365989074953,8.895252619324795,0.4211111111111111,-0.2644444444444444,-0.6444444444444445,0.0475371688290628,0.10179138193403828,-1.3895463573195508
1589988838.4566026,-2.693312715015464,-1.6367182124613406,8.83671821246134,0.4211111111111111,-0.2644444444444444,-0.6444444444444445,0.044717314753610064,0.09780666194468578,-1.3911739824986042
1589988838.4666026,-2.68,-1.6876952943003571,8.883271470725267,0.4211111111111111,-0.2644444444444444,-0.6444444444444445,0.04277356041838934,0.09634997095680395,-1.3919000784654778
1589988838.4766026,-2.6721016939025484,-1.7257966121949033,8.884203387805096,0.4421732607043156,-0.25391336964784217,-0.6334745748646505,0.04495332132278318,0.099036341966749,-1.3914692926944439
1589988838.4866025,-2.66,-1.754321292662031,8.877285170648124,0.4744444444444445,-0.23777777777777775,-0.6166666666666667,0.04316185139426629,0.09941367217849004,-1.3922233873997572
1589988838.4966025,-2.6498805430772707,-1.76,8.862895324616659,0.4744444444444445,-0.23777777777777775,-0.6166666666666667,0.04254240051736178,0.09854272426179637,-1.3951856015418167
1589988838.5066025,-2.617781855356628,-1.792581719048992,8.82258171904899,0.4744444444444445,-0.23777777777777775,-0.6166666666666667,0.0407653434130972,0.0957114869986483,-1.3973542323779602
1589988838.5166025,-2.605694632651859,-1.8513892653037176,8.892778530607435,0.4744444444444445,-0.23777777777777775,-0.6166666666666667,0.04066382962403878,0.09302370718386865,-1.3976648264075429
1589988838.5266025,-2.618050433040712,-1.8761008660814233,8.942201732162847,0.4744444444444445,-0.23777777777777775,-0.6166666666666667,0.046055064586655745,0.0984149421464856,-1.3983387307778699
1589988838.5366025,-2.6759439334209376,-1.9562242663162506,8.915943933420937,0.4811111111111111,-0.20555555555555555,-0.6166666666666667,0.05060537443528894,0.10448324121806724,-1.4019387796219607
1589988838.5466025,-2.6599342470094274,-2.020065752990573,8.89973698803771,0.4811111111111111,-0.20555555555555555,-0.6166666666666667,0.04797862308330457,0.09926201493786958,-1.402826317636982
1589988838.5566025,-2.63683497746006,-2.04,8.82633004507988,0.4811111111111111,-0.20555555555555555,-0.6166666666666667,0.04323290132013412,0.09886527122745337,-1.4096435418084694
1589988838.5666025,-2.6267320523467252,-2.0432679476532747,8.843267947653274,0.4811111111111111,-0.20555555555555555,-0.6166666666666667,0.04508053987193258,0.09999995420009605,-1.4126258633329103
1589988838.5766025,-2.6035155513666353,-2.0794533459000943,8.872968897266729,0.4962414912556289,-0.19763011833699864,-0.6213498795685413,0.04513736460314977,0.09888211404236016,-1.41297953514175
1589988838.5866024,-2.5772779795311984,-2.1369626939584023,8.8915186530208,0.5277777777777778,-0.1811111111111111,-0.6311111111111111,0.04191415545296262,0.09804350339918748,-1.4141792798335042
1589988838.5966024,-2.56,-2.1695454235670963,8.837045593948067,0.5277777777777778,-0.1811111111111111,-0.6311111111111111,0.04566613307504842,0.09750538854193053,-1.4137662807120077
1589988838.6066024,-2.56,-2.2263022743947176,8.813151137197359,0.5277777777777778,-0.1811111111111111,-0.6311111111111111,0.05009754413652762,0.10086151145176749,-1.4121207838708167
1589988838.6166024,-2.542799160011016,-2.293760671991187,8.843440167997796,0.5277777777777778,-0.1811111111111111,-0.6311111111111111,0.05164431089222902,0.10219779100196158,-1.4111597684355184
1589988838.6266024,-2.5070536915331103,-2.312634228832776,8.857365771167224,0.5292509320112225,-0.17423639135503544,-0.636512676633742,0.052520573758350536,0.10282544334456005,-1.410283505569397
1589988838.6366024,-2.494148190140254,-2.2990373309817755,8.91244457042076,0.5377777777777778,-0.13444444444444445,-0.6677777777777778,0.05164071894367155,0.09862726777434473,-1.4102583656847485
1589988838.6466024,-2.482160243407708,-2.357839756592292,8.88361663286004,0.5377777777777778,-0.13444444444444445,-0.6677777777777778,0.04908738521234052,0.0980979918685905,-1.4119242356632762
1589988838.6566024,-2.442069377990431,-2.413791866028708,8.815861244019139,0.5377777777777778,-0.13444444444444445,-0.6677777777777778,0.04778974022048319,0.09729075385154544,-1.4139235083247677
1589988838.6666024,-2.4265539133840415,-2.45,8.853784346463835,0.5377777777777778,-0.13444444444444445,-0.6677777777777778,0.04619080260083482,0.10076924015111216,-1.4166501751523672
1589988838.6766024,-2.423490163708901,-2.470940982253405,8.886980327417803,0.5404923495513673,-0.11660582993228474,-0.6704923495513673,0.045002134642537106,0.10324820653620122,-1.419222170648279
1589988838.6866024,-2.43,-2.51,8.9,0.5455555555555556,-0.08333333333333333,-0.6755555555555556,0.04145156973486533,0.10253809355466686,-1.4213525095928818
1589988838.6966023,-2.378846522935193,-2.5441023180432047,8.82326978440279,0.5455555555555556,-0.08333333333333333,-0.6755555555555556,0.04424155910556622,0.10253809355466686,-1.4204225131359818
1589988838.7066023,-2.3528816143497755,-2.5742710313901345,8.728542062780269,0.5455555555555556,-0.08333333333333333,-0.6755555555555556,0.04565959378107224,0.10409855878454412,-1.4244697028565925
1589988838.7166023,-2.3152645739910316,-2.5968412556053813,8.773682511210762,0.5455555555555556,-0.08333333333333333,-0.6755555555555556,0.04483891726967763,0.10081585273896572,-1.423649026345198
1589988838.7266023,-2.258766398460731,-2.627532796921462,8.872467203078537,0.5466520902571279,-0.07935839504013371,-0.678982226497969,0.046771158594110664,0.10567602084891928,-1.421083379486408
1589988838.7366023,-2.25,-2.6146576262647465,8.888447457911752,0.5544444444444444,-0.05111111111111112,-0.7033333333333334,0.04606892696999863,0.10488911118975809,-1.4188321358876925
1589988838.7466023,-2.2292527111812857,-2.674149457763743,8.8409537956538,0.5544444444444444,-0.05111111111111112,-0.7033333333333334,0.04772947833453262,0.10644878105871672,-1.4120917111422875
1589988838.7566023,-2.2070456520627784,-2.690568478094167,8.80704565206278,0.5544444444444444,-0.05111111111111112,-0.7033333333333334,0.042356366496074105,0.10619486660979811,-1.4048040138341475
1589988838.7666023,-2.2032863556745657,-2.733399102055608,8.823342728865088,0.5544444444444444,-0.05111111111111112,-0.7033333333333334,0.03636205097674066,0.1072660518390103,-1.394069441308165
1589988838.7766023,-2.172730376476378,-2.7854607529527557,8.832730376476379,0.5559613202646544,-0.03806597905730534,-0.7054569594816273,0.03798176021735068,0.10858792320879661,-1.3805896878373194
1589988838.7866023,-2.1716753438672276,-2.812486984199159,8.819188359668068,0.56,-0.0033333333333333327,-0.7111111111111111,0.03899862027786994,0.1079037112413105,-1.3619992869943935
1589988838.7966022,-2.1481842175355337,-2.8378771883096445,8.7545526526066,0.56,-0.0033333333333333327,-0.7111111111111111,0.038806782502415746,0.10429012114527571,-1.3438394196672685
1589988838.8066022,-2.1224571224658204,-2.8650857550683586,8.718857193835447,0.56,-0.0033333333333333327,-0.7111111111111111,0.03980596913428856,0.1048631247875959,-1.3220494906783764
1589988838.8166022,-2.105091921420317,-2.882637882130476,8.76717827502889,0.56,-0.0033333333333333327,-0.7111111111111111,0.036820552444998024,0.10690141668465268,-1.3044862465637035
1589988838.8266022,-2.090404454249396,-2.860606681374094,8.818584410127114,0.56,-0.0033333333333333327,-0.7111111111111111,0.03601947537965067,0.10690141668465268,-1.2844593199300194
1589988838.8366022,-2.0118998050191834,-2.8994990250959183,8.823799610038368,0.5811111111111111,0.03333333333333333,-0.7622222222222222,0.03277957135955677,0.10539611274302288,-1.2559720587716399
1589988838.8466022,-2.023147802411513,-2.943147802411513,8.805374173473357,0.5811111111111111,0.03333333333333333,-0.7622222222222222,0.028018228368138352,0.10500241224424132,-1.2319729574038147
1589988838.8566022,-2.022778450526089,-2.9608323242108665,8.73902693684239,0.5811111111111111,0.03333333333333333,-0.7622222222222222,0.02667995792765167,0.10759837304397601,-1.2115498294054705
1589988838.8666022,-1.9778159725167528,-2.9978159725167526,8.78243680549665,0.5811111111111111,0.03333333333333333,-0.7622222222222222,0.023732462970251854,0.10474732892347552,-1.1839826560762194
1589988838.8766022,-1.943559158682465,-2.97423663472986,8.791779579341233,0.5844725387556614,0.02740140219589168,-0.7634086084497106,0.021548592484707755,0.10202962874976375,-1.1601542258929372
1589988838.8866022,-1.9544868272527847,-3.0455131727472153,8.802756586373608,0.6,0.0,-0.7688888888888888,0.013768146319479634,0.10532114897384806,-1.130519779893544
1589988838.8966022,-1.9384853460620524,-3.0706025775656327,8.788794844868736,0.6,0.0,-0.7688888888888888,0.009156584586331064,0.10690141668465268,-1.107260766398998
1589988838.9066021,-1.930477136038186,-3.1266600477326967,8.676679904534605,0.6,0.0,-0.7688888888888888,0.0056623437836390254,0.10690141668465268,-1.0845482011814997
1589988838.9166021,-1.9562385834706248,-3.1456421247940627,8.681284249588126,0.6,0.0,-0.7688888888888888,0.008791709808459777,0.1023329401078652,-1.0471125620454351
1589988838.9266021,-1.9428209024456564,-3.1657686463315153,8.721537292663031,0.6,0.0,-0.7688888888888888,0.005132604935521242,0.10160111913327748,-1.027353395731567
1589988838.936602,-1.438017920369969,-2.6091285497507046,8.43047835826288,0.6255555555555555,-0.004444444444444445,-0.7744444444444445,-0.029510208348559733,0.078007682615297,-0.9893993631369078
1589988838.946602,-1.8734148687288796,-3.1925677151026775,9.57477748895243,0.6255555555555555,-0.004444444444444445,-0.7744444444444445,-0.036542377527836616,0.05855331247468408,-0.9530193272922952
1589988838.956602,-1.7569057145013967,-3.0381761908356606,8.348729523665735,0.6255555555555555,-0.004444444444444445,-0.7744444444444445,0.0901053235664686,0.1094384814093991,-0.8851220172885989
1589988838.966602,-1.7979365290134113,-3.123412561412827,8.415951400876377,0.6255555555555555,-0.004444444444444445,-0.7744444444444445,0.04460297131961839,0.11731638104325383,-0.8594967297766425
1589988838.976602,-1.7882494448556625,-3.2482494448556625,9.1620059215396,0.6084455958549223,-0.028887244016777697,-0.7814717493214903,-0.04107046527199462,0.018025352926604093,-0.8566029299639963
1589988838.986602,-1.81,-3.27,8.93,0.5633333333333334,-0.09333333333333334,-0.8,-0.014180800172453925,0.04254240051736178,-0.8257589023498172
1589988838.996602,-1.7837453335497484,-3.22405433371206,8.667453335497484,0.5633333333333334,-0.09333333333333334,-0.8,0.02376640263879365,0.06831785903066204,-0.7935395792081918
1589988839.006602,-1.780376095830824,-3.2411282874924714,8.612914742688885,0.5633333333333334,-0.09333333333333334,-0.8,0.005310563994181367,0.05542724145260366,-0.7612050141505465
1589988839.016602,-1.8102499160361143,-3.3429373530632,8.854186933243772,0.5633333333333334,-0.09333333333333334,-0.8,-0.0031701697176358973,0.03939949241024918,-0.7303043018883554
1589988839.026602,-1.78,-3.2961648906337633,8.647945036455413,0.556940113416838,-0.08568430236181218,-0.782418645229638,0.017677454269077734,0.05627487719154683,-0.6955538406826858
1589988839.036602,-1.78,-3.3686168819015534,8.669893318360472,0.5011111111111111,-0.01888888888888889,-0.6288888888888889,0.016443717708143752,0.048298303989366756,-0.6660798952509479
1589988839.046602,-1.7846946942081814,-3.4153053057918186,8.74948448764682,0.5011111111111111,-0.01888888888888889,-0.6288888888888889,0.009684262260152052,0.03811246999621793,-0.6396930902810293
1589988839.056602,-1.798284973673552,-3.401715026326448,8.661147671121912,0.5011111111111111,-0.01888888888888889,-0.6288888888888889,0.01561414033357434,0.04107740903292908,-0.6189385170240513
1589988839.066602,-1.793042984530037,-3.4415214922650184,8.702822383975278,0.5011111111111111,-0.01888888888888889,-0.6288888888888889,0.015532616438440608,0.0381081247512637,-0.581033980102473
1589988839.076602,-1.80865926987732,-3.44932963493866,8.8199445240799,0.5011111111111111,-0.01888888888888889,-0.6288888888888889,0.01127393524717445,0.03214597108349107,-0.5622957828609019
1589988839.086602,-1.4872742080994386,-3.065467872894948,8.817518544506816,0.5311111111111111,0.06222222222222223,-0.6077777777777778,0.04302434084152508,0.05938680257897192,-0.510220352759642
1589988839.096602,-1.5245456113122953,-3.0890912226245906,7.905910132288819,0.5311111111111111,0.06222222222222223,-0.6077777777777778,0.0685734394040485,0.08077089622338901,-0.4734205864758483
1589988839.106602,-1.6274001452432825,-3.282466715081094,8.572067296054223,0.5311111111111111,0.06222222222222223,-0.6077777777777778,-0.038782982010849544,-0.03147433655020155,-0.48789948322143467
1589988839.116602,-1.6491570702355016,-3.289719023411834,8.66634730435384,0.5311111111111111,0.06222222222222223,-0.6077777777777778,-0.08545812492167505,-0.06628291770403753,-0.4823617544015063
1589988839.126602,-1.65,-3.3026368322489716,8.57977624186729,0.533747943360083,0.06852132148365521,-0.605873398931298,0.06684183185684121,0.055825003248391035,-0.39869320706251066
1589988839.136602,-1.65,-3.318831978686024,8.701239840145183,0.5499430897971354,0.10720972686105801,-0.5941769042823158,0.02179311299237624,0.030209065070558018,-0.381910351014965
1589988839.146602,-1.6529704142011834,-3.3829704142011834,8.83494674556213,0.5511111111111111,0.11,-0.5933333333333334,-0.0030130166228955384,-0.002688994698153988,-0.36213387408077313
1589988839.156602,-1.66,-3.39,8.61,0.5511111111111111,0.11,-0.5933333333333334,0.01308996938995747,0.014180800172453925,-0.34143003492139073
1589988839.166602,-1.68,-3.46,8.817386435160065,0.5511111111111111,0.11,-0.5933333333333334,0.021767063640645016,0.015457622634327315,-0.3088911031258739
1589988839.176602,-1.68,-3.46141948250382,8.801419482503821,0.55174199222392,0.11141948250381986,-0.594332228428614,0.014748552416260599,0.0023365030860310956,-0.2944280237285801
1589988839.1866019,-1.6777938935605847,-3.486690840340877,8.812351148484678,0.5644444444444444,0.14,-0.6144444444444445,0.0270222098646672,0.006777722759950113,-0.2679992208048643
1589988839.1966019,-1.6548396154735554,-3.4582798718245185,8.666559743649037,0.5644444444444444,0.14,-0.6144444444444445,0.03250229612283186,0.015576923756288627,-0.24442876072848257
1589988839.2066019,-1.6340558620461827,-3.4513519540153945,8.652703908030789,0.5644444444444444,0.14,-0.6144444444444445,0.02721226591947317,0.008019737751490494,-0.23158154452032573
1589988839.2166018,-1.6289640812077042,-3.421035918792296,8.858604893284747,0.5644444444444444,0.14,-0.6144444444444445,0.008579006487223559,-0.002668304969781805,-0.21590613228568584
1589988839.2266018,-1.6227258124488735,-3.427274187551127,8.789983936937606,0.5644444444444444,0.14,-0.6144444444444445,0.020827818552137358,0.007539038417646361,-0.20229634110244826
1589988839.2366018,-1.648459869848156,-3.4774331164135934,8.892812725958063,0.5718229292198923,0.18427090865268742,-0.6028496826544549,0.00858782759206176,-0.00041882223102358493,-0.18289674994100374
1589988839.2466018,-1.5486731908318312,-3.3273463816636624,8.656019572495493,0.5722222222222222,0.18666666666666668,-0.6022222222222222,0.016651926594074277,-0.0021687109342761763,-0.16265261775885217
1589988839.2566018,-1.6029447894168467,-3.440306762958963,8.802638026457883,0.5722222222222222,0.18666666666666668,-0.6022222222222222,0.005935993954062197,0.003399643046825989,-0.14222291647040577
1589988839.2666018,-1.6170994195464363,-3.489847968412527,8.767251451133909,0.5722222222222222,0.18666666666666668,-0.6022222222222222,0.008252039893093423,-0.001232448831236463,-0.13373074802729132
1589988839.2766018,-1.6895949302215563,-3.569756958132934,8.879189860443114,0.5723932516842317,0.18660365581224211,-0.6024562625386563,0.010925982328299971,0.002155149809989795,-0.11661284670710831
1589988839.2866018,-1.6482571158243318,-3.5449542694945992,8.796514231648663,0.5898469955408377,0.18017332912822936,-0.626340333079275,0.012729684745324682,-0.0005504038155472735,-0.10579063220496004
1589988839.2966018,-1.6,-3.457331358937599,8.738269825699842,0.5933333333333334,0.17888888888888888,-0.6311111111111111,0.008435542678141545,-0.0014107216627629977,-0.09221199289336252
1589988839.3066018,-1.6,-3.4968912699011545,8.674973968158152,0.5933333333333334,0.17888888888888888,-0.6311111111111111,0.012750859541328074,-0.003136848408037609,-0.08358135916698946
1589988839.3166018,-1.6240792630265808,-3.5306573265521544,8.761184147394683,0.5933333333333334,0.17888888888888888,-0.6311111111111111,0.006674155137892143,-0.003272492347489368,-0.06948312599022215
1589988839.3266017,-1.5838307264178102,-3.6031046924479417,8.769233854716438,0.5933333333333334,0.17888888888888888,-0.6311111111111111,0.007552241991557797,-0.003272492347489368,-0.05982417059989997
1589988839.3366017,-1.562406906106789,-3.5327792816796335,8.810372375572845,0.6377777777777778,0.18444444444444444,-0.6444444444444445,0.002222281438743766,-0.0008282780553100555,-0.048340346904532164
1589988839.3466017,-1.562011931545287,-3.51,8.764023863090573,0.6377777777777778,0.18444444444444444,-0.6444444444444445,-0.0005680129247110518,-0.0003485452385236028,-0.04132249218252917
1589988839.3566017,-1.5216612589227774,-3.5199675535366644,8.696612589227774,0.6377777777777778,0.18444444444444444,-0.6444444444444445,0.0016380158537941591,-0.002181661564992912,-0.03418172409162159
1589988839.3666017,-1.5296665648738406,-3.567999389243043,8.776665648738405,0.6377777777777778,0.18444444444444444,-0.6444444444444445,-0.0009817143926223498,-0.002181661564992912,-0.03068875042973291
1589988839.3766017,-1.5595023731467437,-3.6388388706757353,8.740663502471008,0.6377777777777778,0.18444444444444444,-0.6444444444444445,-1.8094222990962467e-05,0.001036548113523569,-0.025179579112373295
1589988839.3866017,-1.5770133377311428,-3.6825333443278567,8.833573357521285,0.7341866915875862,0.19011555702149202,-0.6520059278805078,-0.0009279336255069422,-0.0007650364685174284,-0.024161174371911544
1589988839.3966017,-1.5156558295964127,-3.5537565396113604,8.819139573991032,0.7511111111111111,0.19111111111111112,-0.6533333333333333,0.002181661564992912,-0.0063080469549465735,-0.022907446432425576
1589988839.4066017,-1.4604171818215879,-3.731668727286351,8.68,0.7511111111111111,0.19111111111111112,-0.6533333333333333,0.0020451391331271366,-0.003363507302066552,-0.022952953909714167
1589988839.4166017,-1.4682743246787306,-3.7630972987149227,8.68,0.7511111111111111,0.19111111111111112,-0.6533333333333333,-0.0005261048541859385,-0.005077669960275268,-0.023810035238818524
1589988839.4266016,-1.47,-3.8138189461283067,8.758874103030951,0.7511111111111111,0.19111111111111112,-0.6533333333333333,-0.0020468118883626737,-0.0025862105948836265,-0.02399827721492203
1589988839.4366016,-1.4902744835327986,-3.7389020658688055,8.803790805887997,1.1130481875114417,0.18510385673102267,-0.8050165064305674,0.0007671425332463171,-0.0014444605404331048,-0.022523875165802416
1589988839.4466016,-1.4816019287436377,-3.6908009643718187,8.746407714974552,1.2866666666666666,0.18222222222222226,-0.8777777777777778,-0.005846011421008332,-8.73716592463005e-05,-0.020813156526678964
1589988839.4566016,-1.4965510653320597,-3.739653195996179,8.657244673339703,1.2866666666666666,0.18222222222222226,-0.8777777777777778,-0.006544984694978735,0.002708161732098088,-0.015309461403236486
1589988839.4666016,-1.5817056196501675,-3.8607359508745813,8.682764793449945,1.2866666666666666,0.18222222222222226,-0.8777777777777778,-0.007334223297230824,-0.0016940151429851924,-0.009063496591857186
1589988839.4766016,-1.534876814291031,-3.977807964272423,8.698374395236323,1.2866666666666666,0.18222222222222226,-0.8777777777777778,-0.0056314798841214505,-0.005099501969203938,-0.004806638059083751
1589988839.4866016,-1.6244015020014877,-3.9422714230047116,8.814401502001488,1.106666666666667,-0.37666666666666665,-0.9866666666666668,0.0058324997338511835,-0.000610701395252187,-0.0004071342635014581
1589988839.4966016,-1.5798271281306457,-3.8011192390803785,8.769827128130645,1.106666666666667,-0.37666666666666665,-0.9866666666666668,0.00015980483548882606,-0.005473011308134207,-0.0036486742054228053
1589988839.5066016,-1.600118987397453,-3.7248215189038207,8.757470253150636,1.106666666666667,-0.37666666666666665,-0.9866666666666668,0.004363323129985824,-0.0053161776257218355,-0.0031215365491418256
1589988839.5166016,-1.6704128738018873,-3.6216514952075496,8.740825747603775,1.106666666666667,-0.37666666666666665,-0.9866666666666668,0.004318285584747321,-0.004588510856178339,0.005904529364867309
1589988839.5266016,-1.6781888800311462,-3.652755520124585,8.756377760062293,1.106666666666667,-0.37666666666666665,-0.9866666666666668,0.0034700548887713328,-0.008829664336058283,0.014386836324627193
1589988839.5366015,-1.6728541921154914,-3.6171251526929487,8.795729039422543,0.8097186501326424,-0.05669326917144796,-0.7897599605157629,0.004051979068112155,-0.009037990321845317,0.03039322270865699
1589988839.5466015,-1.6608163511686305,-3.6324490535058915,8.70972788294379,0.6911111111111111,0.07111111111111111,-0.7111111111111111,0.0020332447343147314,-0.009847160408603742,0.05174398063550361
1589988839.5566015,-1.6879211405178296,-3.7202969799260246,8.700296979926023,0.6911111111111111,0.07111111111111111,-0.7111111111111111,-0.0033372833165075436,-0.010973098793982734,0.06937024898745849
1589988839.5666015,-1.6352043308076274,-3.7278279527417677,8.707827952741768,0.6911111111111111,0.07111111111111111,-0.7111111111111111,-0.004980286710418875,-0.012616102187894065,0.08580028292657178
1589988839.5766015,-1.6614309114633943,-3.796289458341431,8.759717093756073,0.6911111111111111,0.07111111111111111,-0.7111111111111111,-0.0036463893696360473,-0.012186087118534354,0.099577777661437
1589988839.5866015,-1.6057486707860325,-3.8035748670786034,8.744299468314413,0.6489907952930657,0.1425014769044084,-0.7111111111111111,-0.00116987251580208,-0.013400885161919205,0.10705424899000315
1589988839.5966015,-1.6166492645243218,-3.7533507354756783,8.799973896786483,0.6255555555555555,0.18222222222222226,-0.7111111111111111,-0.0033924302482633444,-0.011636477486256418,0.10762958634594454
1589988839.6066015,-1.63,-3.74,8.757282199303038,0.6255555555555555,0.18222222222222226,-0.7111111111111111,-0.0064157583583075465,-0.014329033205500762,0.09937582084747303
1589988839.6166015,-1.5937443241355223,-3.6022284317149844,8.770757946210269,0.6255555555555555,0.18222222222222226,-0.7111111111111111,-0.002889958604692846,-0.012407581010128219,0.08461958818616325
1589988839.6266015,-1.5732259090637986,-3.482259090637985,8.74258136344659,0.6255555555555555,0.18222222222222226,-0.7111111111111111,-0.002568708165824226,-0.012386185208292329,0.06668164276312392
1589988839.6366014,-1.6089976495564486,-3.5084964743346725,8.846742361058457,0.6353049679446677,0.20822065525985461,-0.7111111111111111,0.0009814913106289663,-0.00670899390277997,0.03659878291765423
1589988839.6466014,-1.6405758619412658,-3.5023560345146834,8.819424138058734,0.6355555555555555,0.2088888888888889,-0.7111111111111111,-0.0022444783581930007,-0.004877330124634007,0.012650251837556852
1589988839.6566014,-1.615324224680113,-3.634675775319887,8.711168943829973,0.6355555555555555,0.2088888888888889,-0.7111111111111111,0.004363323129985824,-0.001090830782496456,-0.01911094840650861
1589988839.6666014,-1.554682281500759,-3.6953177184992407,8.72632942962481,0.6355555555555555,0.2088888888888889,-0.7111111111111111,0.004363323129985824,-0.001090830782496456,-0.04060973036390162
1589988839.6766014,-1.5479803178269274,-3.7658622247884916,8.777881906961564,0.6355555555555555,0.2088888888888889,-0.7111111111111111,0.006974876031901121,-0.001090830782496456,-0.06322524554428648
1589988839.6866014,-1.5149241530597464,-3.6747724591792386,8.768954491835848,0.6059359514726746,0.17147465215261826,-0.7243619866218737,0.00840105174876645,0.004265823116542348,-0.08064052512673166
1589988839.6966014,-1.519659249205272,-3.767614744436904,8.750170375397364,0.5933333333333334,0.15555555555555556,-0.73,0.010871137679359615,0.005472738985284752,-0.09260910607538393
1589988839.7066014,-1.5361195770486706,-3.7941793655730054,8.73388042295133,0.5933333333333334,0.15555555555555556,-0.73,0.013545867451791531,0.007212526997033596,-0.10063329539267968
1589988839.7166014,-1.4279642450267285,-3.5572558642245786,8.73,0.5933333333333334,0.15555555555555556,-0.73,0.011125498915827056,0.0045805142208483205,-0.12596206985547287
1589988839.7266014,-3.8503924494178814,-4.078094269243811,-5.430847518932971,0.5933333333333334,0.15555555555555556,-0.73,0.01090830782496456,0.01121130404570682,-0.15110599326312876
1589988839.7366014,-0.5387857171086432,-3.1174538592261785,0.3287151721139786,0.52,0.21666666666666667,-0.6077777777777778,-1.496108583446829,1.6188622248327578,-5.508229122848684
1589988839.7466013,-1.8731774888353159,-2.843944986760463,-0.10226850571078527,0.52,0.21666666666666667,-0.6077777777777778,-0.6209430178237627,-1.644022616421009,-9.601978793449144
1589988839.7566013,-0.06628639428798097,-3.1823696945656486,0.4472368107893693,0.52,0.21666666666666667,-0.6077777777777778,-0.776170972492815,-1.176616380649518,-9.666851960674176
1589988839.7666013,-1.1726765172550575,-3.506799880999603,3.01772213407378,0.52,0.21666666666666667,-0.6077777777777778,-0.768911517433672,-0.6330646830961848,-9.317490685952919
1589988839.7766013,-1.1958604206500958,-3.3637906309751435,3.0558580305927343,0.52,0.21666666666666667,-0.6077777777777778,-0.7483096560777546,-0.4435528097770813,-9.019775486275057
1589988839.7866013,-0.3852862643341425,-1.6567443709717922,-0.41557378421361024,0.4878964035601685,0.3634259646773248,-0.638046882992476,0.4235380832005313,1.3209737989800454,-8.184591242934822
1589988839.7966013,0.2471782495569215,-1.462441268524454,6.090406123911157,0.4811111111111111,0.3944444444444444,-0.6444444444444445,1.0571275706811227,2.137934466056806,-7.684695054055489
1589988839.8066013,2.371708565713414,1.7540377345696803,9.81034344222,0.4811111111111111,0.3944444444444444,-0.6444444444444445,1.981500985988913,3.230912169524564,-6.932466868428545
1589988839.8166013,0.16047753047074975,-0.35054228611144045,1.5839951857062946,0.4811111111111111,0.3944444444444444,-0.6444444444444445,1.557254314732177,2.6755911153749796,-6.443846387822066
1589988839.8266013,-1.0079076544099976,-0.4311385484258592,0.3274459264599856,0.4811111111111111,0.3944444444444444,-0.6444444444444445,0.4822949962632489,1.1213909862326772,-5.801712792345377
1589988839.8366013,1.28,-1.96,7.35,0.3377777777777778,0.54,-0.6233333333333333,-0.12217304763960307,-0.1854412330243975,-5.291620125890309
1589988839.8466012,0.71125,-1.5662500000000001,5.58125,0.3377777777777778,0.54,-0.6233333333333333,0.05917756995043272,-0.586321545591845,-4.976642737444457
1589988839.8566012,0.9949479873360471,-1.9744776119402985,8.269687924016281,0.3377777777777778,0.54,-0.6233333333333333,0.2681144642423673,-0.022642015875671606,-4.376498451580834
1589988839.8666012,-0.09723259493670877,-1.4968627938517178,10.779163652802893,0.3377777777777778,0.54,-0.6233333333333333,0.26443626902748885,0.9558655001345864,-3.9494467176665062
1589988839.8766012,1.0673369138066544,-3.4116155794253773,14.574731464500918,0.3377777777777778,0.54,-0.6233333333333333,-0.2839747554119536,0.8850200397881501,-3.5887502070443476
1589988839.8866012,0.08,-0.76,2.77,0.2344444444444445,0.5811111111111111,-0.6111111111111112,-0.06981317007977318,-0.07635815477475191,-3.1786809001946734
1589988839.8966012,0.1538993288590604,-0.8915570469798657,3.410731543624161,0.2344444444444445,0.5811111111111111,-0.6111111111111112,-0.04908445680755529,-0.05288332991518892,-3.1460818981255443
1589988839.9066012,0.855793797494352,-2.2572971862805504,9.528833436023824,0.2344444444444445,0.5811111111111111,-0.6111111111111112,0.13441168062095782,0.2687608552266525,-2.6362964905969672
1589988839.9166012,0.7534019497944904,-2.2544033425048404,8.791368592683176,0.2344444444444445,0.5811111111111111,-0.6111111111111112,0.03822246754486444,0.19983746477297273,-2.294336948100109
1589988839.9266012,0.7429311644630017,-2.115034794711204,8.34016701461378,0.2344444444444445,0.5811111111111111,-0.6111111111111112,0.04063154889089052,0.15779116507577354,-1.8653418929484873
1589988839.9366012,0.8577134311485834,-2.3754951602647134,9.377134311485834,0.17020473689581814,0.6078081324300207,-0.6161168026084066,0.04690199857107851,0.1179473981904867,-1.53891265399247
1589988839.9466012,4.60324647064113,-5.469981476485928,6.0121665317867095,0.14888888888888888,0.6166666666666667,-0.6177777777777778,0.025510550632080325,0.039776981168091426,-1.2648789986414166
1589988839.9566011,-0.40333783461752315,-1.9637000556040984,11.310643418857733,0.14888888888888888,0.6166666666666667,-0.6177777777777778,-0.2900540626388066,-0.1550735230380282,-0.30179247284651134
1589988839.9666011,-2.4053097818337372,0.18511621274775414,12.116181555682305,0.14888888888888888,0.6166666666666667,-0.6177777777777778,-0.10642146591704388,-0.05851584645742894,0.4802235530764908
1589988839.9766011,-0.8244411682111766,-1.1689778152204435,8.618021623139567,0.14888888888888888,0.6166666666666667,-0.6177777777777778,0.5906447398724888,0.2814079211722097,1.0112904252852344
1589988839.986601,0.7154096361048992,-1.8708593764438446,11.100834057180876,0.1253176612639918,0.6242926520747216,-0.6316432057924232,0.18796492706191503,0.006080642248930179,1.1532140500820363
1589988839.996601,0.7613778453383224,-2.0436685375740566,10.092420096663547,0.1111111111111111,0.6288888888888889,-0.64,-0.5035820137324608,-0.2703290076385533,1.2982044490321607
1589988840.006601,0.320343499663948,-2.0568812555630234,8.335780276470908,0.1111111111111111,0.6288888888888889,-0.64,-0.11242133629380002,-0.1324696889112828,1.4268347016074374
1589988840.016601,8.861957665770085,-10.23011811484037,8.272867500877089,0.1111111111111111,0.6288888888888889,-0.64,0.12221731360633518,-0.060182579611548714,1.6496764935647314
1589988840.026601,3.576151801535735,-5.936783815711753,8.679093325457767,0.13132375139463148,0.6300118133490845,-0.6360697643893155,0.17838530396407934,-0.033537408777154776,1.9463710404358538
1589988840.036601,-1.9,-1.45,9.06,0.1511111111111111,0.6311111111111111,-0.6322222222222222,0.23234695667174515,-0.007635815477475192,2.2307489502052524
1589988840.046601,-1.3871035484377452,-1.8048688962160464,9.353875804678914,0.1511111111111111,0.6311111111111111,-0.6322222222222222,0.23234695667174515,-0.007635815477475192,2.2307489502052524
1589988840.056601,0.6262241627058693,-2.4699137835746656,8.542143620352972,0.1511111111111111,0.6311111111111111,-0.6322222222222222,-0.11945350654319459,-0.17407904538561872,2.3234275668586504
1589988840.066601,2.14268068266139,-5.710453128864704,8.982637645312886,0.1511111111111111,0.6311111111111111,-0.6322222222222222,-0.032787464799499844,-0.19445090710797508,2.635507229609183
1589988840.076601,1.6050165501338887,-5.297244867598929,8.405016550133888,0.1511111111111111,0.6311111111111111,-0.6322222222222222,-0.1091465288351791,-0.19820910144003073,2.859528451049889
1589988840.086601,0.46474264531153453,-3.512402927617509,8.729178746257308,0.17699760784500104,0.616318827263174,-0.6322222222222222,-0.09569475178762563,-0.21269209483430293,3.0497836980875372
1589988840.096601,0.11454778237916101,-3.125322922264724,8.154108683969271,0.19,0.6088888888888889,-0.6322222222222222,-0.07129297981546914,-0.22982986972751712,3.218441239097914
1589988840.106601,0.4796896369260827,-4.2135271491370885,9.283340931292738,0.19,0.6088888888888889,-0.6322222222222222,-0.12261196850008699,-0.2516002443041276,3.3747835966230286
1589988840.116601,0.34258937691521957,-4.045730337078652,8.985801838610827,0.19,0.6088888888888889,-0.6322222222222222,-0.11097169742873803,-0.25513406630691876,3.5258871013841557
1589988840.126601,0.11323727412306603,-3.372971536553679,8.729666942246368,0.19,0.6088888888888889,-0.6322222222222222,-0.10981832937468483,-0.2652629397959174,3.710771587945738
1589988840.136601,0.10891231224264919,-3.5086678652206693,8.669156759264629,0.24347387345589516,0.5999765766462397,-0.645095562128271,-0.1169331945608334,-0.2778059045503574,3.8622455215902374
1589988840.146601,0.11,-4.154987553745191,8.889280380176512,0.25,0.5988888888888889,-0.6466666666666666,-0.12419869991413711,-0.28587542280915773,3.990724068041694
1589988840.156601,0.011823843878133594,-3.894569990138579,8.850915382086816,0.25,0.5988888888888889,-0.6466666666666666,-0.11761190633584641,-0.29154911235256137,4.114013463071102
1589988840.166601,-0.10790339488750908,-3.5842206273687607,8.80422062736876,0.25,0.5988888888888889,-0.6466666666666666,-0.12740148815898109,-0.304171755585073,4.246387495104919
1589988840.176601,-0.17345179233621755,-3.856226823238566,8.757580346106304,0.25,0.5988888888888889,-0.6466666666666666,-0.1556141237712995,-0.3169057251242419,4.336207422895584
1589988840.186601,-0.3888142146934266,-4.618738722150617,8.675777941447247,0.36446879027803347,0.5617367376582991,-0.6597201252071442,-0.2177377377809953,-0.3758031553031461,4.210001249674171
1589988840.196601,-0.7081320016437671,-2.1870778466651184,6.638542407404099,0.37666666666666665,0.5577777777777778,-0.6611111111111111,-0.47547019651694,-0.37952185598092025,1.0139777789024005
1589988840.206601,-2.6387547696603075,-1.464349309756476,10.452122537614393,0.37666666666666665,0.5577777777777778,-0.6611111111111111,0.018544563221787436,0.21934656162896526,-1.559080563927241
1589988840.216601,-4.663625354354205,-3.4238118565673643,12.66755582632914,0.37666666666666665,0.5577777777777778,-0.6611111111111111,0.8967116208747258,0.5199212702102401,-1.1616589400487376
1589988840.226601,-2.2730175466518125,-1.5541292324831897,9.961281184100585,0.37666666666666665,0.5577777777777778,-0.6611111111111111,0.3191012283645168,0.10927192179138923,-0.41335212425956924
1589988840.2366009,-1.0730460395142287,-2.7512903298894327,10.793853996737358,0.40896778643787884,0.5107304946327513,-0.6653243006464866,-0.2931337837798249,-0.11296455352446667,0.03210711721537618
1589988840.2466009,-0.985228125617223,-4.462832312857989,10.782966620580684,0.42777777777777776,0.4833333333333333,-0.6677777777777778,-0.31365338531210957,-0.11684127016094618,0.37367988790933904
1589988840.2566009,-0.7846535869848479,-3.8109296005360935,8.900952682327537,0.42777777777777776,0.4833333333333333,-0.6677777777777778,0.05037156119253869,-0.03210330302935281,0.9093359276020855
1589988840.2666008,0.5789422957188753,-4.8185669812965415,8.56989764152118,0.42777777777777776,0.4833333333333333,-0.6677777777777778,-0.034958011898932384,-0.07825391234365506,1.2388420370301119
1589988840.2766008,4.1330251308900525,-12.215697382198954,8.585807329842932,0.42777777777777776,0.4833333333333333,-0.6677777777777778,-0.16836978838988725,-0.13610518408289524,0.8695579856178622
1589988840.2866008,-1.1042849501274343,-3.4875268242031403,10.04658317862874,0.4110897496407707,0.4892232256169829,-0.6756309674893105,0.12188294658004989,0.08641616994137394,-0.33242536942545353
1589988840.2966008,-1.0208735127864337,-2.707054396387452,8.95408669474291,0.4088888888888889,0.49,-0.6766666666666666,0.16738728399886235,0.07973606376257766,-0.21723670837463527
1589988840.3066008,0.3648678552568712,-4.21905801292529,8.55027183342973,0.4088888888888889,0.49,-0.6766666666666666,-0.0002070183799507408,-0.005174307415562011,0.0749877518008605
1589988840.3166008,0.28717131474103597,-5.870557768924303,9.002310756972111,0.4088888888888889,0.49,-0.6766666666666666,-0.06421994610737103,-0.033524576319432904,0.0850196119441361
1589988840.3266008,-0.23728840006089205,-4.426606599177957,8.523878444207641,0.4088888888888889,0.49,-0.6766666666666666,0.04993799326980593,0.009605940725973552,-0.012582643405123477
1589988840.3366008,-0.12205643577320938,-4.322720963729213,8.705517218803195,0.42952002677025586,0.4848422155296582,-0.6878418663524072,0.013206237067966128,0.0026528741813940902,-0.00825064867156397
1589988840.3466008,-0.07,-4.56539023285313,8.652268370028088,0.4355555555555555,0.4833333333333333,-0.6911111111111111,-0.0044677511271576775,-0.0005028475903946245,-0.00039841959322277007
1589988840.3566008,-0.06284146541810416,-4.486939050435354,8.650219484146541,0.4355555555555555,0.4833333333333333,-0.6911111111111111,0.0053171325199577535,0.002652580758395933,0.0007808749879497383
1589988840.3666008,-0.0761379444053995,-4.530689722026997,8.6980689722027,0.4355555555555555,0.4833333333333333,-0.6911111111111111,0.0025653279767024594,0.0006319273689454302,0.00021064245631514337
1589988840.3766007,-0.08,-4.48639589502706,8.74625753088941,0.4355555555555555,0.4833333333333333,-0.6911111111111111,0.00298304848061333,0.0,0.0
1589988840.3866007,-0.0837910085054678,-4.4741190765492105,8.74588092345079,0.4355555555555555,0.4833333333333333,-0.6797380855947077,0.00022797435551566263,0.0,-0.0004135348774470161
1589988840.3966007,-0.08609305739857138,-4.510465286992857,8.721255540811429,0.4355555555555555,0.4833333333333333,-0.6611111111111111,-0.004840259392944691,-0.0004261813255085112,-0.0015170121080049673
1589988840.4066007,-0.07465508189836204,-4.528104262914742,8.673791474170516,0.4355555555555555,0.4833333333333333,-0.6611111111111111,-0.003930781923549676,7.524945654138705e-05,-0.0004325412064361471
1589988840.4166007,-0.08339252620806019,-4.52312615827179,8.677051420352392,0.4355555555555555,0.4833333333333333,-0.6611111111111111,0.003311233993403274,0.00036038179033932643,0.001090830782496456
1589988840.4266007,-0.09,-4.529601160404168,8.678558375434164,0.4355555555555555,0.4833333333333333,-0.6611111111111111,0.006344221198815925,0.0006457971393296334,-0.00020076349616281078
1589988840.4366007,-0.07807902480033628,-4.520197562000841,8.709604875998318,0.4355555555555555,0.4833333333333333,-0.6577997291112045,0.006104342247740781,0.0017410191177549572,0.00020954588802054642
1589988840.4466007,-0.08077353580024656,-4.5215470716004935,8.71767939259926,0.4355555555555555,0.4833333333333333,-0.6555555555555556,0.00184414290008412,0.0010064511162692581,0.0016784360068582828
1589988840.4566007,-0.07866662553217746,-4.5286666255321775,8.655999876596532,0.4355555555555555,0.4833333333333333,-0.6555555555555556,0.0002908971828191327,0.0,0.00032724250413387846
1589988840.4666007,-0.07,-4.526267861957401,8.63,0.4355555555555555,0.4833333333333333,-0.6555555555555556,0.002181661564992912,0.0,0.00027660457021782604
1589988840.4766006,-0.07,-4.519894484890795,8.690633090655231,0.4355555555555555,0.4833333333333333,-0.6555555555555556,0.004386342955813713,0.0005511703477052004,0.0005396604347912556
1589988840.4866006,-0.07542096274274147,-4.515420962742741,8.744579037257258,0.4355555555555555,0.4767077122033159,-0.6748300897519697,0.0012229669674847987,-0.0012745104297230715,0.0005913353030548819
1589988840.4966006,-0.08468998138692987,-4.538759925547719,8.74937996277386,0.4355555555555555,0.4711111111111111,-0.6911111111111111,-0.005318882773968777,-0.0027608947408695158,0.0016024283891163081
1589988840.5066006,-0.08123934902879296,-4.533718047086379,8.68553446674474,0.4355555555555555,0.4711111111111111,-0.6911111111111111,-0.007635815477475192,-0.0007482034018778945,-0.0002074353735321173
1589988840.5166006,-0.07,-4.510342829729131,8.641714148645656,0.4355555555555555,0.4711111111111111,-0.6911111111111111,-0.003687018511145625,-0.0006015107745019298,-0.001016036938158187
1589988840.5266006,-0.0778875915693677,-4.5239437957846835,8.697887591569367,0.4355555555555555,0.4711111111111111,-0.6911111111111111,0.001720805536725164,-0.001751460180811621,0.000660629398315165
1589988840.5366006,-0.0858344107759938,-4.525834410775993,8.739159124568044,0.4262986906133195,0.4762023868293409,-0.6786143434390924,0.004817718425263974,0.0002723551033379926,0.00045439529527814944
1589988840.5466006,-0.0858861542692149,-4.50822769146157,8.727024611577065,0.4133333333333333,0.4833333333333333,-0.6611111111111111,0.0035279144322675152,0.002181661564992912,0.00044875095575820103
1589988840.5566006,-0.09,-4.516977231536022,8.656045536927957,0.4133333333333333,0.4833333333333333,-0.6611111111111111,0.0009470424475887711,0.0003297328888867007,0.0012346191174041408
1589988840.5666006,-0.07937005665563471,-4.53,8.640629943344365,0.4133333333333333,0.4833333333333333,-0.6611111111111111,-0.0005797734708113491,6.871615912624226e-05,0.0010221146233702137
1589988840.5766006,-0.07512664784383824,-4.5248733521561615,8.685886534906867,0.4133333333333333,0.4833333333333333,-0.6611111111111111,0.0011460913291346752,0.001090830782496456,0.0011184610558155656
1589988840.5866005,-0.08,-4.509511539585159,8.740976920829683,0.4133333333333333,0.49090833252182947,-0.6733476482617586,0.0021283787993389806,0.0022349443306468437,0.0016096047909177182
1589988840.5966005,-0.08,-4.5060882973928305,8.75391170260717,0.4133333333333333,0.4977777777777778,-0.6844444444444444,-0.00023742965932211204,0.0019442319056708001,0.00042670056158717197
1589988840.6066005,-0.07440423848047838,-4.521191523039043,8.660467815687653,0.4133333333333333,0.4977777777777778,-0.6844444444444444,-0.0029220394575974577,-0.00012997500090421187,0.0
1589988840.6166005,-0.07536682752369989,-4.53,8.6168341376185,0.4133333333333333,0.4977777777777778,-0.6844444444444444,-0.0031924629965456135,0.00183631955110407,0.0
1589988840.6266005,-0.08,-4.538434295341342,8.661085738353355,0.4133333333333333,0.4977777777777778,-0.6844444444444444,-0.0012616226662926892,0.0016032064338851555,0.0009200388987002227
1589988840.6366005,-0.07640588153696769,-4.539217644610903,8.715158829241226,0.42571307470600017,0.4977777777777778,-0.6792529399978422,0.0019602875277072527,-0.0006134315428271097,0.00100548904836856
1589988840.6466005,-0.07598170141189664,-4.52,8.76,0.4477777777777778,0.4977777777777778,-0.67,0.004801651509302344,0.0008766567586330405,-0.00043832837931652023
1589988840.6566005,-0.08,-4.51461432421867,8.689986214842705,0.4477777777777778,0.4977777777777778,-0.67,0.0026008648519395775,-0.000587486092682082,-0.000587486092682082
1589988840.6666005,-0.08,-4.521646823620684,8.659117059051711,0.4477777777777778,0.4977777777777778,-0.67,-0.002085347648440917,-0.00045559509630898134,-0.001090830782496456
1589988840.6766005,-0.08494295770911085,-4.525057042290889,8.689885915418222,0.4477777777777778,0.4977777777777778,-0.67,-0.0032849370448505685,-0.0005391930425676276,-0.0005516377399288284
1589988840.6866004,-0.08433793439772704,-4.52,8.705662065602272,0.4496651329785354,0.49557586337689385,-0.6674835263989898,-0.0012552082472718584,-0.0007820130099227715,0.0
1589988840.6966004,-0.07348608908132208,-4.509541732756033,8.716513910918678,0.4544444444444444,0.49,-0.6611111111111111,0.0007105574544533651,-0.00038027332804309083,0.0
1589988840.7066004,-0.08,-4.503434005223331,8.674175986071118,0.4544444444444444,0.49,-0.6611111111111111,-0.0004884742143275833,-0.0006023565681688727,-0.0004884742143275833
1589988840.7166004,-0.08,-4.52680800942285,8.63680800942285,0.4544444444444444,0.49,-0.6611111111111111,-0.002576108031690688,0.0,2.3127154399218194e-05
1589988840.7266004,-0.07533617909315121,-4.549327641813697,8.677982925441093,0.4544444444444444,0.49,-0.6611111111111111,-0.003419178148785799,0.0,0.0016729176240687918
1589988840.7366004,-0.07,-4.5557235274089205,8.718552945182159,0.4401895358075133,0.48714901827261375,-0.6649124200809594,0.0003086416003590586,0.00046649079428517156,0.0006243399882112844
1589988840.7466004,-0.07558141748774336,-4.5276743300490265,8.74674425246323,0.4211111111111111,0.4833333333333333,-0.67,0.0027904997655523603,0.001090830782496456,0.000608838200559448
1589988840.7566004,-0.09860078375206381,-4.514650195938016,8.718148236557857,0.4211111111111111,0.4833333333333333,-0.67,0.0037797500348721465,7.631540773089937e-05,0.001090830782496456
1589988840.7666004,-0.11184137052397604,-4.515920685261988,8.682237944214036,0.4211111111111111,0.4833333333333333,-0.67,0.001693417877356863,-0.0015358149912679494,0.00020086236495346903
1589988840.7766004,-0.09633507757944829,-4.520994767261655,8.703664922420552,0.4211111111111111,0.4833333333333333,-0.67,-0.0017818805458129886,-0.0017818805458129886,0.00010851227504331436
1589988840.7866004,-0.08464030384271672,-4.537320151921358,8.712679848078642,0.4178357412372158,0.4851198987190944,-0.67,-0.001090830782496456,-0.0005061786271771982,0.0013046833320140253
1589988840.7966003,-0.07,-4.526505566880979,8.699033401285872,0.4088888888888889,0.49,-0.67,-0.00032846373977570866,0.00032846373977570866,-0.00032846373977570866
1589988840.8066003,-0.07017315197211382,-4.52,8.659826848027887,0.4088888888888889,0.49,-0.67,0.0010341669321269399,-0.0010341669321269399,0.0010341669321269399
1589988840.8166003,-0.07043330145828353,-4.524783349270858,8.664350047812574,0.4088888888888889,0.49,-0.67,-0.002703444027801326,0.00322522649060974,-0.0011380966393760837
1589988840.8266003,-0.06440974660975742,-4.534409746609757,8.688819493219514,0.4088888888888889,0.49,-0.67,-0.0023104348785028127,0.0019581794575194364,0.00048102873449327755
1589988840.8366003,-0.06779467988267422,-4.5377946798826745,8.706615960351977,0.4115842801433982,0.49,-0.6668145376083072,-0.0008502676755726902,-0.0013313938894202217,0.001090830782496456
1589988840.8466003,-0.061356997890883044,-4.527286004218234,8.727286004218234,0.4211111111111111,0.49,-0.6555555555555556,0.00044407652134739723,-0.0018856105507613137,0.001090830782496456
1589988840.8566003,-0.07358708761972331,-4.513587087619723,8.674129123802768,0.4211111111111111,0.49,-0.6555555555555556,0.0044463640260212055,-0.0003912905595106124,-8.304089603538125e-05
1589988840.8666003,-0.08,-4.52,8.623126169549192,0.4211111111111111,0.49,-0.6555555555555556,0.0058290632049524255,-0.0007328700374833008,-0.0020026811924863342
1589988840.8766003,-0.08,-4.517487193966039,8.705076836203768,0.4211111111111111,0.49,-0.6555555555555556,0.001907556947764141,0.0008167261652676849,-0.0008167261652676849
1589988840.8866003,-0.07619344897072187,-4.515709826543917,8.746193448970722,0.4247061870832071,0.49,-0.6610539070422906,0.0002603701749204271,0.00020761515189400722,0.0
1589988840.8966002,-0.06492458504557037,-4.530150829908859,8.72507541495443,0.44,0.49,-0.6844444444444444,-0.0021981145557433924,0.0016280196783694438,0.0005371888958729878
1589988840.9066002,-0.06491057911887717,-4.52,8.669105791188771,0.44,0.49,-0.6844444444444444,1.9508609945347597e-05,0.0010713221725511084,0.0005356610862755542
1589988840.9166002,-0.06549531314007567,-4.514504686859924,8.652971878840454,0.44,0.49,-0.6844444444444444,-0.0001080605640339028,0.0011988913465303588,-0.0011988913465303588
