time,acc_x,acc_y,acc_z,mag_x,mag_y,mag_z,gyr_x,gyr_y,gyr_z
1589985649.391923,-3.82,-0.56,9.09,0.3088888888888889,-0.3855555555555555,-0.6055555555555555,-0.004363323129985824,0.002181661564992912,0.003272492347489368
1589985649.401923,-3.8293430900828658,-0.5506569099171345,8.987226009088479,0.3088888888888889,-0.3855555555555555,-0.6055555555555555,-0.0074208422097939535,0.0042200076181983315,0.0012341462942839477
1589985649.411923,-3.827264031075292,-0.5664158135482465,9.022735968924707,0.3088888888888889,-0.3855555555555555,-0.6055555555555555,-0.009817477042468105,0.0011937916492099818,0.002675596522884377
1589985649.421923,-3.818658392022871,-0.6120124119656928,9.03,0.308441686229846,-0.3850338191200055,-0.6051083528965127,-0.009232090130670272,0.004143803038061636,0.0010176574185217268
1589985649.431923,-3.8117658453432512,-0.6321561031044992,9.022156103104498,0.3022222222222222,-0.37777777777777777,-0.5988888888888889,0.0010482602645887089,0.001090830782496456,0.0012834546282510992
1589985649.441923,-3.83,-0.5970613338317291,8.95838800112139,0.3022222222222222,-0.37777777777777777,-0.5988888888888889,0.005614433288273819,0.0004652757033524583,0.003272492347489368
1589985649.451923,-3.8207054023820493,-0.5660581035730736,8.957178390471803,0.3022222222222222,-0.37777777777777777,-0.5988888888888889,0.008065809673865599,-0.0010138833192579089,0.0012447257089735504
1589985649.461923,-3.8180375455788513,-0.5473208181403829,9.002679181859618,0.3022222222222222,-0.37777777777777777,-0.5988888888888889,0.011278744064656341,-0.002473914969430559,-0.0007985773780588087
1589985649.4719229,-3.8334094735774418,-0.5498857896338372,9.019885789633836,0.3084466082879715,-0.37777777777777777,-0.5992550292456977,0.014912173500221254,-0.004350864711676756,-0.0010783723641873881
1589985649.4819229,-3.816700066800267,-0.5798997995991984,9.020200400801603,0.3211111111111111,-0.37777777777777777,-0.6,0.013460866429563813,-0.006185017823533679,-0.0029125254760443116
1589985649.4919229,-3.7977526851400887,-0.6,8.912639768270488,0.3211111111111111,-0.37777777777777777,-0.6,0.008659201594431634,-0.00545415391248228,-0.002181661564992912
1589985649.5019228,-3.808565528380249,-0.5814344716197508,8.913319566220581,0.3211111111111111,-0.37777777777777777,-0.6,0.001144491401515432,-0.003428968927433541,-0.0035317848883587378
1589985649.5119228,-3.82,-0.5743089334440621,8.965853600664373,0.3211111111111111,-0.37777777777777777,-0.6,-0.005001851909299801,-0.0035917567371463567,-0.004363323129985824
1589985649.5219228,-3.816710453866121,-0.5734209077322425,9.006579092267756,0.3211111111111111,-0.373757221391926,-0.6,-0.006932477168333097,-0.00545415391248228,-0.0036456554933304037
1589985649.5319228,-3.821839638353557,-0.5777594575303355,9.025919819176778,0.3211111111111111,-0.3655555555555556,-0.6,-0.003272492347489368,-0.0060999060109665606,-0.0008901573680243505
1589985649.5419228,-3.813079232921586,-0.6069207670784139,8.973597443071952,0.3211111111111111,-0.3655555555555556,-0.6,-0.0038877488005755875,-0.006544984694978735,-0.0006152564530862196
1589985649.5519228,-3.8056623660725384,-0.5973505357098466,8.980961294652845,0.3211111111111111,-0.3655555555555556,-0.6,-0.004363323129985824,-0.007780321337716413,-0.00047316246112761727
1589985649.5619228,-3.81,-0.58,9.029182896882674,0.3211111111111111,-0.3655555555555556,-0.6,-0.004363323129985824,-0.009728344919182782,-0.0005008493296055672
1589985649.5719228,-3.81,-0.5772168477452001,9.04,0.31368937176497824,-0.3689571860891998,-0.593815217211556,-0.003756133499603811,-0.009693928564200533,-0.0013944255976874624
1589985649.5819228,-3.813257328990228,-0.5683713355048859,9.041628664495114,0.29444444444444445,-0.37777777777777777,-0.5777777777777777,-0.0025369810381187935,-0.006722644431541676,-0.0011157031456152675
1589985649.5919228,-3.828958315753945,-0.5603472280820184,9.04583326301578,0.29444444444444445,-0.37777777777777777,-0.5777777777777777,-0.004476953254109684,-0.0075221853533513315,0.004249693005861963
1589985649.6019228,-3.803079159465702,-0.5761583189314037,8.945395797328509,0.29444444444444445,-0.37777777777777777,-0.5777777777777777,-0.0069640470915946035,-0.003355670551164941,0.0007549465895561617
1589985649.6119227,-3.8098536656275743,-0.5897073312551483,8.979268328137872,0.29444444444444445,-0.37777777777777777,-0.5777777777777777,-0.005486079120078157,-0.0011387185938902724,1.5962603797938955e-05
1589985649.6219227,-3.8027078899739455,-0.6,9.004371009765508,0.30016110105610694,-0.37657427112269093,-0.5837953110532119,-0.0026817223996507375,0.0013862157564157713,-0.0005000608346578256
1589985649.6319227,-3.8141374715886824,-0.5979312642056587,9.063793792616977,0.31555555555555553,-0.37333333333333335,-0.6,-0.0006395026454325175,0.0033099819076527585,0.001090830782496456
1589985649.6419227,-3.83,-0.5853623931623931,8.988986324786325,0.31555555555555553,-0.37333333333333335,-0.6,0.0021025996416119725,0.006624046618359676,0.0005849463529386978
1589985649.6519227,-3.816330295080194,-0.5526605901603873,8.934556568306602,0.31555555555555553,-0.37333333333333335,-0.6,0.003272492347489368,0.004460064918204412,0.001491133491416801
1589985649.6619227,-3.808233451581251,-0.5323501773718772,8.960583628953128,0.31555555555555553,-0.37333333333333335,-0.6,0.0019252969828358936,0.0014762318612847355,0.00282342722593821
1589985649.6719227,-3.816633935830884,-0.5567321283382326,8.996732128338232,0.3133115127761447,-0.3725853190735297,-0.5996259928700982,-0.0011015419234591145,-0.0014580114236494941,0.00254884220614595
1589985649.6819227,-3.8138239743211333,-0.5738239743211334,9.006176025678867,0.3088888888888889,-0.3711111111111111,-0.5988888888888889,-0.004523885017779862,-0.002181661564992912,0.003272492347489368
1589985649.6919227,-3.813774410650583,-0.5893383840241256,8.975097642602332,0.3088888888888889,-0.3711111111111111,-0.5988888888888889,-0.007563644370207672,-0.0011630018897639755,0.004630705247794617
1589985649.7019227,-3.8051880488949474,-0.5944358533151578,8.94075219557979,0.3088888888888889,-0.3711111111111111,-0.5988888888888889,-0.006987835324615446,0.0016567591260669876,0.008767672164616255
1589985649.7119226,-3.81,-0.5761984764104379,8.986610665126936,0.3088888888888889,-0.3711111111111111,-0.5988888888888889,-0.004363323129985824,0.002596343460180989,0.007329385671339643
1589985649.7219226,-3.811842385063582,-0.5736847701271637,9.037369540254327,0.3076606321798343,-0.37377233398072934,-0.5949994093102161,-0.004564296164042501,0.002669573245319337,0.003473465381546045
1589985649.7319226,-3.82,-0.5857194513343095,9.06571945133431,0.3022222222222222,-0.3855555555555555,-0.5777777777777777,-0.004753750774905886,0.0,0.00412985541746036
1589985649.7419226,-3.82,-0.5645946272991288,9.000810745401742,0.3022222222222222,-0.3855555555555555,-0.5777777777777777,0.0002948173466488183,0.0003980067179238188,0.003773688436688187
1589985649.7519226,-3.814846486912025,-0.5848464869120251,8.965460539263924,0.3022222222222222,-0.3855555555555555,-0.5777777777777777,-0.0005286697110603273,0.0022151529253687137,0.00429634040923422
1589985649.7619226,-3.8141212109982954,-0.5841212109982954,8.996484843993182,0.3022222222222222,-0.3855555555555555,-0.5777777777777777,0.0008991087636207171,0.002373383583868651,0.0035303247104239875
1589985649.7719226,-3.8132442621866525,-0.5764885243733051,9.009866393279978,0.30447413482667135,-0.38292832418369815,-0.5822816029866761,0.002181661564992912,0.001090830782496456,0.0047172172359548105
1589985649.7819226,-3.808502162487151,-0.5585021624871511,8.972995675025697,0.3088888888888889,-0.37777777777777777,-0.5911111111111111,-0.00013694357469986197,0.001090830782496456,0.002808771319550813
1589985649.7919226,-3.8223617164250743,-0.57,8.931106268599404,0.3088888888888889,-0.37777777777777777,-0.5911111111111111,-0.004302985537888823,0.0005755841872967284,0.0016664149697931843
1589985649.8019226,-3.83,-0.57,8.87741216860576,0.3088888888888889,-0.37777777777777777,-0.5911111111111111,-0.007635815477475192,-0.0011806688011655327,0.0
1589985649.8119226,-3.83,-0.5839955400805915,8.980993310120887,0.3088888888888889,-0.37777777777777777,-0.5911111111111111,-0.007635815477475192,-0.002181661564992912,-0.0003816691484393042
1589985649.8219225,-3.827293803219591,-0.607293803219591,9.030824787121636,0.3049799379838537,-0.37777777777777777,-0.5935166193603636,-0.0073406152023189,-0.0027720621153054944,-0.001090830782496456
1589985649.8319225,-3.812979515828678,-0.5894692737430167,9.077551210428306,0.29444444444444445,-0.37777777777777777,-0.6,-0.005396260658662635,-0.0032145990936697233,-0.0007079227703910892
1589985649.8419225,-3.802426488911039,-0.5772794667331174,9.083308621978569,0.29444444444444445,-0.37777777777777777,-0.6,-0.004595936746263258,-0.001090830782496456,-0.000264688879754778
1589985649.8519225,-3.81,-0.6,9.0,0.29444444444444445,-0.37777777777777777,-0.6,-0.006423180222811232,-0.0006301375750643727,-0.0006301375750643727
1589985649.8619225,-3.81355427090601,-0.5928914581879796,9.0,0.29444444444444445,-0.37777777777777777,-0.6,-0.0024970707247678765,0.0003877108113607457,0.0007754216227214914
1589985649.8719225,-3.82,-0.5840822569680489,9.004082256968049,0.2987534934662739,-0.37777777777777777,-0.6011339602689024,-0.001090830782496456,0.001313483360636878,0.00195900898685249
1589985649.8819225,-3.821608893997629,-0.6,9.007128848018965,0.31555555555555553,-0.37777777777777777,-0.6055555555555555,-0.0009153276726576821,0.0018306553453153642,0.001090830782496456
1589985649.8919225,-3.83,-0.6043927288199697,8.922429084720122,0.31555555555555553,-0.37777777777777777,-0.6055555555555555,0.0,0.0,0.0020491755456929217
1589985649.9019225,-3.8210881791949918,-0.605544089597496,8.917823641610017,0.31555555555555553,-0.37777777777777777,-0.6055555555555555,0.00048606442310975744,-0.00048606442310975744,0.0018142990781600957
1589985649.9119225,-3.81,-0.5891881732495511,8.972435480251345,0.31555555555555553,-0.37777777777777777,-0.6055555555555555,0.0014839598969767298,-0.001877089011457004,0.0
1589985649.9219224,-3.8125744022877663,-0.5725744022877663,9.040297609151065,0.31698577904875913,-0.37777777777777777,-0.6078439131446812,0.0019008378387904193,-0.003272492347489368,-0.00028082372620249265
1589985649.9319224,-3.82,-0.5762116324441268,9.077576735111746,0.3211111111111111,-0.37777777777777777,-0.6144444444444445,0.0015040775770321915,-0.003685739142025104,-0.001090830782496456
1589985649.9419224,-3.82,-0.5893869926982509,9.056765155374427,0.3211111111111111,-0.37777777777777777,-0.6144444444444445,0.002483774828068429,-0.004061209866910307,-0.001090830782496456
1589985649.9519224,-3.81307789740342,-0.6261557948068398,8.97692210259658,0.3211111111111111,-0.37777777777777777,-0.6144444444444445,0.0036500344770867797,-0.0025174080882945445,4.1795606295779494e-05
1589985649.9619224,-3.8053815707696836,-0.5928245723070884,8.99717542769291,0.3211111111111111,-0.37777777777777777,-0.6144444444444445,0.004363323129985824,-0.000895151347371319,0.0015946232596175008
1589985649.9719224,-3.825961368617317,-0.5653848418435773,9.024615158156422,0.3211111111111111,-0.37777777777777777,-0.6144444444444445,0.004363323129985824,-0.00014684878104622573,-0.0006502844393577794
1589985649.9819224,-3.828607977479249,-0.5527840450415019,9.020255842354743,0.3022222222222222,-0.3655555555555556,-0.6,-0.0007592305077817336,0.0012426768840528026,-0.0012426768840528026
1589985649.9919224,-3.820125021887585,-0.5702500437751706,8.959249868674489,0.3022222222222222,-0.3655555555555556,-0.6,-0.00545415391248228,0.0021543860203001274,-0.0021952993373393044
1589985650.0019224,-3.82688258374725,-0.59935224875825,8.9062348325055,0.3022222222222222,-0.3655555555555556,-0.6,-0.004433981829375946,-0.00034005736103544454,-0.00191226290334759
1589985650.0119224,-3.82,-0.6149906049545366,8.930018790090926,0.3022222222222222,-0.3655555555555556,-0.6,-0.0019084414491290775,-0.0013640508983602906,0.0008176106666326215
1589985650.0219223,-3.817961821099755,-0.6020381789002449,8.974267252301715,0.30358100815571887,-0.3680466631002994,-0.5997735356777506,-0.0004238382971098654,-0.001959330736530715,0.0004446616569243937
1589985650.0319223,-3.8136110670683365,-0.5991667987949897,9.03,0.3088888888888889,-0.37777777777777777,-0.5988888888888889,0.002181661564992912,9.088815224383832e-05,0.001787755253412814
1589985650.0419223,-3.8098148254314053,-0.58,9.006234592673279,0.3088888888888889,-0.37777777777777777,-0.5988888888888889,0.0018113181668421344,0.0040333785557468,0.0007204873843456785
1589985650.0519223,-3.792322873060338,-0.5753542538793239,8.969291492241354,0.3088888888888889,-0.37777777777777777,-0.5988888888888889,0.0008374446386916073,0.009916290771718829,0.0
1589985650.0619223,-3.830424097684989,-0.556619544701668,9.020282731789992,0.3088888888888889,-0.37777777777777777,-0.5988888888888889,-0.002950003758619128,0.021509547688044597,0.001475001879309564
1589985650.0719223,-3.89652114010161,-0.5630422802032206,9.057826286632798,0.3057490806918173,-0.37777777777777777,-0.594299938447015,-0.012283376439875919,0.028266854400769557,0.0064973612379283854
1589985650.0819223,-3.876423133204674,-0.61,9.043774733314955,0.29444444444444445,-0.37777777777777777,-0.5777777777777777,-0.02746585738267294,0.014491279673904204,0.02029244144882253
1589985650.0919223,-3.8185593463989647,-0.573708850448033,9.005049834683023,0.29444444444444445,-0.37777777777777777,-0.5777777777777777,-0.03569398620465379,-0.011740844472058923,0.03431059804568348
1589985650.1019223,-3.912415481464211,-0.4850788839667366,8.947561980259579,0.29444444444444445,-0.37777777777777777,-0.5777777777777777,-0.050734694836548855,-0.03655881175318988,0.028071068201314518
1589985650.1119223,-3.705331127244719,-0.6586813390577528,9.083831319802021,0.29444444444444445,-0.37777777777777777,-0.5777777777777777,-0.06423493259042617,-0.06044634591759473,-0.005760963198024043
1589985650.1219223,-3.400221512216691,-0.8800353734898514,9.257325022465018,0.29444444444444445,-0.37777777777777777,-0.5777777777777777,-0.060319368353858926,-0.06893006843015709,-0.03839066516941777
1589985650.1319222,-3.613539143279173,-0.34100147710487444,8.641618906942393,0.2888888888888889,-0.37777777777777777,-0.6055555555555555,0.026196373748868365,0.08352412349273529,0.012536336514232534
1589985650.1419222,-3.423756104533435,-0.6321152059461134,9.335813183409963,0.2888888888888889,-0.37777777777777777,-0.6055555555555555,-0.05465611312772978,0.054722118563743344,0.07044094934088163
1589985650.1519222,-2.84934108915856,-0.4765038611974727,9.02008524721693,0.2888888888888889,-0.37777777777777777,-0.6055555555555555,-0.025498374666490718,0.006495098140288298,0.12760860349441566
1589985650.1619222,-3.038079235939158,-0.3806190307746728,8.936531659002476,0.2888888888888889,-0.37777777777777777,-0.6055555555555555,0.013876934151507354,0.02240100306418129,0.18857172829797153
1589985650.1719222,-3.385581891624114,-0.42976754820516727,9.14,0.29105945515670384,-0.37705425568850615,-0.602480586676151,-0.007585102362825177,-0.012836320680453876,0.2410737692042238
1589985650.1819222,-3.6093460864263394,-0.47771701851992987,9.14,0.3017148930044289,-0.3735024430725978,-0.5873853830585406,-0.018046054007573788,-0.027656002177181074,0.31604392265825554
1589985650.1919222,-2.280685371100753,-0.8572407673001076,9.074476694155612,0.3022222222222222,-0.37333333333333335,-0.5866666666666667,0.014331556976008339,0.008764995474107098,0.4648073769541042
1589985650.2019222,-1.7016945141627824,-0.7745277877375404,8.254866260308354,0.3022222222222222,-0.37333333333333335,-0.5866666666666667,0.054523078309859065,0.10801344611484053,0.5484713601388547
1589985650.2119222,-1.841567725843184,-0.752989914325995,8.950683006181542,0.3022222222222222,-0.37333333333333335,-0.5866666666666667,0.0041874368695568355,-0.0009295662208763308,0.6102288157445206
1589985650.2219222,-1.964410461868352,-0.776768614394944,9.309432610106368,0.30369237617833955,-0.3743134359707449,-0.5876467693040782,-0.05911688531325791,-0.09551683409854678,0.6347801096227794
1589985650.2319221,-2.006384684497892,-0.6970191443776349,9.010528716566453,0.3088888888888889,-0.37777777777777777,-0.5911111111111111,-0.010617751336213344,-0.030600935940490973,0.6849148485404759
1589985650.2419221,-2.0812447309695017,-0.6353111827423754,8.963111827423754,0.3088888888888889,-0.37777777777777777,-0.5911111111111111,-0.008025030824862348,-0.03180151750131498,0.7110677691920928
1589985650.2519221,-2.1435088007896037,-0.6429823984207929,9.074911992103964,0.3088888888888889,-0.37777777777777777,-0.5911111111111111,-0.03448552328118814,-0.06123958824774518,0.7187809534511926
1589985650.2619221,-2.16,-0.6067651107325384,8.898677887563885,0.3088888888888889,-0.37777777777777777,-0.5911111111111111,-0.011293395249278096,-0.04004008301849949,0.7295571419053611
1589985650.271922,-2.16,-0.5953326064735945,8.858664122657581,0.3088888888888889,-0.37777777777777777,-0.5911111111111111,-0.008799209735942554,-0.0350517119918284,0.7326748737970307
1589985650.281922,-2.237202242345839,-0.5996502802932299,9.119858128503665,0.27136002108188395,-0.39707833836423745,-0.5911111111111111,-0.02237336740247884,-0.05272588680168433,0.726760340657613
1589985650.291922,-2.262667254491348,-0.577332745508652,9.061998236525955,0.27,-0.3977777777777778,-0.5911111111111111,-0.013841195482682997,-0.04356025276078898,0.7231964826154605
1589985650.301922,-2.250236032989406,-0.5205900824735153,8.94118016494703,0.27,-0.3977777777777778,-0.5911111111111111,-0.014142179364874597,-0.042516653312308895,0.7081165346730437
1589985650.311922,-2.180551095252255,-0.5138897809495491,9.016385766676578,0.27,-0.3977777777777778,-0.5911111111111111,-0.02227098251288512,-0.0451784289453107,0.6867071593862762
1589985650.321922,-2.1007351316947154,-0.5282846927123308,8.960490087796478,0.2701361354990214,-0.39747827967993077,-0.5914650634085666,-0.019581493799483922,-0.042515670374635633,0.6656957038235503
1589985650.331922,-2.1242902338119394,-0.47332278777214104,8.97619348920796,0.2744981914466555,-0.3878817565951357,-0.6028064088724153,-0.017868518434529548,-0.04165918269215845,0.6400010733492346
1589985650.341922,-2.0959523476068767,-0.4432539126781275,8.961904695213754,0.27555555555555555,-0.3855555555555555,-0.6055555555555555,-0.01854412330243975,-0.03956426175835672,0.5842523815608966
1589985650.351922,-2.073924232344806,-0.4065403872413431,8.917848464689612,0.27555555555555555,-0.3855555555555555,-0.6055555555555555,-0.01854412330243975,-0.041166191505573164,0.5522137866165677
1589985650.361922,-2.1415211276712682,-0.3715211276712683,8.930647893698879,0.27555555555555555,-0.3855555555555555,-0.6055555555555555,-0.011240166402549883,-0.03820365819806427,0.48954948600607656
1589985650.371922,-2.1483012188419384,-0.3783012188419385,8.97810853189357,0.27555555555555555,-0.3855555555555555,-0.6055555555555555,-0.01271935283396978,-0.02858894639383493,0.4496114523577394
1589985650.381922,-2.1635222477944,-0.33,9.0547166283084,0.27,-0.4044444444444445,-0.6,-0.010462268080376442,-0.023229841951379743,0.37013395821755674
1589985650.391922,-2.18,-0.3375764317676174,9.020529460290478,0.27,-0.4044444444444445,-0.6,-0.0034791074723293965,-0.01860187846073607,0.3078941123138763
1589985650.401922,-2.1862883509900226,-0.36580776600665155,8.992576701980045,0.27,-0.4044444444444445,-0.6,-0.0039060213412485697,-0.014180800172453925,0.23638122625026803
1589985650.411922,-2.1990880156934964,-0.3548497708028905,9.033937786496386,0.27,-0.4044444444444445,-0.6,-0.0017848906190045,-0.012461459406504139,0.1636550777492223
1589985650.421922,-2.1235256320435574,-0.3884330524250856,8.991958684468644,0.27,-0.4044444444444445,-0.6,0.0009626351838008442,-0.0005555142610143178,0.09588277461335719
1589985650.431922,-2.1554590233356365,-0.37,9.034106581674727,0.26222222222222225,-0.4244444444444445,-0.6222222222222222,0.0020815182081136262,0.0020815182081136262,-0.025462816066996415
1589985650.441922,-2.142996905302249,-0.3729969053022488,8.969510831442129,0.26222222222222225,-0.4244444444444445,-0.6222222222222222,0.00610797722366625,0.006434888879258235,-0.12122879372705503
1589985650.451922,-2.160976360404341,-0.38921891167652756,8.911757448727814,0.26222222222222225,-0.4244444444444445,-0.6222222222222222,0.009732273523758876,0.012148244765202166,-0.2170663538788872
1589985650.461922,-2.207160854551664,-0.35,8.999053618183888,0.26222222222222225,-0.4244444444444445,-0.6222222222222222,0.006280027846090191,0.020254359535142142,-0.33710123358674526
1589985650.471922,-2.1832871020377187,-0.35,8.99109570067924,0.26222222222222225,-0.4244444444444445,-0.6222222222222222,0.0132246209490005,0.025462804362324874,-0.4291170922003068
1589985650.481922,-2.2205907703357872,-0.31752738373137007,9.006236308134314,0.27304642764509884,-0.4190323417330062,-0.6276343249336606,0.014180800172453925,0.031493258192017454,-0.5383117695642602
1589985650.491922,-2.28,-0.31,9.001221811635398,0.27555555555555555,-0.4177777777777778,-0.6288888888888889,0.015275145096186394,0.044727576223590707,-0.6970865538513036
1589985650.501922,-2.28,-0.31,8.954856926283872,0.27555555555555555,-0.4177777777777778,-0.6288888888888889,0.021055287286856454,0.050507718414260765,-0.7722284023300143
1589985650.511922,-2.33,-0.33045207266887483,9.02,0.27555555555555555,-0.4177777777777778,-0.6288888888888889,0.02617993877991494,0.057986628646409064,-0.9177466706476667
1589985650.5219219,-2.33,-0.34729157884171435,9.02,0.27555555555555555,-0.4177777777777778,-0.6288888888888889,0.02617993877991494,0.06441579673978941,-1.0123472868788346
1589985650.5319219,-2.36,-0.43933786313527007,9.03377475790982,0.27555555555555555,-0.4244444444444445,-0.6355555555555555,0.02954997034248852,0.07812805412729447,-1.1515851839023212
1589985650.5419219,-2.3673782345718313,-0.4973782345718314,8.987702942380281,0.27555555555555555,-0.4244444444444445,-0.6355555555555555,0.036265696002097475,0.08261714922637751,-1.243638271589287
1589985650.5519218,-2.427518795468823,-0.5547846880256145,8.903417634304011,0.27555555555555555,-0.4244444444444445,-0.6355555555555555,0.03847732224354639,0.08880466066646857,-1.3278281218669852
1589985650.5619218,-2.521014448700022,-0.6142819219000142,8.94591565850001,0.27555555555555555,-0.4244444444444445,-0.6355555555555555,0.04218597448260844,0.09436763902506166,-1.3992196774689298
1589985650.5719218,-2.5122159677268034,-0.6644600806829909,8.967784032273197,0.27555555555555555,-0.4244444444444445,-0.6355555555555555,0.05030214845356699,0.09684221506124296,-1.4749486415717528
1589985650.5819218,-2.5021559990726887,-0.6856880018546229,8.993532002781935,0.3017022253132603,-0.4148573321999527,-0.6355555555555555,0.04955775124344502,0.10221782624384981,-1.5451365034151632
1589985650.5919218,-2.4686862017347795,-0.7328954005782599,9.056970697397832,0.3088888888888889,-0.4122222222222222,-0.6355555555555555,0.04948218422214351,0.10332769157427285,-1.6449668924274545
1589985650.6019218,-2.571894518834458,-0.7672981729448193,8.902158221748314,0.3088888888888889,-0.4122222222222222,-0.6355555555555555,0.054173134609726184,0.11270959234943817,-1.7097020077760956
1589985650.6119218,-2.57,-0.832832101372756,9.008300739176347,0.3088888888888889,-0.4122222222222222,-0.6355555555555555,0.04908738521234052,0.11163546101742483,-1.7931022033919684
1589985650.6219218,-2.57,-0.8771224920802534,8.981726504751848,0.3088888888888889,-0.4122222222222222,-0.6355555555555555,0.04908738521234052,0.11743305960372882,-1.8578420542723628
1589985650.6319218,-2.58914790624421,-0.9830225125069483,9.000466231239578,0.3688888888888889,-0.3855555555555555,-0.6644444444444444,0.05027116500467588,0.1302823750340124,-1.947106646152955
1589985650.6419218,-2.55,-1.042403786065936,8.917596213934063,0.3688888888888889,-0.3855555555555555,-0.6644444444444444,0.05467684344142503,0.13347887216469578,-2.0160503284395483
1589985650.6519217,-2.55,-1.1063325153561248,8.853667484643875,0.3688888888888889,-0.3855555555555555,-0.6644444444444444,0.05537419769938124,0.14114976900221404,-2.0676545435283074
1589985650.6619217,-2.508511759805178,-1.192126057421174,8.848936971289413,0.3688888888888889,-0.3855555555555555,-0.6644444444444444,0.06340733551761675,0.14208630199018388,-2.1716801033113744
1589985650.6719217,-2.461472378877211,-1.2593251730325559,8.815337413483723,0.3688888888888889,-0.3855555555555555,-0.6644444444444444,0.06780550734954274,0.15088264565403586,-2.235453594874301
1589985650.6819217,-2.4729139144558743,-1.3393708716838117,8.964569572279371,0.3954028755338988,-0.35355591650123325,-0.6818156770739338,0.07609628451543468,0.15759073444406596,-2.3408596654671032
1589985650.6919217,-2.5263120818657385,-1.3963120818657384,9.077186803109564,0.4011111111111111,-0.3466666666666667,-0.6855555555555556,0.06145141479871126,0.15480255382860988,-2.434747242542495
1589985650.7019217,-2.5478374059644144,-1.4569203009138731,8.83605526329964,0.4011111111111111,-0.3466666666666667,-0.6855555555555556,0.07735462459148598,0.17277588798037083,-2.5551804584068245
1589985650.7119217,-2.5101845700845646,-1.577409375729393,8.94148320376322,0.4011111111111111,-0.3466666666666667,-0.6855555555555556,0.07571170969444489,0.1801690050170557,-2.620075596839948
1589985650.7219217,-2.5478931880791382,-1.6195786376158279,8.998735912847483,0.4011111111111111,-0.3466666666666667,-0.6855555555555556,0.06481865122653213,0.18007900612376346,-2.7201733469256446
1589985650.7319217,-2.4531644114840834,-1.734442059155174,8.92077088212334,0.44219287593604534,-0.2997160782953132,-0.7246810458650167,0.07300157223228088,0.2030338952852218,-2.7795009363124743
1589985650.7419217,-2.3794995430125505,-1.855250228493725,8.85718607191422,0.4477777777777778,-0.2933333333333333,-0.73,0.08233042838412116,0.20346723662995028,-2.8553180616683655
1589985650.7519217,-2.311506831951733,-1.896780743782797,8.655068319517328,0.4477777777777778,-0.2933333333333333,-0.73,0.0786220012735948,0.20660036920352695,-2.906892143849417
1589985650.7619216,-2.3310574765993657,-1.986344859596194,8.855862148990484,0.4477777777777778,-0.2933333333333333,-0.73,0.07790035508270467,0.19910796642753384,-2.9637546638542696
1589985650.7719216,-2.3391689873907326,-2.0350139243443954,8.97753481086099,0.4477777777777778,-0.2933333333333333,-0.73,0.06462792658704186,0.20353210925942147,-3.005341606474013
1589985650.7819216,-2.42,-2.1638015438411298,8.84380154384113,0.4811111111111111,-0.2344444444444445,-0.73,0.0853011631738306,0.2249184832464156,-3.0494670029731474
1589985650.7919216,-2.4077820301722217,-2.267330781896667,8.925338436206665,0.4811111111111111,-0.2344444444444445,-0.73,0.08537596756195484,0.22963218560324208,-3.0815231252260595
1589985650.8019216,-2.320472739689646,-2.327563835034336,8.818109041241415,0.4811111111111111,-0.2344444444444445,-0.73,0.07963064712224129,0.22631765098234005,-3.105535764996061
1589985650.8119216,-2.328429449482111,-2.454871191713776,8.786282202071556,0.4811111111111111,-0.2344444444444445,-0.73,0.07963064712224129,0.23499707495135186,-3.122894612934085
1589985650.8219216,-2.296194580662438,-2.5363423655626036,8.808171182781301,0.4811111111111111,-0.2344444444444445,-0.73,0.0777868475208106,0.23855407940316162,-3.134310820907709
1589985650.8319216,-2.243984086621278,-2.6125198917234025,8.895039783446805,0.5020683746661927,-0.2171005021919631,-0.7581839061602822,0.07139183692380444,0.23005013644732533,-3.1497249845304847
1589985650.8419216,-2.0525582943471585,-2.586651565302613,8.768976682261137,0.5133333333333333,-0.20777777777777776,-0.7733333333333333,0.06533822030080465,0.24641613019521635,-3.1593250127321935
1589985650.8519216,-2.0913376726640656,-2.6874779489265705,8.753464930934374,0.5133333333333333,-0.20777777777777776,-0.7733333333333333,0.06364615071703836,0.24472406061145002,-3.163555186691609
1589985650.8619215,-2.035975977287617,-2.745568901506879,8.721544878794496,0.5133333333333333,-0.20777777777777776,-0.7733333333333333,0.05550825485213676,0.2451220883324719,-3.1621721208624214
1589985650.8719215,-1.9256403253751504,-2.717820162687575,8.71,0.5133333333333333,-0.20777777777777776,-0.7733333333333333,0.05788120535276015,0.23899537696995057,-3.15110517338769
1589985650.8819215,-1.866023539302228,-2.7686352809303627,8.71,0.5459084894057572,-0.18823268413432348,-0.7676326810206592,0.05410777455137108,0.24019965443594618,-3.135636720574195
1589985650.8919215,-1.8815105322763306,-2.971007021517554,8.885971913929785,0.5577777777777778,-0.1811111111111111,-0.7655555555555555,0.05099442425983744,0.22939635205776343,-3.106348862241424
1589985650.9019215,-1.9099793201499289,-2.9900206798500713,8.809954504329845,0.5577777777777778,-0.1811111111111111,-0.7655555555555555,0.04582391615166513,0.21489817579520884,-3.0793927407704604
1589985650.9119215,-1.8542302721754456,-3.0412821617387897,8.715385940865477,0.5577777777777778,-0.1811111111111111,-0.7655555555555555,0.0674217152908586,0.22412362618539292,-3.0218667236531283
1589985650.9219215,-1.7803146661445075,-3.057707851967887,8.912494223614646,0.5577777777777778,-0.1811111111111111,-0.7655555555555555,0.064734068012011,0.2026224479546122,-2.9833437793229796
1589985650.9319215,-1.7840147275405007,-3.1108550389227854,8.874014727540501,0.5222222222222223,-0.21333333333333332,-0.7588888888888888,0.042104461678910333,0.1821971532270603,-2.9215691241633523
1589985650.9419215,-1.7222430044182622,-3.119679570797391,8.812243004418262,0.5222222222222223,-0.21333333333333332,-0.7588888888888888,0.048842711385868924,0.19374843843898928,-2.868625733608677
1589985650.9519215,-1.6837269198842348,-3.0746586498552935,8.710249029681645,0.5222222222222223,-0.21333333333333332,-0.7588888888888888,0.058979333303899706,0.18328673638365406,-2.803394828614707
1589985650.9619215,-1.5979159590853442,-3.129697484301568,8.804470597527743,0.5222222222222223,-0.21333333333333332,-0.7588888888888888,0.054297705854852024,0.17728475166337695,-2.7472362380166793
1589985650.9719214,-1.5956520819004287,-3.1807824982805144,8.855391249140256,0.5222222222222223,-0.21333333333333332,-0.7588888888888888,0.051240594336945576,0.17002733986750787,-2.692853460622005
1589985650.9819214,-1.609197195838987,-3.2478098145635457,8.799781772953414,0.5162206643549927,-0.1293115231921202,-0.68386941554852,0.056659433218699616,0.1688398591176047,-2.6124844671601335
1589985650.9919214,-1.50086,-3.2998279999999998,8.829226,0.5111111111111111,-0.057777777777777775,-0.62,0.06542170351559895,0.16802546508337207,-2.490007574945811
1589985651.0019214,-1.4456620111731844,-3.2456620111731844,8.736849162011174,0.5111111111111111,-0.057777777777777775,-0.62,0.05444190178798583,0.14597205018085116,-2.4240749396985493
1589985651.0119214,-1.4002865312444153,-3.2062292249955324,8.733770775004468,0.5111111111111111,-0.057777777777777775,-0.62,0.05256554143226696,0.14481231877928052,-2.3514773472249435
1589985651.0219214,-1.3419843766568873,-3.266031246686225,9.213790604785974,0.5111111111111111,-0.057777777777777775,-0.62,0.060085686287679636,0.14835298641951802,-2.241758163058593
1589985651.0319214,-1.244526075655865,-3.191376241141383,8.590734680902784,0.522799852901762,0.021121229309116155,-0.6156167218285059,0.07795602330274282,0.1784758993930945,-2.1484630146594466
1589985651.0419214,-1.2456100386100386,-3.267708108108108,9.056590733590735,0.5288888888888889,0.06222222222222223,-0.6133333333333333,0.06627449817454723,0.14341998849555354,-2.0352290303888485
1589985651.0519214,-1.2218219917601931,-3.251821991760193,9.245667530899276,0.5288888888888889,0.06222222222222223,-0.6133333333333333,-0.013253016745694679,0.045554757075354335,-1.9894326261891366
1589985651.0619214,-1.1827066776942716,-3.2581955482038185,8.47120033082815,0.5288888888888889,0.06222222222222223,-0.6133333333333333,0.03258575027138771,0.0938773466695233,-1.857200540638115
1589985651.0719213,-1.2218007589730544,-3.402122580508385,8.958490322033539,0.5288888888888889,0.06222222222222223,-0.6133333333333333,0.0686312228164729,0.12077711540247588,-1.749930819283006
1589985651.0819213,-1.1309815714395866,-3.3517177500192767,8.781717750019276,0.5366666666666666,0.14666666666666667,-0.5988888888888889,0.04799655442984406,0.0839939702522271,-1.5369805725375063
1589985651.0919213,-1.1633225383607062,-3.408314442131236,8.838314442131235,0.5366666666666666,0.14666666666666667,-0.5988888888888889,0.04799655442984406,0.0839939702522271,-1.5369805725375063
1589985651.1019213,-1.1452616322283335,-3.51070734849611,8.75929265150389,0.5366666666666666,0.14666666666666667,-0.5988888888888889,0.05069509173724926,0.0785968956374167,-1.4542254284437468
1589985651.1119213,-1.0899775216413985,-3.5216629202735663,8.865056195896505,0.5366666666666666,0.14666666666666667,-0.5988888888888889,0.05126904677733343,0.0747206825967321,-1.352956183092
1589985651.1219213,-1.0651777115664318,-3.480473897510485,8.830710846265728,0.5366666666666666,0.14666666666666667,-0.5988888888888889,0.05180800039367934,0.07148172512802944,-1.2381781503832023
1589985651.1319213,-1.0388772679732619,-3.4733681960802145,8.778342049020054,0.5369756314451871,0.1596431873645279,-0.5967261354392454,0.049933273863784836,0.06690238652524294,-1.1107405400253023
1589985651.1419213,-1.0018897980772223,-3.6005510096138886,8.808110201922778,0.5377777777777778,0.19333333333333333,-0.5911111111111111,0.04009448813600707,0.058638611438446814,-0.9592614737330419
1589985651.1519213,-1.0175613219094248,-3.6451226438188495,8.704632068543452,0.5377777777777778,0.19333333333333333,-0.5911111111111111,0.03831208664386592,0.051109280790266685,-0.8569656617493797
1589985651.1619213,-0.9804112890269373,-3.5840188150448955,8.782373658937146,0.5377777777777778,0.19333333333333333,-0.5911111111111111,0.033860618930498756,0.04154129908108256,-0.7813367226577415
1589985651.1719213,-0.9235350665214966,-3.489225110869161,8.83,0.5377777777777778,0.19333333333333333,-0.5911111111111111,0.02765638550039352,0.03841414900221407,-0.6899702113098478
1589985651.1819212,-0.9052044666628359,-3.5072491332911953,8.788364266697313,0.5343081333358872,0.22745150367859096,-0.5986286740685407,0.025656827241648285,0.0330249964833446,-0.6051961106618072
1589985651.1919212,-0.9168293274086043,-3.6146346192688346,8.872927893354877,0.5311111111111111,0.2588888888888889,-0.6055555555555555,0.021710154443283537,0.023545949281885224,-0.5066505128338875
1589985651.2019212,-0.92,-3.5981764015211257,8.774655205649896,0.5311111111111111,0.2588888888888889,-0.6055555555555555,0.02224195229382352,0.02116486609770729,-0.4276129117987472
1589985651.2119212,-0.9349378050700676,-3.6521579278853724,8.752157927885373,0.5311111111111111,0.2588888888888889,-0.6055555555555555,0.019109891936913585,0.01420793783008807,-0.32968870406145406
1589985651.2219212,-0.8906842167909855,-3.6236391049039836,8.730684216790985,0.5311111111111111,0.2588888888888889,-0.6055555555555555,0.01514778504620123,0.008925128642471598,-0.24722491214670866
1589985651.2319212,-0.8982171297423236,-3.6,8.88870848836805,0.5446971365426003,0.2829257031138312,-0.6055555555555555,0.016232807753562117,0.0004537889435965196,-0.14141035318356104
1589985651.2419212,-0.873355408023046,-3.639966887965431,8.76677704011523,0.5455555555555556,0.28444444444444444,-0.6055555555555555,0.012729369098006895,-0.002179855583663966,-0.07313803588580196
1589985651.2519212,-0.9338169491525423,-3.6452366101694915,8.781198644067796,0.5455555555555556,0.28444444444444444,-0.6055555555555555,0.0004404737722406033,-0.012129890392101945,0.030212832626090994
1589985651.2619212,-0.8663989058582174,-3.4917982676088446,8.716398905858217,0.5455555555555556,0.28444444444444444,-0.6055555555555555,-0.0007199184783592406,-0.01612248891132709,0.13901644963223675
1589985651.2719212,-0.8129643970948365,-3.4905534043577453,8.703517801452582,0.5455555555555556,0.28444444444444444,-0.6055555555555555,-0.0029491267872303038,-0.023735278705522597,0.22888913930465377
1589985651.2819211,-0.8,-3.430308829139977,8.678123531655991,0.5915993431635688,0.3080566432177846,-0.6256259245128947,-0.0032042620330885235,-0.0284298306593087,0.31750255076462075
1589985651.2919211,-0.859244054360136,-3.5969762174405435,8.83431483578709,0.6322222222222222,0.3288888888888889,-0.6433333333333333,-0.008644185382585873,-0.035914954944997274,0.4408519103006926
1589985651.3019211,-0.8417768595041322,-3.543181818181818,8.704958677685951,0.6322222222222222,0.3288888888888889,-0.6433333333333333,-0.011999138607461015,-0.05154400825556601,0.5691770212892613
1589985651.3119211,-0.909441463983545,-3.5,8.664443902542462,0.6322222222222222,0.3288888888888889,-0.6433333333333333,-0.016725894661270165,-0.06241946588117138,0.6747363077303741
1589985651.321921,-0.9977378886961163,-3.6026451354597624,8.830383024155879,0.6322222222222222,0.3288888888888889,-0.6433333333333333,-0.026941758809916807,-0.06195083215500525,0.785936081419779
1589985651.331921,-1.0139862351190476,-3.5559105282738095,8.79188988095238,0.9925319320436508,0.4961437665343915,-0.8470640087632275,-0.026393600389656154,-0.0713500930265774,0.9218308407777716
1589985651.341921,-1.0179169824780419,-3.4112452628293726,8.918339649560837,1.0822222222222222,0.5377777777777778,-0.8977777777777778,-0.02336189035911187,-0.07417649320975901,1.0301567307381085
1589985651.351921,-1.02,-3.449237191216834,8.922718435498629,1.0822222222222222,0.5377777777777778,-0.8977777777777778,-0.0333649008209832,-0.07882425071578462,1.105519946740121
1589985651.361921,-1.0561075435203096,-3.5925315280464214,8.797152030947776,1.0822222222222222,0.5377777777777778,-0.8977777777777778,-0.03691565480989264,-0.08571651232346522,1.205934065107961
1589985651.371921,-1.125682066205893,-3.6878410331029468,8.77541712137747,1.0822222222222222,0.5377777777777778,-0.8977777777777778,-0.03358024750242046,-0.09354703954227489,1.315670424006622
1589985651.381921,-1.1743055966834468,-3.537962688777021,8.876713058928043,1.1344342447274043,-0.159882867765604,-1.095823380383641,-0.036674137909836424,-0.1023865982520341,1.4230696717011886
1589985651.391921,-1.0385102108554758,-3.1784322973988086,8.851411875687857,1.1466666666666667,-0.3233333333333333,-1.1422222222222222,-0.030072727631798597,-0.1043304762344714,1.4858097792324676
1589985651.401921,-1.0335136674259682,-3.1388591495823843,8.642131738800304,1.1466666666666667,-0.3233333333333333,-1.1422222222222222,-0.03509004670907639,-0.11184784146298891,1.5626790797363084
1589985651.411921,-1.0821234465330427,-3.2278222037594766,8.747767854051995,1.1466666666666667,-0.3233333333333333,-1.1422222222222222,-0.03778907149124194,-0.11554887603871872,1.6147166625514073
1589985651.421921,-1.2508399651150115,-3.410839965115011,8.847404611359424,1.1466666666666667,-0.3233333333333333,-1.1422222222222222,-0.04134332502541723,-0.12114884042037855,1.6645495342143355
1589985651.431921,-1.2829643821301053,-3.335114517112253,8.72133588783419,0.7426576485045526,-0.014334910544089308,-0.8015536009753548,-0.03522994896774673,-0.12267405273817367,1.7195365139693966
1589985651.441921,-1.3397506620111077,-3.4155761254188834,8.903301853631103,0.6222222222222222,0.07777777777777778,-0.7,-0.05186370842505482,-0.13174244011468364,1.7518062403009258
1589985651.451921,-1.3670125713323087,-3.5481759986523196,8.756635431363053,0.6222222222222222,0.07777777777777778,-0.7,-0.048308719148707935,-0.13111237477757035,1.7787470708882465
1589985651.461921,-1.3917330479720207,-3.5320452054079445,8.78590958918411,0.6222222222222222,0.07777777777777778,-0.7,-0.0455142980065331,-0.13059909904125666,1.8028861350710812
1589985651.471921,-1.430767194729825,-3.47307936632421,8.80538624421614,0.6222222222222222,0.07777777777777778,-0.7,-0.04782860105099251,-0.1308996938995747,1.8200084504339251
1589985651.481921,-1.3666315003267668,-3.283263000653534,8.824736874863847,0.5998362361988541,0.14339187474282236,-0.7,-0.04908738521234052,-0.13014185285179047,1.837751335350543
1589985651.491921,-1.4736681772918487,-3.366728920682017,8.800817769829495,0.59,0.17222222222222222,-0.7,-0.04908738521234052,-0.13337062835014887,1.8445502507763567
1589985651.501921,-1.5305642388246328,-3.4240856517661773,8.728171303532353,0.59,0.17222222222222222,-0.7,-0.0469672725552065,-0.1338496085914712,1.85275272617445
1589985651.511921,-1.5458520724858462,-3.474630181214615,8.784019235579,0.59,0.17222222222222222,-0.7,-0.042289863307489815,-0.13237634955309535,1.8657590686581076
1589985651.521921,-1.5654505081384782,-3.5536040651078245,8.819098983723045,0.59,0.17222222222222222,-0.7,-0.04036073895236887,-0.13139596647630122,1.871963908392962
1589985651.531921,-1.5467790524155942,-3.543558104831188,8.842509326618169,0.5905160210574313,0.15312944309726628,-0.7098044000911936,-0.041880546417797274,-0.13191289887652696,1.8648508137307969
1589985651.541921,-1.5558243994545264,-3.4581560893737544,8.848156089373756,0.5911111111111111,0.13111111111111112,-0.7211111111111111,-0.04450163924851261,-0.12917351969562296,1.832924554361458
1589985651.551921,-1.48480631873323,-3.3198605494879256,8.98027890102415,0.5911111111111111,0.13111111111111112,-0.7211111111111111,-0.029973338794069413,-0.11179240823291274,1.7583566844319025
1589985651.561921,-1.3347757001141252,-3.1896411201826003,8.922891581072777,0.5911111111111111,0.13111111111111112,-0.7211111111111111,-0.013630491316805243,-0.09760488771143053,1.6608263614444552
1589985651.5719209,-1.4097198638961383,-3.2179908162928212,8.907570612137029,0.5911111111111111,0.13111111111111112,-0.7211111111111111,-0.029901037133525626,-0.1062744709625466,1.5314344920508725
1589985651.5819209,-1.466168883904401,-3.1821579395158173,8.890125106350066,0.5518304242830502,0.07164451577418551,-0.6856493799468895,-0.034645604893088135,-0.10231634585537872,1.3633636406165843
1589985651.5919209,-16.25110505166475,-2.488372560275545,6.5824913892078065,0.5111111111111111,0.01,-0.6488888888888888,-0.41162440089028257,1.5409008630735679,0.12034549905250991
1589985651.6019208,-10.911413949326025,-0.074881704793333,0.7929861849096707,0.5111111111111111,0.01,-0.6488888888888888,-0.00198941324038604,0.9067142386576708,-3.001002448297864
1589985651.6119208,1.3255304039059033,0.10544052374611645,-0.8359798047048381,0.5111111111111111,0.01,-0.6488888888888888,0.7266324994781779,-0.2616288395776073,-4.807620008617813
1589985651.6219208,0.18116231785835313,-0.5566384276516435,-0.06150118603863097,0.5111111111111111,0.01,-0.6488888888888888,0.8179778152703355,-0.04621152499959148,-4.714554377444623
1589985651.6319208,-0.38767543859649123,-0.648204814361485,-0.18171460628314975,0.5611839838614624,0.10193707783671063,-0.6620227571512761,0.8069875782662821,0.05545034224920377,-4.509181914686531
1589985651.6419208,-0.29826135465575754,-0.38739203198363625,-0.2796336757937799,0.5788888888888889,0.13444444444444445,-0.6666666666666666,0.759041093292943,0.09319237509011538,-4.340598190177275
1589985651.6519208,-0.1442325661879218,-0.1159612389686797,-0.4469302647516871,0.5788888888888889,0.13444444444444445,-0.6666666666666666,0.6677101876081477,0.11181100461556336,-4.143618786941012
1589985651.6619208,-0.14549624105130915,-0.05085069894510141,-0.5407089157875845,0.5788888888888889,0.13444444444444445,-0.6666666666666666,0.5018976883406133,0.11742670362266093,-3.896949737051231
1589985651.6719208,-0.11,0.10277267492486164,-0.15601837027049797,0.5788888888888889,0.13444444444444445,-0.6666666666666666,0.3260451568505698,0.10328060366259181,-3.6833198534588716
1589985651.6819208,6.223584381175754,-0.8720700588529113,6.176421699567833,0.5480041165668894,0.16091710643472973,-0.6583939597947025,-0.6307916206124033,-0.16116266154886139,-3.382932479214274
1589985651.6919208,7.8625797684521395,-2.407408889554666,7.904130839521497,0.5166666666666667,0.18777777777777774,-0.65,-1.8932143359934155,-0.11002717012699165,-2.9048202326863266
1589985651.7019207,0.13461391147244806,-1.5208383017163505,0.5968744354110207,0.5166666666666667,0.18777777777777774,-0.65,-1.4835888301518416,0.6203310873665665,-2.353469285484059
1589985651.7119207,-0.16506970668566678,-0.2581078256739105,3.022457902861893,0.5166666666666667,0.18777777777777774,-0.65,-0.0888740940578866,0.28784852015177953,-2.1817022655073233
1589985651.7219207,1.8624672079950029,-3.6510056214865707,13.77584009993754,0.5166666666666667,0.18777777777777774,-0.65,0.6648221846861221,-0.38385251900045186,-2.1088825070953954
1589985651.7319207,2.568816117840404,-3.0192300200864324,12.995350903889463,0.4839661574045894,0.26673754404474465,-0.6332509586706434,1.4427283841913647,0.2624726499657155,-1.8630110965302973
1589985651.7419207,2.140209987989617,-1.8295583278447174,9.626273294331874,0.4711111111111111,0.2977777777777777,-0.6266666666666667,1.4494070324721504,0.5699847159054456,-1.7522742065674821
1589985651.7519207,0.8986035783305281,-2.200076055108784,8.883941150801071,0.4711111111111111,0.2977777777777777,-0.6266666666666667,-0.12078688127401443,0.0362480736532092,-1.489014143289175
1589985651.7619207,0.9092685143116764,-2.631287526648726,11.028707230978927,0.4711111111111111,0.2977777777777777,-0.6266666666666667,-0.8833248253842694,-0.18080410614507086,-1.2774934577827763
1589985651.7719207,0.19574267190506217,-2.2652212575382773,9.306145737336502,0.4711111111111111,0.2977777777777777,-0.6266666666666667,-0.6437082199299791,-0.09174846126179424,-1.0766841088145052
1589985651.7819207,0.22220453690938713,-3.399392154405314,12.836769436437315,0.4699183504848375,0.3070216726313981,-0.6329286599546031,0.1765686687226682,0.06818596973091576,-0.8859147315516245
1589985651.7919207,0.16594811065795292,-2.2739978379440813,7.141788118519974,0.4666666666666667,0.3322222222222222,-0.65,0.6382956846756179,0.34660187318690683,-0.5292302947045938
1589985651.8019207,0.049411591723252955,-2.0847043255092768,6.276466609634817,0.4666666666666667,0.3322222222222222,-0.65,-0.05976537219251665,0.022114329692021456,-0.32652094495686956
1589985651.8119206,-0.01701370703281667,-2.413349375987921,7.920072191945644,0.4666666666666667,0.3322222222222222,-0.65,-0.3418693576450558,-0.2150371369527176,-0.12841168251895815
1589985651.8219206,-0.10395608688857633,-2.7834966401000156,8.73977027660572,0.4666666666666667,0.3322222222222222,-0.65,-0.05704121050771643,-0.024089648569730338,0.10876063623916084
1589985651.8319206,-0.1424132320038461,-2.857925704036538,8.376521144209612,0.457393950226923,0.33812304177478636,-0.6521074355544872,0.11603919446659369,0.08869093055558756,0.3084093339535785
1589985651.8419206,-0.14045034930139721,-2.6389799567531607,7.755735196274118,0.44222222222222224,0.3477777777777778,-0.6555555555555556,-0.03566238271528398,-0.05383364220234943,0.4837091514374723
1589985651.8519206,-0.18695006360018054,-2.6224804070411554,7.935460178080506,0.44222222222222224,0.3477777777777778,-0.6555555555555556,-0.0752997297813707,-0.09193952062014075,0.7105783436587482
1589985651.8619206,-0.254387964440392,-2.919809379986323,8.27742477775245,0.44222222222222224,0.3477777777777778,-0.6555555555555556,0.07364932256632606,-0.012314707473847115,0.9217261204515322
1589985651.8719206,-0.26841694171672237,-3.0885618811373745,8.68345599540786,0.44222222222222224,0.3477777777777778,-0.6555555555555556,0.0008852950863582759,-0.06153527638365804,1.091577473486996
1589985651.8819206,-0.2689195662728597,-3.155226088363813,9.041808706910503,0.45903961446476416,0.35548574922227616,-0.6555555555555556,-0.10119234132049135,-0.12294872206784921,1.2708807092792838
1589985651.8919206,-0.28,-3.17,9.16,0.4688888888888889,0.36,-0.6555555555555556,-0.1112647398146385,-0.1112647398146385,1.3373585393406549
1589985651.9019206,0.8501722594124419,-6.816820875794141,6.2197416108813375,0.4688888888888889,0.36,-0.6555555555555556,-0.014139684135625937,-0.06426269115340995,1.4637663992394794
1589985651.9119205,3.280421697937953,-14.727991826119265,2.8096173137655587,0.4688888888888889,0.36,-0.6555555555555556,-0.29995597174107547,-0.12939972558227228,0.17939009091105418
1589985651.9219205,-0.3147502864881758,-3.460012709657256,11.120550265652673,0.4688888888888889,0.36,-0.6555555555555556,-0.42157192587364506,-0.03802968618551422,-3.751904737509563
1589985651.9319205,-0.026741856925418528,-3.620572298325723,12.372134855403349,0.49110847285641807,0.3473030948756976,-0.6624330458312193,0.617241335058602,0.6716251104985652,-4.0665453980807005
1589985651.9419205,0.2558082600702598,-1.6404956406195963,5.5533304210123955,0.5155555555555555,0.3333333333333333,-0.67,0.999535479290315,0.6818187581991763,-3.5831841016627703
1589985651.9519205,-0.05298757972473986,-1.4876964678676663,3.573235985229943,0.5155555555555555,0.3333333333333333,-0.67,0.26092618611872204,0.23193822570158518,-3.1888586919366966
1589985651.9619205,-3.946604938271605,-9.22307275468853,6.183248986900386,0.5155555555555555,0.3333333333333333,-0.67,-0.43851032509672216,-0.08874393126487892,-2.6925420514099154
1589985651.9719205,-3.1826151293043834,-7.214143272023233,6.733330106485964,0.5155555555555555,0.3333333333333333,-0.67,-0.31343652019524804,-0.01978565799196344,-1.356727536480557
1589985651.9819205,-0.05025003104690151,-1.6727625532971808,9.186449890300947,0.4895111147907439,0.35815694093729444,-0.6569777796175942,-0.006232754308524657,-0.01738102052145897,0.5684140751520297
1589985651.9919205,0.08474533233756532,-1.3921105302464525,9.718122479462284,0.4444444444444444,0.4011111111111111,-0.6344444444444445,0.25717406976277757,0.028560051710565915,1.9041555173830593
1589985652.0019205,-0.9542211448232718,-1.8349039277894454,9.172193350909335,0.4444444444444444,0.4011111111111111,-0.6344444444444445,-0.03721466287166553,-0.07497810443606698,0.7356893716776384
1589985652.0119205,-0.3161801551004175,-4.12589779280175,9.2481547027242,0.4444444444444444,0.4011111111111111,-0.6344444444444445,-0.10384561551865348,-0.08831781610990944,-0.03409448115250009
1589985652.0219204,0.018548327745522952,-4.473103279090686,9.00405450159457,0.4444444444444444,0.4011111111111111,-0.6344444444444445,0.050778846387668754,0.05590295909520893,-0.22343528663627316
1589985652.0319204,-0.30693449106426,-4.106640697017455,8.520146897023404,0.4365369175414077,0.4011111111111111,-0.6496512269502843,0.03110870727552205,0.04395977664724863,-0.397954071169667
1589985652.0419204,-1.0195741292154283,-6.233440204971955,8.516281420954227,0.43,0.4011111111111111,-0.6622222222222223,-0.037547889656710465,0.010164343253480063,-0.47584862308054554
1589985652.0519204,-0.7726322471434617,-5.615044435040203,8.81256453660601,0.43,0.4011111111111111,-0.6622222222222223,-0.026059915079767213,0.01942722075775745,-0.3661706125587648
1589985652.0619204,-0.08468130311614733,-4.035633293573878,8.846640450275832,0.43,0.4011111111111111,-0.6622222222222223,0.011410379485254788,0.01738120205560133,-0.08339150865597507
1589985652.0719204,-0.253335674362801,-4.429858952974571,8.731135399291839,0.43,0.4011111111111111,-0.6622222222222223,0.02194046849972534,0.002181661564992912,0.06590679373969274
1589985652.0819204,0.03509686009422641,-4.331669154010476,8.651356187633512,0.43,0.4011111111111111,-0.6622222222222223,0.013237906511705045,0.002181661564992912,0.0043194319783183555
1589985652.0919204,0.08698144604376404,-4.317971129045678,8.905896913220733,0.4444444444444444,0.41,-0.6555555555555556,-0.007085226830997552,-0.0066736353842364714,-0.001090830782496456
1589985652.1019204,0.00418457012348547,-4.522111253048426,8.655259164634383,0.4444444444444444,0.41,-0.6555555555555556,-0.014298020249572736,-0.00023030198148630318,-0.000803987848826405
1589985652.1119204,0.022116764805899095,-4.446711470656668,8.633107941223846,0.4444444444444444,0.41,-0.6555555555555556,0.0012530116446337674,0.000393084083095299,0.0
1589985652.1219203,-0.061517067929872535,-4.37,8.636965864140254,0.4444444444444444,0.41,-0.6555555555555556,0.011864309642744576,-0.000986659292767891,0.0007170013633350125
1589985652.1319203,0.030824352952012527,-4.36311826471401,8.835412176476007,0.4426602908517802,0.41,-0.6588689836562177,0.013770269217560263,0.0030222653912576813,0.0027720384350259945
1589985652.1419203,0.008737974161627266,-4.369126580538757,8.790873419461242,0.43666666666666665,0.41,-0.67,0.003325377251080025,0.002181661564992912,0.001090830782496456
1589985652.1519203,0.014055054792983506,-4.4320275273964915,8.656220219171935,0.43666666666666665,0.41,-0.67,-0.011556800748171395,-0.0012969858464136714,0.00022116892964481013
1589985652.1619203,-0.00036688215797591427,-4.429633117842024,8.579266235684049,0.43666666666666665,0.41,-0.67,-0.011728909828638261,-0.005494174547629165,-0.0003902906842634089
1589985652.1719203,0.023920429393536963,-4.414716135458168,8.702329017264276,0.43666666666666665,0.41,-0.67,-0.0022684596319047035,-0.0015618823222597555,0.001090830782496456
1589985652.1819203,0.02141655783136368,-4.36,8.818555410441817,0.4290369402945455,0.40809256840696967,-0.6658672315484344,0.005299631423718487,0.0007787280179189015,0.001090830782496456
1589985652.1919203,0.0,-4.364064001997462,8.806256007989846,0.41,0.4033333333333333,-0.6555555555555556,0.0027593631506212237,-0.0004433138478958153,0.0015341446303922712
1589985652.2019203,0.010198175367460718,-4.400594526102382,8.768810947795236,0.41,0.4033333333333333,-0.6555555555555556,-0.005846587612135592,-0.00183246302357134,0.001440029323918028
1589985652.2119203,0.034306496180310994,-4.447080511459067,8.675838977081867,0.41,0.4033333333333333,-0.6555555555555556,-0.006377816960878328,-0.003272492347489368,-0.0004697658598186639
1589985652.2219203,0.02242767770919931,-4.4212138388546,8.7041425592364,0.41,0.4033333333333333,-0.6555555555555556,0.000880667502040672,-0.0023140708437516667,-0.0007713569479172221
1589985652.2319202,-0.012793382877776378,-4.403603308561112,8.692402205707408,0.41,0.4033333333333333,-0.6555555555555556,0.00920504786947059,-0.00039305998972937774,-0.00013101999657645907
1589985652.2419202,-0.03,-4.314516842836765,8.801932628652938,0.4444444444444444,0.41,-0.6644444444444444,0.011283361947741996,0.002181661564992912,0.00016423704020140673
1589985652.2519202,-0.03,-4.337527888519074,8.709888445923704,0.4444444444444444,0.41,-0.6644444444444444,0.0020796043929207156,0.002181661564992912,0.001000942272457887
1589985652.2619202,0.0018234963897868718,-4.412764474728508,8.657235525271492,0.4444444444444444,0.41,-0.6644444444444444,-0.01021530224121824,-0.004459590915606942,0.0014886559812465911
1589985652.2719202,0.009942701175013067,-4.469598908225091,8.600401091774907,0.4444444444444444,0.41,-0.6644444444444444,-0.01198663794304169,-3.1251661048311945e-05,0.0032599916830700435
1589985652.2819202,-0.016197638178023048,-4.396197638178023,8.687110628198896,0.4444444444444444,0.41105621161721584,-0.660008355652138,0.0005682625461442524,0.0006760574503362789,0.002181661564992912
1589985652.2919202,-0.010045732831747436,-4.373302844778835,8.766697155221165,0.4444444444444444,0.4155555555555556,-0.6411111111111111,0.007270542323955012,-0.0007255576289762762,0.0010858421044323723
1589985652.3019202,-0.019104013463578824,-4.373619983170527,8.752760033658946,0.4444444444444444,0.4155555555555556,-0.6411111111111111,0.0038707072530698244,0.0,-0.0004965469065166979
1589985652.3119202,0.008283384140306426,-4.409141692070153,8.676566768280612,0.4444444444444444,0.4155555555555556,-0.6411111111111111,-0.0033661192185631367,9.362687107376841e-05,0.0008099501692751507
1589985652.3219202,0.003486425582144006,-4.4168580319776805,8.663601244768753,0.4444444444444444,0.4155555555555556,-0.6411111111111111,-0.002892182312900787,0.0014586159867677152,-0.000710520747907875
1589985652.3319201,0.025257327935222673,-4.4389337651821865,8.717904453441296,0.4432148627980207,0.4155555555555556,-0.6456781286549708,0.0015520358038635406,0.001491867874386894,0.002181661564992912
1589985652.3419201,-0.007477086800590704,-4.368784369799114,8.782431260401772,0.43666666666666665,0.4155555555555556,-0.67,0.008594041575645762,-0.002589473387267026,0.0009582260981705699
1589985652.3519201,-0.02,-4.35,8.762247266752333,0.43666666666666665,0.4155555555555556,-0.67,0.004445036054983346,-0.003972475227487831,-0.0007408393424972245
1589985652.36192,-0.009003853127833182,-4.36649422030825,8.653745183590209,0.43666666666666665,0.4155555555555556,-0.67,-0.0032986072616782137,-0.0045545337502064034,-0.0005997467748505844
1589985652.37192,0.017540909637829383,-4.4173772710865125,8.69,0.43666666666666665,0.4155555555555556,-0.67,-0.011462648314661802,-0.0019134164185933052,-0.0016451712721936985
1589985652.38192,0.01123255324269041,-4.436302340271929,8.69,0.43666666666666665,0.4155555555555556,-0.67,-0.01008637844610661,-0.0012252814843157086,-0.000268901403638505
1589985652.39192,-0.007042283490895827,-4.4,8.690352007781865,0.43666666666666665,0.3955555555555556,-0.6555555555555556,0.001897422836003654,-0.0015363879221871536,-0.0004839552321043188
1589985652.40192,0.004512426035502959,-4.391768639053255,8.725305917159764,0.43666666666666665,0.3955555555555556,-0.6555555555555556,0.0056470825047238125,0.0009844586446530147,-0.0026738908873194193
1589985652.41192,-0.008315631229778752,-4.376737475080885,8.67179058139155,0.43666666666666665,0.3955555555555556,-0.6555555555555556,0.0029050200867627605,-0.0018141893042663043,-0.0007233585217698484
1589985652.42192,0.0028850222960566585,-4.41,8.724229955407887,0.43666666666666665,0.3955555555555556,-0.6555555555555556,0.0001467094438782939,-0.0006294142257454413,0.001090830782496456
1589985652.43192,0.010277421919865706,-4.410277421919866,8.711387109599329,0.4368824392710066,0.396110399395287,-0.6557405035021326,-0.0020606134170214007,-0.0020908754540142787,0.0010605687455035782
1589985652.44192,0.019541679551177277,-4.419541679551177,8.757708397755886,0.44408797298424896,0.4146389146579102,-0.6619166752563405,0.0019816815434635445,0.0009408457663494301,4.999500538234187e-05
1589985652.45192,-0.007439613526570049,-4.35,8.73975845410628,0.4444444444444444,0.4155555555555556,-0.6622222222222223,0.009791128472842584,0.000785187374840444,0.002181661564992912
1589985652.46192,-0.0003300279684719052,-4.35,8.711320111873889,0.4444444444444444,0.4155555555555556,-0.6622222222222223,0.0066889865618163045,-0.0030924900139424065,0.002181661564992912
1589985652.47192,-0.014518647335689848,-4.39644405799293,8.708222028996465,0.4444444444444444,0.4155555555555556,-0.6622222222222223,-0.0045733528513723035,-0.002181661564992912,-0.0007918693716990321
1589985652.48192,0.0033066525476516755,-4.441102217515884,8.726693347452349,0.4435871641543125,0.41616789861993553,-0.6598953185775784,-0.010427374706831388,-0.002061428285459619,0.0
1589985652.49192,0.03,-4.434445943431336,8.706221622627465,0.43666666666666665,0.4211111111111111,-0.6411111111111111,-0.004169626577288161,-0.0014301676564522523,0.0003393368739557965
1589985652.50192,0.019464911530900075,-4.392098683648175,8.709464911530901,0.43666666666666665,0.4211111111111111,-0.6411111111111111,0.002814630602259105,-0.0018943615950324706,0.001090830782496456
1589985652.51192,-0.008131813181318132,-4.3718681868186815,8.687472747274727,0.43666666666666665,0.4211111111111111,-0.6411111111111111,0.0068206652017662696,-0.0008870432135692252,0.0006832556446419945
1589985652.52192,0.003204613500272183,-4.386409227000544,8.723204613500272,0.43666666666666665,0.4211111111111111,-0.6411111111111111,0.0020490004792541538,-0.0001747845526050306,-0.0005664771246813641
1589985652.53192,0.017474823081110504,-4.414949646162221,8.737474823081111,0.43666666666666665,0.4211111111111111,-0.6411111111111111,-0.0033992338799548483,-0.0009531037467777452,0.0017684804578367798
1589985652.54192,-0.004607426658003898,-4.396911139987005,8.73,0.43,0.41,-0.6488888888888888,-0.001764715499495741,0.0003369423584996424,-0.00025129614133227116
1589985652.55192,-0.015534630256646566,-4.40660389076994,8.718836575641618,0.43,0.41,-0.6488888888888888,0.004490233040308924,-0.0012074690107372666,-0.0006037345053686333
1589985652.56192,0.0,-4.36,8.684823121808899,0.43,0.41,-0.6488888888888888,0.008410973675759052,0.0016555405913052522,0.00130127917197152
1589985652.57192,0.002262756141846074,-4.369051024567384,8.725474487716308,0.43,0.41,-0.6488888888888888,0.0034795266702353877,-0.0030256639422085066,0.0025320071316467835
