time,acc_x,acc_y,acc_z,mag_x,mag_y,mag_z,gyr_x,gyr_y,gyr_z
1589985358.941807,-3.74,-0.47,8.93,0.2855555555555556,-0.3511111111111111,-0.6311111111111111,-0.003272492347489368,-0.001090830782496456,-0.001090830782496456
1589985358.951807,-3.74,-0.45665055926688874,8.836795525864892,0.2855555555555556,-0.3511111111111111,-0.6311111111111111,-0.0036325885188207645,0.001096101916747589,-0.00036536730558252967
1589985358.961807,-3.7374506357903443,-0.45254936420965575,8.92059237051587,0.2855555555555556,-0.3511111111111111,-0.6311111111111111,-0.0027378465561303583,0.0018820298696457514,-0.0005346457913590094
1589985358.971807,-3.7263362659551453,-0.4783186702242735,9.028318670224273,0.2855555555555556,-0.3511111111111111,-0.6335536004743475,-0.005162625904987374,-0.003780267114996011,0.001090830782496456
1589985358.981807,-3.722607011353176,-0.5073929886468241,9.062607011353176,0.2855555555555556,-0.3511111111111111,-0.6377777777777778,-0.006260603871542543,-0.005976223048106351,0.001090830782496456
1589985358.991807,-3.7352526937782415,-0.5105053875564824,9.02797844977407,0.2855555555555556,-0.3511111111111111,-0.6377777777777778,-0.003162233886749024,-0.00379034312355251,0.0005178507760631421
1589985359.001807,-3.7338079709099303,-0.4952318836397218,8.99,0.2855555555555556,-0.3511111111111111,-0.6377777777777778,0.00093550599877196,-0.0019216011599770906,0.0
1589985359.011807,-3.741488400903151,-0.48,8.99,0.2855555555555556,-0.3511111111111111,-0.6377777777777778,0.002808256632333774,0.0014155494868669917,0.0012531901346817238
1589985359.021807,-3.7298003913894324,-0.4530671885192433,8.99,0.2907924911212582,-0.3331559034572733,-0.6235632383851563,0.003272492347489368,0.0018035353563702003,0.004385097051671663
1589985359.031807,-3.725812835685025,-0.44581283568502506,8.949310150204825,0.2933333333333333,-0.3244444444444444,-0.6166666666666667,0.003272492347489368,0.00299307681214221,0.0016496618531907717
1589985359.041807,-3.73620781178321,-0.47483124713283964,8.87654531751753,0.2933333333333333,-0.3244444444444444,-0.6166666666666667,0.0039496595659963265,0.0036861559114788655,-0.00041366356398949756
1589985359.051807,-3.7461449122878014,-0.48385508771219876,8.880724561439006,0.2933333333333333,-0.3244444444444444,-0.6166666666666667,0.002352405286203534,0.002602186399561938,0.0006703059479274299
1589985359.061807,-3.740212720470337,-0.4946809192944949,8.934255478353823,0.2933333333333333,-0.3244444444444444,-0.6166666666666667,0.0016246440718891632,0.001647848275600205,0.0005570174931037488
1589985359.071807,-3.726141452991453,-0.49070726495726497,9.004726923076923,0.2933333333333333,-0.33216153846153845,-0.6166666666666667,0.0013398571944663734,0.001090830782496456,0.0
1589985359.081807,-3.7295087517107257,-0.4790175034214507,9.045736872433912,0.2933333333333333,-0.34444444444444444,-0.6166666666666667,0.002593109767293761,0.001090830782496456,-0.0005186219534587523
1589985359.091807,-3.747202083442942,-0.4711916662282317,8.986787499342348,0.2933333333333333,-0.34444444444444444,-0.6166666666666667,0.003097277617181498,0.001090830782496456,0.002051670944571253
1589985359.1018069,-3.7355641628625444,-0.47443583713745563,8.97,0.2933333333333333,-0.34444444444444444,-0.6166666666666667,0.004543719893089228,0.00030347800646435036,0.0009104340193930513
1589985359.1118069,-3.7355590495506394,-0.4744409504493608,8.992236198202557,0.2933333333333333,-0.34444444444444444,-0.6166666666666667,0.00545415391248228,-0.0012127964742520557,0.0
1589985359.1218069,-3.74,-0.46373144680260786,9.016268553197392,0.29751236879826143,-0.34026540897951635,-0.6166666666666667,0.004086567754595892,-0.0028654546439361057,-0.002051379236829582
1589985359.1318069,-3.74,-0.4747287627234726,9.012635618638264,0.3,-0.3377777777777778,-0.6166666666666667,0.0008625041824618317,-0.0016658335708043437,-5.917479411931973e-05
1589985359.1418068,-3.733745835026412,-0.4549833401056481,8.922441690369768,0.3,-0.3377777777777778,-0.6166666666666667,-0.0034111178360004472,-0.005184172185696993,-0.0009558399191038128
1589985359.1518068,-3.73,-0.44668448741646527,8.903422437082327,0.3,-0.3377777777777778,-0.6166666666666667,-0.006183318376391328,-0.006177486549657094,-0.0029108260289019607
1589985359.1618068,-3.724629449006012,-0.4553705509939882,8.94685275496994,0.3,-0.3377777777777778,-0.6166666666666667,-0.007716657163620587,-0.00545415391248228,-0.003272492347489368
1589985359.1718068,-3.7366185163163235,-0.4655395054387744,8.975539505438775,0.2919984921439925,-0.34516378502947703,-0.6049721551848095,-0.006913847344245139,-0.0030370886915136014,-0.002063959737005029
1589985359.1818068,-3.7456127034704583,-0.47877459305908343,8.984387296529542,0.2855555555555556,-0.3511111111111111,-0.5955555555555555,-0.004018414480573082,-0.0015694105931328551,0.0003449086494127418
1589985359.1918068,-3.7381306892067623,-0.4843920676202861,8.978784135240572,0.2855555555555556,-0.3511111111111111,-0.5955555555555555,-0.0019777513894612274,-0.0017738412139295424,0.0017738412139295424
1589985359.2018068,-3.742040289823252,-0.4780604347348776,8.96010072455813,0.2855555555555556,-0.3511111111111111,-0.5955555555555555,0.0008792570329108141,-0.0013133918769381797,-0.0006566959384690899
1589985359.2118068,-3.73988667563434,-0.4697733512686801,9.00528331091415,0.2855555555555556,-0.3511111111111111,-0.5955555555555555,0.002181661564992912,-0.0005268727352779139,1.2361770646876187e-05
1589985359.2218068,-3.733353596308293,-0.453353596308293,9.026646403691707,0.2836924464953928,-0.3511111111111111,-0.5977912864277509,0.0014500203479624098,0.0003591895654659538,0.0018224719995269584
1589985359.2318068,-3.725622025832767,-0.4695853161114888,9.010414683888511,0.28,-0.3511111111111111,-0.6022222222222222,-0.0015683936811556793,-4.523499505933626e-05,0.0022268965600522484
1589985359.2418067,-3.719614694148936,-0.48,8.94711918218085,0.28,-0.3511111111111111,-0.6022222222222222,-0.003272492347489368,0.000566430565399049,0.001090830782496456
1589985359.2518067,-3.721348904873515,-0.4713489048735149,8.911627737816213,0.28,-0.3511111111111111,-0.6022222222222222,-0.004216180434116868,0.0009436880866275007,0.0015626748258102062
1589985359.2618067,-3.720300132900177,-0.46,8.950300132900177,0.28,-0.3511111111111111,-0.6022222222222222,-0.004330583709350501,0.0027434466665588013,0.0004963062602952441
1589985359.2718067,-3.73,-0.46989547478447596,8.974843212176715,0.2931939663793013,-0.3406658877274976,-0.6093689540110104,-0.0011136346470245976,0.004351921197721753,0.0005283124928521219
1589985359.2818067,-3.73,-0.48,8.970705999008429,0.30666666666666664,-0.33,-0.6166666666666667,0.004598579149017038,0.00545415391248228,0.0014801118916887956
1589985359.2918067,-3.7365460291811226,-0.46690794163775484,8.93381588327551,0.30666666666666664,-0.33,-0.6166666666666667,0.0072590457083675924,0.00545415391248228,0.001090830782496456
1589985359.3018067,-3.7275440828940196,-0.46,8.944911834211961,0.30666666666666664,-0.33,-0.6166666666666667,0.007635815477475192,0.0013779645714538944,0.0004114658923250584
1589985359.3118067,-3.729672162430349,-0.46,8.96967216243035,0.30666666666666664,-0.33,-0.6166666666666667,0.006053211600625656,-0.003200969284962503,0.0005275346256165118
1589985359.3218067,-3.7357954513349343,-0.47681819466026276,8.984204548665065,0.3010606017799124,-0.33607323696065045,-0.6194696991100438,0.001611452463771004,-0.004536863690410673,0.002008121004568063
1589985359.3318067,-3.735621868359611,-0.4943781316403893,8.97875626328078,0.2933333333333333,-0.34444444444444444,-0.6233333333333333,-0.0009551601526316721,-0.002045990935128128,0.002045990935128128
1589985359.3418067,-3.73487270069436,-0.47461810208307953,8.939236204166159,0.2933333333333333,-0.34444444444444444,-0.6233333333333333,-0.0033558095481989883,-0.001090830782496456,-0.0005870739916030384
1589985359.3518066,-3.734359329446064,-0.46,8.914359329446064,0.2933333333333333,-0.34444444444444444,-0.6233333333333333,-0.007020513770059735,-0.001090830782496456,-0.00027954526466891674
1589985359.3618066,-3.74,-0.46402761646664087,8.952220931733127,0.2933333333333333,-0.34444444444444444,-0.6233333333333333,-0.0067571258730949,-0.002408865189066893,0.0013029719606126207
1589985359.3718066,-3.736758740539181,-0.4667587405391809,9.009723778382456,0.2890116540522412,-0.34444444444444444,-0.6164906744716042,-0.00510058735309035,-0.005777589367553543,0.0
1589985359.3818066,-3.7217688498986474,-0.46,9.034115575050675,0.28,-0.34444444444444444,-0.6022222222222222,-0.004363323129985824,-0.009175585855266854,0.0
1589985359.3918066,-3.7141125063634823,-0.4805625318174105,8.98242491091125,0.28,-0.34444444444444444,-0.6022222222222222,-0.0012230891558366419,-0.008471662482118456,0.0013458145603496494
1589985359.4018066,-3.728235739716688,-0.49078327399439436,8.916471479433376,0.28,-0.34444444444444444,-0.6022222222222222,0.0035719522941424367,-0.006245524748325667,0.0023741125075301627
1589985359.4118066,-3.7414639947560633,-0.4570720104878734,8.968536005243937,0.28,-0.34444444444444444,-0.6022222222222222,0.002035488810076494,-0.004057453320536681,0.00046556686398186597
1589985359.4218066,-3.73,-0.4686064118454993,8.987595725436334,0.2774680915212221,-0.34444444444444444,-0.6077080239262411,-0.001090830782496456,-0.0017673790089257008,0.001090830782496456
1589985359.4318066,-3.7184358341559722,-0.46156416584402765,9.005782082922014,0.2733333333333333,-0.34444444444444444,-0.6166666666666667,-0.0036137403978083477,0.00017062402515949002,-0.00017062402515949002
1589985359.4418066,-3.7221650594742766,-0.4639174702628616,8.955257232365755,0.2733333333333333,-0.34444444444444444,-0.6166666666666667,-0.007444657114298467,-0.00023617135204766888,-0.001090830782496456
1589985359.4518065,-3.670429490124024,-0.48382820395039045,8.931914101975195,0.2733333333333333,-0.34444444444444444,-0.6166666666666667,-0.00807683280095441,0.002158236512589738,0.0015084230535724991
1589985359.4618065,-3.675899269270056,-0.5305995128467038,8.978249391058378,0.2733333333333333,-0.34444444444444444,-0.6166666666666667,-0.008053051609257445,0.016880407083453446,0.008279325928876417
1589985359.4718065,-3.759861095594533,-0.58,9.047888876475625,0.27530555245224,-0.34444444444444444,-0.6166666666666667,-0.012168817979541889,0.04311204711412742,0.01743814039981254
1589985359.4818065,-3.864158307835573,-0.5469639483836637,9.091683384328855,0.2933333333333333,-0.34444444444444444,-0.6166666666666667,-0.04363323129985824,0.09817477042468103,0.0272707695624114
1589985359.4918065,-3.824663160530929,-0.51,9.00466316053093,0.2933333333333333,-0.34444444444444444,-0.6166666666666667,-0.03202493747314144,0.07031486524056071,0.01937712976024398
1589985359.5018065,-3.7245675647342487,-0.49092567355068667,8.93,0.2933333333333333,-0.34444444444444444,-0.6166666666666667,-0.0059590305142981775,0.02682964578177611,0.006992741056113538
1589985359.5118065,-3.6562452471482887,-0.43280655893536124,8.936877376425855,0.2933333333333333,-0.34444444444444444,-0.6166666666666667,0.008110202438494325,0.036686961896869874,0.008523930083186422
1589985359.5218065,-3.6129317937588232,-0.3853701089361344,8.95,0.2933333333333333,-0.3409224336327731,-0.6131446558549953,-0.017743014638263693,0.09505742478870795,0.023065765032266185
1589985359.5318065,-3.380978708105301,-0.23597411416929653,8.894358247113809,0.2933333333333333,-0.33,-0.6022222222222222,-0.07099062937645503,0.16559376019515437,0.04131055873290158
1589985359.5418065,-2.971911138358286,-0.15453988125967988,9.06087377387713,0.2933333333333333,-0.33,-0.6022222222222222,-0.17559739329942778,0.23388109584690878,0.06383742926209553
1589985359.5518064,-3.23,-0.5850269714872848,9.648586840849878,0.2933333333333333,-0.33,-0.6022222222222222,-0.21422998302546545,0.20144243287009614,0.08688990962291034
1589985359.5618064,-3.23,-0.5531613669048325,9.265570114365284,0.2933333333333333,-0.33,-0.6022222222222222,0.029757366725880616,-0.02704556643056265,0.18454978321013557
1589985359.5718064,-3.134365594146404,-0.24953254305524492,8.650400677381219,0.2866221469576424,-0.33727045190699856,-0.6128482673170662,0.04700314103678037,-0.031128742163099965,0.2613960205548183
1589985359.5818064,-3.04,-0.18,8.71,0.28,-0.34444444444444444,-0.6233333333333333,-0.01963495408493621,-0.0370882466048795,0.2825251726665821
1589985359.5918064,-3.227145539906103,-0.24238184663536774,8.912741001564946,0.28,-0.34444444444444444,-0.6233333333333333,-0.023037356013877814,-0.031984643711467094,0.31257972303889964
1589985359.6018064,-3.314377573099975,-0.24592267774735269,9.032403347184191,0.28,-0.34444444444444444,-0.6233333333333333,0.0038062418254039276,-0.020388695325125102,0.3496791620323542
1589985359.6118064,-2.758735990920698,-0.46204000567456377,9.059682224428997,0.28,-0.34444444444444444,-0.6233333333333333,0.04309547601979367,0.007485862997940636,0.3679018316748889
1589985359.6218064,-1.7450030673856187,-0.996676891285396,9.141686093442253,0.2966646217429208,-0.34444444444444444,-0.6173155532595008,0.056358698162675615,0.04699701657906536,0.3956064023193424
1589985359.6318064,-1.71,-0.88,8.92,0.32,-0.34444444444444444,-0.6088888888888889,0.06654067773228381,0.04254240051736178,0.4134248665661568
1589985359.6418064,-1.916276176948052,-0.7604137581168832,8.794322037337663,0.32,-0.34444444444444444,-0.6088888888888889,-0.018621884839349453,-0.024773169934135777,0.42057671442535877
1589985359.6518064,-2.1082424044429926,-0.7317575955570075,8.893515191114014,0.32,-0.34444444444444444,-0.6088888888888889,-0.023434152703751862,-0.030770265898286995,0.4310103702002151
1589985359.6618063,-2.1176446660269517,-0.6935262213692687,8.76351266218866,0.32,-0.34444444444444444,-0.6088888888888889,0.0006415781616356038,-0.008149669637647391,0.4446743081770045
1589985359.6718063,-2.164453820909517,-0.6657030786060323,8.708750742303485,0.30854154294941916,-0.35303828723238007,-0.6088888888888889,-0.0084369854277138,-0.016217631321317913,0.44255340669703924
1589985359.6818063,-2.25,-0.6403148494288682,8.76555098650052,0.2933333333333333,-0.3644444444444445,-0.6088888888888889,-0.013729832829642415,-0.023427103265009245,0.43311133776842214
1589985359.6918063,-2.25,-0.62,8.745941117491569,0.2933333333333333,-0.3644444444444445,-0.6088888888888889,-0.006476544699662138,-0.025378925691871747,0.42544006288680475
1589985359.7018063,-2.25,-0.62,8.784171907756813,0.2933333333333333,-0.3644444444444445,-0.6088888888888889,-0.0036963231756291515,-0.026073981072879997,0.415014232171681
1589985359.7118063,-2.253120407206018,-0.5790785747789379,8.943685700884249,0.2933333333333333,-0.3644444444444445,-0.6088888888888889,0.0004100635356468706,-0.026930385938986605,0.3888543499415611
1589985359.7218063,-2.267693309938676,-0.5280734152146345,9.147706339141463,0.2933333333333333,-0.3644444444444445,-0.6088888888888889,-0.002769250642575172,-0.025340728849875583,0.3658043221494513
1589985359.7318063,-2.2418677985381166,-0.4762644029237672,9.183850820466372,0.2733333333333333,-0.3511111111111111,-0.6166666666666667,-0.00020374521408792525,-0.018208737586320734,0.3117394606340893
1589985359.7418063,-2.244875220763265,-0.465124779236735,9.05975044152653,0.2733333333333333,-0.3511111111111111,-0.6166666666666667,-0.0019293708242358418,-0.011719625260214554,0.2661391319638221
1589985359.7518063,-2.2194511326224755,-0.48739848983669926,8.949045091969273,0.2733333333333333,-0.3511111111111111,-0.6166666666666667,-0.008323121237078712,-0.009130171282864585,0.20356869909708902
1589985359.7618062,-2.23985683497537,-0.45992841748768476,8.85985683497537,0.2733333333333333,-0.3511111111111111,-0.6166666666666667,-0.009827888296857696,-0.00763841829107259,0.16457489622270538
1589985359.7718062,-2.191431265394089,-0.43571563269704433,8.81143126539409,0.2733333333333333,-0.3511111111111111,-0.6166666666666667,-0.013349495094136698,-0.008518819990392341,0.11703320445943878
1589985359.7818062,-2.2833883992896156,-0.41661160071038433,8.850847099822403,0.2733333333333333,-0.3644444444444445,-0.6166666666666667,-0.010353882287689277,0.0002772127686376411,0.041009871541798706
1589985359.7918062,-2.3622764384287467,-0.38,8.82476963464271,0.2733333333333333,-0.3644444444444445,-0.6166666666666667,-0.0012888937691596094,0.002888188677386091,-0.03089209867033496
1589985359.8018062,-2.4569142934208457,-0.3495542718424779,8.793828586841691,0.2733333333333333,-0.3644444444444445,-0.6166666666666667,0.006946411599854816,0.003288699480651052,-0.0879272036351795
1589985359.8118062,-2.484765024805845,-0.29,8.899262313956166,0.2733333333333333,-0.3644444444444445,-0.6166666666666667,0.011713615003091508,0.006310724725590799,-0.14133233456182165
1589985359.8218062,-2.483834039417941,-0.2915371154908823,9.02998250138147,0.2733333333333333,-0.3654691881050327,-0.6176914103272548,0.01174667427181784,0.010068032574936898,-0.18904143673793067
1589985359.8318062,-2.571035583213659,-0.30413834370512205,9.133102760491465,0.2733333333333333,-0.3711111111111111,-0.6233333333333333,0.016211987314043587,0.018506613483766067,-0.24611471369007998
1589985359.8418062,-2.6367285836909873,-0.3267285836909871,9.065464377682403,0.2733333333333333,-0.3711111111111111,-0.6233333333333333,0.015093202874338775,0.02598124840047653,-0.3001732229571342
1589985359.8518062,-2.6223275536480686,-0.3123275536480687,8.957456652360515,0.2733333333333333,-0.3711111111111111,-0.6233333333333333,0.014307748530815187,0.02990852011809446,-0.3394459401333134
1589985359.8618062,-2.597955117223071,-0.28301122069423224,8.87,0.2733333333333333,-0.3711111111111111,-0.6233333333333333,0.004304497633326679,0.03152868157774842,-0.4094733219127849
1589985359.8718061,-2.5461664428701516,-0.29595838928246204,8.87,0.2733333333333333,-0.3711111111111111,-0.6233333333333333,-0.0006386118814476248,0.035765632590412114,-0.44407508851620514
1589985359.8818061,-2.5344723718332336,-0.31421105126670656,8.884211051266707,0.2855555555555556,-0.3566666666666667,-0.6311111111111111,0.0018801762170677495,0.03598316299647969,-0.5126323684677435
1589985359.8918061,-2.6137504429120444,-0.29041592847992587,8.800003543296356,0.2855555555555556,-0.3566666666666667,-0.6311111111111111,0.00904462808609936,0.03263379544337602,-0.5671858631118879
1589985359.901806,-2.604653350603313,-0.33293067012066263,8.694989433499217,0.2855555555555556,-0.3566666666666667,-0.6311111111111111,0.016626004193862915,0.04280594297377786,-0.6196652063716513
1589985359.911806,-2.633149307531778,-0.3559849490925188,8.92740276987289,0.2855555555555556,-0.3566666666666667,-0.6311111111111111,0.01498831709776244,0.03917547021747644,-0.6676404521939717
1589985359.921806,-2.611152500647836,-0.4030849961129826,9.0073224928738,0.2872202787135413,-0.3566666666666667,-0.6311111111111111,0.026849164454328094,0.043673865382517954,-0.7092025449533352
1589985359.931806,-2.6252398921832887,-0.3568521667012233,8.920076715737093,0.3,-0.3566666666666667,-0.6311111111111111,0.039613283515919716,0.05174432602393058,-0.7461449920050804
1589985359.941806,-2.776886773178605,-0.4969541944183386,9.090862583255015,0.3,-0.3566666666666667,-0.6311111111111111,0.02433052306351961,0.04630590712137797,-0.8152475155446757
1589985359.951806,-2.811958235815401,-0.46,8.934430002953942,0.3,-0.3566666666666667,-0.6311111111111111,0.02836160034490785,0.06313337140070033,-0.8544024495726568
1589985359.961806,-2.7961856128827205,-0.46618561288272065,8.847113677296324,0.3,-0.3566666666666667,-0.6311111111111111,0.024538041411630147,0.06534861082673757,-0.8978325271323633
1589985359.971806,-2.7872514861557045,-0.4999669389960899,8.982880757859936,0.30553718833116106,-0.3549264074768732,-0.632060343396453,0.008730252656048185,0.052825830868295565,-0.9423008399309901
1589985359.981806,-2.507496483023459,-0.56,8.92862020455496,0.3388888888888889,-0.34444444444444444,-0.6377777777777778,0.004664347798985453,0.05221867633557951,-0.9908979541795331
1589985359.991806,-2.341104015799868,-0.5699216589861752,8.897165240289665,0.3388888888888889,-0.34444444444444444,-0.6377777777777778,0.015237448239185516,0.05043616623649117,-1.020364981070315
1589985360.001806,-2.557640041599543,-0.6591239625604111,8.922067945920594,0.3388888888888889,-0.34444444444444444,-0.6377777777777778,0.03509770676103118,0.08139300649408063,-1.0573069159514565
1589985360.011806,-2.4995232999922465,-0.7213604714274637,9.019523299992246,0.3388888888888889,-0.34444444444444444,-0.6377777777777778,0.023300659761713475,0.05999569303730508,-1.0915652092507846
1589985360.021806,-2.5450534232767312,-0.7278647747538187,9.065053423276732,0.3388888888888889,-0.34444444444444444,-0.6377777777777778,0.03039575404879557,0.05999569303730508,-1.110721963825906
1589985360.031806,-2.6033147267073766,-0.6724860450305324,8.719115498445285,0.3533333333333333,-0.3377777777777778,-0.6755555555555556,0.07464064695896647,0.09786447641008934,-1.137633932987393
1589985360.041806,-2.6661671599295698,-0.7196253699471772,8.891959689806317,0.3533333333333333,-0.3377777777777778,-0.6755555555555556,0.04207399672502018,0.07129694595608055,-1.1770567201126965
1589985360.051806,-2.8263347563555246,-0.8427148955809391,8.894570208838122,0.3533333333333333,-0.3377777777777778,-0.6755555555555556,0.0416490025129288,0.07823871666950226,-1.2301411714763175
1589985360.061806,-2.8827943156032463,-0.8669118495442483,8.846176300911504,0.3533333333333333,-0.3377777777777778,-0.6755555555555556,0.04340865466131728,0.08527732526305619,-1.2662140405182816
1589985360.071806,-2.8613902205177375,-0.9523841482901885,9.053774368807925,0.35624729235467484,-0.33393664997691846,-0.6797940414047797,0.021975586195412785,0.07887937184698406,-1.3287692492098953
1589985360.081806,-2.660321188878236,-0.9691399009268137,8.86946108980505,0.3767265455772167,-0.30694127072902244,-0.7095820460921133,0.03842550787934694,0.08893210176494382,-1.368066284343738
1589985360.091806,-2.706267388118589,-0.9986630594070567,8.829331529703529,0.37777777777777777,-0.3055555555555556,-0.7111111111111111,0.03170701149005481,0.09571660766506276,-1.4375965305446565
1589985360.101806,-2.6727572016460903,-1.0784324728769175,8.85275720164609,0.37777777777777777,-0.3055555555555556,-0.7111111111111111,0.030690583238924794,0.10114649872925985,-1.4912893316468776
1589985360.111806,-2.5517579268802812,-1.0873797373044425,8.788242073119719,0.37777777777777777,-0.3055555555555556,-0.7111111111111111,0.04956134402342521,0.11055380159801147,-1.5397230039887828
1589985360.121806,-2.4219413737423925,-1.1514029313128804,8.871761892932556,0.38261009674436575,-0.3000997115610207,-0.7087728922563105,0.05142208284351524,0.1070740310700583,-1.5941592909382591
1589985360.131806,-2.32671487914595,-1.2121661178192462,8.870469425970168,0.4122222222222222,-0.26666666666666666,-0.6944444444444444,0.05369880478619625,0.1101502897435518,-1.6735234685719578
1589985360.141806,-2.527971748609624,-1.3503430898979085,9.018284550510456,0.4122222222222222,-0.26666666666666666,-0.6944444444444444,0.06476739058331832,0.13369226513463126,-1.744556536280365
1589985360.1518059,-2.61,-1.4320301476813093,8.735735819772364,0.4122222222222222,-0.26666666666666666,-0.6944444444444444,0.08011803741636772,0.14576709873584906,-1.8335144196463535
1589985360.1618059,-2.61,-1.4877032312413503,8.84960005616062,0.4122222222222222,-0.26666666666666666,-0.6944444444444444,0.05461472501582006,0.14278059736355314,-1.935062044405074
1589985360.1718059,-2.6158430458430457,-1.5177907277907279,9.078052318052318,0.4134124723013612,-0.2641779619557397,-0.6979069901292123,0.03431836704217677,0.13182722496897017,-2.025338252956971
1589985360.1818058,-2.66598111290419,-1.5846414838722531,9.061339629031938,0.423625782258261,-0.24282285931858583,-0.727618437276557,0.04799140377346864,0.14914640482860655,-2.097349579741775
1589985360.1918058,-2.475169473728422,-1.582415263135789,8.64343210550632,0.4244444444444445,-0.2411111111111111,-0.73,0.06010661333317739,0.16595417266729107,-2.208983258929079
1589985360.2018058,-2.4649922023615702,-1.6039781666123976,8.607925142671077,0.4244444444444445,-0.2411111111111111,-0.73,0.047999956791455925,0.15162717994781333,-2.2865855365864625
1589985360.2118058,-2.5009324604548335,-1.7046108892735343,8.952951620366402,0.4244444444444445,-0.2411111111111111,-0.73,0.032318060847856385,0.14378623197601353,-2.3508813099552204
1589985360.2218058,-2.5205031246014538,-1.7221802066063001,8.770167708200484,0.4252457169578711,-0.24001169068571185,-0.7303540506454675,0.07534050049928176,0.18558758603845008,-2.4182323086034883
1589985360.2318058,-2.5572244871405645,-1.869265299041506,8.789632649520753,0.4722222222222222,-0.17555555555555555,-0.7511111111111111,0.07752912899939388,0.19285443045758954,-2.4847744950815547
1589985360.2418058,-2.5749322744104464,-1.941824693042292,8.804796823231339,0.4722222222222222,-0.17555555555555555,-0.7511111111111111,0.0707197331599253,0.18981933158595293,-2.5248091109616797
1589985360.2518058,-2.536337504986039,-2.0253732050259274,8.767083915037894,0.4722222222222222,-0.17555555555555555,-0.7511111111111111,0.06896154321537701,0.1939812697702714,-2.5611128940896712
1589985360.2618058,-2.4761075853732244,-2.1494620731338774,8.89469930492596,0.4722222222222222,-0.17555555555555555,-0.7511111111111111,0.0671482332270378,0.19104900650310624,-2.589998195497469
1589985360.2718058,-2.4560450160771703,-2.232636655948553,8.787363344051446,0.4747856377277599,-0.17511611289746337,-0.7536012861736334,0.07316984229472209,0.20121618943686634,-2.600828200018704
1589985360.2818058,-2.3580563335016755,-2.263547128231027,8.729028166750838,0.5111111111111111,-0.1688888888888889,-0.7888888888888889,0.05943278659189098,0.20711685600363092,-2.6015603878000153
1589985360.2918057,-2.232887838023966,-2.2442904366190715,8.666443919011982,0.5111111111111111,-0.1688888888888889,-0.7888888888888889,0.06100822099034314,0.20344084240724253,-2.5915826366098185
1589985360.3018057,-2.096596171548611,-2.235106332758987,8.538298675856208,0.5111111111111111,-0.1688888888888889,-0.7888888888888889,0.06022780386658743,0.19542122626813352,-2.5800005150147243
1589985360.3118057,-1.9741701273949241,-2.237489617815227,8.448039522519812,0.5111111111111111,-0.1688888888888889,-0.7888888888888889,0.045898622799124024,0.18999466643640855,-2.5619020876685474
1589985360.3218057,-1.9859977506426736,-2.193335207797772,8.97998312982005,0.51244519423022,-0.16970416190612206,-0.791260592211749,0.016437064935242895,0.22660113755566313,-2.536689069679557
1589985360.3318057,-1.948211325160537,-2.261522475189726,8.621256275539988,0.5311111111111111,-0.1811111111111111,-0.8244444444444444,0.056947352724514344,0.2063548725800009,-2.493126421007525
1589985360.3418057,-2.04,-2.3837159690683687,8.890376089358046,0.5311111111111111,-0.1811111111111111,-0.8244444444444444,0.027748983779026633,0.1924941295262158,-2.4633965514626137
1589985360.3518057,-2.067925692153206,-2.475957538373261,8.696595897288768,0.5311111111111111,-0.1811111111111111,-0.8244444444444444,0.041962168048347744,0.14564914692866213,-2.427626458786668
1589985360.3618057,-2.2258662673934873,-2.5662092956534215,8.847015492755702,0.5311111111111111,-0.1811111111111111,-0.8244444444444444,0.03868052154782782,0.17354314218308153,-2.387426289155299
1589985360.3718057,-2.219960541891359,-2.640023674865185,8.959960541891359,0.5310891899396437,-0.1811347859762959,-0.8244470749850206,0.0370882466048795,0.1570723155191704,-2.329990017404301
1589985360.3818057,-2.110497828816036,-2.688122286020045,8.843371200428063,0.4755555555555556,-0.2411111111111111,-0.8311111111111111,0.03838390420838186,0.1421633506668565,-2.252030174047403
1589985360.3918056,-2.0775982532751094,-2.6584061135371178,8.77919213973799,0.4755555555555556,-0.2411111111111111,-0.8311111111111111,0.04175643073958049,0.1540691302579274,-2.191471896855582
1589985360.4018056,-2.0529347467974186,-2.724710168801721,8.7,0.4755555555555556,-0.2411111111111111,-0.8311111111111111,0.03676811539033378,0.15303445355318196,-2.1104927154311883
1589985360.4118056,-2.004162871373476,-2.7572247524176823,8.7,0.4755555555555556,-0.2411111111111111,-0.8311111111111111,0.04208830169358566,0.13264040605738314,-2.048423875226583
1589985360.4218056,-1.972718674441758,-2.76,8.709093775186082,0.4755555555555556,-0.2411111111111111,-0.8311111111111111,0.04254240051736178,0.13486760186040642,-1.9667438273698519
1589985360.4318056,-1.99908651678155,-2.840898988597565,8.66635573020679,0.4577777777777778,-0.11333333333333333,-0.6522222222222223,0.043732876861256154,0.12375999807193683,-1.8681007000416086
1589985360.4418056,-2.0666362816465886,-2.9962634477871544,8.78794530696386,0.4577777777777778,-0.11333333333333333,-0.6522222222222223,0.036364340574737954,0.11933887630002593,-1.815784092407329
1589985360.4518056,-2.03,-3.0204691502394474,8.633753201915582,0.4577777777777778,-0.11333333333333333,-0.6522222222222223,0.04274710592648379,0.11319051961822889,-1.7144761377722828
1589985360.4618056,-2.010054114276619,-3.020794206589209,8.733014483526977,0.4577777777777778,-0.11333333333333333,-0.6522222222222223,0.04807728597749023,0.10631858699551684,-1.6296499722614135
1589985360.4718056,-1.9015750835588094,-2.970726961642528,8.85818259589368,0.4577777777777778,-0.11333333333333333,-0.6522222222222223,0.05444902337546376,0.09721610499841177,-1.5641121018822572
1589985360.4818056,-1.6481266739410771,-2.7362533478821547,8.854876004364646,0.4811111111111111,-0.004444444444444445,-0.6,0.037728342775285,0.08501571111758995,-1.485095559662627
1589985360.4918056,-1.6970550558500077,-2.825644044680006,8.871533932979991,0.4811111111111111,-0.004444444444444445,-0.6,0.02208422446541303,0.06617920809087648,-1.414325942024606
1589985360.5018055,-1.7332608808245429,-2.854608704659634,8.828086943010549,0.4811111111111111,-0.004444444444444445,-0.6,0.04025166152384791,0.08671631085258547,-1.355874188010511
1589985360.5118055,-1.6807616277964683,-2.9068546501682158,8.85,0.4811111111111111,-0.004444444444444445,-0.6,0.04282398750215744,0.06495136272267174,-1.2669346317434576
1589985360.5218055,-1.6887339149607496,-2.978605234646747,8.85,0.4811111111111111,-0.004444444444444445,-0.6,0.011516889017639781,0.05973351297525213,-1.2034507931498521
1589985360.5318055,-1.6168474090314966,-2.930699076611713,8.55011426403002,0.51,0.07444444444444444,-0.6,0.043743707984917744,0.08143884045963917,-1.1019771533197005
1589985360.5418055,-1.7583256735674833,-3.1517588649491923,8.965706666104483,0.51,0.07444444444444444,-0.6,0.023488046946101165,0.07372239815913761,-1.0392810596281252
1589985360.5518055,-1.4904866533502814,-2.770695219071831,8.570747360502219,0.51,0.07444444444444444,-0.6,0.027261289982859756,0.050218030228953874,-0.9644157503451283
1589985360.5618055,-1.5400181155813908,-2.8867089363565785,8.695045288953477,0.51,0.07444444444444444,-0.6,0.021814639546546735,0.033809825947242994,-0.9051863365549999
1589985360.5718055,-1.55,-2.9735067531064288,9.155474878444084,0.51,0.07444444444444444,-0.6,0.010829338983876217,-0.007063232447613733,-0.83599102473997
1589985360.5818055,-1.3122376183091038,-2.5960277129563867,8.406367167683678,0.5511111111111111,0.12,-0.6222222222222222,0.05894325074552365,0.02717615805975955,-0.7362552350352388
1589985360.5918055,-1.5250135520994885,-2.979024393779079,9.09332946820692,0.5511111111111111,0.12,-0.6222222222222222,0.015175343513247556,0.05967051342917665,-0.6865189768167432
1589985360.6018054,-1.54582677794194,-3.0850984306991975,8.760255959749232,0.5511111111111111,0.12,-0.6222222222222222,-0.00031780143709196716,0.015516428662798093,-0.6005989798772634
1589985360.6118054,-1.5113025751072962,-3.036953862660944,8.681302575107296,0.5511111111111111,0.12,-0.6222222222222222,0.020347622393371928,0.025777724189351738,-0.5353333409242327
1589985360.6218054,-1.407097462019131,-2.9116137056889864,8.739676903485652,0.5511111111111111,0.12,-0.6222222222222222,0.013160458114671165,-0.004679747079834873,-0.46768522610348745
1589985360.6318054,-1.4702535240900483,-2.979278876499053,8.841228171681044,0.5681589989947868,0.15409577576735156,-0.6152025036818851,-0.0001339727475872729,0.0014650938371053544,-0.4036817487017928
1589985360.6418054,-1.430589253870209,-2.970235701548084,8.731414209288502,0.57,0.15777777777777774,-0.6144444444444445,0.017234748591431356,0.006506418119358981,-0.33886459646026346
1589985360.6518054,-1.4955181049069375,-3.016798646362098,8.570884602368867,0.57,0.15777777777777774,-0.6144444444444445,0.025621197164894083,0.007565972775597585,-0.28608715046234007
1589985360.6618054,-1.4482219532033216,-2.916443906406643,8.65615922976526,0.57,0.15777777777777774,-0.6144444444444445,0.020531830049579054,-0.008501638037770199,-0.2413746662027063
1589985360.6718054,-1.4534217087765957,-2.9971085438829785,8.70561447251773,0.57,0.15777777777777774,-0.6144444444444445,0.02876377166731097,0.0028519471023314372,-0.16727818729751406
1589985360.6818054,-1.3784305440430222,-3.002810181347674,9.026627782382791,0.5644444444444444,0.18222222222222226,-0.6288888888888889,0.01400959908548953,-0.006054515524028304,-0.07970236500641083
1589985360.6918054,-1.5056256191496675,-3.0452085397165556,8.975749752340134,0.5644444444444444,0.18222222222222226,-0.6288888888888889,0.027884429416317275,0.0013453939857464925,-0.014953156795881356
1589985360.7018054,-1.3836819991694556,-2.8591547988372374,8.679188264894838,0.5644444444444444,0.18222222222222226,-0.6288888888888889,0.009625781592159596,-0.017644987970251807,0.061757457895881315
1589985360.7118053,-1.36096350779273,-2.79481753896365,8.61385403117092,0.5644444444444444,0.18222222222222226,-0.6288888888888889,0.014535914183310862,-0.0028775715136210127,0.1505377953807568
1589985360.7218053,-1.4361890391115404,-2.9423780782230806,8.876661636890391,0.5644444444444444,0.18222222222222226,-0.6288888888888889,-0.0005191453838715929,-0.022699261561937058,0.22824205404038908
1589985360.7318053,-1.5094424829624764,-3.047682896789556,8.83639379259381,0.6349457627427905,0.18680022990393297,-0.6343824981069418,0.001736963737987829,-0.01686797523908162,0.33789144040994723
1589985360.7418053,-1.4564072628299252,-2.9455330730938654,8.86087418973606,0.65,0.18777777777777774,-0.6355555555555555,-0.004358088329826294,-0.0336040964419847,0.4219084462097659
1589985360.7518053,-1.42,-2.8298894728706134,8.589336837223682,0.65,0.18777777777777774,-0.6355555555555555,-0.009637681351969287,-0.04381302699035705,0.5594536195507483
1589985360.7618053,-1.457188965108819,-2.8447926434058792,8.54859448255441,0.65,0.18777777777777774,-0.6355555555555555,-0.01387416383345675,-0.05174660488183552,0.6475187064872603
1589985360.7718053,-1.4865173905519986,-2.8339304377920054,8.742486935455961,0.65,0.18777777777777774,-0.6355555555555555,-0.012096839596043844,-0.0652544449726217,0.7647643790358797
1589985360.7818053,-1.394540690835205,-2.7381777350016043,8.955914875414393,0.8401610047647904,0.22641606958257582,-0.706013617081952,-0.026924540735286016,-0.08692023377259109,0.8920560067023712
1589985360.7918053,-1.3606626678091975,-2.761491002570694,8.451739502999143,0.9288888888888888,0.24444444444444444,-0.7388888888888889,-0.003624885839349834,-0.05058482387006058,1.0861446656816183
1589985360.8018053,-1.420564124535847,-2.8962692802056553,8.608980826906597,0.9288888888888888,0.24444444444444444,-0.7388888888888889,-0.03547928288483158,-0.08733989738407796,1.15557091565254
1589985360.8118052,-1.51501720942547,-3.052525814138205,8.61311424410908,0.9288888888888888,0.24444444444444444,-0.7388888888888889,-0.0243342340345511,-0.10131137823863463,1.253790995260087
1589985360.8218052,-1.551653761061947,-3.0346769911504423,8.787261061946904,0.9288888888888888,0.24444444444444444,-0.7388888888888889,-0.0436247846013212,-0.09730379513839127,1.2919664640711432
1589985360.8318052,-1.5621059066571104,-3.0278940933428897,8.65317719971331,1.2516695944648217,-0.27393435173864356,-1.3423484688786769,-0.04529902588532997,-0.10437451009734851,1.3352897366120484
1589985360.8418052,-1.630683437754077,-3.127189726911856,8.86389832129705,1.3377777777777775,-0.4122222222222222,-1.5033333333333334,-0.02904925831726836,-0.09340827448455927,1.3629253716422163
1589985360.8518052,-1.6058399944714474,-3.1143799958535854,8.703579968210821,1.3377777777777775,-0.4122222222222222,-1.5033333333333334,-0.03751803559162986,-0.11398745706617894,1.3545413040173246
1589985360.8618052,-1.6433319540453704,-3.231329471327037,8.71333195404537,1.3377777777777775,-0.4122222222222222,-1.5033333333333334,-0.029816342302190026,-0.08661295714626538,1.3412858912543866
1589985360.8718052,-1.703195506741971,-3.2879967905299794,8.795993581059959,1.3377777777777775,-0.4122222222222222,-1.5033333333333334,-0.02836160034490785,-0.09093088381139189,1.3146713596579451
1589985360.8818052,-1.72,-3.255725749449087,8.807350214128311,0.9020629310862565,-0.228800327082727,-1.019830406682097,-0.02629178397178373,-0.09243156971261247,1.2805976033711821
1589985360.8918052,-1.7105469632630799,-3.21582044489462,8.81890607347384,0.6488888888888888,-0.12222222222222222,-0.7388888888888889,-0.025089107997418484,-0.09111420255666719,1.2359754668328877
1589985360.9018052,-1.6836772777167948,-3.17823637028906,8.720300036589828,0.6488888888888888,-0.12222222222222222,-0.7388888888888889,-0.02449559706672978,-0.08282331284825267,1.1640146316681363
1589985360.9118052,-1.7277634695876747,-3.1652512245079705,8.725024490159408,0.6488888888888888,-0.12222222222222222,-0.7388888888888889,-0.02628955615055961,-0.07635815477475191,1.0876572216717109
1589985360.9218051,-1.774817013194044,-3.123353118746396,8.762987145134485,0.6488888888888888,-0.12222222222222222,-0.7388888888888889,-0.03062310496619176,-0.07579277861943094,0.9985352803108483
1589985360.9318051,-1.7581779633930665,-3.038622871875732,8.698177963393066,0.6140795588795844,-0.02173491106328676,-0.7172151551095106,-0.023697834465043505,-0.06430585876600882,0.8923296104111155
1589985360.9418051,-1.7318903215536454,-2.7836290194205664,8.762438713785418,0.59,0.04777777777777778,-0.7022222222222222,-0.03720788723033956,-0.07153914672261291,0.7372590907624572
1589985360.951805,-1.8460995011899717,-2.8760995011899717,8.711950249405014,0.59,0.04777777777777778,-0.7022222222222222,-0.028012582860494198,-0.06464266844522888,0.6501191073536764
1589985360.961805,-1.8310454189506657,-2.9005227094753327,8.68,0.59,0.04777777777777778,-0.7022222222222222,-0.018371572152820106,-0.03932543205465101,0.5182511848339109
1589985360.971805,-1.9001074350297336,-2.9620859480237867,8.764100272694417,0.59,0.04777777777777778,-0.7022222222222222,-0.012211054447290879,-0.03119463522106393,0.42403141024916846
1589985360.981805,-1.9069144813574626,-2.9237360322058765,8.846542759321268,0.59,0.06031185856837688,-0.711069808662645,-0.007278963313969917,-0.027280906708401716,0.29490952282167515
1589985360.991805,-1.9134602418189652,-2.8967301209094827,8.818174697726294,0.59,0.06666666666666668,-0.7155555555555555,-0.0047200116066836075,-0.025267452235767377,0.1444868427856177
1589985361.001805,-1.8537466944591356,-2.7950989328936315,8.749267803254208,0.59,0.06666666666666668,-0.7155555555555555,-0.005567842215421119,-0.016657474399371416,0.0576175882658759
1589985361.011805,-1.6982586628428773,-2.829376502264357,8.709495858134664,0.5827650604688268,0.05762299225270022,-0.7117873578830695,0.015947485342818143,0.06742640032417646,-0.2793081575440709
1589985361.021805,-1.3737463507226344,-3.2101376151521093,8.739783673932553,0.5596886293847206,0.028777453397567494,-0.6997683833600976,0.08768905726641621,0.31380206179863823,-1.1841015350278703
1589985361.031805,-1.05,-3.59,8.77,0.5366666666666666,0.0,-0.6877777777777778,0.15926129424448254,0.559596191420682,-2.0867592869157203
1589985361.041805,-1.0843600953895072,-3.436524907260201,8.673791732909379,0.5366666666666666,0.0,-0.6877777777777778,0.13527342241063361,0.3671934694200186,-2.250176663783816
1589985361.051805,-1.167712639109698,-3.0642168786433492,8.440404610492845,0.5366666666666666,0.0,-0.6877777777777778,0.07708236929743953,-0.09954726909205902,-2.6466032131174506
1589985361.061805,0.711220573272989,-1.1124541276356876,3.630547310809389,0.5366666666666666,0.0,-0.6877777777777778,-0.4415861961506253,-0.6540373454022239,-3.7988102205954943
1589985361.071805,2.6986966572047955,0.8658604912986718,-1.8576548932245818,0.5366666666666666,0.0,-0.6877777777777778,-0.9578928539099529,-1.0000452791236756,-5.058704975109707
1589985361.081805,1.3523893020971818,-0.018281652354089628,-0.8228067023582815,0.5366666666666666,0.0,-0.6877777777777778,-0.6099238702944639,-0.5687829325010144,-5.228579597032229
1589985361.091805,0.16830870403265433,-0.5491511394988473,-0.06,0.5403708462988859,0.06343407620175451,-0.6660157224384897,-0.37388487893537753,-0.24998193751167264,-5.185151553696581
1589985361.101805,-0.03666102538576406,-0.39055649576903934,-0.07583474365355898,0.5455555555555556,0.15222222222222226,-0.6355555555555555,-0.41172883917332154,-0.19746610850547242,-4.811490821231489
1589985361.111805,0.002894144144144146,-0.3401295045045045,-0.1270626876876877,0.5455555555555556,0.15222222222222226,-0.6355555555555555,-0.418103891848284,-0.11461728374545298,-4.610642394300957
1589985361.121805,-0.03646677927927927,-0.20236627252252254,-0.21234468843843846,0.5455555555555556,0.15222222222222226,-0.6355555555555555,-0.41381028115850843,-0.02946067173157013,-4.431741948893639
1589985361.131805,1.9567573221757324,-1.99385025884689,3.211715126586767,0.5455555555555556,0.15222222222222226,-0.6355555555555555,-0.40751808866187345,0.018423308823001142,-4.316006130410872
1589985361.141805,4.150428870292887,-3.9755908268917093,6.981855719452522,0.5455555555555556,0.15222222222222226,-0.6355555555555555,-0.4010288020140827,0.06263157411107578,-4.206499418229403
1589985361.151805,3.9859753406878653,-3.5919169370538606,6.057827384815055,0.5272023938279616,0.1892622395270027,-0.6425631263970005,0.5000230979791914,-0.10406440720373815,-3.8253330330763853
1589985361.161805,-0.22942243750256558,0.711778046878207,-2.3000453593859036,0.4844444444444445,0.27555555555555555,-0.6588888888888889,2.056816875252317,-0.6340535194877999,-3.028460457686159
1589985361.171805,0.08048848569434752,0.3243893928820657,-0.9829239357990227,0.4844444444444445,0.27555555555555555,-0.6588888888888889,0.9646940531510195,-0.7603566317600481,-2.806843100836713
1589985361.181805,0.3542655636372087,-0.2647054586015383,2.3929798061952456,0.48092208305254114,0.2841853409657188,-0.6555426455665807,-0.05909680264207103,-0.4592776810923055,-2.5047294042610155
1589985361.191805,0.533738260634484,-1.7117647542814156,14.23231472665938,0.4622222222222222,0.33,-0.6377777777777778,-0.5583976328123978,1.691493533993261,-1.8759060316719975
1589985361.2018049,1.2929589665832129,-2.0174250384945402,12.565973177239442,0.4622222222222222,0.33,-0.6377777777777778,0.03316045058586181,1.6248088045920028,-1.8016923812093066
1589985361.2118049,1.8159882005899706,-2.3971386430678465,11.349520648967552,0.4622222222222222,0.33,-0.6377777777777778,0.3687643558346998,1.269149437535438,-1.6588157522356282
1589985361.2218049,0.813676063465603,-2.3593641532462124,9.903106748429732,0.45837955658751656,0.34376955185769525,-0.6445024426385126,-0.2780007074010877,-0.1263341515960112,-1.1623007372690084
1589985361.2318048,0.30176495103146483,-1.1232861012710982,3.866301312773494,0.45005579866175827,0.3735963510916626,-0.6590690190085897,0.38868444254880696,0.04186935406039738,-0.9130599151222653
1589985361.2418048,0.2505556847244827,-1.3656816244284276,4.5297008447647835,0.4488888888888889,0.37777777777777777,-0.6611111111111111,0.41288574946935924,0.07990007885934243,-0.8277921101556792
1589985361.2518048,0.26967102325165976,-2.79516448837417,9.964328202685405,0.4488888888888889,0.37777777777777777,-0.6611111111111111,-0.003451499143557135,0.08911131729206445,-0.5852240085496628
1589985361.2618048,0.15187540870762348,-3.4446787127860956,11.551391843056273,0.4488888888888889,0.37777777777777777,-0.6611111111111111,-0.14503202521846806,-0.07349338647812856,-0.31867798166083755
1589985361.2718048,0.0957778072736926,-2.6632352594165707,8.255335810990179,0.4488888888888889,0.37777777777777777,-0.6611111111111111,0.08190917168079537,0.005025823534876045,-0.13260740086345374
1589985361.2818048,0.030002299555419287,-2.0842288824160664,6.1583703817262,0.4453972269065018,0.390157306624423,-0.6585717205784659,0.1986914072111711,0.10409900333909457,0.05858645940184631
1589985361.2918048,-0.02408215098966544,-3.1689604133823788,10.138113504992118,0.43666666666666665,0.4211111111111111,-0.6522222222222223,-0.021498576091781366,-0.006774557857558788,0.2803308048050336
1589985361.3018048,-0.07397843665768195,-3.008637915543576,9.537749146451034,0.43666666666666665,0.4211111111111111,-0.6522222222222223,-0.16195753783467037,-0.08169814878647483,0.44827350918388603
1589985361.3118048,-0.16068247842865196,-2.840919654858431,8.445830117504228,0.43666666666666665,0.4211111111111111,-0.6522222222222223,0.010484329715685706,-0.0440370132185233,0.686544526640496
1589985361.3218048,-0.20859805179654692,-3.0007399090060662,8.948308737750816,0.43666666666666665,0.4211111111111111,-0.6522222222222223,0.03418988427378532,-0.03311543758639461,0.8720732396982898
1589985361.3318048,-0.24965469558689898,-3.1704247165264117,9.357821105448224,0.43384092994262485,0.4171550796974525,-0.6640903164631978,-0.031361762096427284,-0.08959012912019616,1.0167687982902562
1589985361.3418047,-0.27006650757012635,-3.1103325378506317,8.85412033957983,0.4311111111111111,0.4133333333333333,-0.6755555555555556,-0.03525084903278198,-0.07335737791539505,1.1931842187687056
1589985361.3518047,-0.2967143717382577,-3.0085688478522683,8.411848454435969,0.4311111111111111,0.4133333333333333,-0.6755555555555556,-0.026522733776518002,-0.08316853408865155,1.331780807569152
1589985361.3618047,0.8428452204794319,-4.249626516720923,8.307055341817106,0.4311111111111111,0.4133333333333333,-0.6755555555555556,-0.037473055806636166,-0.08988891148356724,1.469950748074936
1589985361.3718047,0.025406312857805924,-2.717853628345969,8.11385780597246,0.4311111111111111,0.4133333333333333,-0.6755555555555556,-0.17864015711074602,-0.13626938986318476,0.9932146092492081
1589985361.3818047,-1.1719351100811124,-1.4636848203939745,8.245782155272305,0.45554139307325864,0.40844727694090377,-0.6662276297154629,-0.5476741567271632,-0.1616730035527134,-1.349360205945295
1589985361.3918047,-0.6202202904532206,-3.4512778909897595,11.963943818195888,0.4922222222222222,0.4011111111111111,-0.6522222222222223,-0.1057403249981943,0.28095129465208113,-4.249435325802647
1589985361.4018047,0.11578684948582113,-2.6023792458709876,8.86023254908071,0.4922222222222222,0.4011111111111111,-0.6522222222222223,0.8810283135260641,0.6816458874802916,-4.032875082407037
1589985361.4118047,-0.170968193577842,-2.4554122660173485,4.624686957845077,0.4922222222222222,0.4011111111111111,-0.6522222222222223,0.9536630032696096,0.5019082919265376,-3.6545831620808698
1589985361.4218047,-0.6056558618600424,-2.2749409269918206,6.393848833686762,0.4922222222222222,0.4011111111111111,-0.6522222222222223,0.11179098883648808,0.285602531546315,-2.3412970991226345
1589985361.4318047,-0.5997717850362276,-1.0773551861753652,9.020351040334766,0.48471295542898474,0.4054021207072468,-0.6536525587542675,-0.5427243456470211,0.18548396346420934,-0.3817683308831165
1589985361.4418046,3.577470664928292,-5.570992829204693,8.167263037809649,0.4455555555555555,0.42777777777777776,-0.6611111111111111,0.04581489286485115,-0.4570580978660151,1.523890603147549
1589985361.4518046,2.501625615763547,-5.08643929763229,9.602717702208803,0.4455555555555555,0.42777777777777776,-0.6611111111111111,-0.09774341297954478,-0.054411230521495046,1.6736014078138477
1589985361.4618046,-0.3389091846505119,-2.321956004026417,10.178780535709901,0.4455555555555555,0.42777777777777776,-0.6611111111111111,0.011408261890606064,0.1606427829161159,0.5414588766814035
1589985361.4718046,-0.5646773416530936,-2.1932756761716865,9.66498451515221,0.4455555555555555,0.42777777777777776,-0.6611111111111111,0.26045738891856124,0.12108109076719786,-0.32214451904724983
1589985361.4818046,-0.5292555917986952,-3.8560274930102514,9.294471691519105,0.4455555555555555,0.4312077379103241,-0.6674810370715543,0.10943482797074885,0.05228521969814342,-0.426996267971432
1589985361.4918046,-1.5400735639380185,-5.7500735639380185,9.032804820785726,0.4455555555555555,0.4355555555555555,-0.6755555555555556,-0.15013819954548185,-0.008567008322636509,-0.48473316971250086
1589985361.5018046,-0.8261931993288361,-4.975502859295278,8.93471235831935,0.4455555555555555,0.4355555555555555,-0.6755555555555556,0.009091700851532034,-0.00878939993988789,-0.12392581768507319
1589985361.5118046,-0.10378564405113078,-3.904493608652901,8.776833824975418,0.4455555555555555,0.4355555555555555,-0.6755555555555556,0.07706928634682188,0.01637426030048269,0.09735101620545067
1589985361.5218046,-0.20600879729059973,-4.230590203205023,8.647406864364777,0.4455555555555555,0.4355555555555555,-0.6755555555555556,0.0038382267823071445,0.00691757558260659,0.03401894469308562
1589985361.5318046,0.050311645708037186,-4.281249620314683,8.730937974606645,0.4340450492409669,0.44368061883644166,-0.6667534036679289,0.007550661625612732,-0.010601356352725716,-0.0046359479911236914
1589985361.5418046,-0.006174981579635395,-4.208524944738906,8.825300073681458,0.4266666666666667,0.4488888888888889,-0.6611111111111111,0.002533440426897503,-8.045178423422405e-05,-0.0008344895673099359
1589985361.5518045,-0.006717633410672854,-4.263893967517402,8.601447563805104,0.4266666666666667,0.4488888888888889,-0.6611111111111111,-0.0073111224819149365,0.0011075096104701256,-0.0007161013030151909
1589985361.5618045,0.029150214793774498,-4.280424892603112,8.551775393788587,0.4266666666666667,0.4488888888888889,-0.6611111111111111,-0.0012762251547886305,0.002181661564992912,-0.0007117709906399562
1589985361.5718045,0.019149011750998195,-4.308563735311252,8.616994614717877,0.4266666666666667,0.4488888888888889,-0.6611111111111111,0.007058478208389724,0.002181661564992912,-0.001090830782496456
1589985361.5818045,-0.028529064893360045,-4.3681613311167,8.65871293178169,0.4266666666666667,0.4488888888888889,-0.6611111111111111,0.012909458494452495,0.002181661564992912,-0.001090830782496456
1589985361.5918045,-0.06029804344993206,-4.254850978275034,8.717574510862484,0.4533333333333333,0.44222222222222224,-0.6755555555555556,0.0038991864811644262,0.0019170817436114812,0.002743332704726506
1589985361.6018045,-0.02866418307610431,-4.270445272307965,8.703320915380523,0.4533333333333333,0.44222222222222224,-0.6755555555555556,-0.004800468196095367,0.000993687434472113,0.001090830782496456
1589985361.6118045,0.01588467133976987,-4.287942335669885,8.56,0.4533333333333333,0.44222222222222224,-0.6755555555555556,-0.012448051325727906,-0.001957205205859466,0.00022445635913344612
1589985361.6218045,0.023622525334587592,-4.291811262667294,8.609132423996238,0.4533333333333333,0.44222222222222224,-0.6755555555555556,-0.005351213666321179,-0.004165745022718753,-0.0001975781072670709
1589985361.6318045,0.0,-4.285911858808959,8.682955929404478,0.45530395293631953,0.44419284182520846,-0.6624180915356476,0.003025482053671923,-0.004809270155423791,0.0014132726610257005
1589985361.6418045,-0.006277753242060465,-4.287444493515879,8.715111012968242,0.46,0.4488888888888889,-0.6311111111111111,0.006608620505271719,-0.003272492347489368,0.0018392632409250879
1589985361.6518044,-0.0032931132994992104,-4.255823278324875,8.69899573152287,0.46,0.4488888888888889,-0.6311111111111111,0.00026283621415376917,-0.0028168826901746953,0.0015464404398111288
1589985361.6618044,0.0029881392183550466,-4.267011860781645,8.59432937973945,0.46,0.4488888888888889,-0.6311111111111111,-0.0057634382692849885,-0.000635239780979367,0.0009445241377820761
1589985361.6718044,-0.02214707277730335,-4.323389695417022,8.597852927222696,0.46,0.4488888888888889,-0.6311111111111111,-0.0026500801805414416,0.003272492347489368,-0.00023420930777426504
1589985361.6818044,0.0,-4.31628127322269,8.655578090165964,0.4573645859136322,0.4488888888888889,-0.6451666529050725,0.004337754672518961,0.0028412737259841583,0.001750442943487702
1589985361.6918044,0.0,-4.253656621691505,8.731074702646797,0.4533333333333333,0.4488888888888889,-0.6666666666666666,0.0047621986800896,-0.0006919552323926799,0.0005161074230193378
1589985361.7018044,-0.005701479274475982,-4.264208875646856,8.675880769431812,0.4533333333333333,0.4488888888888889,-0.6666666666666666,-0.0009280129841890685,-0.002650557437652972,-0.0012438698196727922
1589985361.7118044,-0.005216959009473783,-4.2804339180189475,8.615216959009473,0.4533333333333333,0.4488888888888889,-0.6666666666666666,-0.005881236520693537,-0.0016599127303520782,-0.002181661564992912
1589985361.7218044,0.010393220214350057,-4.28039322021435,8.612598305053586,0.4533333333333333,0.4488888888888889,-0.6666666666666666,-0.008443215146494711,-0.001657693009450329,-0.0013313682245621027
1589985361.7318044,0.03729163308076737,-4.305937449621151,8.625416733838465,0.45243054436025576,0.4488888888888889,-0.6656886452791659,-0.006823363725881829,-0.003198633097344517,0.0010169715323516048
1589985361.7418044,-0.005268597356038539,-4.28688018149227,8.7,0.44,0.4488888888888889,-0.6522222222222223,0.005512752765295079,0.00011719770562559993,0.000574714817654628
1589985361.7518044,-0.01,-4.2867002164913215,8.661943104561509,0.44,0.4488888888888889,-0.6522222222222223,0.005507143869214893,0.0016627411521109906,0.0005719103696145345
1589985361.7618043,-0.005867566087232264,-4.2747946034766064,8.615867566087232,0.44,0.4488888888888889,-0.6522222222222223,0.0012078728469102989,0.0019923880062323205,-0.00045077861186793207
1589985361.7718043,-0.008531684087810468,-4.3142658420439055,8.622797526131716,0.44,0.4488888888888889,-0.6522222222222223,-0.003272492347489368,0.002807161166013425,0.0003051627619313725
1589985361.7818043,-0.015244876182065718,-4.315244876182066,8.644755123817935,0.43841495872735525,0.4488888888888889,-0.6543356105857486,-0.0009383264016562132,0.0008849027061967145,0.0014036062497151934
1589985361.7918043,0.0,-4.3,8.66020189274448,0.43333333333333335,0.4488888888888889,-0.6611111111111111,0.00658903085906692,-0.003228446183401183,-0.0010247615363641785
1589985361.8018043,0.0,-4.2913668883090645,8.664244592206042,0.43333333333333335,0.4488888888888889,-0.6611111111111111,0.007784919861851443,-0.0007769219831230544,0.002181661564992912
1589985361.8118043,0.0,-4.2701853379345165,8.650123558623012,0.43333333333333335,0.4488888888888889,-0.6611111111111111,0.005474371144895858,-6.739077471192619e-06,0.002181661564992912
1589985361.8218043,-0.01251311219375743,-4.292460663418727,8.65,0.43333333333333335,0.4488888888888889,-0.6611111111111111,-0.0070989819969729615,-0.0002741380140817803,-0.0008166927684146757
1589985361.8318043,-0.006632198374094357,-4.293393652845334,8.65,0.43333333333333335,0.4488888888888889,-0.6611111111111111,-0.009082736705892205,-0.001090830782496456,0.0
1589985361.8418043,0.010485730083790567,-4.320971460167581,8.654757134958105,0.43333333333333335,0.4488888888888889,-0.6611111111111111,0.001397813976422184,-0.0005719078576173946,0.0005189229248790614
1589985361.8518043,0.0,-4.285906040268456,8.631812080536912,0.43333333333333335,0.4488888888888889,-0.6611111111111111,0.006544984694978735,0.0005124708374144424,0.0005783599450820136
1589985361.8618042,-0.00974370112945265,-4.260256298870547,8.619487402258905,0.43333333333333335,0.4488888888888889,-0.6611111111111111,0.0038878024131156264,-0.0010349150429940313,0.0005314364563726218
1589985361.8718042,-0.01390140048567912,-4.274394398057283,8.652197199028642,0.43333333333333335,0.4488888888888889,-0.6611111111111111,-0.0005723042375883321,-0.003272492347489368,0.001090830782496456
1589985361.8818042,-9.664867578762395e-05,-4.329903351324212,8.679903351324212,0.43333333333333335,0.4488888888888889,-0.6610681561440944,-0.0043580517624539905,-0.0032619496124257023,0.001096102150028289
1589985361.8918042,-0.013453020993343574,-4.306726510496672,8.666546979006656,0.43333333333333335,0.4488888888888889,-0.6522222222222223,0.000298330768920082,-0.0014479130941374009,0.001824579253351967
1589985361.9018042,-0.004870690658534882,-4.285387928024395,8.645905165390255,0.43333333333333335,0.4488888888888889,-0.6522222222222223,0.007104505547240413,-0.0011190417045233551,0.001090830782496456
1589985361.9118042,-0.01,-4.279121649484535,8.646486597938145,0.43333333333333335,0.4488888888888889,-0.6522222222222223,0.004554949486003758,0.0,9.581317800896709e-05
1589985361.9218042,-0.01,-4.29,8.683124693083519,0.43333333333333335,0.4488888888888889,-0.6522222222222223,-0.0015682366468111894,0.0003749898211804101,-0.0007158409613160458
1589985361.9318042,-0.008215578362834052,-4.291784421637166,8.666431156725668,0.43928140545721983,0.4476992744641116,-0.654799720142573,-0.00833734584981698,0.0007015303723417884,-0.00019465020507733376
1589985361.9418042,0.0,-4.304202711734938,8.641594576530125,0.4666666666666667,0.44222222222222224,-0.6666666666666666,-0.005628095228892962,-0.001090830782496456,-0.000403163682932126
1589985361.9518042,0.0,-4.316819912362618,8.603639824725235,0.4666666666666667,0.44222222222222224,-0.6666666666666666,-0.0007940865706356644,-0.001090830782496456,0.002008214690698256
1589985361.9618042,0.0,-4.301755261834638,8.573510523669277,0.4666666666666667,0.44222222222222224,-0.6666666666666666,0.005779107238752865,-0.001090830782496456,0.0011865654645246899
1589985361.9718041,0.0,-4.281512503967525,8.661512503967526,0.4666666666666667,0.44222222222222224,-0.6666666666666666,0.005720041751766719,-0.0003299771772848069,-0.00016498858864240346
1589985361.9818041,0.0,-4.288519236230601,8.668519236230601,0.4666666666666667,0.44222222222222224,-0.6666666666666666,0.001898462133129471,-0.001858609024739706,-0.000929304512369853
1589985361.9918041,-0.01771459493585263,-4.317714594935853,8.67,0.44,0.4488888888888889,-0.6611111111111111,-0.005921737146367426,0.0007168822533296701,-0.0012154802922187179
1589985362.001804,0.0,-4.300926700111482,8.661659698996656,0.44,0.4488888888888889,-0.6611111111111111,-0.0007875688801719813,-0.0018783996626684373,-0.0016762250611187875
1589985362.011804,-0.0027963627409596176,-4.30720363725904,8.591185450963838,0.44,0.4488888888888889,-0.6611111111111111,0.002486697420679403,0.0004807590711234732,0.0029674564918028765
1589985362.021804,-0.01,-4.299479463625805,8.622342413683876,0.44,0.4488888888888889,-0.6611111111111111,0.003187319782432233,-0.001090830782496456,0.0021532707099738667
1589985362.031804,-0.008886067564583794,-4.2822278648708325,8.71,0.4392573783763892,0.4488888888888889,-0.6650717597703687,-0.0009720894321385949,-0.0012123419615137803,0.0009693196034791316
1589985362.041804,0.0,-4.300597950487727,8.708206148536817,0.43333333333333335,0.4488888888888889,-0.6966666666666667,-0.008400514860760643,-0.001985982725466309,-0.00019567883952660307
1589985362.051804,0.00356284766044968,-4.30643715233955,8.647934371055953,0.43333333333333335,0.4488888888888889,-0.6966666666666667,-0.0017179067869437716,0.001090830782496456,-0.001329260396807372
1589985362.061804,0.006672597042513863,-4.290017791127541,8.616619223659889,0.43333333333333335,0.4488888888888889,-0.6966666666666667,0.0021797208540351434,0.0007278674253168936,0.0018186982078133495
1589985362.071804,0.0,-4.267306225127327,8.68077509949069,0.43333333333333335,0.4488888888888889,-0.6966666666666667,0.004951013640431158,0.0,0.0005031402720511212
1589985362.081804,0.0,-4.26,8.71,0.43465312411304385,0.4510885401884064,-0.6924873291975834,0.005033332865567366,-0.00021595026134448147,-0.0006589302598074931
1589985362.091804,-0.0063069413218286045,-4.272613882643657,8.687925705373601,0.44,0.46,-0.6755555555555556,-0.001778811356221409,-0.001090830782496456,0.001090830782496456
1589985362.101804,-0.017803706801197833,-4.302196293198802,8.622429654409583,0.44,0.46,-0.6755555555555556,-0.0027933355017611653,-0.001090830782496456,0.001090830782496456
1589985362.111804,-0.007328256809178793,-4.307328256809178,8.570686972763285,0.44,0.46,-0.6755555555555556,0.0006578210467873889,-0.000507946839401841,0.00021650486785453353
1589985362.121804,0.0,-4.297926553672316,8.612440677966102,0.44,0.46,-0.6755555555555556,0.005001798096463975,0.0009777418284918798,-0.0019554836569837595
1589985362.131804,0.0,-4.283987371219674,8.696075772681954,0.44,0.46,-0.6755555555555556,0.001960740236028691,0.00021747736338305877,-0.00043495472676611754
1589985362.141804,-0.018204691868238726,-4.280897654065881,8.717307037802358,0.4455555555555555,0.4544444444444444,-0.6755555555555556,-0.002671255908540762,-0.0020837426962833417,0.0008949930450773159
1589985362.151804,-0.0012106478667801152,-4.28939467606661,8.69181597180017,0.4455555555555555,0.4544444444444444,-0.6755555555555556,-0.007305662487513338,-0.0011568613804888268,-0.0009587695865117144
1589985362.161804,-0.0075958158130557665,-4.3,8.579233473495554,0.4455555555555555,0.4544444444444444,-0.6755555555555556,-0.001657149941410915,-0.0007867674353729953,0.0019194057532019135
1589985362.171804,-0.0003677534983111599,-4.3,8.637057972013512,0.4455555555555555,0.4544444444444444,-0.6755555555555556,-8.023136726571399e-05,-0.0031521452965907965,0.001130946466129313
1589985362.181804,-0.018216012896292315,-4.29,8.701783987103708,0.44506000358230335,0.45394889247119224,-0.6742671204251001,0.004363323129985824,-0.000993529380081404,0.000993529380081404
1589985362.191804,-0.0008791799280783684,-4.29,8.719120820071922,0.44024421664668845,0.44913310553557734,-0.661746074392501,0.004363323129985824,-4.795182644504528e-05,4.795182644504528e-05
1589985362.201804,-0.0033750062384588515,-4.296624993761541,8.636249937615412,0.44,0.4488888888888889,-0.6611111111111111,-1.3637426312090818e-05,-0.001445349425787214,0.000722674712893607
1589985362.211804,-0.013580832751802746,-4.293580832751803,8.587904163759013,0.44,0.4488888888888889,-0.6611111111111111,-0.002181661564992912,-0.0007812165185275852,0.0003906082592637926
1589985362.221804,-0.014643243848710002,-4.297321621924355,8.636070268453869,0.44,0.4488888888888889,-0.6611111111111111,-0.0007208329389543188,-0.002181661564992912,0.001090830782496456
1589985362.231804,-0.0008925587339034699,-4.28732232379829,8.684462793669518,0.4404958659632797,0.4493847548521686,-0.6611111111111111,0.002980403184850978,-0.0018895724023545214,0.0009934677282836591
1589985362.241804,-0.013222999293801399,-4.272891997175205,8.710662004237191,0.4455555555555555,0.4544444444444444,-0.6611111111111111,-0.0010547240524928715,0.001090830782496456,-0.0003515746841642905
1589985362.2518039,-0.01707795164266373,-4.3,8.643701564783974,0.4455555555555555,0.4544444444444444,-0.6611111111111111,-0.003591238377101929,0.00045333872327133395,-0.001090830782496456
1589985362.2618039,-0.01,-4.309808665401644,8.57754783364959,0.4455555555555555,0.4544444444444444,-0.6611111111111111,-0.004630812983868869,-0.0013583206363795013,-0.0008233409286134105
1589985362.2718039,-0.009306289006241,-4.335144023043687,8.57693710993759,0.4455555555555555,0.4544444444444444,-0.6611111111111111,-0.005000121128793164,-0.0019546451731483542,-0.0001513442612297051
1589985362.2818038,-0.001561726799364822,-4.280932087595553,8.654382732006352,0.4455555555555555,0.4544444444444444,-0.6611111111111111,6.868298253836797e-05,0.0005797568825174119,-0.001840945631673549
1589985362.2918038,-0.0013710495881422739,-4.271371049588142,8.701371049588142,0.4455555555555555,0.44222222222222224,-0.6522222222222223,0.002181661564992912,-0.002032103255485444,0.0013899474015113922
1589985362.3018038,-0.01,-4.288022115585228,8.692351345712497,0.4455555555555555,0.44222222222222224,-0.6522222222222223,0.001831630740148441,-0.001090830782496456,0.002572430697800426
1589985362.3118038,-0.007707795989683002,-4.318538979948415,8.602292204010316,0.4455555555555555,0.44222222222222224,-0.6522222222222223,-0.0005000813388431211,-0.0008407901130748955,-0.0003407087742317743
1589985362.3218038,-0.0007283467842582585,-4.283641733921291,8.60927165321574,0.4455555555555555,0.44222222222222224,-0.6522222222222223,-0.0020227609464726695,-7.945030926012121e-05,0.0019433106372125483
1589985362.3318038,0.00838583759415031,-4.2894619458647165,8.672690270676416,0.44489793383465376,0.44222222222222224,-0.6518037356725576,0.0013256011878630398,-0.002240354166334558,0.000973445579813164
1589985362.3418038,-0.014673703886964649,-4.281775432037679,8.711122839811608,0.43550330582382923,0.44222222222222224,-0.6458253360293055,0.004679475544910256,-0.0030788227555963617,-0.0007034915987104437
1589985362.3518038,-0.01,-4.28,8.669555577869264,0.43333333333333335,0.44222222222222224,-0.6444444444444445,0.0003787622096468265,-0.0001424137145699259,-0.0008060033533566042
1589985362.3618038,-0.01,-4.28,8.602170499046089,0.43333333333333335,0.44222222222222224,-0.6444444444444445,-0.004215345181682509,-0.001061235192835793,0.0010316396031751298
1589985362.3718038,0.003942064842018453,-4.304086902736972,8.625913097263027,0.43333333333333335,0.44222222222222224,-0.6444444444444445,-0.004148316846172286,-0.00239666784880645,0.00021500628381353784
1589985362.3818038,0.01835472398329983,-4.282467914025051,8.64753208597495,0.43333333333333335,0.44222222222222224,-0.6444444444444445,-0.003362228233725353,-0.003182756461253383,0.0010010948962604711
1589985362.3918037,-0.0019575005743165635,-4.2960849988513665,8.695872501722949,0.4455555555555555,0.4488888888888889,-0.6755555555555556,0.002181661564992912,-0.0015410710000272124,0.000877300594174556
1589985362.4018037,-0.01,-4.276247835497836,8.699363095238096,0.4455555555555555,0.4488888888888889,-0.6755555555555556,0.002181661564992912,0.0008861819554988794,0.00020464882699757647
1589985362.4118037,-0.01,-4.271220224084361,8.621220224084361,0.4455555555555555,0.4488888888888889,-0.6755555555555556,0.001263709128663216,0.0009179524363296959,0.000784846637053224
1589985362.4218037,-0.01,-4.3,8.652125679690567,0.4455555555555555,0.4488888888888889,-0.6755555555555556,-0.0015545821505357589,0.0035043680315090192,0.00046375136803930274
1589985362.4318037,-0.01,-4.3,8.65996300241045,0.4455555555555555,0.4488888888888889,-0.6755555555555556,-0.0032644207255772915,0.004359287319029786,0.0021735899430808353
1589985362.4418037,-0.01,-4.317451558286825,8.69490311657365,0.42907352828466516,0.45373654396856244,-0.6551954042209263,-0.0004169878002193766,-0.0013476859645541591,-0.0006738429822770796
1589985362.4518037,-0.0011544061147733247,-4.27346321834432,8.70614712662272,0.4266666666666667,0.4544444444444444,-0.6522222222222223,-0.0002518523450993759,-0.004363323129985824,0.001216756955046144
1589985362.4618037,-0.009635620981113762,-4.298906862943341,8.604372548226635,0.4266666666666667,0.4544444444444444,-0.6522222222222223,-0.002102166394933519,-0.004363323129985824,0.0021419139799632152
1589985362.4718037,-0.0018238109787147364,-4.291823810978714,8.632704756085142,0.4266666666666667,0.4544444444444444,-0.6522222222222223,-0.0012897776982001585,-0.001687671529607563,-0.0013858739021781023
1589985362.4818037,-0.009883456168733897,-4.299883456168733,8.679533824674936,0.4266666666666667,0.4544444444444444,-0.6522222222222223,-0.004325184250389282,-0.0021689486051273982,-0.0011035437423619699
1589985362.4918036,-0.0018594992751635783,-4.308140500724836,8.696281001449671,0.4266666666666667,0.44449494355853325,-0.6639807232692081,-0.0016993504973099394,-0.0004056798098756556,0.002461132727738057
1589985362.5018036,-0.001167737847379379,-4.291167737847379,8.688322621526206,0.4266666666666667,0.44222222222222224,-0.6666666666666666,0.003527253225450883,-0.001345591660457971,0.0
1589985362.5118036,-0.008761292658640354,-4.29876129265864,8.612387073413595,0.4266666666666667,0.44222222222222224,-0.6666666666666666,0.005183909892790391,-0.003002248327797479,0.0
1589985362.5218036,0.0,-4.256264997981429,8.616264997981428,0.4266666666666667,0.44222222222222224,-0.6666666666666666,0.000976929904989438,0.002067760687485894,-0.0007491281499754023
1589985362.5318036,0.0,-4.296904158255955,8.656904158255955,0.4266666666666667,0.44222222222222224,-0.6666666666666666,0.0002380891216184432,0.0013289199041148993,0.0014673942001375824
1589985362.5418036,0.0003337223518950761,-4.289666277648105,8.69,0.4266666666666667,0.4488888888888889,-0.6666666666666666,3.6403461425426355e-05,3.6403461425426355e-05,-0.000981620398220177
1589985362.5518036,0.008163480046195304,-4.28367303990761,8.680817400230977,0.4266666666666667,0.4488888888888889,-0.6666666666666666,0.0012911640323243691,0.0006901642828406294,0.0017809950653370854
1589985362.5618036,0.0,-4.3,8.643939205473062,0.4266666666666667,0.4488888888888889,-0.6666666666666666,0.001322260247273944,-0.000661130123636972,-0.000214850329429742
1589985362.5718036,-0.00014088316840610418,-4.3,8.660140883168406,0.4266666666666667,0.4488888888888889,-0.6666666666666666,-0.002197029534676213,0.001090830782496456,-0.001090830782496456
1589985362.5818036,-0.00959538354033767,-4.3,8.669595383540338,0.4266666666666667,0.4488888888888889,-0.6666666666666666,-0.0032283555385589275,0.001090830782496456,-0.001090830782496456
1589985362.5918036,-0.0013107090295212537,-4.3,8.67,0.4324595273136525,0.4488888888888889,-0.6618392827941785,-0.003272492347489368,-0.0008048784312368882,-0.001090830782496456
1589985362.6018035,-0.01,-4.294384509781489,8.638769019562979,0.43333333333333335,0.4488888888888889,-0.6611111111111111,0.001499200755107054,-0.000886645796191157,-0.0004083699726105979
1589985362.6118035,-0.01,-4.270392403615147,8.590784807230294,0.43333333333333335,0.4488888888888889,-0.6611111111111111,0.003243955951318352,-1.4268198085508289e-05,-0.0021531251688218954
1589985362.6218035,-0.01,-4.283143509751479,8.673143509751478,0.43333333333333335,0.4488888888888889,-0.6611111111111111,0.0016673059846942784,0.0001714518600995445,0.001090830782496456
1589985362.6318035,-0.01,-4.29952013743826,8.68952013743826,0.43333333333333335,0.4488888888888889,-0.6611111111111111,-0.0010123134544394426,0.0010646583398107848,0.001090830782496456
1589985362.6418035,-0.008338297628594341,-4.3,8.693323404742811,0.4455555555555555,0.44222222222222224,-0.6666666666666666,-0.0029099651278740378,0.0012720943923041211,0.0014566071257622513
1589985362.6518035,-0.0003299347004238739,-4.3,8.709340130599154,0.4455555555555555,0.44222222222222224,-0.6666666666666666,-0.0011628113679836775,0.0021456712722493013,-0.0020377003940184684
1589985362.6618035,0.008339989511476865,-4.281660010488523,8.614150026221308,0.4455555555555555,0.44222222222222224,-0.6666666666666666,0.002181661564992912,0.002091122037985511,9.053952700740078e-05
1589985362.6718035,-0.008580015329379966,-4.29858001532938,8.65645003832345,0.4455555555555555,0.44222222222222224,-0.6666666666666666,0.002181661564992912,0.001168278931965727,0.0010133826330271849
1589985362.6818035,-0.01,-4.290817341012834,8.687547976961499,0.4455555555555555,0.44222222222222224,-0.6666666666666666,-0.0008233565615177107,8.915807365958168e-05,8.915807365958168e-05
1589985362.6918035,0.0,-4.303395893632417,8.69,0.44,0.44222222222222224,-0.6755555555555556,-0.0014612653133288496,-0.001090830782496456,0.0009056135170802591
1589985362.7018034,-0.002573024583507641,-4.317426975416493,8.67713487708246,0.44,0.44222222222222224,-0.6755555555555556,-0.0025708087425368037,-0.00038914717754389154,-0.00014033672099051286
1589985362.7118034,-0.01736781678651278,-4.298683908393256,8.596580458033719,0.44,0.44222222222222224,-0.6755555555555556,0.002181661564992912,0.004363323129985824,-0.001234394106218571
1589985362.7218034,-0.0004713275726630009,-4.290235663786332,8.638821681068343,0.44,0.44222222222222224,-0.6755555555555556,0.002181661564992912,0.004363323129985824,-0.002155954633747905
1589985362.7318034,-0.009132713629745774,-4.29,8.676530854518983,0.44,0.44222222222222224,-0.6755555555555556,0.001185437049487749,0.0003784250679651725,-0.00018921253398258625
1589985362.7418034,-0.0010362120926728207,-4.29,8.697927575814653,0.44,0.4362463636173374,-0.6546400504384589,0.0001130332047882582,0.0009777975777081978,-0.0009777975777081978
1589985362.7518034,0.0,-4.3,8.659957063319807,0.44,0.4355555555555555,-0.6522222222222223,0.0,0.0009691069549696031,0.0009691069549696031
1589985362.7618034,-0.002188066484540557,-4.297811933515459,8.585470166211351,0.44,0.4355555555555555,-0.6522222222222223,0.0,0.00011934051377428228,0.00011934051377428228
1589985362.7718034,-0.02,-4.281279305721637,8.63767583432982,0.44,0.4355555555555555,-0.6522222222222223,-0.0001395506061384838,0.0005326283579425207,0.0012303813886349398
1589985362.7818034,-0.02,-4.288878501286372,8.68327100771823,0.44,0.4355555555555555,-0.6522222222222223,-0.000968494250560864,-0.0027831462197470003,0.0020593250330573198
1589985362.7918034,0.0,-4.281321880686376,8.690660940343188,0.44,0.44222222222222224,-0.6522222222222223,-0.00429122572281149,-0.002181661564992912,0.002109564157818578
1589985362.8018034,0.0,-4.297735036881958,8.698867518440979,0.44,0.44222222222222224,-0.6522222222222223,-0.0033960269220083272,-0.002181661564992912,0.0012143653570154153
1589985362.8118033,-0.02,-4.299258956086287,8.595187307395994,0.44,0.44222222222222224,-0.6522222222222223,0.000161670702452046,0.003110821645037322,0.000161670702452046
1589985362.8218033,-0.018765060240963857,-4.2906174698795185,8.660617469879519,0.44,0.44222222222222224,-0.6522222222222223,0.002249017080177181,0.0008887642369436486,0.0021143060498086427
1589985362.8318033,-0.00390219702338767,-4.298048901488306,8.668048901488307,0.44,0.44222222222222224,-0.6522222222222223,0.0030596605158655027,-0.0015431660701213156,0.0013036626141203216
1589985362.8418033,-0.0009091770053982384,-4.298181645989203,8.70545411497301,0.4266666666666667,0.46,-0.6444444444444445,0.000694127476805918,0.00029752747926790353,0.0
1589985362.8518033,-0.008853679325693722,-4.282292641348612,8.665731603371531,0.4266666666666667,0.46,-0.6444444444444445,-0.0027723155962312146,0.002897359784045753,0.0
1589985362.8618033,-0.0004549638806109872,-4.2804549638806115,8.581364891641833,0.4266666666666667,0.46,-0.6444444444444445,-0.0009419442007281037,0.0009915730613175545,-4.9628860589450735e-05
1589985362.8718033,-0.006999048258000094,-4.286999048258,8.600997144774,0.4266666666666667,0.46,-0.6444444444444445,0.001199602403904954,-0.000436124675104484,-0.00076347772880047
1589985362.8818033,0.004704092204092203,-4.282647953897954,8.676168414918415,0.4266666666666667,0.46,-0.6444444444444445,0.002983645385237409,0.0005131368579925379,-0.00028884696225195904
1589985362.8918033,-0.011976047904191612,-4.287325349301398,8.7,0.43643379906852964,0.4559303614992237,-0.6607229984475493,0.00247342069643907,0.00029175913144615794,0.0
1589985362.9018033,0.0,-4.299369078780714,8.693690787807142,0.44,0.4544444444444444,-0.6666666666666666,-0.001090830782496456,0.0009531851250310584,-0.0020440159075275142
1589985362.9118032,0.0,-4.292285907287005,8.62285907287005,0.44,0.4544444444444444,-0.6666666666666666,-0.001090830782496456,-0.000592123175576857,-0.0004987076069195989
1589985362.9218032,0.0,-4.29,8.650556094406726,0.44,0.4544444444444444,-0.6666666666666666,-0.001090830782496456,-9.099073452443765e-05,6.0660489682958426e-05
1589985362.9318032,0.0,-4.29,8.666509765885015,0.44,0.4544444444444444,-0.6666666666666666,-0.001090830782496456,-0.002701404125877713,0.001800936083918475
1589985362.9418032,-0.00822310163780268,-4.28,8.7,0.4533333333333333,0.44222222222222224,-0.6311111111111111,-0.0008970012394112186,-9.691477154261868e-05,0.002278576336535531
1589985362.9518032,0.008210955254290416,-4.28,8.7,0.4533333333333333,0.44222222222222224,-0.6311111111111111,0.0008956762745081003,-0.0009932535285022781,0.0031749150934951903
1589985362.9618032,-0.0004769783492483691,-4.290476978349249,8.591907913396993,0.4533333333333333,0.44222222222222224,-0.6311111111111111,0.0,0.001090830782496456,0.0011428610490909026
1589985362.9718032,-0.01,-4.299444938802236,8.630832591796647,0.4533333333333333,0.44222222222222224,-0.6311111111111111,3.0273892034496426e-05,0.0010000091063929668,0.0021211137809239193
1589985362.9818032,-0.01,-4.285360890515606,8.65195866422659,0.4533333333333333,0.44222222222222224,-0.6311111111111111,0.0007984395626956481,-0.0013044879055904882,0.0005847824396016158
1589985362.9918032,-0.01,-4.272053227286632,8.699733863566841,0.4374397879065973,0.45193494442744975,-0.6478876312837769,0.001090830782496456,-0.0013148031352684417,0.0
1589985363.0018032,-0.01,-4.299165539887966,8.680834460112035,0.43333333333333335,0.4544444444444444,-0.6522222222222223,-0.0010301471306983143,0.0010301471306983143,0.0021209779131947703
1589985363.0118032,-0.027797826086956516,-4.3,8.617707608695651,0.43333333333333335,0.4544444444444444,-0.6522222222222223,-0.001090830782496456,0.001090830782496456,0.00024021990927585
1589985363.0218031,-0.011442852829682309,-4.3,8.61,0.43333333333333335,0.4544444444444444,-0.6522222222222223,-0.0017655876947864405,0.0017655876947864405,-0.0006747569122899846
1589985363.0318031,0.0,-4.281733464392161,8.6587107616209,0.43333333333333335,0.4544444444444444,-0.6522222222222223,-0.0008532816096197466,0.0015174715873063293,-0.001090830782496456
1589985363.0418031,-0.0061585822447791,-4.288475746734337,8.708475746734338,0.43743905482985274,0.45102300986401156,-0.6522222222222223,-0.0006717971089141166,0.0017626278914105726,0.00025276343533177717
1589985363.051803,-0.019759291593913694,-4.3,8.72,0.44,0.4488888888888889,-0.6522222222222223,0.0010383163547035364,5.251442779291961e-05,-0.0010383163547035364
1589985363.061803,-0.01270964785505305,-4.285419295710106,8.610644717825796,0.44,0.4488888888888889,-0.6522222222222223,0.0018860848359911757,0.0015905081069894393,-0.001090830782496456
1589985363.071803,-0.019888715200238202,-4.299777430400476,8.649109721601906,0.44,0.4488888888888889,-0.6522222222222223,2.427857704082482e-05,0.0011029700710168684,0.0021452436994316747
1589985363.081803,-0.004317535634261613,-4.3,8.65784123218287,0.44,0.4488888888888889,-0.6522222222222223,-0.0025660372313326793,0.00023548503871889637,-0.0012397214101173264
1589985363.091803,-0.01,-4.29,8.6999887130635,0.4455555555555555,0.4544444444444444,-0.6666666666666666,-0.001090338296985498,7.38728266437023e-07,-0.002180676593970996
1589985363.101803,-0.01,-4.29,8.652647915302829,0.4455555555555555,0.4544444444444444,-0.6666666666666666,0.0009752936816257057,0.0030991866961832424,0.0019505873632514113
1589985363.111803,-0.0003907103162084126,-4.280390710316208,8.601953551581042,0.4455555555555555,0.4544444444444444,-0.6666666666666666,-0.002053801913005194,0.0011760705504882674,0.0011334506664923618
1589985363.121803,0.0,-4.298997221044699,8.60949861052235,0.4455555555555555,0.4544444444444444,-0.6666666666666666,-0.002181661564992912,5.46931076241099e-05,0.001090830782496456
1589985363.131803,0.0,-4.291837044326895,8.650814778365522,0.4455555555555555,0.4544444444444444,-0.6666666666666666,-0.003072101897430561,-0.0044522016621882455,0.001090830782496456
1589985363.141803,-0.007206563537843035,-4.29,8.710445944764901,0.44155190914564274,0.45044079803453163,-0.6626630202567538,-0.001700264078870219,-0.0023096973752439816,-0.00048139748612269304
1589985363.151803,-0.01,-4.29,8.712555266385474,0.44,0.4488888888888889,-0.6611111111111111,0.002715019701338736,-0.00013936816153765788,0.0017635570803799384
1589985363.161803,-0.018566880429344613,-4.29,8.61576431527721,0.44,0.4488888888888889,-0.6611111111111111,0.003272492347489368,0.0,0.00031265818853380006
1589985363.171803,-0.0003706559453654258,-4.29,8.649073360136587,0.44,0.4488888888888889,-0.6611111111111111,0.0022018777107389084,0.0,-0.0010706146367504595
1589985363.181803,-0.007643441863910805,-4.297643441863911,8.680573767455643,0.44,0.4488888888888889,-0.6611111111111111,0.002181661564992912,0.002501310500812798,0.0005767095513787427
1589985363.191803,-0.00400008213721021,-4.29400008213721,8.68400008213721,0.44333328770154984,0.4488888888888889,-0.6511112480064615,0.0015271720552747668,0.0013090238183349327,-0.00021814823693983433
1589985363.201803,0.0,-4.29,8.697384204620207,0.4455555555555555,0.4488888888888889,-0.6444444444444445,0.00014266950604953073,-0.0009481612764469252,0.0027018143232912448
1589985363.211803,0.0,-4.29,8.630190079652426,0.4455555555555555,0.4488888888888889,-0.6444444444444445,0.0006922800912614514,0.0002937294000264468,0.0018879321649664651
1589985363.221803,0.0,-4.29,8.61781444824064,0.4455555555555555,0.4488888888888889,-0.6444444444444445,0.0018493521909725588,0.001090830782496456,0.001090830782496456
1589985363.231803,-0.019974003119625647,-4.276683997920249,8.663290005199377,0.4455555555555555,0.4488888888888889,-0.6444444444444445,0.0007291110681550523,0.001817106030915386,0.001090830782496456
1589985363.241803,-0.03,-4.287184403201089,8.688592201600544,0.4407821102219195,0.4488888888888889,-0.6587647804453526,-0.0009372637995289657,-0.001567393633122951,-0.0007836968165614755
1589985363.251803,-0.011687453079214396,-4.299156273460393,8.69,0.44,0.4488888888888889,-0.6611111111111111,0.000906758206213907,-0.000184072576282549,0.000906758206213907
1589985363.261803,0.008520177212751614,-4.3,8.597399113936241,0.44,0.4488888888888889,-0.6611111111111111,8.071181244851213e-05,-0.0010101189700479438,-0.0009294071575994317
1589985363.271803,0.01,-4.283743543631459,8.630641140921353,0.44,0.4488888888888889,-0.6611111111111111,0.0026599564531672643,0.0006824735196150533,0.0006824735196150533
1589985363.281803,0.0028328119568995476,-4.2871671880431,8.6543343760862,0.44,0.4488888888888889,-0.6611111111111111,0.001708854479218466,0.001090830782496456,0.000309011848361005
1589985363.291803,0.0,-4.298169997455974,8.684509992367921,0.42910667005870107,0.45342777636443005,-0.6765433285279513,0.00019962231070701458,0.001090830782496456,-0.0008912084717894414
1589985363.3018029,-0.008663019319541802,-4.3,8.69,0.4266666666666667,0.4544444444444444,-0.68,-0.0018899776286235399,0.00014584196818468603,0.0017441356604388544
1589985363.3118029,-0.01,-4.291416029186772,8.629912204307402,0.4266666666666667,0.4544444444444444,-0.68,-0.00030892964516882103,-0.0009363659599120455,0.002181661564992912
1589985363.3218029,-0.0012785842598436667,-4.2812785842598435,8.654885662960625,0.4266666666666667,0.4544444444444444,-0.68,0.0,-0.001090830782496456,0.0012303026893617478
1589985363.3318028,0.0,-4.28,8.681275838731509,0.4266666666666667,0.4544444444444444,-0.68,-0.0015472226541173749,-0.00031721945543776854,0.00031721945543776854
1589985363.3418028,0.0,-4.288281721356892,8.673436557286216,0.4377089618091896,0.459045400753829,-0.6744788524287385,0.0005285254114539869,0.0,0.0
1589985363.3518028,0.0,-4.281916184971099,8.645748554913295,0.44,0.46,-0.6733333333333333,0.001090830782496456,0.000881807427353349,0.001763614854706698
1589985363.3618028,-0.012109671675418354,-4.292109671675418,8.603670984973744,0.44,0.46,-0.6733333333333333,0.00043035065102286737,0.001090830782496456,0.0008607013020457347
1589985363.3718028,-0.012164077933144828,-4.28432815586629,8.61134368826742,0.44,0.46,-0.6733333333333333,0.0,0.001090830782496456,0.0
1589985363.3818028,0.003455218356772762,-4.286727609178387,8.646910436713545,0.44,0.46,-0.6733333333333333,0.0007338683184389555,0.0003569624640575005,0.001467736636877911
1589985363.3918028,0.002159087236174407,-4.297840912763825,8.691363651055301,0.44,0.4556439373534302,-0.6637499955108799,0.00023551988193142395,0.0,-0.0003842711367021841
1589985363.4018028,0.0,-4.283063327009438,8.708468336495281,0.44,0.4544444444444444,-0.6611111111111111,0.0,0.002771256637677231,0.0007566736426216981
1589985363.4118028,0.0,-4.297692709499291,8.612690097753898,0.44,0.4544444444444444,-0.6611111111111111,0.0,0.0003775295253502396,-0.0018041320396426726
1589985363.4218028,0.0,-4.283665024630542,8.640837438423645,0.44,0.4544444444444444,-0.6611111111111111,0.0,-0.0017818693964326345,-0.00039979216856027744
1589985363.4318027,0.0066829229452395646,-4.293365845890479,8.670048768835718,0.44,0.4544444444444444,-0.6611111111111111,0.0007289938065719194,5.319854722846476e-06,0.0007289938065719194
1589985363.4418027,-0.004662567790957339,-4.3,8.701993851686437,0.4440729354974881,0.44059646375298467,-0.6545944143151301,0.001090830782496456,-0.0005086072471852767,0.001090830782496456
1589985363.4518027,-0.01854610947247527,-4.3,8.727092218944952,0.4455555555555555,0.4355555555555555,-0.6522222222222223,0.001090830782496456,-0.001090830782496456,0.001090830782496456
1589985363.4618027,-0.00518169966593335,-4.292590849832966,8.626271897661534,0.4455555555555555,0.4355555555555555,-0.6522222222222223,0.001090830782496456,0.0005255950323712858,0.001090830782496456
1589985363.4718027,-0.007806181050832064,-4.29,8.644643267355825,0.4455555555555555,0.4355555555555555,-0.6522222222222223,0.0002393085240976412,-0.0014637359926999887,-0.0006122137343011736
1589985363.4818027,-0.0033531706932566118,-4.296646829306743,8.673293658613487,0.4455555555555555,0.4355555555555555,-0.6522222222222223,0.0007250566013795267,-0.0014566049636133853,0.00035928242026259734
1589985363.4918027,-0.007430913698017588,-4.3,8.709723654792072,0.4364733277024229,0.44546344048624564,-0.6464426226793197,-0.001340930038665192,0.0005303430982779758,0.0002802438421092401
1589985363.5018027,-0.0014274322169059005,-4.282854864433812,8.677137161084529,0.43333333333333335,0.4488888888888889,-0.6444444444444445,-0.0003114174004256228,0.001090830782496456,-0.0009351220822836446
1589985363.5118027,0.006892150364548812,-4.28,8.61486279708361,0.43333333333333335,0.4488888888888889,-0.6444444444444445,-0.0007518169775244015,0.001090830782496456,-0.0003390138049720545
1589985363.5218027,-0.0020872982057472886,-4.292087298205748,8.614174596411495,0.43333333333333335,0.4488888888888889,-0.6444444444444445,0.001546208609512209,-0.00022768891350787653,-0.0006592598480021662
1589985363.5318027,-0.004724173985780009,-4.3,8.66165495608532,0.43333333333333335,0.4488888888888889,-0.6444444444444445,0.0015459823216673425,-0.001090830782496456,-0.0016663341244371312
1589985363.5418026,0.0,-4.281691579943235,8.702205613371177,0.4374018711237254,0.4522793370475489,-0.6580062370790848,0.0,-0.001090830782496456,-0.0008502356865399687
1589985363.5518026,0.0,-4.29348885830731,8.69434076112846,0.44,0.4544444444444444,-0.6666666666666666,0.0008540789895770299,-0.00023675179291942608,0.0008540789895770299
1589985363.5618026,-0.008021204773451243,-4.3,8.609787952265487,0.44,0.4544444444444444,-0.6666666666666666,-0.001534102341379982,-0.0017499554159176255,0.0002158530745376432
1589985363.5718026,-0.01,-4.287779575071337,8.614440849857328,0.44,0.4544444444444444,-0.6666666666666666,0.00048442157248175044,-0.0015151407806242463,-0.0006665207843686656
1589985363.5818026,0.00027640893513770394,-4.290276408935138,8.671105635740552,0.44,0.4544444444444444,-0.6666666666666666,0.0016211704049944203,-0.001090830782496456,3.015153750052734e-05
1589985363.5918026,0.0012181513129657807,-4.2912181513129655,8.696827226969448,0.44,0.45200504203137937,-0.6705697105275708,0.0015698063262486067,-0.002527757413752908,0.0006118552387443054
1589985363.6018026,-0.01,-4.294139335476956,8.661147552697392,0.44,0.4488888888888889,-0.6755555555555556,0.0006392993267621244,-0.002820960891755036,0.0010282414921538583
1589985363.6118026,-0.003187521959544245,-4.289562565878633,8.60593760979772,0.44,0.4488888888888889,-0.6755555555555556,-0.0003477047073354285,0.0018816735181476538,0.002181661564992912
1589985363.6218026,0.0,-4.294608217809417,8.611912326714124,0.44,0.4488888888888889,-0.6755555555555556,-0.0023902640495887125,0.0016789829810968928,0.0013849068817966745
1589985363.6318026,0.006162215628091,-4.287675568743818,8.650811078140455,0.44,0.4488888888888889,-0.6755555555555556,8.847490026182934e-05,-0.0015979430157045018,0.001090830782496456
1589985363.6418025,0.002912343582971766,-4.2941753128340565,8.691262969251085,0.44,0.45282647578723784,-0.6692554165181971,0.0014085181854476183,-0.00017991882930819356,0.00031768740295116233
1589985363.6518025,-0.015446789402784015,-4.292276605298608,8.7,0.44,0.4544444444444444,-0.6666666666666666,0.001090830782496456,-0.000594152554633229,-0.0008424916685648425
1589985363.6618025,-0.008577590016438938,-4.284288795008219,8.637176745090414,0.44,0.4544444444444444,-0.6666666666666666,0.0017138266035146182,-0.00046783496147829377,-0.00046783496147829377
1589985363.6718025,0.0,-4.292157887498281,8.638631549993123,0.44,0.4544444444444444,-0.6666666666666666,0.0015185516683302335,0.0006631098966626785,-0.001326219793325357
1589985363.6818025,0.0,-4.3,8.67,0.44,0.4544444444444444,-0.6666666666666666,0.000612142409311905,0.000133454036127354,-0.0007455964454392589
1589985363.6918025,-0.001186663381785333,-4.3,8.67474665352714,0.4392088910788098,0.452994078088929,-0.6640296369293659,0.00012944489453127855,-0.0008319409934338989,0.001090830782496456
1589985363.7018025,-0.016459437294978552,-4.3,8.71,0.43333333333333335,0.44222222222222224,-0.6444444444444445,0.00038621547859963147,-0.000318399825297193,0.00038621547859963147
1589985363.7118025,-0.00800101560516396,-4.3,8.638006093630985,0.43333333333333335,0.44222222222222224,-0.6444444444444445,0.0,-0.001090830782496456,-0.0006544430768290879
1589985363.7218025,0.0,-4.3,8.617288911495422,0.43333333333333335,0.44222222222222224,-0.6444444444444445,0.0,-0.0004954790888958979,-0.0004954790888958979
1589985363.7318025,0.0,-4.294968031759298,8.655095904722106,0.43333333333333335,0.44222222222222224,-0.6444444444444445,-0.0010978051707004658,0.0,-0.0005489025853502329
1589985363.7418025,0.0,-4.293843029405543,8.677686058811085,0.4358953529370284,0.44691925816232986,-0.6474334673154221,-0.0009240331329114255,0.0008384189547209909,-0.00025241182777546506
1589985363.7518024,0.0,-4.3,8.680676107480028,0.44,0.4544444444444444,-0.6522222222222223,7.375188514917937e-05,0.0011645826676456353,0.001090830782496456
1589985363.7618024,-0.00487168940789356,-4.3,8.635898174144744,0.44,0.4544444444444444,-0.6522222222222223,-0.001090830782496456,0.0,0.001622249659385679
1589985363.7718024,-0.01,-4.295185279279933,8.6144441621602,0.44,0.4544444444444444,-0.6522222222222223,-0.001090830782496456,0.0005252045570572346,0.0011312524508784428
1589985363.7818024,-0.004690217913026783,-4.2953097820869734,8.667168474608813,0.44,0.4544444444444444,-0.6522222222222223,0.000646791342149142,-6.758396726727579e-05,0.0011584147497637318
1589985363.7918024,0.005258196229134142,-4.289483607541732,8.705258196229135,0.4364945358472439,0.4480177601643916,-0.6481325140440068,0.002181661564992912,-0.001090830782496456,0.0016080813342782808
1589985363.8018024,0.004685594667100236,-4.28,8.7206288106658,0.43333333333333335,0.44222222222222224,-0.6444444444444445,0.0016019498722138733,6.85926030616216e-05,-6.85926030616216e-05
1589985363.8118024,-0.006219090579829443,-4.28,8.655370913042047,0.43333333333333335,0.44222222222222224,-0.6444444444444445,0.000412433238135287,-0.00026596430622588194,0.000944361850587051
1589985363.8218024,-0.003079002976528595,-4.307683988093886,8.637683988093885,0.43333333333333335,0.44222222222222224,-0.6444444444444445,0.0,-0.0018457944423733515,0.002181661564992912
1589985363.8318024,0.0,-4.312305586796569,8.653847206601716,0.43333333333333335,0.44222222222222224,-0.6444444444444445,0.0,-0.0005030010098829847,0.0017619964262154302
1589985363.8418024,0.0,-4.300938766107942,8.659530616946029,0.43333333333333335,0.44222222222222224,-0.6444444444444445,0.0,0.001976854571371442,0.0011420325309018234
1589985363.8518023,-0.005004744871888459,-4.290009489743777,8.670018979487553,0.44,0.44222222222222224,-0.6666666666666666,0.0005448978060167346,0.001090830782496456,-0.0005469681469427077
