time,acc_x,acc_y,acc_z,mag_x,mag_y,mag_z,gyr_x,gyr_y,gyr_z
1589986144.738697,-3.82,-0.59,9.07,0.3055555555555556,-0.37333333333333335,-0.6111111111111112,0.00545415391248228,0.002181661564992912,-0.001090830782496456
1589986144.748697,-3.8043493348756505,-0.5978253325621746,9.077825332562174,0.3055555555555556,-0.37333333333333335,-0.6111111111111112,0.003746931184063882,-0.0012327838918438838,-0.00023721941828725704
1589986144.758697,-3.8188059608817135,-0.5905970195591431,9.098805960881714,0.31182420918279347,-0.37333333333333335,-0.6299170719928249,0.003272492347489368,-0.00013024946257315668,-0.006154236307259266
1589986144.768697,-3.791227952453988,-0.5995906825153374,9.032865222392637,0.31222222222222223,-0.37333333333333335,-0.6311111111111111,0.004318673518777428,0.0031385435138641805,-0.006544984694978735
1589986144.778697,-3.763719218794226,-0.6087602604019247,8.986198697990377,0.31222222222222223,-0.37333333333333335,-0.6311111111111111,0.003407726959075399,0.0013613000056685177,-0.010367369378620435
1589986144.788697,-3.7327737719693554,-0.6281508186870963,9.007226228030644,0.31222222222222223,-0.37333333333333335,-0.6311111111111111,0.005252439522629022,0.0030707779576361104,-0.018828096525523176
1589986144.798697,-3.735751879699248,-0.63,9.033007518796992,0.31222222222222223,-0.37333333333333335,-0.6311111111111111,0.002316990195904126,0.004527357834120629,-0.02277211780151436
1589986144.808697,-3.74,-0.6476988367083154,9.067698836708315,0.32402144669443245,-0.3687447460385849,-0.6278335487577194,0.003217739315968111,0.004810606049288658,-0.03216813449254833
1589986144.818697,-3.748960676486031,-0.6510393235139691,9.062078647027938,0.3322222222222222,-0.3655555555555556,-0.6255555555555555,0.003499237563891345,0.0004534904328039541,-0.04784028652212964
1589986144.828697,-3.734849013928019,-0.6196980278560374,9.006971548748066,0.3322222222222222,-0.3655555555555556,-0.6255555555555555,0.003272492347489368,0.0008263580996246117,-0.05735096620858664
1589986144.838697,-3.788758525254522,-0.6002069124575796,9.00958617508484,0.3322222222222222,-0.3655555555555556,-0.6255555555555555,0.0022042322127938997,-0.001045689486894481,-0.06747351398017337
1589986144.848697,-3.8136108200781025,-0.5842594532812648,9.07296218687494,0.3322222222222222,-0.3655555555555556,-0.6255555555555555,0.000464634275580927,0.000626196506915529,-0.07106556309360422
1589986144.858697,-3.8390723098224804,-0.58,9.102714873214987,0.32445202192417466,-0.3655555555555556,-0.6290874647819408,-0.0006934887549223681,0.003171297047263561,-0.0740752979095332
1589986144.868697,-3.8501516859360407,-0.5797724710959389,9.138710669543654,0.32,-0.3655555555555556,-0.6311111111111111,-0.0010660112292507071,0.002156842011747163,-0.06982144326418843
1589986144.878697,-3.8636594634633346,-0.5595108048049983,9.023894560561658,0.32,-0.3655555555555556,-0.6311111111111111,0.001144193700232185,-5.336291773572893e-05,-0.07055817824068272
1589986144.888697,-3.887894186700973,-0.5410529066495136,9.032629653453405,0.32,-0.3655555555555556,-0.6311111111111111,-0.0007462678871810809,-0.0020668072665544534,-0.06114423602168967
1589986144.898697,-3.9291634299372573,-0.5634980579623543,9.04,0.32,-0.3655555555555556,-0.6311111111111111,-0.001090830782496456,-0.00047283456804477386,-0.05145155805256439
1589986144.908697,-3.948925678201986,-0.5308952681650119,9.069283785467992,0.31222222222222223,-0.36,-0.6255555555555555,-0.002240256729371954,-5.859516437904191e-05,-0.03568490827902814
1589986144.9186969,-3.8966515724315567,-0.5744570229737027,9.034434381621038,0.31222222222222223,-0.36,-0.6255555555555555,-0.00509136691446494,-0.002909705349472029,-0.020478987291865557
1589986144.9286969,-3.83240264337975,-0.6087986783101251,8.962803083943042,0.31222222222222223,-0.36,-0.6255555555555555,-0.0023127054328925334,-0.0011781933610962034,-0.007025478877277346
1589986144.9386969,-3.8020845420638207,-0.61,9.034441221163144,0.31222222222222223,-0.36,-0.6255555555555555,-0.005226765647419819,-0.001090830782496456,0.0005602581640173805
1589986144.9486969,-3.8118711782735324,-0.6040644108632336,9.08748471309413,0.31222222222222223,-0.36,-0.6255555555555555,-0.001569319906900504,-0.00044335844823282665,0.001090830782496456
1589986144.9586968,-3.82,-0.6056931670080059,9.108613665983988,0.3191805374542295,-0.356204555327996,-0.6204949626595503,0.0017118589647190706,0.0,0.001090830782496456
1589986144.9686968,-3.8293172407447167,-0.61,9.109317240744716,0.3244444444444444,-0.3533333333333333,-0.6166666666666667,0.002181661564992912,0.0020327066024534456,7.447748126973314e-05
1589986144.9786968,-3.8205341055341053,-0.61,9.015341055341056,0.3244444444444444,-0.3533333333333333,-0.6166666666666667,-0.0029811829686373554,-0.0009160451551852482,-0.0010325689067260532
1589986144.9886968,-3.801246102975909,-0.61,9.038130845536136,0.3244444444444444,-0.3533333333333333,-0.6166666666666667,-0.005318225164054049,-0.001090830782496456,-0.0021136971907787963
1589986144.9986968,-3.8218050187695325,-0.5954633208203117,9.047268339589845,0.3244444444444444,-0.3533333333333333,-0.6166666666666667,-0.0030755953438103933,-0.00029797792627249376,-0.0013888087087689498
1589986145.0086968,-3.83,-0.6001609917540809,9.055080495877041,0.3148479522322569,-0.3567203305846936,-0.6285211570464277,-0.0027358576942951166,0.0,-0.001090830782496456
1589986145.0186968,-3.8178204978380275,-0.5978204978380274,9.06,0.3055555555555556,-0.36,-0.64,-0.003272492347489368,-0.0013285775873761907,-0.0004265419888083606
1589986145.0286968,-3.81,-0.595697524911604,9.003024750883961,0.3055555555555556,-0.36,-0.64,-0.00140798168020396,-0.0003171508977075038,0.0012430071115236054
1589986145.0386968,-3.8162406041324335,-0.6062406041324336,9.016165437191903,0.3055555555555556,-0.36,-0.64,0.002042232926709968,-0.0002706578353101894,-0.0005413156706203788
1589986145.0486968,-3.82,-0.604816439813199,9.065550680560403,0.3055555555555556,-0.36,-0.64,0.003272492347489368,4.0046620440655194e-05,-0.0010507841620558008
1589986145.0586967,-3.815111999396636,-0.6,9.104440003016819,0.3055555555555556,-0.36,-0.6215342199428481,0.002739294195188325,0.0005576326301954129,-0.0005331981523010431
1589986145.0686967,-3.81,-0.6,9.112390198511166,0.3055555555555556,-0.36,-0.6022222222222222,0.002181661564992912,0.0006403104512557257,-0.0023714516850079073
1589986145.0786967,-3.818377821842587,-0.6083778218425869,9.01622178157413,0.3055555555555556,-0.36,-0.6022222222222222,0.004009418756225915,-0.001650805004353049,-0.0005308565606398632
1589986145.0886967,-3.82,-0.61,9.013057894189792,0.3055555555555556,-0.36,-0.6022222222222222,9.013724894342372e-05,-0.000757266271312112,-0.0007121976468404
1589986145.0986967,-3.8255177451449587,-0.61,9.053106470869752,0.3055555555555556,-0.36,-0.6022222222222222,-0.002181661564992912,-0.0006018926254091173,-0.0004889381570873386
1589986145.1086967,-3.8129907726984573,-0.61,9.074330257566153,0.3137451835155576,-0.3631498569076931,-0.6104118501822242,-0.0034186074801263637,-0.0017093037400631819,0.0
1589986145.1186967,-3.817082833569585,-0.6014585832152073,9.061458583215208,0.32,-0.3655555555555556,-0.6166666666666667,-0.0024998750589890796,0.001545234577000577,-0.0009317240354983722
1589986145.1286967,-3.82,-0.6,8.982509250221325,0.32,-0.3655555555555556,-0.6166666666666667,-0.0012424471736894689,0.002181661564992912,-0.0029692595651033423
1589986145.1386967,-3.827583359796761,-0.6075833597967608,9.030666878374088,0.32,-0.3655555555555556,-0.6166666666666667,-0.001090830782496456,0.0013544453348876286,-0.0007908436571735181
1589986145.1486967,-3.8108573877056204,-0.6036191292352068,9.06914261229438,0.32,-0.3655555555555556,-0.6166666666666667,0.00030125926737716436,0.0003947857575596458,0.0
1589986145.1586967,-3.815635501756465,-0.5947881660811782,9.095635501756465,0.32231637063058743,-0.36266009226732127,-0.6137712033784324,0.001090830782496456,0.0,-0.0017055686615729496
1589986145.1686966,-3.8162336088939566,-0.5968831955530216,9.075584022234892,0.3244444444444444,-0.36,-0.6111111111111112,0.002592511100732206,-0.0030033606364714997,-0.0010199718701357436
1589986145.1786966,-3.81,-0.60534927566592,9.02790434600448,0.3244444444444444,-0.36,-0.6111111111111112,0.0015219459793559252,-0.003779807673941343,-0.000583515456044481
1589986145.1886966,-3.8146358836245082,-0.6146358836245083,9.004635883624509,0.3244444444444444,-0.36,-0.6111111111111112,0.0005056964561684906,-0.002766795891320877,-0.0021022236948334376
1589986145.1986966,-3.8155675711427484,-0.6111351422854969,9.036594573143509,0.3244444444444444,-0.36,-0.6111111111111112,0.00012382481475334717,-0.0007311526133782485,-0.0018219833958747047
1589986145.2086966,-3.81,-0.6,9.07336643333876,0.31808562591567635,-0.3555114222149872,-0.6208363629786388,-0.001090830782496456,0.0014580516938105812,-0.0003672209113141252
1589986145.2186966,-3.8150466425253877,-0.6,9.08,0.3055555555555556,-0.3466666666666667,-0.64,1.0175820493255874e-05,0.0010806549620032,1.0175820493255874e-05
1589986145.2286966,-3.82,-0.6,9.018184423880108,0.3055555555555556,-0.3466666666666667,-0.64,0.001090830782496456,0.001498451850429576,0.001090830782496456
1589986145.2386966,-3.82,-0.6,9.007262294256808,0.3055555555555556,-0.3466666666666667,-0.64,-0.0007921934126873141,0.0009263121015370653,-0.0014198681444152373
1589986145.2486966,-3.824352842678109,-0.6043528426781088,9.037411370712435,0.3055555555555556,-0.3466666666666667,-0.64,-0.0012320186080638134,-0.0018992859138581971,-0.0018480279120957203
1589986145.2586966,-3.8203450074692338,-0.61,9.079309985061533,0.31467415961239026,-0.34988499751025537,-0.6260538996777822,0.0010531963057333056,-0.004363323129985824,-0.0005265981528666528
1589986145.2686965,-3.823879197407433,-0.61,9.106939598703716,0.3244444444444444,-0.3533333333333333,-0.6111111111111112,-0.0008463095886816602,-0.0013353519763112517,-0.0026048163593337423
1589986145.2786965,-3.8146781891478616,-0.6023390945739308,9.002747324035031,0.3244444444444444,-0.3533333333333333,-0.6111111111111112,0.0003253638731722207,0.0016713502921100883,-0.0007654669093242355
1589986145.2886965,-3.8177471538386687,-0.6,9.016482923032013,0.3244444444444444,-0.3533333333333333,-0.6111111111111112,0.00024574739410089714,0.003026744953388471,0.0
1589986145.2986965,-3.8138082337116117,-0.6061917662883883,9.067150597730329,0.3244444444444444,-0.3533333333333333,-0.6111111111111112,0.0,0.003272492347489368,0.0006754169265397793
1589986145.3086965,-3.8165613265643303,-0.6034386734356694,9.10968397969299,0.32152829930474197,-0.3489591156237796,-0.6147562925357393,-0.0007157296990383487,0.0018410329494126703,0.00037510108345810726
1589986145.3186965,-3.8126829502375355,-0.5926829502375354,9.10536590047507,0.32,-0.3466666666666667,-0.6166666666666667,-0.001090830782496456,0.001090830782496456,-0.0023944989353864334
1589986145.3286965,-3.8172046561738804,-0.5972046561738804,8.999134813565673,0.32,-0.3466666666666667,-0.6166666666666667,-0.0003049247093192618,0.0003049247093192618,-0.0024865862743121735
1589986145.3386965,-3.8138868970013036,-0.6,8.966113102998698,0.32,-0.3466666666666667,-0.6166666666666667,-0.0013336721855098455,-0.0020005082782647687,-0.0008479893794830664
1589986145.3486965,-3.813628356503523,-0.6,8.999026852028186,0.32,-0.3466666666666667,-0.6166666666666667,-0.002181661564992912,-0.002876700051097943,0.0
1589986145.3586965,-3.8206779276725995,-0.6,9.0513558553452,0.32082857826651046,-0.34757057023013266,-0.6166666666666667,-0.00232956243970845,-0.002107711127635143,-7.395043735776904e-05
1589986145.3686965,-3.8263404093046907,-0.6036595906953095,9.062680818609381,0.3322222222222222,-0.36,-0.6166666666666667,-0.003564924293629577,-0.0026876284552089496,-0.0006916313643183325
1589986145.3786964,-3.8151616800225505,-0.6003233600451012,9.025808400112753,0.3322222222222222,-0.36,-0.6166666666666667,-0.002709440401689844,-0.0038708174023914833,-0.001583336510090797
1589986145.3886964,-3.8201475532637668,-0.5950737766318833,9.015221329895649,0.3322222222222222,-0.36,-0.6166666666666667,-0.004932881867560232,-0.003288587911706822,-0.002165566000775458
1589986145.3986964,-3.83,-0.6036279403175278,9.048139701587639,0.3322222222222222,-0.36,-0.6166666666666667,-0.0057534908998948895,-0.004363323129985824,-0.001090830782496456
1589986145.4086964,-3.822328380545163,-0.61,9.083835809727418,0.32455060276738523,-0.3621310054041214,-0.6166666666666667,-0.003944901197339081,-0.004363323129985824,-0.0015092527151431992
1589986145.4186964,-3.8154234062797334,-0.5991531874405328,9.079153187440532,0.31222222222222223,-0.3655555555555556,-0.6166666666666667,-0.0038640941990811663,-0.004363323129985824,-0.00277326341658471
1589986145.4286964,-3.7449775272709607,-0.5599910109083842,9.009982021816768,0.31222222222222223,-0.3655555555555556,-0.6166666666666667,-0.006818427808940944,-0.0035449549036674507,-0.0016357558948526213
1589986145.4386964,-3.622998609572738,-0.5126917729125916,9.019846581669926,0.31222222222222223,-0.3655555555555556,-0.6166666666666667,-0.008449754728421455,-0.0057143101003281575,-0.005160527037227772
1589986145.4486964,-3.5318313459851836,-0.41274701897777527,9.076534923211852,0.31222222222222223,-0.3655555555555556,-0.6166666666666667,-0.00745760309245669,-0.007814027862493692,-0.01796637320261335
1589986145.4586964,-3.5798350792751985,-0.4052831257078143,9.096179218573047,0.3175969705549264,-0.361716449603624,-0.6228092361897571,-0.004283564622177299,-0.004957612805302587,-0.0608550465628703
1589986145.4686964,-3.6801984684398934,-0.49019846843989306,9.105049617109973,0.32,-0.36,-0.6255555555555555,-0.0024516630670721584,-0.0008100045062377397,-0.10837049671102306
1589986145.4786963,-3.685866539083681,-0.5594671132071173,9.039332695418404,0.32,-0.36,-0.6255555555555555,-0.0014108008534563328,0.0023125821346097375,-0.136630351657455
1589986145.4886963,-3.7695336659890346,-0.6396891106593565,9.05178237746155,0.32,-0.36,-0.6255555555555555,-0.0004397235896258224,0.005876921118971902,-0.15766291433981547
1589986145.4986963,-3.8545730738369075,-0.7045730738369075,9.083510439119559,0.32,-0.36,-0.6255555555555555,0.0019146475258469237,0.008018744982644576,-0.16536539170128023
1589986145.5086963,-3.8997168199202537,-0.7488672796810155,9.090849540239239,0.32034610898635635,-0.36,-0.6257128778220812,0.005423263757684593,0.00878842656956702,-0.16247200628237657
1589986145.5186963,-3.872915655052814,-0.7327791265962478,9.097220873403751,0.3322222222222222,-0.36,-0.6311111111111111,0.004984527442225095,0.014014329386160915,-0.14917044740667212
1589986145.5286963,-3.8238479233226834,-0.7258986155484558,9.00167050053248,0.3322222222222222,-0.36,-0.6311111111111111,0.00545415391248228,0.015705198435933692,-0.1348018012284245
1589986145.5386963,-3.795854787593918,-0.7224356372182459,8.97072606203041,0.3322222222222222,-0.36,-0.6311111111111111,0.0063584989709903625,0.016175976013458465,-0.12954317631181259
1589986145.5486963,-3.7926715621221505,-0.7319853136335486,8.997328437877849,0.3322222222222222,-0.36,-0.6311111111111111,0.007344393257455864,0.017744714739962624,-0.12762720155208535
1589986145.5586963,-3.863260547742413,-0.7445057533140435,9.041758629971065,0.32774925420003137,-0.36319497715870774,-0.622804170498471,0.006544984694978735,0.01854412330243975,-0.12762720155208535
1589986145.5686963,-3.940166505443843,-0.77,9.08,0.3244444444444444,-0.3655555555555556,-0.6166666666666667,0.007203115749748553,0.019860385411979382,-0.12038775994961735
1589986145.5786963,-3.96,-0.7531700074239049,9.040730017322446,0.3244444444444444,-0.3655555555555556,-0.6166666666666667,0.008859727075554612,0.020113829068392954,-0.10706068175806839
1589986145.5886962,-3.933574626050879,-0.74,9.043031717436401,0.3244444444444444,-0.3655555555555556,-0.6166666666666667,0.011979397893169194,0.01819367351780215,-0.08378170546763225
1589986145.5986962,-3.889852891098549,-0.7148774092487911,9.095171627051693,0.3244444444444444,-0.3655555555555556,-0.6166666666666667,0.012541879483407882,0.017453292519943295,-0.06540170567436288
1589986145.6086962,-3.8553147213730616,-0.69,9.125314721373062,0.3244444444444444,-0.35670558481578335,-0.6208313587795007,0.011999138607461015,0.017453292519943295,-0.04796610068106382
1589986145.6186962,-3.83197110186429,-0.6945072245339274,9.129014449067855,0.3244444444444444,-0.3466666666666667,-0.6255555555555555,0.011507476680937883,0.016961630593420162,-0.03189497927202545
1589986145.6286962,-3.7898015523725697,-0.6966335920620949,9.076038249179803,0.3244444444444444,-0.3466666666666667,-0.6255555555555555,0.0101738715439431,0.015260807315914648,-0.01593030176272171
1589986145.6386962,-3.7600455481622306,-0.6849772259188847,8.95,0.3244444444444444,-0.3466666666666667,-0.6255555555555555,0.009274545918092245,0.01199417007371628,0.012063729546142583
1589986145.6486962,-3.765983369573009,-0.6639334782920361,8.937950108719027,0.3244444444444444,-0.3466666666666667,-0.6255555555555555,0.009379330631300739,0.01178460064729929,0.02880881724691914
1589986145.6586962,-3.763374730452839,-0.6298758086414823,8.926749460905679,0.32931905509854553,-0.3511663072704523,-0.6225557951530318,0.003204756469093793,0.0071999536130210925,0.027203033684015825
1589986145.6686962,-3.7761141740526205,-0.6283425221578617,8.94611417405262,0.3388888888888889,-0.36,-0.6166666666666667,-0.010303627183931036,-0.009031993616283554,0.0016894973519396908
1589986145.6786962,-3.8176099589219517,-0.6479120328624387,8.937912032862439,0.3388888888888889,-0.36,-0.6166666666666667,-0.011543614842162424,-0.014213751327741244,-0.05994481820219316
1589986145.6886961,-3.8521028985264287,-0.63,8.960342995088096,0.3388888888888889,-0.36,-0.6166666666666667,-0.006315594050469247,-0.008937329424464142,-0.0890641727957584
1589986145.6986961,-3.8777569323693606,-0.6377569323693603,9.03357463164638,0.3388888888888889,-0.36,-0.6166666666666667,-0.003940248099673755,-0.0074242779623191575,-0.09754015787921293
1589986145.7086961,-3.8952204691914543,-0.6749265102695153,9.124485571886607,0.335604548709212,-0.35343131964064634,-0.6095505962773669,-0.0005694648493112667,-0.0033205912636154454,-0.09329008136151003
1589986145.718696,-3.8567691997941878,-0.685807700051453,9.154192299948548,0.3322222222222222,-0.3466666666666667,-0.6022222222222222,0.0017243525816595731,-0.000633521799163117,-0.08656161133639736
1589986145.728696,-3.8237324141154474,-0.69,9.090352185089975,0.3322222222222222,-0.3466666666666667,-0.6022222222222222,0.002181661564992912,-0.0004993246678373004,-0.07462205386450249
1589986145.738696,-3.759368630312791,-0.7068771232290696,9.05687712322907,0.3322222222222222,-0.3466666666666667,-0.6022222222222222,0.00034065301116739254,-0.0012273390358836795,-0.06824517803272212
1589986145.748696,-3.6875977232462587,-0.7431444833955294,9.079257793358211,0.3322222222222222,-0.3466666666666667,-0.6022222222222222,-0.0031105679771221834,-0.0006668586690236162,-0.07427661658249747
1589986145.758696,-3.6455093520374082,-0.7744906479625919,9.06754676018704,0.3287294960290952,-0.3496604319750612,-0.6191868923031247,-0.005944007615577298,0.0015806844855914743,-0.08953884456044807
1589986145.768696,-3.627107320780208,-0.7971902389597231,9.04,0.3244444444444444,-0.3533333333333333,-0.64,-0.005138611558798555,0.004056825746566487,-0.11395137230608236
1589986145.778696,-3.5785114577315618,-0.7696183323704987,8.980171769689967,0.3244444444444444,-0.3533333333333333,-0.64,-0.0029290056354658355,0.006888471407002268,-0.1426386127548007
1589986145.788696,-3.62031875,-0.75870625,8.966125,0.3244444444444444,-0.3533333333333333,-0.64,-0.0002815706957318975,0.008269179100562197,-0.1898740966167675
1589986145.798696,-3.727426108374384,-0.7431506568144499,9.004289819376027,0.3244444444444444,-0.3533333333333333,-0.64,-0.00040503138044665197,0.008228025538990612,-0.2177288838149284
1589986145.808696,-3.7886804005357484,-0.672777600612284,9.048332801836851,0.3244444444444444,-0.3583410223157656,-0.6304398664880839,0.0013938200074324891,0.011211297049900593,-0.21631030401360377
1589986145.818696,-3.8471031311583097,-0.7085979125611269,9.144391650244508,0.3244444444444444,-0.3655555555555556,-0.6166666666666667,0.006544984694978735,0.014496799542990999,-0.19261821646045035
1589986145.828696,-3.876844942052789,-0.7168449420527886,9.093155057947211,0.3244444444444444,-0.3655555555555556,-0.6166666666666667,0.004707486562923647,0.010639971880550686,-0.1891920567770316
1589986145.838696,-3.865185672956518,-0.7200742691826072,9.119702923269571,0.3244444444444444,-0.3655555555555556,-0.6166666666666667,0.002731127711770079,0.006019823081375202,-0.1881723607361676
1589986145.848696,-3.7115654574132493,-0.6953217665615142,9.152660883280758,0.3244444444444444,-0.3655555555555556,-0.6166666666666667,0.00018022795657177213,0.0040730657908578235,-0.1840203140942324
1589986145.858696,-3.40301958307012,-0.6865676984628343,9.156567698462835,0.33364872136824125,-0.3577319201703283,-0.6143655974357175,-0.006435189556205666,0.004098712251603866,-0.19000439249482803
1589986145.868696,-3.0164052044609666,-0.6548289962825279,9.051267657992565,0.3466666666666667,-0.3466666666666667,-0.6111111111111112,-0.0075648506496176155,0.009537267350756187,-0.2333368146420328
1589986145.878696,-2.623741312836129,-0.5664124161980305,8.767558016748115,0.3466666666666667,-0.3466666666666667,-0.6111111111111112,-0.00545415391248228,0.05185179113141186,-0.2887702398388863
1589986145.888696,-2.3728911872646683,-0.46930699204041754,8.59358419522425,0.3466666666666667,-0.3466666666666667,-0.6111111111111112,-0.04120528664937437,0.12776539459435574,-0.4138967401747521
1589986145.898696,-2.4037923832923833,-0.4523315198315198,8.931770621270621,0.3466666666666667,-0.3466666666666667,-0.6111111111111112,-0.09212931271474407,0.22320069089753092,-0.54550443045443
1589986145.908696,-2.566772867065206,-0.5231749542140364,9.534710252600298,0.3370722323968808,-0.3438682900046458,-0.6163080963405785,-0.09474618663414534,0.21865030006231634,-0.7526453839514339
1589986145.918696,-2.4992611084942693,-0.6698546082587533,9.48646286701209,0.32,-0.3388888888888889,-0.6255555555555555,-0.03817907738737596,0.07199483164476607,-0.9719302272043424
1589986145.928696,-2.2366141923966407,-0.802188907372094,8.94760619953747,0.32,-0.3388888888888889,-0.6255555555555555,-0.03219586147246083,0.07206869850791317,-0.9771009076246394
1589986145.938696,-2.1488366162027237,-0.8825278094307885,8.901856313419067,0.32,-0.3388888888888889,-0.6255555555555555,0.05747483749547696,0.07476949815817947,-1.0028248172443373
1589986145.948696,-2.198720833717606,-0.8532325002305635,8.865110209351656,0.32,-0.3388888888888889,-0.6255555555555555,0.037260779556275006,0.07006749270433751,-0.9270260869977905
1589986145.958696,-2.3261480719794343,-0.9119259640102828,9.131740874035989,0.3356995144244502,-0.3388888888888889,-0.6219670951156813,0.010758788294571987,0.0573332807541857,-0.8558094115987918
1589986145.9686959,-2.35,-0.9,9.09,0.3588888888888889,-0.3388888888888889,-0.6166666666666667,0.02181661564992912,0.05017821599483697,-0.8115781021773633
1589986145.9786959,-2.336551345532831,-0.8647289558665231,8.951626264800861,0.3588888888888889,-0.3388888888888889,-0.6166666666666667,0.021676956432200238,0.05331104912459746,-0.7362465964729751
1589986145.9886959,-2.3946278629363635,-0.8846278629363633,8.88776717761818,0.3588888888888889,-0.3388888888888889,-0.6166666666666667,0.015442854009493811,0.04556248209744317,-0.6826623039017949
1589986145.9986959,-2.417270268827726,-0.9072702688277261,9.005445940897042,0.3588888888888889,-0.3388888888888889,-0.6166666666666667,0.018841890781505406,0.04234487217206228,-0.6307036204727167
1589986146.0086958,-2.4410565374825226,-0.9266339224895135,9.056633922489514,0.3642943072136777,-0.3317635647334855,-0.6186322733302262,0.017453292519943295,0.037937861158700736,-0.5963601179567541
1589986146.0186958,-2.460890359168242,-0.9356677693761815,9.060890359168242,0.38333333333333336,-0.30666666666666664,-0.6255555555555555,0.017453292519943295,0.03604597738179286,-0.5537310685574405
1589986146.0286958,-2.401961273006135,-0.9342645226226994,8.992451591257668,0.38333333333333336,-0.30666666666666664,-0.6255555555555555,0.015897274482497538,0.034387912360738,-0.523775413433741
1589986146.0386958,-2.345948293981644,-0.9453160979938812,8.954051706018356,0.38333333333333336,-0.30666666666666664,-0.6255555555555555,0.014691734621501053,0.032282950910248756,-0.4945319145190761
1589986146.0486958,-2.3430176872225768,-0.9426035374445153,8.980414149778062,0.38333333333333336,-0.30666666666666664,-0.6255555555555555,0.01413562343980659,0.030543261909900768,-0.47205866842508143
1589986146.0586958,-2.3714848850941372,-0.9482969770188274,9.00318790807531,0.38333333333333336,-0.30666666666666664,-0.6255555555555555,0.011651391781429316,0.030543261909900768,-0.45715327847481774
1589986146.0686958,-2.35,-0.9877951521125499,9.03,0.3911111111111111,-0.30666666666666664,-0.6255555555555555,0.011397859620872787,0.02970147132867725,-0.4248397834003048
1589986146.0786958,-2.3508576051779935,-0.973430420711974,9.021423948220065,0.3911111111111111,-0.30666666666666664,-0.6255555555555555,0.006919185545932212,0.023188097070640682,-0.40017780342273296
1589986146.0886958,-2.3654602689211672,-1.020920537842335,8.927269865539417,0.3911111111111111,-0.30666666666666664,-0.6255555555555555,0.010312684882972746,0.025584315837923127,-0.3678005024038832
1589986146.0986958,-2.3780348068534423,-1.046069613706885,8.920982596573278,0.3911111111111111,-0.30666666666666664,-0.6255555555555555,0.008941015577753252,0.024212646532703632,-0.3506546360886395
1589986146.1086957,-2.4117768032969935,-1.0191115983515033,9.04,0.3914072449939433,-0.3054821311353378,-0.625802333791249,0.008823555846511724,0.017647111693023448,-0.3220137253400903
1589986146.1186957,-2.445837342915728,-1.0020813285421362,9.04,0.39708400159706575,-0.2827751047228482,-0.6305329642938511,0.010681270100739501,0.021362540201479003,-0.3052942970520403
1589986146.1286957,-2.413685503685504,-1.02,9.042358722358722,0.3977777777777778,-0.28,-0.6311111111111111,0.007233789390560037,0.01805633165031603,-0.2909355584048472
1589986146.1386957,-2.4255659408381267,-1.0175366337989593,8.924434059161873,0.3977777777777778,-0.28,-0.6311111111111111,0.005561638539708547,0.020510815612980127,-0.284706834231575
1589986146.1486957,-2.3591293115082808,-0.9836637939344862,9.01,0.3977777777777778,-0.28,-0.6311111111111111,0.006741522255709632,0.016958657218623878,-0.285303029712752
1589986146.1586957,-2.419693974529557,-1.0232313248431857,9.011615662421592,0.4010091026209635,-0.2808975902342183,-0.6302135208768929,0.004187081699626199,0.0181916404417205,-0.28794594437872567
1589986146.1686957,-2.4561481670652148,-1.0446172776449285,8.996913611775359,0.4177777777777778,-0.2855555555555556,-0.6255555555555555,0.0052871597820576145,0.016362461737446838,-0.29796648221932526
1589986146.1786957,-2.44,-1.041513561200715,8.948783903001788,0.4177777777777778,-0.2855555555555556,-0.6255555555555555,0.006710088609871938,0.01775105203885172,-0.30787959187203107
1589986146.1886957,-2.44,-1.041798845915399,8.935731794553865,0.4177777777777778,-0.2855555555555556,-0.6255555555555555,0.006741208344727252,0.020492990373099523,-0.31973650123204084
1589986146.1986957,-2.44,-1.065654699682975,8.968482049524463,0.4177777777777778,-0.2855555555555556,-0.6255555555555555,0.009343478307967844,0.02181661564992912,-0.33389155396339903
1589986146.2086957,-2.440080190490821,-1.080026730163607,8.990080190490822,0.41780302293229554,-0.28553179541012713,-0.6255748606737161,0.010912681537757117,0.021820989362721678,-0.34802750416988015
1589986146.2186956,-2.478740302634611,-1.092913434211537,9.028740302634612,0.4299737989775627,-0.2740769473675227,-0.6348819247083323,0.013021263556817667,0.023929571381782228,-0.3733304883986068
1589986146.2286956,-2.512538800451657,-1.0958203998494478,9.016563198795582,0.43666666666666665,-0.2677777777777778,-0.64,0.0150926474730038,0.026456878948243296,-0.39545155349119077
1589986146.2386956,-2.5252933040680716,-1.0923533479659642,8.977060043897893,0.43666666666666665,-0.2677777777777778,-0.64,0.015592330416487119,0.027591469023948132,-0.4117573802372563
1589986146.2486956,-2.5126822814877174,-1.0986588592561413,8.995976577768424,0.43666666666666665,-0.2677777777777778,-0.64,0.013528856672075885,0.0255279952795369,-0.4248260472851941
1589986146.2586956,-2.5505896291398025,-1.1602948145699012,9.01,0.43709250993430193,-0.2681381066965461,-0.6397379426045321,0.011004785667357617,0.03160193341159954,-0.4476586914739168
1589986146.2686956,-2.5742726781342404,-1.17,9.01,0.4511111111111111,-0.28,-0.6311111111111111,0.013015607964321642,0.029844146585021398,-0.46421788229551836
1589986146.2786956,-2.5609140993358457,-1.17,8.980914099335847,0.4511111111111111,-0.28,-0.6311111111111111,0.010313036049026326,0.0272707695624114,-0.4786360038375005
1589986146.2886956,-2.4900321092390114,-1.17,8.910032109239012,0.4511111111111111,-0.28,-0.6311111111111111,0.014179048885138136,0.0272707695624114,-0.48868763721139125
1589986146.2986956,-2.5452693789832517,-1.184730621016748,8.977634689491627,0.4511111111111111,-0.28,-0.6311111111111111,0.013347984741227151,0.034073769608659814,-0.5051363595148756
1589986146.3086956,-2.5303915710856226,-1.2011747132568684,8.97117471325687,0.4511111111111111,-0.2798042144571886,-0.6316984677395453,0.01428758462088716,0.034927941929573235,-0.5160697445692569
1589986146.3186955,-2.551962653953119,-1.2639253079062376,9.025093365117202,0.4511111111111111,-0.27,-0.6611111111111111,0.019849046419681243,0.035997415822383035,-0.5219523448701685
1589986146.3286955,-2.5678330211703275,-1.295666042340655,8.985417447074182,0.4511111111111111,-0.27,-0.6611111111111111,0.021580234928686628,0.035997415822383035,-0.526280316142682
1589986146.3386955,-2.582533378647376,-1.2877336505316308,8.91506675729475,0.4511111111111111,-0.27,-0.6611111111111111,0.016915159219902196,0.035444718339927676,-0.5446591659366162
1589986146.3486955,-2.5876754094272174,-1.3376754094272176,8.955570496300606,0.4511111111111111,-0.27,-0.6611111111111111,0.01854412330243975,0.03381575425739013,-0.5628161100591221
1589986146.3586955,-2.583118369886452,-1.331559184943226,9.04,0.4521505677399284,-0.2677478439708958,-0.6644027237690326,0.0175236391434342,0.03483623841639569,-0.5811314205766475
1589986146.3686955,-2.5782163169248875,-1.34,9.018216316924887,0.4577777777777778,-0.25555555555555554,-0.6822222222222222,0.011999138607461015,0.040756777486610204,-0.6135264246108149
1589986146.3786955,-2.558778751691276,-1.3493893758456381,8.94870208051454,0.4577777777777778,-0.25555555555555554,-0.6822222222222222,0.013706175307602781,0.04281719909497874,-0.6380777625259867
1589986146.3886955,-2.6039492266788646,-1.3838222933760256,8.889873066697161,0.4577777777777778,-0.25555555555555554,-0.6822222222222222,0.018314880125615614,0.04559949596343307,-0.6577017304683327
1589986146.3986955,-2.6252658352789324,-1.4478987529183986,8.953696258755196,0.4577777777777778,-0.25555555555555554,-0.6822222222222222,0.02038058184547528,0.045298475604136225,-0.6864805397566706
1589986146.4086955,-2.6331567115246513,-1.47,9.01120148624598,0.46212272284149136,-0.25175372862480616,-0.6859154255263787,0.016789025721584774,0.04754556962355451,-0.7082202591840002
1589986146.4186954,-2.5674340164418044,-1.4802639342327812,8.93,0.5022222222222222,-0.21666666666666667,-0.72,0.021285595637964512,0.053730613727592254,-0.7370145427484759
1589986146.4286954,-2.56,-1.5123599536817327,8.923706790182045,0.5022222222222222,-0.21666666666666667,-0.72,0.022735825757672246,0.05436991845006947,-0.7563136772229508
1589986146.4386954,-2.56,-1.5362459424058923,8.860010820250954,0.5022222222222222,-0.21666666666666667,-0.72,0.020998787639627148,0.052632880332024366,-0.7710785012263343
1589986146.4486954,-2.587799336410848,-1.6003667772648587,8.93981661136757,0.5022222222222222,-0.21666666666666667,-0.72,0.02181661564992912,0.055532346924612334,-0.7898615095101411
1589986146.4586954,-2.4970398153491056,-1.6154933641084825,8.932253317945758,0.5022222222222222,-0.21666666666666667,-0.72,0.02181661564992912,0.051407210283829656,-0.7939866461509236
1589986146.4686954,-2.496579584957337,-1.6520522490255978,9.073843252923206,0.4844444444444445,-0.20222222222222225,-0.7411111111111112,0.008382034280965341,0.07553731409091274,-0.7999520729716472
1589986146.4786954,-2.45239650268619,-1.678562098388286,8.994313704835141,0.4844444444444445,-0.20222222222222225,-0.7411111111111112,0.01802128752235349,0.06493413552538578,-0.8047716995923413
1589986146.4886954,-2.3335622449765183,-1.662603741627531,8.83643775502348,0.4844444444444445,-0.20222222222222225,-0.7411111111111112,0.014957961467489896,0.062281911098118155,-0.8063705168365499
1589986146.4986954,-2.3957811364071167,-1.7580355844652764,8.857633441744786,0.4844444444444445,-0.20222222222222225,-0.7411111111111112,0.02189212025622474,0.06013447292449853,-0.8077066233152533
1589986146.5086954,-2.4493641719397776,-1.82,9.082052149247218,0.4846210633500619,-0.20183366062986402,-0.7415703202657163,0.01125509823519745,0.06453241137240734,-0.8095351567764634
1589986146.5186954,-2.431060440759328,-1.82,8.8532555094916,0.4897054331224089,-0.1906480471307004,-0.7547896816738187,0.021238234938284695,0.06952397972395097,-0.8135284114576985
1589986146.5286953,-2.389232504682445,-1.858613996254044,9.001237016856802,0.49,-0.19,-0.7555555555555555,0.011696759497312161,0.06966198052469876,-0.8305245772902207
1589986146.5386953,-2.3486938849013406,-1.8913061150986596,8.86,0.49,-0.19,-0.7555555555555555,0.01811669813590934,0.0740829878158335,-0.8422193034104332
1589986146.5486953,-2.3316569404345064,-1.9016686119130985,8.878354731044086,0.49,-0.19,-0.7555555555555555,0.01563566560272005,0.07981139128531357,-0.8595772029288323
1589986146.5586953,-2.291292215815486,-1.9134459088412958,8.965261875343218,0.490335018915126,-0.190813617365306,-0.7577571084263836,0.017735210277775474,0.07578417321494779,-0.8710467999478362
1589986146.5686953,-2.3169817557415753,-2.0111277098089717,8.902255419617944,0.4977777777777778,-0.2088888888888889,-0.8066666666666666,0.018071968471793185,0.08924189884742609,-0.8891700031906399
1589986146.5786953,-2.31,-2.056609711744477,8.95423110855044,0.4977777777777778,-0.2088888888888889,-0.8066666666666666,0.00491805774858492,0.09529073961095948,-0.9032265263617674
1589986146.5886953,-2.31,-2.041506274643957,8.750334707693415,0.4977777777777778,-0.2088888888888889,-0.8066666666666666,0.00738935186519691,0.10188085725525811,-0.9081691145949914
1589986146.5986953,-2.213087042119079,-2.0892172771745616,8.887282394702302,0.4977777777777778,-0.2088888888888889,-0.8066666666666666,0.0031065119208841174,0.10190968795011601,-0.9264069958870065
1589986146.6086953,-2.175553036630474,-2.139262617826035,8.981117408423815,0.4977777777777778,-0.2088888888888889,-0.8066666666666666,-0.003717362842009458,0.09849775056866922,-0.9339132581261894
1589986146.6186953,-2.1795860355173042,-2.2110349112067396,8.792690769137522,0.5155555555555555,-0.23555555555555555,-0.7688888888888888,0.00011289130014623301,0.1097675003516156,-0.9304560792094475
1589986146.6286952,-2.1665763529974273,-2.3235714123084628,8.89807882334191,0.5155555555555555,-0.23555555555555555,-0.7688888888888888,0.005215030969610399,0.08910421728997454,-0.9267574743153898
1589986146.6386952,-2.175507520933581,-2.547101504186716,8.824347743719926,0.5155555555555555,-0.23555555555555555,-0.7688888888888888,0.005469942089609308,0.08272926286980027,-0.9170725112339129
1589986146.6486952,-2.096048952373735,-2.531209790474747,8.848185314287878,0.5155555555555555,-0.23555555555555555,-0.7688888888888888,0.01153725176588222,0.07579519466834551,-0.9153389941835491
1589986146.6586952,-2.063259442591198,-2.2873337458301948,8.781186376842784,0.5095799108050265,-0.23981093893850808,-0.7712429307603094,0.01611997990284638,0.07170398843252779,-0.9584526918468707
1589986146.6686952,-2.114590347923681,-2.3864141414141415,8.981700336700337,0.44222222222222224,-0.2877777777777778,-0.7977777777777778,0.0044728959190244695,0.08052253289670669,-1.0276991039940953
1589986146.6786952,-2.1747823159784563,-2.453043087971275,8.818696140035907,0.44222222222222224,-0.2877777777777778,-0.7977777777777778,0.01868635236092953,0.08019980815664529,-1.095384560372578
1589986146.6886952,-2.1558456028651016,-2.429742671441836,8.844411725693062,0.44222222222222224,-0.2877777777777778,-0.7977777777777778,0.015881217118454503,0.08375334794273094,-1.1731283871704912
1589986146.6986952,-2.18,-2.4586807533867563,8.79584694525854,0.44222222222222224,-0.2877777777777778,-0.7977777777777778,0.022907446432425576,0.08738993642612042,-1.2413849922405364
1589986146.7086952,-2.18,-2.372719652409157,8.91619248662718,0.44222222222222224,-0.2877777777777778,-0.7977777777777778,0.022907446432425576,0.08832762657655693,-1.2995217815676006
1589986146.7186952,-2.0186752339363694,-2.2025524641297567,8.97867523393637,0.4066666666666667,-0.22666666666666666,-0.68,0.02632444834009644,0.0892366540624208,-1.3769950156489645
1589986146.7286952,-1.9478897783965656,-2.145653556096995,8.854220443206868,0.4066666666666667,-0.22666666666666666,-0.68,0.03575348181029536,0.08957696344265131,-1.4252966874176733
1589986146.7386951,-1.9501553564620662,-2.185443194815097,8.705738658025162,0.4066666666666667,-0.22666666666666666,-0.68,0.041963923346773686,0.08710697590315247,-1.4684177199367936
1589986146.7486951,-1.6543316812809759,-2.113486084635913,8.585810141059856,0.4066666666666667,-0.22666666666666666,-0.68,0.07684971481474842,0.05396547400857647,-1.5015592218313698
1589986146.7586951,-1.5223582550195929,-2.020038665603218,7.625025834864931,0.4066666666666667,-0.22666666666666666,-0.68,0.17289807864211693,-0.024636464478905724,-1.5212816046421718
1589986146.768695,-2.1665130382049727,-2.6398544572468166,10.480942995755003,0.46063624418839705,-0.1472397412573277,-0.6413048312108348,-0.11101105054533142,0.25000482130781154,-1.565334234756647
1589986146.778695,-1.591663845564825,-2.0,8.451373473582397,0.4655555555555556,-0.14,-0.6377777777777778,-0.053215577223953626,0.2826329236941845,-1.5948262786794993
1589986146.788695,-1.3465610768548746,-2.0,7.944264296941119,0.4655555555555556,-0.14,-0.6377777777777778,0.22244762225947054,-0.1599033162792054,-1.6234067441777809
1589986146.798695,-1.8005030778176567,-2.32935215447236,8.984315361016982,0.4655555555555556,-0.14,-0.6377777777777778,0.04262109658849092,0.021478931202413204,-1.636458049464814
1589986146.808695,-1.740898963630012,-2.121573186352521,8.58880138182665,0.46575532525111385,-0.1395838131342537,-0.6376695691926837,-0.09494711717972878,0.23924311749178798,-1.6408383075546609
1589986146.818695,-1.8385809106082367,-2.292516593564414,8.458558785855685,0.48746242457960814,-0.0943606895332238,-0.6259115570564159,0.0187109891221742,0.0403414314634577,-1.6657010183082022
1589986146.828695,-1.8448874294733406,-2.427238076232289,8.697610348143176,0.4922222222222222,-0.08444444444444445,-0.6233333333333333,0.04971024778827879,0.13601621489574248,-1.6497838070582067
1589986146.838695,-1.989463362420856,-2.5946417880662542,9.062854810326373,0.4922222222222222,-0.08444444444444445,-0.6233333333333333,0.023978962419404597,0.09036393440257859,-1.664724553401424
1589986146.848695,-1.9132333198699825,-2.536951512703633,8.49542726905545,0.4922222222222222,-0.08444444444444445,-0.6233333333333333,0.052785631585741066,0.08937507062318162,-1.656306881855531
1589986146.858695,-1.8244957975112035,-2.52081741772931,8.471226126593965,0.4922222222222222,-0.08444444444444445,-0.6233333333333333,0.049265718096598396,0.08321522201718194,-1.6527869683663885
1589986146.868695,-1.9475138957085338,-2.807734852204655,9.002762643621724,0.5255555555555556,-0.012222222222222223,-0.6288888888888889,0.07363410939183343,0.09490227807719166,-1.6272483355757494
1589986146.878695,-1.8615465805061928,-2.7669596122778675,8.778840064620354,0.5255555555555556,-0.012222222222222223,-0.6288888888888889,0.0547102448871992,0.09494445451778577,-1.616900698070956
1589986146.888695,-1.8909727361045081,-2.9412896091279275,8.746131172616218,0.5255555555555556,-0.012222222222222223,-0.6288888888888889,0.05735744238726384,0.0957117597928618,-1.5941627749065481
1589986146.898695,-1.8302850410301992,-2.9499592798528287,8.720122160441514,0.5255555555555556,-0.012222222222222223,-0.6288888888888889,0.046954584316350065,0.09382033105269566,-1.5752484875048869
1589986146.908695,-1.868393304669717,-3.0555815878417216,9.084736394362311,0.5255555555555556,-0.012222222222222223,-0.6288888888888889,0.04795273861173491,0.09485846225908251,-1.5573603955302981
1589986146.918695,-1.7455266533952665,-2.9355266533952666,8.619888520238886,0.5492647644326476,0.03815984664159847,-0.6160464007471307,0.03635832373754744,0.09102286784642612,-1.5410978856993804
1589986146.928695,-1.6339020789179148,-2.922356583240064,8.642356583240064,0.5522222222222222,0.04444444444444445,-0.6144444444444445,0.04318087668727058,0.08252172665379953,-1.5091247344704835
1589986146.938695,-1.6919828048442267,-3.0975214939447167,8.82297420726634,0.5522222222222222,0.04444444444444445,-0.6144444444444445,0.05176507880589436,0.09212581775826323,-1.4678891034448844
1589986146.948695,-1.7230028658592955,-3.0587464176758803,8.869504298788945,0.5522222222222222,0.04444444444444445,-0.6144444444444445,0.04245972851260163,0.0828204674649705,-1.4450486981795294
1589986146.958695,-1.6627129133328153,-3.0079455708330096,8.678138739998447,0.5522222222222222,0.04444444444444445,-0.6144444444444445,0.042195709587395665,0.08255644853976454,-1.4105371027348932
1589986146.968695,-1.615370033657008,-3.193927811520755,8.750815892297576,0.5768479760661276,0.0659919790578617,-0.6367615338654837,0.04178689185168675,0.08063661347270554,-1.381569279219509
1589986146.978695,-1.6680494087905406,-3.0556543304692876,8.99261732187715,0.5877777777777777,0.07555555555555556,-0.6466666666666666,0.04466480720617146,0.08139752455395162,-1.3332214668616156
1589986146.988695,-1.5204076865229843,-3.0019664314629035,8.777865725851614,0.5877777777777777,0.07555555555555556,-0.6466666666666666,0.04393275204512491,0.07627313842662571,-1.3090636465470793
1589986146.998695,-1.5655942051440968,-3.1431910443136037,8.92038735667803,0.5877777777777777,0.07555555555555556,-0.6466666666666666,0.03420897052876881,0.08045933372381862,-1.2593881386975685
1589986147.008695,-1.54872499393267,-3.15709166868911,8.93,0.5877777777777777,0.07555555555555556,-0.6466666666666666,0.03149501110578589,0.0753064105509945,-1.232973298601302
1589986147.0186949,-1.451508638280506,-3.0765374325488595,8.730115177073415,0.6533333333333333,0.11555555555555555,-0.6311111111111111,0.030159272458827446,0.07575474278020812,-1.1739407806399451
1589986147.0286949,-1.479948830069312,-3.19993603758664,9.109590640554496,0.6533333333333333,0.11555555555555555,-0.6311111111111111,0.022931168970026967,0.06437297060117407,-1.1365689259749496
1589986147.0386949,-1.4409266409266408,-3.151158301158301,8.797413127413126,0.6533333333333333,0.11555555555555555,-0.6311111111111111,0.04102197614484742,0.07501462188048023,-1.078039843938766
1589986147.0486948,-1.4498487107946891,-3.2090922647681355,8.829394843178758,0.6533333333333333,0.11555555555555555,-0.6311111111111111,0.017816360548810573,0.050557787115925484,-1.0454944793060206
1589986147.0586948,-1.3312450467097834,-3.031867570064675,8.846964993327173,0.6533333333333333,0.11555555555555555,-0.6311111111111111,0.03318333892415221,0.052028809689449784,-0.9996763441135907
1589986147.0686948,-1.2140650536772952,-2.9240650536772956,9.013879186027879,0.9466666666666668,0.14555555555555555,-0.7111111111111111,0.022359496664259192,0.05824225377917266,-0.9137519445942761
1589986147.0786948,-1.3427250623312934,-3.059265211926397,8.781635037398775,0.9466666666666668,0.14555555555555555,-0.7111111111111111,0.017156034332423655,0.04313691689240106,-0.8374841363619577
1589986147.0886948,-1.3859376481012136,-3.206188003544127,8.807562588860728,0.9466666666666668,0.14555555555555555,-0.7111111111111111,0.012442272457513922,0.05256444064222052,-0.7639494511133658
1589986147.0986948,-1.3600850215177915,-3.2997732759525555,8.839914978482208,0.9466666666666668,0.14555555555555555,-0.7111111111111111,0.013086877920331419,0.0382223579621407,-0.6678419393971674
1589986147.1086948,-1.3093717097964865,-3.173429274491216,8.780933661429234,0.9466666666666668,0.14555555555555555,-0.7111111111111111,0.011249072809318925,0.036338180806737404,-0.5773845064365423
1589986147.1186948,-1.3783706674305356,-3.2218397784779906,8.881025112193258,1.263777608029112,-0.14180355835640857,-1.077566546781671,0.00877107941301404,0.03029814005718166,-0.48588402778491024
1589986147.1286948,-1.383186375072576,-3.1035420940584477,8.875576156377008,1.4322222222222225,-0.29444444444444445,-1.272222222222222,0.004624007831016717,0.01723141074088315,-0.3347129071220869
1589986147.1386948,-1.2811785401628648,-2.826476107100973,8.731649956228011,1.4322222222222225,-0.29444444444444445,-1.272222222222222,0.003644673194241929,0.01061326225149568,-0.2460160802521154
1589986147.1486948,-1.3820319009641708,-2.9771713684878782,8.862709201285561,1.4322222222222225,-0.29444444444444445,-1.272222222222222,0.003272492347489368,0.003029118880442684,-0.11570627312690306
1589986147.1586947,-1.4171057253905373,-3.0726343523432242,8.878682823828388,1.4322222222222225,-0.29444444444444445,-1.272222222222222,0.004047606746285854,-0.004019253625378975,-0.0333808773094762
1589986147.1686947,-1.3804233833264763,-3.0405292291580954,8.889788308336762,0.6692730007937399,0.0034795310701358773,-0.7346398457401936,0.0022047535432587234,-0.011941408661796486,0.0862735075342866
1589986147.1786947,-1.3427323636233517,-3.166709963680604,8.86018589089868,0.6611111111111111,0.006666666666666667,-0.7288888888888889,0.002994715264003564,-0.016877460801524923,0.15149770482155794
1589986147.1886947,-1.3396668410954127,-3.1809994767137626,8.801665794522938,0.6611111111111111,0.006666666666666667,-0.7288888888888889,-0.005163417921612825,-0.025925544787904167,0.23565693265156512
1589986147.1986947,-1.3241882534477771,-3.1562823801716653,8.776282380171665,0.6611111111111111,0.006666666666666667,-0.7288888888888889,-0.00545415391248228,-0.02531754178670509,0.2774713722718805
1589986147.2086947,-1.3415894990276878,-3.0276595055097695,8.942715992221501,0.6611111111111111,0.006666666666666667,-0.7288888888888889,-0.013304317285175313,-0.03372428770738082,0.3036796533244504
1589986147.2186947,-1.3172459981115918,-3.0127540018884083,8.996898399244637,0.599242440877451,0.11147947270957306,-0.7288888888888889,-0.004214576744107098,-0.030657013373111403,0.3198000828117438
1589986147.2286947,-1.2449268770554895,-2.9565691694073193,8.797244069694212,0.5666666666666667,0.16666666666666666,-0.7288888888888889,-0.015840975773832273,-0.03327831534201979,0.33307763422342174
1589986147.2386947,-1.3379081153256516,-3.1262346075861727,8.809372434597696,0.5666666666666667,0.16666666666666666,-0.7288888888888889,-0.002501126472462572,-0.02954370681525279,0.3476783736308619
1589986147.2486947,-1.2635937717871253,-3.2064062282128747,8.743144550313735,0.5666666666666667,0.16666666666666666,-0.7288888888888889,-0.007390803171808721,-0.03466157273422012,0.3625606161154537
1589986147.2586946,-1.244076255671416,-3.194076255671416,8.931084931943008,0.5666666666666667,0.16666666666666666,-0.7288888888888889,-0.0067673099531640555,-0.03316957399126432,0.3910388273492762
1589986147.2686946,-1.2338097283786686,-3.1590486418933432,8.856194567573374,0.5570373552557067,0.1721691303300723,-0.724074233183409,-0.004519223044009989,-0.03745170066048742,0.4258386448411126
1589986147.2786946,-1.256732472691162,-3.300394836146971,8.967127308838133,0.5511111111111111,0.17555555555555555,-0.7211111111111111,-0.008132593031450242,-0.03841669867878453,0.4846741635756246
1589986147.2886946,-1.2049690380745894,-3.32,8.922739935424499,0.5511111111111111,0.17555555555555555,-0.7211111111111111,-0.0060586699373659444,-0.03817907738737596,0.5144618023250115
1589986147.2986946,-1.1573006523765144,-3.2946013047530287,8.835552283317801,0.5511111111111111,0.17555555555555555,-0.7211111111111111,-0.0085191749215822,-0.038871719352642026,0.5488450933554613
1589986147.3086946,-1.165348493046052,-3.38232328697368,8.871393972184208,0.5511111111111111,0.17555555555555555,-0.7211111111111111,-0.009234046957007927,-0.041502255993814595,0.5623866262006096
1589986147.3186946,-1.102373232149017,-3.4411866160745084,8.905741635046567,0.543024989459967,0.13081234908589168,-0.7092514660227665,-0.001814225808143037,-0.040987054177434534,0.5586995202393473
1589986147.3286946,-0.9952909203211859,-3.486481778875849,8.867645460160594,0.5344444444444445,0.08333333333333333,-0.6966666666666667,-0.0017011974321959862,-0.04020058424143656,0.5189424306602168
1589986147.3386946,-10.773274673008324,-13.027524375743162,-1.9339120095124844,0.5344444444444445,0.08333333333333333,-0.6966666666666667,-0.0762012100367233,0.0656796866818425,0.38733572226278734
1589986147.3486946,4.027885825494648,-5.991057087252676,-1.6977275381122285,0.5344444444444445,0.08333333333333333,-0.6966666666666667,-1.5676217544665625,0.9684990283542617,-5.01223952151367
1589986147.3586946,4.397326559870347,-4.746022564358288,4.432839867855138,0.5344444444444445,0.08333333333333333,-0.6966666666666667,-2.2258146798658527,-0.920324813171445,-11.704117666626706
1589986147.3686945,-0.7514891917406986,-5.664353319938999,4.246668683885648,0.49948343056328826,0.17683371929456504,-0.6812187768122023,-2.0439992536296208,-1.0195473633796368,-13.54485628277104
1589986147.3786945,-1.303931912838776,-5.156464055049194,2.6746960825737913,0.4866666666666667,0.2111111111111111,-0.6755555555555556,-1.4656008846475221,0.7919076913183354,-12.835275381661646
1589986147.3886945,-0.5839581170294043,-5.209941426528494,3.473754579113366,0.4866666666666667,0.2111111111111111,-0.6755555555555556,-0.9967725429376306,1.6024408048921224,-12.310671027841842
1589986147.3986945,-0.5409401603181507,-4.1853656869446345,2.6463723357981728,0.4866666666666667,0.2111111111111111,-0.6755555555555556,-0.24391208114260488,2.738749720013721,-11.45882727126293
1589986147.4086945,-0.691639151187057,-3.888380271504432,3.3648494741409594,0.4866666666666667,0.2111111111111111,-0.6755555555555556,0.41657553441255335,3.537963983297688,-10.82570213562266
1589986147.4186945,-7.43988576500229,-4.5963507787448465,11.820464956481906,0.3293629434519265,0.47292484221509645,-0.5925940029012062,1.7321198871027264,4.10908629011331,-9.859240514602899
1589986147.4286945,-0.6565667850693542,1.180817573869387,3.764142638858571,0.3244444444444444,0.4811111111111111,-0.59,4.403071035602547,1.552225621621941,-9.005278855386182
1589986147.4386945,-1.4775648691008298,-0.6800754629360886,1.9712056655250478,0.3244444444444444,0.4811111111111111,-0.59,1.7953549910329785,0.9134018715863668,-7.887606095505692
1589986147.4486945,-0.5443272968998651,-0.7513276796325765,13.520298732953284,0.3244444444444444,0.4811111111111111,-0.59,0.10961323304063897,0.8011876659532664,-7.243104244427381
1589986147.4586945,0.5095029751487575,-0.7494224711235562,11.39683234161708,0.3244444444444444,0.4811111111111111,-0.59,0.1336922512475548,0.19892064847600932,-6.6984959326658515
1589986147.4686944,1.229137108318753,-1.015346747256243,7.352595037378718,0.24636909495784953,0.5016572557128466,-0.597844891575208,0.40907932777770206,-0.21990438068996165,-6.066089421028924
1589986147.4786944,0.48059018350567073,-1.4411037298057112,9.786584060231451,0.09222222222222222,0.5422222222222223,-0.6133333333333333,-0.008274039599443034,0.4120837662291682,-5.378185098577194
1589986147.4886944,0.34691319458003045,-0.8994572220703659,8.419606388379085,0.09222222222222222,0.5422222222222223,-0.6133333333333333,-0.034220795840847446,0.8624196594887614,-4.8773308667641455
1589986147.4986944,1.2831462925851704,-1.3683921414257085,8.749803893501289,0.09222222222222222,0.5422222222222223,-0.6133333333333333,0.22891058987446616,0.36310088897162607,-4.640854504001088
1589986147.5086944,1.7575294117647058,-1.6408235294117646,9.724117647058824,0.09222222222222222,0.5422222222222223,-0.6133333333333333,0.11727072577003075,0.009689144009233236,-4.439591451637311
1589986147.5186944,1.312677828166739,-0.9926778281667391,7.841838230726222,-0.038434525411912515,0.5627385710242765,-0.6262910273135781,0.06611012586693057,0.5703949553579715,-4.163870884732413
1589986147.5286944,1.8108013909744725,-1.5151252667351616,9.65483047498617,-0.042222222222222223,0.5633333333333334,-0.6266666666666667,0.018309197681456363,0.35207729512054325,-4.089260538560104
1589986147.5386944,5.198598369631342,-3.1955377783185304,8.593533276554325,-0.042222222222222223,0.5633333333333334,-0.6266666666666667,0.08601669887379143,0.2025739388847569,-4.037364072391851
1589986147.5486944,22.24524522327372,-13.741809578640567,8.547530855312871,-0.042222222222222223,0.5633333333333334,-0.6266666666666667,0.1727588876017757,0.18215001784278015,-3.9970358833018746
1589986147.5586944,6.24734834567527,-3.901390314577375,8.91174163368118,-0.042222222222222223,0.5633333333333334,-0.6266666666666667,0.20206850544668065,0.06412579352560603,-4.599581983802661
1589986147.5686944,1.2620352163338016,-0.4970364153334933,10.066356411222637,-0.14882699766670857,0.538566567320978,-0.6169753234444406,0.21898763343025004,0.44150975141846815,-5.175284485923089
1589986147.5786943,1.3,-0.51,10.1,-0.15222222222222226,0.5377777777777778,-0.6166666666666667,0.21925698728178766,0.4548764363010222,-5.1869003707706485
1589986147.5886943,1.6806956187548039,-0.9722732513451191,9.538020753266718,-0.15222222222222226,0.5377777777777778,-0.6166666666666667,0.0640234242989633,0.34117032328812535,-4.91697194596612
1589986147.5986943,1.6248745728810734,-0.5602271022585215,8.108608425702142,-0.15222222222222226,0.5377777777777778,-0.6166666666666667,0.25033975542376824,0.25938901904680217,-4.8060909718695575
1589986147.6086943,1.6726673934768783,-0.5780680476060689,9.15974743345144,-0.15222222222222226,0.5377777777777778,-0.6166666666666667,0.16770296876691734,0.27595144799459564,-4.692433129590957
1589986147.6186943,1.7258666839635899,-0.5329999351365375,9.58653326414564,-0.21760745113018576,0.5126296128131764,-0.6245703756555414,0.06945680042023022,0.35678897762218015,-4.571082702800949
1589986147.6286943,1.9256123121539679,-0.5728061560769839,9.28532922488795,-0.2533333333333333,0.4988888888888889,-0.6288888888888889,0.10345439284991641,0.30267768181267046,-4.426120745408092
1589986147.6386943,1.862615676607256,-0.39523135321451164,8.631347978795349,-0.2533333333333333,0.4988888888888889,-0.6288888888888889,0.15525866227639595,0.24507623489980337,-4.308899362224744
1589986147.6486943,1.7377728234704923,0.3548294802823956,6.171057206093798,-0.2533333333333333,0.4988888888888889,-0.6288888888888889,0.10015555022923069,-0.18343297934805805,-3.339191277542801
1589986147.6586943,1.7652460677953377,0.5791869064154059,5.482781635947296,-0.2533333333333333,0.4988888888888889,-0.6288888888888889,0.05237621606661377,-0.7186866888937469,-0.5794374856953022
1589986147.6686943,15.71054598969831,0.4192647534952171,11.367693303899927,-0.3329807865260404,0.43610795519581397,-0.6420072929441584,0.011239618578300282,0.34482989520748686,1.4438083408439508
1589986147.6786942,3.311522036394237,-0.17941516777111605,9.801007678552645,-0.3477777777777778,0.4244444444444445,-0.6444444444444445,0.07193103634497983,0.8353775354093183,0.5864038713609039
1589986147.6886942,0.49321250449894616,-0.6491865905702092,10.037211167669287,-0.3477777777777778,0.4244444444444445,-0.6444444444444445,-0.16570784673095285,0.2830516027002348,-0.5657243395494869
1589986147.6986942,5.013748982771048,-0.6249324559975818,10.208699341998186,-0.3477777777777778,0.4244444444444445,-0.6444444444444445,-0.1863183310764399,-0.13772100683690502,-0.21293694569662225
1589986147.7086942,5.80954926016496,-0.6752428814191569,8.384170845940233,-0.3477777777777778,0.4244444444444445,-0.6444444444444445,0.06199878966776534,-0.04350482911880424,0.15082201568267262
1589986147.7186942,4.282256754489008,-0.2799251552273871,8.508708508138948,-0.36669310659879545,0.42145781357796797,-0.6305068337342209,0.05495308565363778,-0.002573950601222133,0.0014341340296006588
1589986147.7286942,3.92203893813314,-0.24389200434153402,8.866583077062229,-0.3688888888888889,0.4211111111111111,-0.6288888888888889,0.02364582422443967,-0.007302675993294721,-0.01855731963177757
1589986147.7386942,3.664981536838403,-0.24240443115878318,9.155228064005627,-0.3688888888888889,0.4211111111111111,-0.6288888888888889,-0.006305565848009847,-0.004211331867096745,-0.001178258366576267
1589986147.7486942,3.7153491827637444,-0.24386032689450224,9.232169390787519,-0.3688888888888889,0.4211111111111111,-0.6288888888888889,-0.0003348672208971287,-0.005680748479188082,0.0
1589986147.7586942,3.9042645781458103,-0.21418582430945626,8.879455092941107,-0.3688888888888889,0.4211111111111111,-0.6288888888888889,0.0017673176818621284,0.0012684563636175417,0.0
1589986147.7686942,3.786683102598141,-0.22251596181806688,9.015896706492192,-0.3688888888888889,0.4265099634054688,-0.6342877411832466,0.0015191227092987499,0.002763796558724189,0.0006625388556941621
1589986147.7786942,3.72656248883809,-0.2666517841197271,9.196785727042183,-0.3688888888888889,0.43,-0.6377777777777778,-0.0034502388928245413,0.010715950373338135,0.001090830782496456
1589986147.7886941,3.7730169484544573,-0.24698305154554254,9.100949154636627,-0.3688888888888889,0.43,-0.6377777777777778,-0.00017872381444308545,-0.0019745881459963845,-0.001419928806829187
1589986147.7986941,3.8774960225186637,-0.2250006119202056,8.847509484763187,-0.3688888888888889,0.43,-0.6377777777777778,0.001090830782496456,-0.008181164118583748,-0.003817840988597925
1589986147.8086941,3.830131673218055,-0.23843115233429507,8.991173828011542,-0.3688888888888889,0.43,-0.6377777777777778,0.0031013576148095027,-0.012747699924597742,-0.0036931475192148082
1589986147.818694,3.709880630272163,-0.2429880630272163,9.172071621836702,-0.3688888888888889,0.43077910410808706,-0.6315449449130812,0.0035984394605020763,-0.0007388412347591779,-0.00021295766955437782
1589986147.828694,3.7446362770012707,-0.24,9.164145489199491,-0.3688888888888889,0.4311111111111111,-0.6288888888888889,0.003977564753678905,0.0068642987248613545,0.0017959031886859932
1589986147.838694,3.8138836957393885,-0.2351594720372302,9.004784161116905,-0.3688888888888889,0.4311111111111111,-0.6288888888888889,0.0017232246773237463,0.006051756405877945,0.0011256221839280808
1589986147.848694,3.7753395170997663,-0.23574311406924875,8.98783473766197,-0.3688888888888889,0.4311111111111111,-0.6288888888888889,-0.0004643542210839548,-0.0025279190455516883,-0.0006264765614125012
1589986147.858694,3.737650980315038,-0.2341163398949873,9.060581699474936,-0.3688888888888889,0.4311111111111111,-0.6288888888888889,-0.0006418077556294167,-0.004426776699328108,-0.001090830782496456
1589986147.868694,3.7572364387807817,-0.23723643878078182,9.141310142930944,-0.38094962019019185,0.4367394523850525,-0.6353212789162506,-0.002669576818042042,0.0033439495594166373,-0.0003014577647236632
1589986147.878694,3.7697170885928815,-0.23271218355533857,9.13384382918381,-0.3855555555555555,0.4388888888888889,-0.6377777777777778,-0.0022125224121532948,0.006514123847818353,0.0
1589986147.888694,3.7742891840012533,-0.23571081599874644,9.041421631997494,-0.3855555555555555,0.4388888888888889,-0.6377777777777778,-0.00011114705469789966,0.005410224972755468,0.0008013185581295703
1589986147.898694,3.804644028554891,-0.2364576500096469,8.980711942890219,-0.3855555555555555,0.4388888888888889,-0.6377777777777778,0.0005324719042477397,-0.004895795034233563,-0.0005324719042477397
1589986147.908694,3.8092850975269554,-0.22744924391701904,9.01796112205814,-0.3855555555555555,0.4388888888888889,-0.6377777777777778,0.002181661564992912,-0.01035181917417342,-0.0015471891517937976
1589986147.918694,3.8140342179654865,-0.22541390658622,9.00789734610354,-0.3844751041915718,0.4415900172988481,-0.6448007116436719,0.0016512962419222435,-0.00725595083618012,-0.001090830782496456
1589986147.928694,3.788870738411956,-0.22111441119782616,9.016701317577175,-0.38333333333333336,0.4444444444444444,-0.6522222222222223,0.001090830782496456,-0.001090830782496456,-0.001090830782496456
1589986147.938694,3.7854046718656704,-0.21991007291873993,8.99396583856551,-0.38333333333333336,0.4444444444444444,-0.6522222222222223,0.001090830782496456,0.003311730438856784,9.809522841853959e-06
1589986147.948694,3.779876817138485,-0.22670772762050495,8.996954093343534,-0.38333333333333336,0.4444444444444444,-0.6522222222222223,-0.00012418945710441684,0.0027757345190717007,0.001090830782496456
1589986147.958694,3.784606710620558,-0.23442416117243026,9.034241611724303,-0.38333333333333336,0.4444444444444444,-0.6522222222222223,-0.0016990604456316584,-0.0016990604456316584,-0.000733858206909151
1589986147.968694,3.804438213673475,-0.23518726210884155,9.062621669523782,-0.3862151456160231,0.43752809496598905,-0.6481876850264566,-0.0010499765279525406,0.0012133935461282018,-0.0010499765279525406
1589986147.978694,3.79,-0.2457669060170878,9.066564033812034,-0.3888888888888889,0.4311111111111111,-0.6444444444444445,-0.0006290718603203407,0.003734251269665483,-0.0012581437206406814
1589986147.988694,3.783980376968758,-0.25,9.02,-0.3888888888888889,0.4311111111111111,-0.6444444444444445,-0.0004341917723461236,0.0013025753170383706,-0.0008683835446922472
1589986147.998694,3.7928600169676403,-0.23713998303235972,8.987849957580899,-0.3888888888888889,0.4311111111111111,-0.6444444444444445,0.0,-0.005611240948691501,-0.0014028102371728753
1589986148.008694,3.8078483677471446,-0.23,8.997469287115008,-0.3888888888888889,0.4311111111111111,-0.6444444444444445,0.0,-0.007870522146877834,-0.0030377856780867247
1589986148.018694,3.819944053524051,-0.23,9.039804187334179,-0.3888888888888889,0.4311111111111111,-0.6444444444444445,0.0,-0.006551087508792448,-0.004357220316172111
1589986148.028694,3.8129837335398915,-0.22350813323005422,8.99272153369481,-0.37666666666666665,0.4244444444444445,-0.6377777777777778,0.00038267797164418665,-0.0007653559432883733,-0.0014735087541406426
1589986148.038694,3.823771056661562,-0.218114471669219,9.02377105666156,-0.37666666666666665,0.4244444444444445,-0.6377777777777778,-0.0007957802664804736,0.0027717625970248767,0.0
1589986148.048694,3.784134094357344,-0.24826818871468825,9.008938660501409,-0.37666666666666665,0.4244444444444445,-0.6377777777777778,0.0,0.002559484176891475,-0.0009019194765471745
1589986148.058694,3.79,-0.2544422918868146,9.044442291886815,-0.37666666666666665,0.4244444444444445,-0.6377777777777778,-0.0009093778634989388,-0.0006062519089992924,-0.002181661564992912
1589986148.0686939,3.8082010915197313,-0.23635978169605373,9.01907934508816,-0.3714085735609665,0.4268712566470753,-0.6430358708834779,-0.0016841474751087184,-0.001387489128802587,-0.001387489128802587
1589986148.0786939,3.8218458180684385,-0.23302569698859354,9.018154181931562,-0.3622222222222222,0.4311111111111111,-0.6522222222222223,0.0004307260997635212,0.0009901570240994021,0.0
1589986148.0886939,3.78,-0.24320540850332192,9.037562140476746,-0.3622222222222222,0.4311111111111111,-0.6522222222222223,-0.0007411749559065092,0.003971804000669261,-0.00034965582658994676
1589986148.0986938,3.783791655533076,-0.23483337786769476,8.982416688933847,-0.3622222222222222,0.4311111111111111,-0.6522222222222223,0.0,0.0017317047975898997,-0.0006772253252861915
1589986148.1086938,3.8049801656749502,-0.2149933885583168,8.984980165674951,-0.3622222222222222,0.4311111111111111,-0.6522222222222223,0.0,-0.0065420999093368515,-0.0016340825845132711
1589986148.1186938,3.82,-0.22,9.009321975365488,-0.3596327846206976,0.42800378598928157,-0.6387571466942942,0.0,-0.008218211375854214,-0.0017471876951370658
1589986148.1286938,3.814129943786388,-0.22,9.031740112427222,-0.3566666666666667,0.4244444444444445,-0.6233333333333333,-0.0006403238012792262,-0.003793872669799835,0.0
1589986148.1386938,3.8274893062195483,-0.2141702312601505,8.952553468902257,-0.3566666666666667,0.4244444444444445,-0.6233333333333333,-0.001090830782496456,0.002724743935261579,-0.0006359291196263392
1589986148.1486938,3.8111995335956856,-0.2215201865617257,8.982161492493805,-0.3566666666666667,0.4244444444444445,-0.6233333333333333,-0.001090830782496456,0.00545415391248228,-0.001090830782496456
1589986148.1586938,3.7935096091835416,-0.22649039081645816,9.039471172449375,-0.3566666666666667,0.4244444444444445,-0.6233333333333333,-0.001090830782496456,0.002774281100124483,-0.001856508728884398
1589986148.1686938,3.7995206156756525,-0.22047938432434758,9.021438152973042,-0.3566666666666667,0.4244444444444445,-0.6233333333333333,-0.001090830782496456,-0.0018156125406417001,-0.0031679069119604506
1589986148.1786938,3.789755991825107,-0.23209760326995726,9.056536817984766,-0.3688888888888889,0.4311111111111111,-0.6444444444444445,-0.0006598219020649585,0.0006332047392295338,0.00043100888043149743
1589986148.1886938,3.8064390607979988,-0.23356093920200105,8.985479686932667,-0.3688888888888889,0.4311111111111111,-0.6444444444444445,0.0,0.0037655820115262235,0.00010465145442274454
1589986148.1986938,3.79,-0.25,8.99255778382053,-0.3688888888888889,0.4311111111111111,-0.6444444444444445,0.0004566139050456783,0.005733164845122859,-0.0006342168774507777
1589986148.2086937,3.7859332751025367,-0.25,9.038467074282241,-0.3688888888888889,0.4311111111111111,-0.6444444444444445,0.0002036090420769437,0.0036433176455873866,-0.00044361087020975613
1589986148.2186937,3.784600627983999,-0.24079874403200138,9.070798744032,-0.3660773940097782,0.4311111111111111,-0.6408661782346673,-8.712945774424358e-05,-0.0034362882209331776,-0.001341756113684509
1589986148.2286937,3.8021795144804087,-0.2143590289608177,9.044359028960818,-0.3566666666666667,0.4311111111111111,-0.6288888888888889,0.0023214997530386673,-0.007160319180249841,-0.002181661564992912
1589986148.2386937,3.806427969066801,-0.22642796906680066,9.013563597868409,-0.3566666666666667,0.4311111111111111,-0.6288888888888889,7.81136068925656e-05,-0.002726617003907896,-0.0017920134351965713
1589986148.2486937,3.7950417375800307,-0.2249582624199692,8.959749574519815,-0.3566666666666667,0.4311111111111111,-0.6288888888888889,0.0016407990374531342,0.0027225240925326894,-0.0013612620462663447
1589986148.2586937,3.793542539431263,-0.24,9.059028359620843,-0.3566666666666667,0.4311111111111111,-0.6288888888888889,0.0,0.0028860612415064343,-0.001689240935499782
1589986148.2686937,3.8058020668466623,-0.23160413369332464,9.074197933153338,-0.37299196226297987,0.428312489008886,-0.632620385025189,0.0009158469413046308,-0.0007408631001128057,-0.001090830782496456
1589986148.2786937,3.8056363195538854,-0.23127263910777063,9.068727360892229,-0.3955555555555556,0.4244444444444445,-0.6377777777777778,0.002181661564992912,-0.002042838173616408,-0.00047600369555997617
1589986148.2886937,3.81,-0.24534152761666814,9.00124319621665,-0.3955555555555556,0.4244444444444445,-0.6377777777777778,0.00043365074004794637,7.450976746685434e-05,0.0
1589986148.2986937,3.801373271889401,-0.23705990783410139,8.980193548387096,-0.3955555555555556,0.4244444444444445,-0.6377777777777778,-0.00014980072496955938,0.001090830782496456,0.0
1589986148.3086936,3.79,-0.22516568597088882,9.035497057912666,-0.3955555555555556,0.4244444444444445,-0.6377777777777778,0.001090830782496456,0.0008090863190086751,0.0
1589986148.3186936,3.789503738128915,-0.24,9.08,-0.39290882557643525,0.42516126714712293,-0.6388254417278463,0.001036697009980568,-0.0002165350900635519,-0.00010826754503177595
1589986148.3286936,3.793168012577717,-0.23561066247409418,9.040495962266847,-0.3422222222222222,0.4388888888888889,-0.6588888888888889,-0.001436407346407468,-0.005320928027590802,-0.0012240566673879334
1589986148.3386936,3.81,-0.23,8.960424573817948,-0.3422222222222222,0.4388888888888889,-0.6588888888888889,-0.0020626753993080904,-0.005738440062857884,0.00040327231606042586
1589986148.3486936,3.806713837941843,-0.23,8.923144648232629,-0.3422222222222222,0.4388888888888889,-0.6588888888888889,0.0003584646729309801,-0.0011371410736070028,0.0007323661095654759
1589986148.3586936,3.7920070055296455,-0.2339964972351772,9.009947458527657,-0.3422222222222222,0.4388888888888889,-0.6588888888888889,0.001090830782496456,0.0037103530299649706,0.0
1589986148.3686936,3.78,-0.24285190542697524,9.097148094573024,-0.3539467223108983,0.44047328079276404,-0.6547694699388135,0.0007797361596451249,0.001090830782496456,0.0
1589986148.3786936,3.7839422991303313,-0.23817310260900537,9.086057700869668,-0.38333333333333336,0.4444444444444444,-0.6444444444444445,-0.0012901143735523965,0.00023075453346152507,0.0008600762490349309
1589986148.3886936,3.79,-0.22362885694545087,9.04371143054549,-0.38333333333333336,0.4444444444444444,-0.6444444444444445,-0.003272492347489368,-0.0022783714409086173,0.0009941209065807508
1589986148.3986936,3.788301088519203,-0.23,8.983397822961594,-0.38333333333333336,0.4444444444444444,-0.6444444444444445,-0.0025312023714934196,-0.003251388165991901,-0.0007201857944984817
1589986148.4086936,3.783795072377726,-0.23,9.015180289510905,-0.38333333333333336,0.4444444444444444,-0.6444444444444445,0.0023327653139241728,0.002181661564992912,0.0002628744282113113
1589986148.4186935,3.7877106927226607,-0.23686792183201744,9.044578614554677,-0.37722851392709567,0.44139203474132555,-0.6462250167712639,0.003364424390499948,0.001682212195249974,-0.001090830782496456
1589986148.4286935,3.784878750119812,-0.2453637496405636,9.035606249400939,-0.3566666666666667,0.4311111111111111,-0.6522222222222223,0.0005321890810799349,-0.0026609454053996744,-0.001090830782496456
1589986148.4386935,3.7996654606963305,-0.23,8.961672696518347,-0.3566666666666667,0.4311111111111111,-0.6522222222222223,0.0005636616797681142,-0.00545415391248228,-0.0016179998852247977
1589986148.4486935,3.81,-0.22104728137692706,8.936858155869219,-0.3566666666666667,0.4311111111111111,-0.6522222222222223,0.0009765901061077264,-0.00398926875332069,-0.002181661564992912
1589986148.4586935,3.816815071186974,-0.21340753559348696,8.987037677967436,-0.3566666666666667,0.4311111111111111,-0.6522222222222223,0.001438252621427326,-0.0010665481496445327,-0.001438252621427326
1589986148.4686935,3.818229125887814,-0.22,9.03647922375706,-0.3613750163115411,0.4279722113478615,-0.6522222222222223,0.0,0.0013476314188657211,0.0
1589986148.4786935,3.7839740867766345,-0.22397408677663455,9.082051826446731,-0.37666666666666665,0.4177777777777778,-0.6522222222222223,-0.00043350561882650815,0.0017481559461664038,0.00043350561882650815
1589986148.4886935,3.782583508088676,-0.22629175404433793,9.029209294487718,-0.37666666666666665,0.4177777777777778,-0.6522222222222223,0.0001226898687547973,0.0014953376662468737,0.0006863238987460383
1589986148.4986935,3.7801909271422027,-0.22,8.970190927142204,-0.37666666666666665,0.4177777777777778,-0.6522222222222223,0.0016258327135482537,0.0007920894363812664,-0.00027791442572232906
1589986148.5086935,3.8065102219393845,-0.23395911224246282,9.01744889030308,-0.37666666666666665,0.4177777777777778,-0.6522222222222223,-0.0003806757332600392,-0.0025111408809692895,-0.0018521822490165343
1589986148.5186934,3.797754499780498,-0.2510179991219941,9.054491000439004,-0.3749201664959433,0.41927477792411216,-0.6469827217100521,-0.001090830782496456,-0.0001110464778825474,-0.0025376541190289363
1589986148.5286934,3.7931052631578948,-0.22,9.073105263157895,-0.3688888888888889,0.4244444444444445,-0.6288888888888889,-0.001090830782496456,0.0022562973553742482,0.00033873166403837316
1589986148.5386934,3.8,-0.22316006251424478,9.042079249829063,-0.3688888888888889,0.4244444444444445,-0.6288888888888889,-0.0007461214359813206,-0.0017235467325756768,0.0004014120894661852
1589986148.5486934,3.8,-0.2299882785791033,8.960140657050761,-0.3688888888888889,0.4244444444444445,-0.6288888888888889,-1.2786086728705254e-06,-0.005447760869117927,-0.001088273565150715
1589986148.5586934,3.8174121916447055,-0.22258780835529443,8.977763425065884,-0.3688888888888889,0.4244444444444445,-0.6288888888888889,0.0013731168838121241,-0.002951892623407483,0.0008085446811807878
1589986148.5686934,3.811372100056163,-0.22862789994383723,8.995883699831511,-0.3688888888888889,0.4244444444444445,-0.6288888888888889,0.0020319886672001634,0.00034246629353271423,0.00014967289779274835
1589986148.5786934,3.803286266028117,-0.23223791132396107,9.05776208867604,-0.3688888888888889,0.4244444444444445,-0.6377777777777778,0.0,-0.0008467125264290427,-0.00024411825606741324
1589986148.5886934,3.7841483143850647,-0.24,9.012665170534415,-0.3688888888888889,0.4244444444444445,-0.6377777777777778,0.0009050218053403481,-0.0009050218053403481,-0.00154334168516663
1589986148.5986934,3.79,-0.24410321679581906,8.972309650387459,-0.3688888888888889,0.4244444444444445,-0.6377777777777778,0.0008388870085521379,-0.002181661564992912,-0.0012864785273657294
1589986148.6086934,3.799387317654064,-0.2468708941153121,9.008774635308129,-0.3688888888888889,0.4244444444444445,-0.6377777777777778,-0.001090830782496456,-0.002181661564992912,-0.000682665004141674
1589986148.6186934,3.8139182063525014,-0.24,9.054561345235625,-0.3688888888888889,0.4254580767190276,-0.6377777777777778,-0.0009249755894093885,-0.0016840959857317094,-0.002181661564992912
1589986148.6286933,3.779572885843326,-0.2395728858433266,9.07871865752998,-0.3688888888888889,0.4311111111111111,-0.6377777777777778,9.318185394787511e-05,0.0010442398555225185,-0.002181661564992912
1589986148.6386933,3.780468244234906,-0.23348941474496873,9.022084682040251,-0.3688888888888889,0.4311111111111111,-0.6377777777777778,0.0014203893616511283,-0.0007612722033417836,-0.002181661564992912
1589986148.6486933,3.8,-0.23455193047442655,8.983620173813934,-0.3688888888888889,0.4311111111111111,-0.6377777777777778,0.00029714609718381875,-0.0027759537593605495,-0.000993077176257637
1589986148.6586933,3.796943311164515,-0.22611337767097003,9.02,-0.3688888888888889,0.4311111111111111,-0.6377777777777778,0.001090830782496456,-0.004029890102559794,0.0008479294552887931
1589986148.6686933,3.794287156271985,-0.24,9.022858104181323,-0.3679361874951145,0.4311111111111111,-0.6387304791715522,0.000779059980439536,-0.0034283777485178283,-0.002181661564992912
1589986148.6786933,3.8101791760722348,-0.23672639202407825,9.04,-0.3622222222222222,0.4311111111111111,-0.6444444444444445,-1.9545077508048743e-05,-0.0022207517200090094,-0.0014674710950006405
1589986148.6886933,3.79,-0.23,9.027800036589827,-0.3622222222222222,0.4311111111111111,-0.6444444444444445,0.0011170139143412302,0.0029801473029816734,0.00026616191266292045
1589986148.6986933,3.7902304490038654,-0.2302304490038656,8.990230449003866,-0.3622222222222222,0.4311111111111111,-0.6444444444444445,-0.002181661564992912,0.005378739652318608,0.001090830782496456
1589986148.7086933,3.8064425305484315,-0.2378524898171894,9.006442530548432,-0.3622222222222222,0.4311111111111111,-0.6444444444444445,-0.0017131475223660347,0.0014788905010525962,0.0008565737611830173
1589986148.7186933,3.823699000233142,-0.2321003332556194,9.023699000233142,-0.3622222222222222,0.4311111111111111,-0.6444444444444445,-0.00045822163374612847,-0.0004034983318772635,0.00022911081687306423
1589986148.7286932,3.8097119692094137,-0.2,9.06,-0.38333333333333336,0.4311111111111111,-0.6522222222222223,0.001059411497228639,0.0021502422797250948,0.001090830782496456
1589986148.7386932,3.793983121680282,-0.2150421957992936,9.029915608401414,-0.38333333333333336,0.4311111111111111,-0.6522222222222223,-0.0003281698042841666,0.0017471703910647892,0.00043449117392812273
1589986148.7486932,3.788558752783964,-0.24714708240534522,8.979970423162584,-0.38333333333333336,0.4311111111111111,-0.6522222222222223,-0.000779625749278937,0.002961287314271849,-0.001090830782496456
1589986148.7586932,3.810898005250632,-0.2391019947493682,9.030449002625316,-0.38333333333333336,0.4311111111111111,-0.6522222222222223,0.0,0.001985747210946391,-0.0009928736054731955
1589986148.7686932,3.828646562556094,-0.21864656255609405,9.04,-0.38288218751869807,0.4311111111111111,-0.6526733680368576,-7.381856129979606e-05,-0.0023292986875925042,0.001238467905096048
1589986148.7786932,3.81,-0.20025868342705921,9.040129341713529,-0.37666666666666665,0.4311111111111111,-0.6588888888888889,-0.0010485038057227762,-0.004278669176438464,0.003272492347489368
1589986148.7886932,3.8015178696566223,-0.22565475356225181,9.03020836253212,-0.37666666666666665,0.4311111111111111,-0.6588888888888889,0.0015648236396793355,0.0027984994903064884,0.0023472354595190036
1589986148.7986932,3.7857390194075586,-0.24,8.988608529111339,-0.37666666666666665,0.4311111111111111,-0.6588888888888889,-0.000313014951555482,0.004363323129985824,0.0
1589986148.8086932,3.8026371724695744,-0.23472565506085058,9.015274344939149,-0.37666666666666665,0.4311111111111111,-0.6588888888888889,-0.001090830782496456,0.0032126395665601094,0.00028767089085642857
1589986148.8186932,3.81,-0.22,9.03,-0.37727778687182845,0.4311111111111111,-0.6561388479656608,-0.0009908364727570526,9.99943097394034e-05,0.0009908364727570526
1589986148.8286932,3.8066696378307374,-0.21666963783073748,9.020008913492212,-0.38333333333333336,0.4311111111111111,-0.6288888888888889,0.0,0.0003642584682778089,0.00036328615710932353
1589986148.8386931,3.8,-0.21,8.99040179047213,-0.38333333333333336,0.4311111111111111,-0.6288888888888889,-0.0005235011204925441,-0.0008290802222501839,0.0005673296620039119
1589986148.8486931,3.8,-0.21,8.960601087072366,-0.38333333333333336,0.4311111111111111,-0.6288888888888889,-0.002148877350918096,-1.6392107037408073e-05,-0.0010580465684216398
1589986148.8586931,3.7820114118632278,-0.23798858813677204,8.994079883042597,-0.38333333333333336,0.4311111111111111,-0.6288888888888889,-0.0013102417801652178,-0.00021941099766876186,0.00043259778949017046
1589986148.868693,3.787964742452415,-0.23203525754758492,9.035753197166907,-0.38333333333333336,0.4311111111111111,-0.6288888888888889,-0.001959649406671525,-0.000868818624175069,-0.0015156250900287508
1589986148.878693,3.819699817092852,-0.23,9.030200121938098,-0.35693349591746465,0.43881106369073947,-0.6519887466277741,0.004297833378886623,0.0010690008654633887,0.0010580859069468551
1589986148.888693,3.8165492899260856,-0.22827464496304295,9.037922514741302,-0.3566666666666667,0.4388888888888889,-0.6522222222222223,-0.0007144167054868409,0.0012790378210012635,0.002896078270479753
1589986148.898693,3.8,-0.22082080902143375,8.982462427064302,-0.3566666666666667,0.4388888888888889,-0.6522222222222223,0.0010012944077833817,0.002271197939705986,0.0010460625951399188
1589986148.908693,3.8,-0.23730103534311703,9.03190310602935,-0.3566666666666667,0.4388888888888889,-0.6522222222222223,-0.0007964194096366632,0.004068911757126031,0.0001472056864298964
1589986148.918693,3.7802448218639237,-0.23975517813607589,9.040734465591772,-0.3568026788132912,0.4385352573076652,-0.6523854367981716,2.6705922539658373e-05,0.0010107130148774809,0.001090830782496456
1589986148.928693,3.7888377619798814,-0.23116223802011843,9.066513285939646,-0.36157653443326754,0.42612323269572666,-0.6581140635421433,0.0009640502816031656,-0.0018013200623130416,0.001090830782496456
1589986148.938693,3.788054001759015,-0.22583799472295515,8.974162005277044,-0.3622222222222222,0.4244444444444445,-0.6588888888888889,0.0006662798257063664,0.00021227547839504474,0.0008785553041014112
1589986148.948693,3.7806761653474052,-0.24797150395778364,8.952028496042216,-0.3622222222222222,0.4244444444444445,-0.6588888888888889,-0.0009433143874950005,0.0010170725849957282,7.375819750072773e-05
1589986148.958693,3.8018509839744223,-0.23,9.011105903846536,-0.3622222222222222,0.4244444444444445,-0.6588888888888889,0.001090830782496456,0.0013740174461097801,0.0006057330891623488
1589986148.968693,3.8097274393725398,-0.23054512125492083,9.06027256062746,-0.3626159209063317,0.424838143128554,-0.6584951902047794,0.001090830782496456,-0.0021519298127398757,0.0031832970907302595
1589986148.978693,3.802183223864258,-0.24345032840722497,9.065633552271484,-0.37666666666666665,0.4388888888888889,-0.6444444444444445,0.000852678002875069,-0.0006145252232536821,-0.0009526111184855476
1589986148.988693,3.81,-0.2255356627201848,9.035238232746174,-0.37666666666666665,0.4388888888888889,-0.6444444444444445,0.0,0.000889548405939934,-0.0031556288706466925
1589986148.998693,3.8069503653503958,-0.24695036535039563,8.982198538598418,-0.37666666666666665,0.4388888888888889,-0.6444444444444445,-0.00016633176755781156,0.0006653270702312462,0.001682666262319477
1589986149.008693,3.791070684890016,-0.23107068489001628,9.045717260439936,-0.37666666666666665,0.4388888888888889,-0.6444444444444445,-0.0010324339806772765,0.004129735922709106,-0.000915640377038918
1589986149.018693,3.7964698876887706,-0.2494096630663116,9.05646988768877,-0.37666666666666665,0.4388888888888889,-0.6444444444444445,-0.001090830782496456,0.004363323129985824,0.0010264350125652676
1589986149.028693,3.7913774485183325,-0.2341323455549975,9.077245102963335,-0.3642118700820358,0.4321824599587031,-0.6262412802053686,-0.001090830782496456,0.0006010252980404884,0.0012410871070065782
1589986149.038693,3.8083925448082603,-0.22160745519173985,9.057495627315642,-0.3622222222222222,0.4311111111111111,-0.6233333333333333,0.000350692320926716,-0.002181661564992912,0.000350692320926716
1589986149.048693,3.8005042222264014,-0.2294957777735984,8.947059111169622,-0.3622222222222222,0.4311111111111111,-0.6233333333333333,0.0020716573398373572,-0.002181661564992912,0.0020716573398373572
1589986149.058693,3.8,-0.21004574100426915,8.999862776987193,-0.3622222222222222,0.4311111111111111,-0.6233333333333333,0.001093325567270411,0.001083346428174591,4.989569547910085e-06
1589986149.068693,3.7813047750926874,-0.21934761245365614,9.056085674721936,-0.3622222222222222,0.4311111111111111,-0.6233333333333333,0.00414982980468506,0.0021104971232259904,0.0010196663407295344
1589986149.078693,3.78,-0.21258263795168125,9.082252086144956,-0.3622222222222222,0.43688017048202565,-0.6447612681395875,0.0019359970758177133,-0.00024566448917519865,0.001090830782496456
1589986149.088693,3.82,-0.2214898666157497,9.022550666921251,-0.3622222222222222,0.4388888888888889,-0.6522222222222223,0.0029474538742346483,-0.0030287134925483282,-0.00016251923662735993
1589986149.098693,3.8180536798639784,-0.24194632013602138,8.939731600680107,-0.3622222222222222,0.4388888888888889,-0.6522222222222223,-0.001090830782496456,0.00021231059169648047,-0.0019693509732964317
1589986149.108693,3.808373896466843,-0.25,8.991382724732098,-0.3622222222222222,0.4388888888888889,-0.6522222222222223,-0.0009134504035470776,0.0014455915403952127,-0.0005586896456483208
1589986149.1186929,3.800611130647221,-0.25,9.045722085469453,-0.3622222222222222,0.4388888888888889,-0.6522222222222223,-6.666401221156935e-05,0.00313916432306623,0.0019816695283582045
1589986149.1286929,3.7914278873146405,-0.23714422537071897,9.08,-0.3622222222222222,0.4244444444444445,-0.6288888888888889,0.00015575834367460706,0.00031151668734921413,0.0009350724388218489
1589986149.1386929,3.7983539747019384,-0.22329205059612273,9.08,-0.3622222222222222,0.4244444444444445,-0.6288888888888889,0.0009112772761071321,0.0018225545522142642,0.00017955350638932386
1589986149.1486928,3.79,-0.2187786822037529,8.983663953388742,-0.3622222222222222,0.4244444444444445,-0.6288888888888889,-0.00082438057302504,0.000133225104735708,-0.00082438057302504
1589986149.1586928,3.79,-0.2115911232970611,9.005226630108817,-0.3622222222222222,0.4244444444444445,-0.6288888888888889,0.0007437015282601574,0.0009172661553783067,0.0007437015282601574
1589986149.1686928,3.7979979428403494,-0.23399382852104914,9.033993828521048,-0.3622222222222222,0.4244444444444445,-0.6288888888888889,-0.0015264898915737268,0.000218390557806395,0.000218390557806395
1589986149.1786928,3.79175686561699,-0.22351373123398022,9.06472940314903,-0.3677176451442288,0.42993986736645107,-0.648122869115912,-0.0003832886191444888,0.0,0.0008991864729242116
1589986149.1886928,3.79,-0.22836420415731434,9.0085494291012,-0.3688888888888889,0.4311111111111111,-0.6522222222222223,0.0029156170556731177,-0.0009123931365883308,0.0020032239190847867
1589986149.1986928,3.79,-0.2201778081389675,8.951244656972772,-0.3688888888888889,0.4311111111111111,-0.6522222222222223,0.0011296225007692878,-1.939585913641583e-05,0.0011102266416328718
1589986149.2086928,3.8056550934757727,-0.2278275467378863,8.973482640213659,-0.3688888888888889,0.4311111111111111,-0.6522222222222223,0.001090830782496456,0.0017077057866232194,0.00023697788918484628
1589986149.2186928,3.8015336658354113,-0.2384663341645885,9.022331670822942,-0.3688888888888889,0.4311111111111111,-0.6522222222222223,0.001090830782496456,0.0012581277728294536,0.0009235337921634585
1589986149.2286928,3.7888923677469197,-0.24778473549383973,9.07778473549384,-0.37666666666666665,0.4244444444444445,-0.6288888888888889,0.002181661564992912,0.0016983658220546213,0.0
1589986149.2386928,3.7803649412434432,-0.23072988248688653,9.060729882486887,-0.37666666666666665,0.4244444444444445,-0.6288888888888889,0.002181661564992912,-0.0020224259081327374,0.0
1589986149.2486928,3.8190648221803998,-0.22093517781959993,8.97,-0.37666666666666665,0.4244444444444445,-0.6288888888888889,0.0010398247448600798,-0.00010201207527275214,0.001090830782496456
1589986149.2586927,3.8027892357540596,-0.23721076424594012,8.97,-0.37666666666666665,0.4244444444444445,-0.6288888888888889,0.00015212921100841124,-0.0018774031429760894,0.001090830782496456
1589986149.2686927,3.806785037971224,-0.22642992405755227,9.031065341741016,-0.37666666666666665,0.4244444444444445,-0.6288888888888889,0.0007401328279418295,-0.0014415287370510826,0.001090830782496456
1589986149.2786927,3.801046323632785,-0.22895367636721498,9.06,-0.3637335785806895,0.4373775325304216,-0.6428168299045567,-0.0008625583770773676,-0.001090830782496456,0.001090830782496456
1589986149.2886927,3.792620215526221,-0.23,9.06,-0.3622222222222222,0.4388888888888889,-0.6444444444444445,-0.00028582117527771185,0.0005191884319410323,0.00028582117527771185
1589986149.2986927,3.79,-0.23,8.950261579414374,-0.3622222222222222,0.4388888888888889,-0.6444444444444445,-0.001088236792703119,-0.0010856428029097822,-0.001088236792703119
1589986149.3086927,3.7974229801113197,-0.23,8.96484596022264,-0.3622222222222222,0.4388888888888889,-0.6444444444444445,-0.002710273823153796,-0.001090830782496456,0.0005286122581608841
1589986149.3186927,3.791687645970457,-0.2383123540295429,9.019874124177257,-0.3622222222222222,0.4388888888888889,-0.6444444444444445,0.00035445631268417365,0.0007226435475903149,0.00018409361745307053
1589986149.3286927,3.805107558139535,-0.23244622093023257,9.052661337209303,-0.3731332364341085,0.4388888888888889,-0.6394085917312662,-0.0013811376375474753,0.001914820255844433,-0.0008239894733479769
1589986149.3386927,3.7904895920843833,-0.23,9.036083263324931,-0.37666666666666665,0.4388888888888889,-0.6377777777777778,0.001144236994147664,-0.000877205935891624,5.3406211651207983e-05
1589986149.3486927,3.799694242291768,-0.23,8.960611515416463,-0.37666666666666665,0.4388888888888889,-0.6377777777777778,0.002081602588955551,0.0031390803794395534,0.001090830782496456
1589986149.3586926,3.7916119845067215,-0.23,8.984835953520165,-0.37666666666666665,0.4388888888888889,-0.6377777777777778,-0.0010029106664545054,-0.0010029106664545054,0.0011787508985384066
1589986149.3686926,3.8075393028024607,-0.23,9.032617908407381,-0.37666666666666665,0.4388888888888889,-0.6377777777777778,-0.00013421021247393174,-0.00013421021247393174,0.00204745135251898
1589986149.3786926,3.81,-0.2100545297808785,9.05005452978088,-0.37666666666666665,0.4244444444444445,-0.6522222222222223,0.0010878566443192038,-0.0010848825061419516,5.948276354504441e-06
1589986149.3886926,3.81,-0.22687175477636776,9.066871754776368,-0.37666666666666665,0.4244444444444445,-0.6522222222222223,0.00017061930925677806,0.0007495921639828998,0.0018404229464793558
1589986149.3986926,3.79024433335341,-0.22,8.960977333413641,-0.37666666666666665,0.4244444444444445,-0.6522222222222223,0.0020483983934477907,-0.0021550089306838875,2.6652634309024212e-05
1589986149.4086926,3.798665100684615,-0.22,8.994660402738461,-0.37666666666666665,0.4244444444444445,-0.6522222222222223,-0.0025444177151117925,-0.001236445708971971,0.0009452158560209408
1589986149.4186926,3.8,-0.22798434530811693,9.031937381232467,-0.37666666666666665,0.4244444444444445,-0.6522222222222223,-0.000659621455436844,-0.00021987381847894812,0.001090830782496456
1589986149.4286926,3.8097069169598052,-0.23029308304019472,9.049413833919612,-0.37666666666666665,0.4311111111111111,-0.6522222222222223,0.0020537799641640927,-0.0009949195818748414,0.0011228011827036609
1589986149.4386926,3.8027144357567977,-0.23728556424320224,9.035428871513595,-0.37666666666666665,0.4311111111111111,-0.6522222222222223,-0.0009972655327432885,0.0012933645408056943,0.001885562556930506
