time,acc_x,acc_y,acc_z,mag_x,mag_y,mag_z,gyr_x,gyr_y,gyr_z
1589986156.822956,-3.84,-0.21,9.11,0.2911111111111111,-0.3555555555555556,-0.6222222222222222,0.003272492347489368,-0.002181661564992912,-0.00545415391248228
1589986156.832956,-3.8491496695098277,-0.20085033049017256,9.018503304901726,0.2911111111111111,-0.3555555555555556,-0.6222222222222222,-0.001717878228005152,0.001810634895402704,-0.006452228027581183
1589986156.842956,-3.88,-0.18757645001688955,9.074541299898662,0.2911111111111111,-0.3555555555555556,-0.6222222222222222,-0.003272492347489368,0.006544984694978735,-0.0106105819198168
1589986156.852956,-3.8775020472337776,-0.18249795276622227,9.117502047233778,0.2886131583448888,-0.3555555555555556,-0.6212507961464692,-0.0031362501589584963,0.006408742506447864,-0.013226211578488342
1589986156.862956,-3.86,-0.20504614670842242,9.07981541316631,0.27111111111111114,-0.3555555555555556,-0.6144444444444445,-0.0027321107812469437,0.004628480088101232,-0.015281698604961988
1589986156.872956,-3.86,-0.218945833540455,9.02421666583818,0.27111111111111114,-0.3555555555555556,-0.6144444444444445,-0.004248331407591125,0.0023541491485849597,-0.018314139857650354
1589986156.882956,-3.854955988415015,-0.22252200579249248,8.962522005792493,0.27111111111111114,-0.3555555555555556,-0.6144444444444445,-0.004903937602065247,-9.601838337608675e-06,-0.018819231457648265
1589986156.892956,-3.8411205292536694,-0.2288794707463304,8.974482117014679,0.27111111111111114,-0.3555555555555556,-0.6144444444444445,-0.0031502615672303067,-0.002844684616582654,-0.019879415645454333
1589986156.902956,-3.860885412592882,-0.21,9.051992178333986,0.2719965237039934,-0.3559490722635033,-0.6149117455351323,-0.001066684899708306,0.004315031364409524,-0.02382925603540498
1589986156.912956,-3.896238449147992,-0.2087461497159974,9.14,0.3111111111111111,-0.37333333333333335,-0.6355555555555555,0.0004103215459295879,0.00190811386770652,-0.01622568788880364
1589986156.922956,-3.87,-0.20708616244091105,9.111655350236356,0.3111111111111111,-0.37333333333333335,-0.6355555555555555,0.003272492347489368,-0.0010306405493754655,-0.012437369444167854
1589986156.932956,-3.868514630747794,-0.22702926149558755,9.025941477008825,0.3111111111111111,-0.37333333333333335,-0.6355555555555555,0.003110463697121339,-0.0037152085285137074,-0.002786406396385281
1589986156.942956,-3.858870318852985,-0.20887031885298524,9.063389043441045,0.3111111111111111,-0.37333333333333335,-0.6355555555555555,0.002428119758906834,0.0004929163878278443,-0.00012322909695696108
1589986156.952956,-3.85,-0.1998175547891868,9.08972633218378,0.31081717160480093,-0.37328265410810746,-0.6354440612600586,0.004343421444778413,0.004343421444778413,-0.0010709290972890449
1589986156.962956,-3.85,-0.1842641005673601,9.066396150851041,0.285758828691858,-0.36896225015760004,-0.6259391725689423,0.0026468027808466124,0.0026468027808466124,0.0006256895666427553
1589986156.972956,-3.87,-0.1835253251474271,9.058248916175243,0.2788888888888889,-0.36777777777777776,-0.6233333333333333,-0.001347199661771278,0.005069600593570046,-0.0002563688792748221
1589986156.982956,-3.87,-0.21183944475647917,8.975518334269438,0.2788888888888889,-0.36777777777777776,-0.6233333333333333,-0.0030718400511824495,0.0015797046760721565,-0.001780356972379075
1589986156.992956,-3.869774236863307,-0.22,9.00067728941008,0.2788888888888889,-0.36777777777777776,-0.6233333333333333,-0.0020831538133697426,-0.0011154577204022483,2.4626937905792335e-05
1589986157.002956,-3.862264971801987,-0.22,9.023205084594037,0.2788888888888889,-0.36777777777777776,-0.6233333333333333,0.001193381179755231,-0.0019345914686834916,0.0008437606861870357
1589986157.012956,-3.850705840271844,-0.22929415972815612,9.079647079864078,0.28444444444444444,-0.3555555555555556,-0.6233333333333333,0.001090830782496456,-0.001989173490979667,0.002220159179795561
1589986157.022956,-3.8673753552053736,-0.2126246447946267,9.071312322397313,0.28444444444444444,-0.3555555555555556,-0.6233333333333333,0.001090830782496456,0.002556731513714892,0.003129340180734473
1589986157.032956,-3.876730572771232,-0.21,9.039808281686303,0.28444444444444444,-0.3555555555555556,-0.6233333333333333,0.002181661564992912,0.0027166203443337385,0.004719962316213041
1589986157.0429559,-3.8624477286658037,-0.21,9.082656814002588,0.28444444444444444,-0.3555555555555556,-0.6233333333333333,0.002181661564992912,0.0050536452461035835,0.006277978917392938
1589986157.0529559,-3.8791841691275906,-0.2387762536913863,9.109184169127591,0.28444444444444444,-0.3555555555555556,-0.6233333333333333,0.0011353274539431968,0.00754682213458171,0.007591318806028451
1589986157.0629559,-3.871212430507297,-0.23121243050729673,9.13636270847811,0.28444444444444444,-0.36629591826885954,-0.6282153163848352,0.002049405913093205,0.00859439060807194,0.007635815477475192
1589986157.0729558,-3.878167642249449,-0.22267056899779605,9.046179349242838,0.28444444444444444,-0.36777777777777776,-0.6288888888888889,-0.0020902269019199456,-0.0003997584477693958,0.009726042379395138
1589986157.0829558,-3.8738007623888184,-0.18809961880559084,8.953302668360864,0.28444444444444444,-0.36777777777777776,-0.6288888888888889,-0.0073741824171142875,-0.0017670627039251356,0.014388099602987814
1589986157.0929558,-3.884394619666048,-0.18,9.01747384044527,0.28444444444444444,-0.36777777777777776,-0.6288888888888889,-0.010296855683377074,-0.0008152695221166462,0.014048726671775414
1589986157.1029558,-3.8610497217068644,-0.18,9.048600371057514,0.28444444444444444,-0.36777777777777776,-0.6288888888888889,-0.007750322352565451,-0.004210647296532146,0.008955660010152165
1589986157.1129558,-3.8545216344603745,-0.1960288459471659,9.08,0.2977777777777777,-0.3622222222222222,-0.6288888888888889,-0.002943669810384489,-0.009593017676545043,0.0013596052222307137
1589986157.1229558,-3.880658222366569,-0.23,9.076050665800585,0.2977777777777777,-0.3622222222222222,-0.6288888888888889,-0.0010190298605783174,-0.002181661564992912,-0.0033442932694075066
1589986157.1329558,-3.88558573551263,-0.22558573551263003,9.02882852897474,0.2977777777777777,-0.3622222222222222,-0.6288888888888889,0.0004815215584904118,-0.0026631831234833238,-0.003881801571495412
1589986157.1429558,-3.8606567607726596,-0.20065676077265976,9.078686478454681,0.2977777777777777,-0.3622222222222222,-0.6288888888888889,0.0032008508607340286,-0.005382512425726941,-0.0011624722692517952
1589986157.1529558,-3.86,-0.2194056990797206,9.112342831799534,0.2977777777777777,-0.3622222222222222,-0.6288888888888889,0.0025668812170886223,-0.0012204871300778063,-0.00038521965209571045
1589986157.1629558,-3.8752463723131836,-0.21475362768681616,9.122376813843408,0.307942025986567,-0.3622222222222222,-0.6238067647844943,0.001350100952961781,-0.0005722904415658059,-0.0016631212240622618
1589986157.1729558,-3.873375196522704,-0.1967503930454083,9.100125589568112,0.3111111111111111,-0.3622222222222222,-0.6222222222222222,0.001090830782496456,-0.002536138694701231,-0.0007363536527881375
1589986157.1829557,-3.8612230988628364,-0.1987769011371634,8.98467718635404,0.3111111111111111,-0.3622222222222222,-0.6222222222222222,0.003005653569565651,-0.003272492347489368,0.0009574113935345974
1589986157.1929557,-3.8823854397991697,-0.2,8.999847253065559,0.3111111111111111,-0.3622222222222222,-0.6222222222222222,-0.0007972954546198877,-0.0008306196662238147,0.000276873222074605
1589986157.2029557,-3.881668884517473,-0.2083311154825272,9.043324461930109,0.3111111111111111,-0.3622222222222222,-0.6222222222222222,0.0005446896012691314,-0.004543918610436739,0.0018175674441746955
1589986157.2129557,-3.856224778179428,-0.2258501478803812,9.073775221820572,0.2952609632307299,-0.3622222222222222,-0.6160582758242962,0.001090830782496456,-0.004589662451730241,0.0013171701042408734
1589986157.2229557,-3.8617214654339223,-0.22827853456607766,9.09225340554735,0.2911111111111111,-0.3622222222222222,-0.6144444444444445,0.005829719409747504,-0.0055480452867985855,0.0022755529393092178
1589986157.2329557,-3.8770188011743896,-0.21298119882561045,9.023415394715247,0.2911111111111111,-0.3622222222222222,-0.6144444444444445,0.009167080352924474,-0.0063823855225928275,0.0031098931751034602
1589986157.2429557,-3.897693238980305,-0.2805766902549237,9.032883451274618,0.2911111111111111,-0.3622222222222222,-0.6144444444444445,0.012964155093550173,-0.010782493528557261,0.007111149028811579
1589986157.2529557,-3.869085173501577,-0.28772870662460565,9.068643533123028,0.2911111111111111,-0.3622222222222222,-0.6144444444444445,0.01140382717095664,-0.009222165605963728,0.014132624680482476
1589986157.2629557,-3.837144809054266,-0.2671516407441988,9.112862022635666,0.2911111111111111,-0.36777777777777776,-0.6233333333333333,0.007325107681891522,-0.0059220786602764575,0.031166167944603047
1589986157.2729557,-3.822081789787172,-0.1889591051064139,9.062713735744898,0.2911111111111111,-0.36777777777777776,-0.6233333333333333,-0.0016585508781300077,-0.0016139414693593602,0.03445240896337975
1589986157.2829556,-3.8387325569464394,-0.1774651138928791,9.0,0.2911111111111111,-0.36777777777777776,-0.6233333333333333,-0.006544984694978735,0.0031342357577008656,0.029160696012015742
1589986157.2929556,-3.83,-0.15852339208612923,9.011812863310967,0.2911111111111111,-0.36777777777777776,-0.6233333333333333,-0.006383911758365925,0.0018595156917672899,0.01770207884558248
1589986157.3029556,-3.83,-0.1506837255378404,9.074530195697276,0.2911111111111111,-0.36777777777777776,-0.6233333333333333,-0.005528736798827806,0.00014916577269105365,0.007439979331125057
1589986157.3129556,-3.8381210359968607,-0.15812103599686061,9.07187896400314,0.2811854004482815,-0.3578520671149482,-0.6161146346694573,-0.006340021517596014,0.002657602815341206,-0.0014278237510448816
1589986157.3229556,-3.864518304431599,-0.15387042389210018,9.0822591522158,0.2788888888888889,-0.3555555555555556,-0.6144444444444445,-0.00520771863454835,0.003272492347489368,-0.009958822649641295
1589986157.3329556,-3.89662153093048,-0.1915538273262011,9.040135407208558,0.2788888888888889,-0.3555555555555556,-0.6144444444444445,-0.0007370676117488192,0.0014593645883708654,-0.019620183449809432
1589986157.3429556,-3.9106304756254326,-0.18,9.070630475625434,0.2788888888888889,-0.3555555555555556,-0.6144444444444445,0.0012283792264635757,-0.003341266569472928,-0.024538914221550006
1589986157.3529556,-3.9189253436171265,-0.18,9.078925343617126,0.2788888888888889,-0.3555555555555556,-0.6144444444444445,0.0030380386948804195,-0.00424609630368135,-0.017300276347882632
1589986157.3629556,-3.875205205403478,-0.2,9.112008675672463,0.28444444444444444,-0.36777777777777776,-0.6144444444444445,0.0007421434797208785,-0.004014635827210246,-0.006370641043590947
1589986157.3729556,-3.850281662242998,-0.2,9.070469437071663,0.28444444444444444,-0.36777777777777776,-0.6144444444444445,-0.0010703477261678372,-0.0022021446213215307,-0.005464395440646589
1589986157.3829556,-3.8597569526139943,-0.19024304738600537,8.96267352124606,0.28444444444444444,-0.36777777777777776,-0.6144444444444445,-0.001090830782496456,-0.004310298415933834,0.0009317566403404852
1589986157.3929555,-3.8616445340289305,-0.19328906805786103,9.015755869101257,0.28444444444444444,-0.36777777777777776,-0.6144444444444445,-0.005543849329563296,-0.0016434890625068137,0.0011805261995774723
1589986157.4029555,-3.878221484467631,-0.22644296893526206,9.073775195636708,0.28444444444444444,-0.36777777777777776,-0.6144444444444445,-0.006447981720485927,0.003781305283028977,0.002084658590500104
1589986157.4129555,-3.878844417261787,-0.21768883452357396,9.097688834523574,0.2911111111111111,-0.37333333333333335,-0.6288888888888889,-0.002894328780720076,-0.0013429398270093172,0.0001260545222564306
1589986157.4229555,-3.87129949092479,-0.20259898184957997,9.08259898184958,0.2911111111111111,-0.37333333333333335,-0.6288888888888889,-0.0004252574107007105,-0.002988987407022228,0.0009490783122628858
1589986157.4329555,-3.859133819583538,-0.18740145875061412,8.976063262915234,0.2911111111111111,-0.37333333333333335,-0.6288888888888889,0.003272492347489368,-0.0017092334342567574,-0.002181661564992912
1589986157.4429555,-3.8512083821473113,-0.1636251464419334,9.03154132496882,0.2911111111111111,-0.37333333333333335,-0.6288888888888889,0.003272492347489368,0.0026134221258362913,-0.002181661564992912
1589986157.4529555,-3.8583054134249197,-0.17661082684983995,9.04830541342492,0.2911111111111111,-0.37333333333333335,-0.6288888888888889,0.0014605322224369617,-0.0012574079651416483,0.0014422586851119005
1589986157.4629555,-3.86,-0.1942000450275282,9.064200045027528,0.2958444594536204,-0.365444419429151,-0.6138999524709424,-0.0020071384632762415,-0.0006326769421065631,0.0006326769421065631
1589986157.4729555,-3.88873871018856,-0.20126128981144034,9.087162097924258,0.2977777777777777,-0.3622222222222222,-0.6077777777777778,-0.007670211821274399,0.005419757568683073,0.001056434438697249
1589986157.4829555,-3.8555086357154176,-0.23449136428458248,9.01239443035969,0.2977777777777777,-0.3622222222222222,-0.6077777777777778,-0.008576421524773227,0.004513547865184244,0.0001502247351984206
1589986157.4929554,-3.8603639820725246,-0.23,9.061819910362624,0.2977777777777777,-0.3622222222222222,-0.6077777777777778,-0.009698364187772037,0.0009717179278003877,0.0010114222126990772
1589986157.5029554,-3.868501775285695,-0.23,9.102508876428473,0.2977777777777777,-0.3622222222222222,-0.6077777777777778,-0.007035277586217029,-0.0016913686737546187,-0.0007639688550042602
1589986157.5129554,-3.87049843760243,-0.21900312479514017,9.11850468719271,0.2977777777777777,-0.36777777777777776,-0.6377777777777778,-0.005345411696505424,0.002127290457004484,-0.00016311332396528306
1589986157.5229554,-3.879663702117431,-0.2006725957651378,9.091008893647707,0.2977777777777777,-0.36777777777777776,-0.6377777777777778,-0.0033458611639682724,0.0011275151907359081,-0.003162439122771012
1589986157.5329554,-3.8626140837797713,-0.19130704188988576,9.0291492932292,0.2977777777777777,-0.36777777777777776,-0.6377777777777778,-0.0023242377177428845,0.00014257615274997255,-0.0013759830879964006
1589986157.5429554,-3.8894094676789526,-0.21763787071580995,9.00236212928419,0.2977777777777777,-0.36777777777777776,-0.6377777777777778,-0.000897579532339144,0.003336909430875139,-0.0020528273982213705
1589986157.5529554,-3.883320800731633,-0.19328320292653184,9.026716797073467,0.2977777777777777,-0.36777777777777776,-0.6377777777777778,0.0010949320668123149,0.004001079963925625,-0.0007244863321203979
1589986157.5629554,-3.872824671659203,-0.20152598502239114,9.06152598502239,0.2882106733233817,-0.36379148425511276,-0.6170490514599196,-0.00173187294933741,0.005146030032851888,-0.0007827069028660643
1589986157.5729554,-3.862810497087622,-0.2028104970876219,9.084379005824756,0.28444444444444444,-0.3622222222222222,-0.6088888888888889,-0.00797801100009136,0.00545415391248228,0.0004776754350375408
1589986157.5829554,-3.87,-0.2019549349412885,8.9843986036179,0.28444444444444444,-0.3622222222222222,-0.6088888888888889,-0.008726646259971648,0.005614091653362433,-5.331258029338439e-05
1589986157.5929554,-3.87,-0.23998639887564038,9.06996939747019,0.28444444444444444,-0.3622222222222222,-0.6088888888888889,-0.008726646259971648,0.008725533520587046,-0.0010904598693682553
1589986157.6029553,-3.87,-0.231621103117506,9.086757793764988,0.28444444444444444,-0.3622222222222222,-0.6088888888888889,-0.011468633852808063,0.007812650395692842,-0.001090830782496456
1589986157.6129553,-3.87,-0.22256526898734177,9.104869462025317,0.30427039381153304,-0.3622222222222222,-0.6022802390998594,-0.0071331185385478295,0.010068825511931785,-0.001090830782496456
1589986157.6229553,-3.87,-0.22,9.070376988022776,0.3111111111111111,-0.3622222222222222,-0.6,-0.00545415391248228,0.007666657737965961,-1.0280753496923157e-05
1589986157.6329553,-3.877819451483922,-0.23563890296784365,9.015263839612548,0.3111111111111111,-0.3622222222222222,-0.6,-0.0011893047220325158,0.0059298758012952864,0.0
1589986157.6429553,-3.88,-0.20034649432466192,9.06,0.3111111111111111,-0.3622222222222222,-0.6,0.0011286274500266107,0.007560222142414882,0.0
1589986157.6529553,-3.88,-0.20793949926682234,9.06,0.3111111111111111,-0.3622222222222222,-0.6,0.0019568958022822425,0.005903685437903618,0.0
1589986157.6629553,-3.88,-0.21,9.08984342527867,0.2911111111111111,-0.36777777777777776,-0.6144444444444445,0.0021873547825191665,0.006527905042399972,-0.002181661564992912
1589986157.6729553,-3.88,-0.21,9.06012752692235,0.2911111111111111,-0.36777777777777776,-0.6144444444444445,0.003267855337739478,0.0032864033767390395,-0.002181661564992912
1589986157.6829553,-3.8307430472011887,-0.18044582832071332,8.961486094402378,0.2911111111111111,-0.36777777777777776,-0.6144444444444445,0.004347112354787731,0.005421732362086093,-3.242155039618645e-05
1589986157.6929553,-3.770237600130192,-0.16505940003254796,8.989881199934905,0.2911111111111111,-0.36777777777777776,-0.6144444444444445,0.0002889065416202671,0.010343453818520948,0.0
1589986157.7029552,-3.7239054535949667,-0.16,9.020875637124027,0.2911111111111111,-0.36777777777777776,-0.6144444444444445,-0.004506598919363591,0.011999138607461015,-0.0017078840684335676
1589986157.7129552,-3.7062984384037017,-0.16,9.090387507229611,0.2911111111111111,-0.37197673671357884,-0.6109453119979436,-0.011071080723682944,0.005815661164287062,-0.004646598445972469
1589986157.7229552,-3.704113032398981,-0.1482260647979614,9.137660902803058,0.2911111111111111,-0.3744444444444445,-0.6088888888888889,-0.011163463747532125,0.004750335754893376,-0.00866499664985786
1589986157.7329552,-3.6245930335565713,-0.2016966089082598,9.040317139718649,0.2911111111111111,-0.3744444444444445,-0.6088888888888889,-0.006078557032869501,0.005797200693059015,-0.008664955819205398
1589986157.7429552,-3.6071790742376226,-0.35884305678217054,9.196148890851473,0.2911111111111111,-0.3744444444444445,-0.6088888888888889,-0.0034263499803262884,0.016697831708396706,-0.015131600674751475
1589986157.7529552,-3.501434214718063,-0.41101879579483913,9.183471806307741,0.2911111111111111,-0.3744444444444445,-0.6088888888888889,0.00011113338140884572,0.03123271978580805,-0.0189001810341205
1589986157.7629552,-3.389367192720917,-0.3716203156325502,9.097430473448826,0.3027580721625342,-0.36906892395917223,-0.6268072905064629,0.026598287777643562,0.025231342731382514,-0.02667149394566644
1589986157.7729552,-3.006919152204524,-0.3298187736590897,9.008731415613628,0.3055555555555556,-0.36777777777777776,-0.6311111111111111,0.022650452979782125,0.03911175835286106,-0.05096896507989374
1589986157.7829552,-2.876525611250297,-0.32214856536766456,8.955039957573652,0.3055555555555556,-0.36777777777777776,-0.6311111111111111,0.01177348387360223,0.032418238902904205,-0.08443656232967803
1589986157.7929552,-2.658980815347722,-0.21138848920863312,8.894745203836932,0.3055555555555556,-0.36777777777777776,-0.6311111111111111,-0.0001591121878785299,0.030543261909900768,-0.15206253045282417
1589986157.8029552,-2.445941155618575,-0.21617157036511875,9.003200992555831,0.3055555555555556,-0.36777777777777776,-0.6311111111111111,-0.0063829648091701515,0.027015172558784967,-0.23049629515985998
1589986157.8129551,-2.51,-0.17,8.98,0.28444444444444444,-0.3477777777777778,-0.6233333333333333,-0.014180800172453925,0.03272492347489368,-0.3523383427463553
1589986157.8229551,-2.51,-0.17,8.98,0.28444444444444444,-0.3477777777777778,-0.6233333333333333,-0.014180800172453925,0.03272492347489368,-0.3523383427463553
1589986157.8329551,-2.2255112041698224,-0.48115962043925686,8.891097251303071,0.28444444444444444,-0.3477777777777778,-0.6233333333333333,0.007154327911520953,0.019148023785091485,-0.5201100317703395
1589986157.842955,-2.0162748067683305,-0.44278880300814705,8.75453180488824,0.28444444444444444,-0.3477777777777778,-0.6233333333333333,0.03613758655250277,0.06272388087720292,-0.5589497425850658
1589986157.852955,-2.0583300714096797,-0.4507400158688178,8.868140174556995,0.28444444444444444,-0.3477777777777778,-0.6233333333333333,0.0564188874633208,0.06845945513726329,-0.5631108533949439
1589986157.862955,-2.132762940203262,-0.47638147010163084,9.035525880406524,0.28808477113369574,-0.3517214650244667,-0.6233333333333333,0.05759883882444554,0.06395359631253417,-0.5703107055471882
1589986157.872955,-2.281611331784456,-0.5376032376527018,9.157190287041894,0.2977777777777777,-0.3622222222222222,-0.6233333333333333,0.004841169635546176,0.029100893065144344,-0.5977346375483036
1589986157.882955,-2.281978260869565,-0.54,8.941434782608695,0.2977777777777777,-0.3622222222222222,-0.6233333333333333,0.02339832028454898,0.04914666949399794,-0.6095823263429488
1589986157.892955,-2.274026558465511,-0.54,8.907920324603468,0.2977777777777777,-0.3622222222222222,-0.6233333333333333,0.03487761424817145,0.05910274885710731,-0.6210784884450808
1589986157.902955,-2.258435640148357,-0.54,8.995168339035681,0.2977777777777777,-0.3622222222222222,-0.6233333333333333,0.026024410478532007,0.052716284822769126,-0.6385809836708968
1589986157.912955,-2.2668428095022435,-0.562457079336325,9.05,0.30900631744594026,-0.3622222222222222,-0.6276999876487298,0.010850665216815429,0.04214036185109688,-0.660335934404164
1589986157.922955,-2.28,-0.5714229906075969,8.981383924860777,0.31777777777777777,-0.3622222222222222,-0.6311111111111111,0.007480591281678173,0.043012334516670164,-0.6867662432092109
1589986157.932955,-2.329912049109963,-0.5824780122774907,8.895131926335056,0.31777777777777777,-0.3622222222222222,-0.6311111111111111,0.014441515425802989,0.04703608127402214,-0.6996136044602519
1589986157.942955,-2.338682682454742,-0.6042115450301719,8.942375042696117,0.31777777777777777,-0.3622222222222222,-0.6311111111111111,0.025520199156025474,0.056063461065926246,-0.7212699070609531
1589986157.952955,-2.336933287538387,-0.6238665750767739,9.056266162922256,0.31777777777777777,-0.3622222222222222,-0.6311111111111111,0.023067469915367764,0.05134181878403707,-0.746491740602065
1589986157.962955,-2.3568953980178016,-0.6553430970267029,9.132238495044506,0.340304975134847,-0.3443881909812091,-0.6123384466468867,0.029940794987606628,0.05352556050194844,-0.8009299520884173
1589986157.972955,-2.338397642848808,-0.6672007857170641,9.118397642848807,0.34444444444444444,-0.3411111111111111,-0.6088888888888889,0.031634092692397225,0.0545415391248228,-0.8093964406123703
1589986157.982955,-2.3512861852271554,-0.7196677655300299,9.06033223446997,0.34444444444444444,-0.3411111111111111,-0.6088888888888889,0.030860105156140467,0.05608951419733631,-0.8302941040913028
1589986157.992955,-2.36,-0.74,9.024237579994345,0.34444444444444444,-0.3411111111111111,-0.6088888888888889,0.023665608730378533,0.061021733927017104,-0.8887118572913109
1589986158.002955,-2.3690076580730524,-0.74,9.00648851289042,0.34444444444444444,-0.3411111111111111,-0.6088888888888889,0.022307907185143534,0.06315993767272682,-0.9148906370401438
1589986158.012955,-2.3787750523481903,-0.7393875261740951,8.990306236912952,0.34464860238641276,-0.34094097949280416,-0.6095694153621165,0.022840635902148534,0.06445923196270646,-0.931581031219048
1589986158.022955,-2.34,-0.7489091827894889,8.982654490326308,0.3511111111111111,-0.33555555555555555,-0.6311111111111111,0.01757228221907354,0.0657394069257648,-0.9866584902413583
1589986158.032955,-2.3723486646567022,-0.7311816024119572,8.918242136549276,0.3511111111111111,-0.33555555555555555,-0.6311111111111111,0.018800322872968993,0.06929918485251693,-1.0218490714562545
1589986158.042955,-2.4335322645061908,-0.746276887088492,8.911766132253096,0.3511111111111111,-0.33555555555555555,-0.6311111111111111,0.031014490601044255,0.0735777094499371,-1.0599256737120508
1589986158.052955,-2.45,-0.7665196869452962,8.95259843472648,0.3511111111111111,-0.33555555555555555,-0.6311111111111111,0.03277302247623581,0.07346530568854208,-1.0935741858291819
1589986158.062955,-2.440133477200975,-0.7847997841985374,9.009466091196101,0.35768879297712775,-0.33226671462254725,-0.6228890087785903,0.029481551335321335,0.06770430903457282,-1.1227846089687445
1589986158.072955,-2.448734186746988,-0.8437131024096386,9.137426204819278,0.3644444444444445,-0.3288888888888889,-0.6144444444444445,0.03272032358605182,0.07103287989071368,-1.1569480240326728
1589986158.082955,-2.442387196297725,-0.8582581308651498,9.060839439516647,0.3644444444444445,-0.3288888888888889,-0.6144444444444445,0.041761192355735895,0.08084109207847079,-1.1851206864860833
1589986158.0929549,-2.43,-0.9023214465768158,9.041941989043123,0.3644444444444445,-0.3288888888888889,-0.6144444444444445,0.02940616256801499,0.07828658580115366,-1.2169946217034815
1589986158.1029549,-2.43,-0.942618463807986,9.098927695711978,0.3644444444444445,-0.3288888888888889,-0.6144444444444445,0.027608089242216936,0.08077316749208288,-1.2423256999330383
1589986158.1129549,-2.4500797051765515,-0.9299202948234487,9.029681179293794,0.40311646922891353,-0.3110402620652878,-0.6345241496209957,0.03601480479440433,0.08910480103790207,-1.265785281196792
1589986158.1229548,-2.46,-0.9838922785609089,8.974026930359774,0.4222222222222222,-0.3022222222222222,-0.6444444444444445,0.027724727754664287,0.08291782770244258,-1.2878098518197059
1589986158.1329548,-2.4676359627633513,-1.022907888290054,8.90891229789319,0.4222222222222222,-0.3022222222222222,-0.6444444444444445,0.026755016644670546,0.08322034087561582,-1.3040379613301945
1589986158.1429548,-2.4977281879937157,-1.043864093996858,8.883067953001571,0.4222222222222222,-0.3022222222222222,-0.6444444444444445,0.035588628839169724,0.08853098440318619,-1.3162239674900091
1589986158.1529548,-2.4963531203421683,-1.0545489598859439,8.898195839543776,0.4222222222222222,-0.3022222222222222,-0.6444444444444445,0.0387736936226795,0.08855409675843418,-1.3253636068398338
1589986158.1629548,-2.4768395992838914,-1.094764407877195,8.957924808593303,0.4246803116680845,-0.2976571989656209,-0.6514675571469081,0.03748958491014493,0.08652037805583554,-1.3350071015757126
1589986158.1729548,-2.4766875766700123,-1.1766875766700122,9.046687576670012,0.43,-0.2877777777777778,-0.6666666666666666,0.040374424517555754,0.09018446839649828,-1.3475578740642045
1589986158.1829548,-2.492174053900824,-1.18,8.989129730495879,0.43,-0.2877777777777778,-0.6666666666666666,0.04519836706591978,0.09295776900398131,-1.3557604418277285
1589986158.1929548,-2.5061836673319298,-1.248020340651229,8.993285671323509,0.43,-0.2877777777777778,-0.6666666666666666,0.043533056310154174,0.09381144729469522,-1.3652459561975323
1589986158.2029548,-2.4866790282928455,-1.3016604858535772,9.01416975707321,0.43,-0.2877777777777778,-0.6666666666666666,0.04145156973486533,0.09253948560390057,-1.374080478796231
1589986158.2129548,-2.490147553334191,-1.3301475533341909,9.005970489333162,0.4407453617782351,-0.2756892457772633,-0.6608462623701227,0.03925381259797288,0.09294844001183777,-1.382993895421566
1589986158.2229548,-2.503025611552139,-1.3701846330687166,9.0,0.4566666666666666,-0.2577777777777778,-0.6522222222222223,0.03710838694836178,0.09305065953389377,-1.3963641033128749
1589986158.2329547,-2.453299064095292,-1.398350467952354,8.941546724333522,0.4566666666666666,-0.2577777777777778,-0.6522222222222223,0.03835901342080463,0.09263625578644663,-1.4162806569111057
1589986158.2429547,-2.43,-1.434711964549483,8.874121122599705,0.4566666666666666,-0.2577777777777778,-0.6522222222222223,0.037473340485258605,0.09515847024028906,-1.4370752965583187
1589986158.2529547,-2.4175360057806317,-1.4675360057806315,8.912463994219369,0.4566666666666666,-0.2577777777777778,-0.6522222222222223,0.03817907738737596,0.09389580382425979,-1.4623194547377476
1589986158.2629547,-2.4102809489110193,-1.4679916605942838,8.945421423366529,0.466662033663491,-0.24749682886675842,-0.6613608434764617,0.03902018555328196,0.09960726413990258,-1.483433375438814
1589986158.2729547,-2.422601961796593,-1.546097057305111,8.976951471347444,0.4955555555555556,-0.21777777777777774,-0.6877777777777778,0.04714506442306314,0.10595250090328638,-1.5125120610926492
1589986158.2829547,-2.395364572647819,-1.6078125641130852,8.922916581182553,0.4955555555555556,-0.21777777777777774,-0.6877777777777778,0.05302459907108732,0.1102818686500232,-1.5356795517195334
1589986158.2929547,-2.4098416916767853,-1.64,8.90645558890238,0.4955555555555556,-0.21777777777777774,-0.6877777777777778,0.04694026116576521,0.11311157238414726,-1.565556120563437
1589986158.3029547,-2.3880848313946657,-1.6825535581404456,8.978511142443113,0.4955555555555556,-0.21777777777777774,-0.6877777777777778,0.04182289138708277,0.11010427153652973,-1.5902457375402963
1589986158.3129547,-2.36,-1.754872257482522,9.006751828344985,0.49878446828541867,-0.18678021557109156,-0.7000476461512578,0.041805890297677575,0.11225305590940204,-1.6174691519727187
1589986158.3229547,-2.3456243170755933,-1.8015635243866097,8.975624317075594,0.5011111111111111,-0.16444444444444445,-0.7088888888888889,0.03971287193652043,0.11688944778013056,-1.643985036810731
1589986158.3329546,-2.3138176065671896,-1.8361823934328103,8.924180811492583,0.5011111111111111,-0.16444444444444445,-0.7088888888888889,0.04103513345897021,0.11923775254541437,-1.6661352823109064
1589986158.3429546,-2.243820268241902,-1.85,8.83133588340677,0.5011111111111111,-0.16444444444444445,-0.7088888888888889,0.04594698833703551,0.12611964415002286,-1.6894054375386245
1589986158.3529546,-2.2257665148290338,-1.8867885346010782,8.889854593917212,0.5011111111111111,-0.16444444444444445,-0.7088888888888889,0.03997054123268567,0.12579585651849906,-1.7121824081135393
1589986158.3629546,-2.229874629204679,-1.9098746292046789,8.959749258409358,0.5056112759090315,-0.14475622345354253,-0.7240769450818704,0.040456469778302404,0.12769558071346643,-1.733439520045078
1589986158.3729546,-2.2391127890514393,-1.9828220858895704,8.98459650778669,0.51,-0.12555555555555556,-0.7388888888888889,0.04869151505106644,0.13238639484334525,-1.7552610114500653
1589986158.3829546,-2.2209875960531558,-2.0175661125942095,8.918818159024203,0.51,-0.12555555555555556,-0.7388888888888889,0.05270425644656218,0.1383200493419591,-1.76730363355705
1589986158.3929546,-2.1816415998828997,-2.0057455995901488,8.7801504007026,0.51,-0.12555555555555556,-0.7388888888888889,0.05736635455110977,0.14690401410005963,-1.7746757415658827
1589986158.4029546,-2.1939094308267553,-2.0943622766929786,8.764403822185294,0.51,-0.12555555555555556,-0.7388888888888889,0.042062018037325954,0.13525848511937152,-1.791005015216378
1589986158.4129546,-2.168880271449346,-2.1486100339311682,8.97166020358701,0.5137065761835514,-0.12092233532611624,-0.7399699736090914,0.021576558851454375,0.12099378183608261,-1.8028400399117401
1589986158.4229546,-2.105893040795338,-2.1576791223860132,8.884641755227973,0.5366666666666666,-0.09222222222222222,-0.7466666666666667,0.043574894103399736,0.14521698815348605,-1.8022472839620611
1589986158.4329545,-2.1035811581717,-2.2085130509698,8.8086492653736,0.5366666666666666,-0.09222222222222222,-0.7466666666666667,0.0346119004579944,0.14485205129237527,-1.805243844542927
1589986158.4429545,-2.0786594575486856,-2.2470724339610513,8.822681084902628,0.5366666666666666,-0.09222222222222222,-0.7466666666666667,0.026964865107643884,0.14150209726977175,-1.805019040576867
1589986158.4529545,-2.040033645057885,-2.268338940842981,8.873355763371924,0.5366666666666666,-0.09222222222222222,-0.7466666666666667,0.0256326883354257,0.1407135008355608,-1.8020561227906273
1589986158.4629545,-1.99732707924951,-2.279538877998693,8.844884719499673,0.5496925853324621,-0.09439320866652147,-0.764305931526598,0.026763079626676557,0.1477698455727564,-1.7949997780534317
1589986158.4729545,-2.012918642560759,-2.347081357439241,8.881244072317724,0.59,-0.10111111111111112,-0.8188888888888889,0.021430387516099887,0.14924025634504076,-1.7873497171398796
1589986158.4829545,-1.6987678723724478,-2.187867355641399,8.483520794662118,0.59,-0.10111111111111112,-0.8188888888888889,0.06297349197368005,0.09059214751834849,-1.7757115133442491
1589986158.4929545,-1.429761563419603,-2.033194245328102,8.637938328428783,0.59,-0.10111111111111112,-0.8188888888888889,0.047143621826754196,0.1511756918043512,-1.753274491490643
1589986158.5029545,-1.6961160372603556,-2.289263753290149,9.247413802759057,0.59,-0.10111111111111112,-0.8188888888888889,-0.032402657090160186,0.19451124183835475,-1.7413092914183292
1589986158.5129545,-1.763362317768075,-2.4094801302449493,9.057175312661881,0.5921143836799132,-0.10533987847093745,-0.8372135474481364,-0.06906453064538615,0.12210124315643645,-1.7325568933283957
1589986158.5229545,-1.6231299501320036,-2.279542387797008,8.286491639777061,0.5933333333333334,-0.10777777777777778,-0.8477777777777777,0.020983373245229572,0.11991618946742721,-1.6937939772290123
1589986158.5329545,-1.7889011437908497,-2.4646813725490198,8.507252859477125,0.5933333333333334,-0.10777777777777778,-0.8477777777777777,0.04352294509942202,0.14048701812375874,-1.660994842723382
1589986158.5429544,-1.8732524530311097,-2.61,8.741098349433331,0.5933333333333334,-0.10777777777777778,-0.8477777777777777,0.011090348042261073,0.11575252070485441,-1.6484227061463927
1589986158.5529544,-1.8013830838746117,-2.5789983408641626,8.662384743010449,0.5933333333333334,-0.10777777777777778,-0.8477777777777777,-8.321396925214768e-05,0.0902875032030057,-1.6377393273179004
1589986158.5629544,-1.7125458909912454,-2.4827580485738494,8.669787842417396,0.5933333333333334,-0.10777777777777778,-0.8477777777777777,0.04029442962564411,0.1064385606409642,-1.611897635417167
1589986158.5729544,-1.6053987086624497,-2.535664514437416,8.85548130182557,0.4722222222222222,-0.17888888888888888,-0.7677777777777778,0.034047713554589076,0.09867669344770445,-1.570274418376199
1589986158.5829544,-1.62,-2.56,8.69,0.4722222222222222,-0.17888888888888888,-0.7677777777777778,0.04254240051736178,0.09708393964218458,-1.5511613727099605
1589986158.5929544,-1.7354198728671797,-2.7291450875432144,8.784061112969779,0.4722222222222222,-0.17888888888888888,-0.7677777777777778,0.021317001283506352,0.11536992277283249,-1.5052365573855284
1589986158.6029544,-1.838370867951211,-2.9533622061163163,8.95840551529079,0.4722222222222222,-0.17888888888888888,-0.7677777777777778,0.03454360468546352,0.09253912633498722,-1.4649989689273308
1589986158.6129544,-1.7507784566644038,-2.88731538055367,8.815798446103944,0.47029829104959225,-0.13232975451124354,-0.7250665057453924,0.03196939747015034,0.09049649672258729,-1.4128294324176125
1589986158.6229544,-1.7496842979783993,-2.885443683981485,8.89104521897377,0.4666666666666667,-0.04444444444444445,-0.6444444444444445,0.029915010355856243,0.08678666449710162,-1.372624390364016
1589986158.6329544,-1.6392563095905777,-2.8805776780706673,8.941899046550757,0.4666666666666667,-0.04444444444444445,-0.6444444444444445,0.03656528409625473,0.08290313946973066,-1.311494409225869
1589986158.6429543,-1.457492825783032,-2.6886254936106546,8.959312746805328,0.4666666666666667,-0.04444444444444445,-0.6444444444444445,0.0761363820354001,0.13080251950105548,-1.2512061576755036
1589986158.6529543,-1.2913658705168574,-2.432731741033715,8.11473312341602,0.4666666666666667,-0.04444444444444445,-0.6444444444444445,0.09639221168188404,0.1255573792540176,-1.2103033726008408
1589986158.6629543,-1.3909421280919074,-2.602942831464187,8.23565628541284,0.48596094981308535,-0.005319925841984381,-0.626758018226894,-0.014399810315100445,0.010574208662243012,-1.2073187309232927
1589986158.6729543,-1.5297517494550879,-2.898882872547895,9.264905586784444,0.5066666666666667,0.03666666666666667,-0.6077777777777778,-0.07833614120132665,-0.012391797644895605,-1.167412058905393
1589986158.6829543,-1.558621544109212,-3.0287969484914536,9.082063553974992,0.5066666666666667,0.03666666666666667,-0.6077777777777778,-0.017451490528057542,0.03327169036005622,-1.0991792607370738
1589986158.6929543,-1.5593092132940682,-3.08,9.04741775347076,0.5066666666666667,0.03666666666666667,-0.6077777777777778,0.015874456077326213,0.048936678931746566,-1.0472137048539572
1589986158.7029543,-1.55,-3.0374374395875847,9.024668671463859,0.5066666666666667,0.03666666666666667,-0.6077777777777778,0.030033988855286645,0.05062000773372583,-1.0035595165391964
1589986158.7129543,-1.5625782364986454,-3.039746623368565,9.0474813328645,0.5150521576657635,0.059027975997591485,-0.6081271732360735,0.03406285911870317,0.04945804250431006,-0.9593621066399244
1589986158.7229543,-1.5613853658536585,-3.1184936585365852,9.116926829268293,0.5333333333333333,0.10777777777777778,-0.6088888888888889,0.0350774995995636,0.041928023336156695,-0.9087900681055325
1589986158.7329543,-1.5005585043175156,-3.026954765111305,8.744162243523727,0.5333333333333333,0.10777777777777778,-0.6088888888888889,0.052509291044971006,0.043478027934147734,-0.8392361888250277
1589986158.7429543,-1.4908266543443969,-3.0753386765244826,8.822032059146895,0.5333333333333333,0.10777777777777778,-0.6088888888888889,0.04414170281328502,0.03665366284709562,-0.7972082112277654
1589986158.7529542,-1.4523428066558681,-3.0818141658076867,8.959471359151818,0.5333333333333333,0.10777777777777778,-0.6088888888888889,0.04166038729004798,0.04409760941680673,-0.7585699264231355
1589986158.7629542,-1.365428714320114,-2.903755163280049,8.868326448959934,0.5379591383110749,0.11887970972435752,-0.6088888888888889,0.04227081927470087,0.0397685580833929,-0.7021389233533067
1589986158.7729542,-1.3110450664048754,-2.880447885602089,8.899402819197215,0.5552237884428968,0.16031487004072997,-0.6088888888888889,0.037185960085238716,0.04570089380443207,-0.6682398620902258
1589986158.7829542,-1.300823370097821,-2.93712577731055,8.783982146357108,0.5555555555555556,0.16111111111111112,-0.6088888888888889,0.04562056743386207,0.04878855009517139,-0.6057556533233981
1589986158.7929542,-1.251001536527448,-2.8536723006006426,8.473369185640452,0.5555555555555556,0.16111111111111112,-0.6088888888888889,0.04653987859793093,0.0459936251609635,-0.57406665066808
1589986158.8029542,-1.2594769204308474,-2.926847333003676,9.061592888009804,0.5555555555555556,0.16111111111111112,-0.6088888888888889,0.013145996624050822,-0.001149953703027784,-0.5403647788246717
1589986158.8129542,-1.1420900570497148,-2.731920130399348,8.577570089649551,0.5561833288055782,0.16311998551118356,-0.6105210993389478,0.05753043324931594,0.05623014873221787,-0.4802611887782444
1589986158.8229542,-1.157604070143539,-2.745208140287078,8.765724076437575,0.5611111111111111,0.17888888888888888,-0.6233333333333333,0.01932456593546806,0.02119221577198213,-0.4460227359180547
1589986158.8329542,-1.2899677276896424,-3.0082634099942247,9.204725685361959,0.5611111111111111,0.17888888888888888,-0.6233333333333333,-0.008705524082235364,-0.027242606658763012,-0.43266687403229387
1589986158.8429542,-1.24,-2.912904531543094,8.840221147201106,0.5611111111111111,0.17888888888888888,-0.6233333333333333,0.019775279142650974,0.008385687600934843,-0.36566071541685646
1589986158.8529541,-1.2439967356282855,-3.005937976937426,8.908009793115143,0.5611111111111111,0.17888888888888888,-0.6233333333333333,0.016360681298871034,0.0030500531384081418,-0.314395948076667
1589986158.8629541,-1.2459330029258973,-3.09153102048128,8.885933002925897,0.5864168706833065,0.1956087657490894,-0.6233333333333333,0.014311267364030952,0.006915542784285617,-0.2590487642179682
1589986158.8729541,-1.24,-3.0186885412022213,8.89341919662762,0.6233333333333333,0.22,-0.6233333333333333,0.007032920453571401,0.001090830782496456,-0.20407478137071872
1589986158.8829541,-1.2364109589041097,-3.0123013698630134,8.784383561643835,0.6233333333333333,0.22,-0.6233333333333333,0.009984837381700435,0.0003078234810880411,-0.15456623901351835
1589986158.892954,-1.258359381034527,-3.061897319704421,8.718002265763793,0.6233333333333333,0.22,-0.6233333333333333,0.008435675665809508,-0.000648898128139193,-0.09857165319167958
1589986158.902954,-1.3076120247282719,-3.099478160733767,8.881491777445552,0.6233333333333333,0.22,-0.6233333333333333,0.0004151715445361577,-0.004982058534433892,-0.04713341898139653
1589986158.912954,-1.3026081893377632,-3.1548784957101024,8.77,0.6473812690638338,0.22730026620390192,-0.6329954503679094,0.0013016254762044349,-0.014354737552205345,-0.002302582696893988
1589986158.922954,-1.237962255749833,-3.061501036083092,8.77,0.7367682389631938,0.2544355963519219,-0.6689098579167594,0.002085156301992609,-0.019055922506934393,0.033739835289362016
1589986158.932954,-1.1965449483321733,-2.952382966572076,8.894686334350627,0.7477777777777778,0.2577777777777778,-0.6733333333333333,-0.005936754691824155,-0.014432058620079334,0.10884305303650646
1589986158.942954,-1.0618027520479734,-2.720326961860399,8.752458460495083,0.7477777777777778,0.2577777777777778,-0.6733333333333333,-0.00348707243502441,-0.024230787647278318,0.1562035766679682
1589986158.952954,-1.180467977811397,-2.963719213313162,8.735812808875442,0.7477777777777778,0.2577777777777778,-0.6733333333333333,-0.008092567174561655,-0.030897916686547826,0.24287911215728905
1589986158.962954,-1.2181028350426464,-2.94,8.766480541455161,0.8179728811998572,0.27306049548979205,-0.7498523199465912,-0.01178348868067514,-0.025446917369390372,0.3103906840096088
1589986158.972954,-1.2129609794680816,-2.9425921958936163,9.05446824638302,1.487777777777778,0.4188888888888889,-1.48,-0.02715008541987966,-0.03757331992486187,0.3994428698814004
1589986158.982954,-1.2475183732656625,-2.949503674653133,8.639779520812048,1.487777777777778,0.4188888888888889,-1.48,-0.01810298087973883,-0.03304976765479145,0.45523334787893555
1589986158.992954,-1.2434574287971707,-2.9343412092253285,8.638682418450657,1.487777777777778,0.4188888888888889,-1.48,-0.024118342885345805,-0.046873588484147535,0.5428735326719637
1589986159.002954,-1.3382422543242731,-3.1053521193689413,8.996523949819426,1.487777777777778,0.4188888888888889,-1.48,-0.008982300005422727,-0.04382497160894655,0.5927556018571268
1589986159.012954,-1.3125965453975925,-2.8741544726361483,8.792463417908444,1.4500990190082688,0.3855954067908693,-1.4464180128578035,-0.013259912888828076,-0.04747220197691629,0.654356129919328
1589986159.022954,-1.3595189510896317,-2.949230321743411,9.017690965230232,0.7692027764104553,-0.21605410619372228,-0.8395548992407632,-0.01633097715988787,-0.057709082880448945,0.6912089011720455
1589986159.032954,-1.29778518847883,-2.8891611086408777,8.807483325922632,0.7622222222222222,-0.2222222222222222,-0.8333333333333334,-0.007635815477475192,-0.054208431814580675,0.7366310591663031
1589986159.042954,-1.3578801468970536,-2.865760293794107,8.766174753338184,0.7622222222222222,-0.2222222222222222,-0.8333333333333334,-0.01307988978787852,-0.06279562557890259,0.7564534229967348
1589986159.052954,-1.3791749733452925,-2.9083499466905853,8.97202474233783,0.7622222222222222,-0.2222222222222222,-0.8333333333333334,-0.027791622846395806,-0.08215316907695165,0.7696165525754082
1589986159.062954,-1.538212537942142,-3.165700303537137,8.974250758842842,0.7314381534480029,-0.15628473297679762,-0.8126782162203088,-0.02057300233635266,-0.059879771572436555,0.8106085311259693
1589986159.072954,-1.539482288828338,-3.074713896457766,8.873215258855586,0.59,0.14666666666666667,-0.7177777777777777,-0.03007958452006576,-0.0667725164272013,0.839487914296278
1589986159.082954,-1.5483197336462626,-3.02,8.942254455148323,0.59,0.14666666666666667,-0.7177777777777777,-0.020399425730121074,-0.07174000776303778,0.8624894726767801
1589986159.092954,-1.5381313427450274,-3.0168742952505525,8.760634161742818,0.59,0.14666666666666667,-0.7177777777777777,-0.024612253911271913,-0.07158592385380817,0.8846649946244518
1589986159.102954,-1.589466573534548,-3.005786629413819,8.85210668529309,0.59,0.14666666666666667,-0.7177777777777777,-0.02698277804486647,-0.07193664384389474,0.9010291738288845
1589986159.112954,-1.5509181478962557,-2.9903672591585027,8.859816370420749,0.59,0.14666666666666667,-0.7177777777777777,-0.02193680092850353,-0.0677316629135923,0.9170081013640339
1589986159.122954,-1.6089564098081903,-3.0611955122602383,8.974478204904095,0.5722222222222222,0.16111111111111112,-0.7322222222222222,-0.019238921856212225,-0.06812000489075164,0.9383042029978749
1589986159.132954,-1.5289723012379424,-2.961215376547428,8.934486150618971,0.5722222222222222,0.16111111111111112,-0.7322222222222222,-0.00978693301782433,-0.06375754850380339,0.9528457242877023
1589986159.1429539,-1.5006840489164197,-2.897557018867255,8.801498375960668,0.5722222222222222,0.16111111111111112,-0.7322222222222222,-0.026261662510997416,-0.07878498753299225,0.9584245335893663
1589986159.1529539,-1.3741277222626507,-2.6965557941818568,8.741942457535366,0.5722222222222222,0.16111111111111112,-0.7322222222222222,-0.023013391056088996,-0.06904017316826698,0.9641090086354562
1589986159.1629539,-1.5542377579303974,-3.0282330942848343,8.991235426107616,0.5718052316912803,0.15710800201406916,-0.7343071748769315,-0.02244263512843164,-0.06302255768692755,0.9600658526796502
1589986159.1729538,-1.3604758238373884,-2.760657090061155,8.760566456949272,0.5666792545988727,0.10789862192695578,-0.7599370603389698,-0.003319453406958453,-0.06000310794143177,0.9349037714671853
1589986159.1829538,-3.5707058405191576,-1.5130687172193082,10.36360832073962,0.5666666666666667,0.10777777777777778,-0.76,-0.00406484529653182,-0.034853347765498595,0.851519730929541
1589986159.1929538,-10.030750705822737,-2.970369440891871,7.643758113945126,0.5666666666666667,0.10777777777777778,-0.76,-0.15648427034174428,0.8768200013657133,0.06742924641365577
1589986159.2029538,-10.896580584879029,-9.199015327727084,-4.233932923798731,0.5666666666666667,0.10777777777777778,-0.76,-0.671019890095695,1.8111975098925572,-3.333279408430191
1589986159.2129538,2.405441839050219,-0.49325221166178845,-1.5404452922024534,0.5566911493333041,0.11589345289644563,-0.7378509699886356,-1.1274931649181208,-1.296527882526612,-8.423770583814148
1589986159.2229538,0.8224551477547586,-1.83761741508045,0.09382080134609316,0.5011111111111111,0.16111111111111112,-0.6144444444444445,-0.9532344957451934,-0.5043642248957609,-9.020967180460396
1589986159.2329538,0.04732048425630151,-1.5121168764931685,-0.18433012106407537,0.5011111111111111,0.16111111111111112,-0.6144444444444445,-0.9616170111570244,-0.39862557854606945,-8.74020043198676
1589986159.2429538,-0.02753431902320127,-1.2794794085860792,-0.19104118282784155,0.5011111111111111,0.16111111111111112,-0.6144444444444445,-1.0615667992907996,-0.359956073443905,-8.4398888474759
1589986159.2529538,0.5631855350207842,-2.4395056692882653,2.4633383423430457,0.5011111111111111,0.16111111111111112,-0.6144444444444445,-1.163195412184249,-0.2530318681155055,-8.178168384878289
1589986159.2629538,1.9760136968928346,-5.275410019023462,8.863026506024097,0.4951494116818149,0.1818528570422039,-0.6170526879447615,-1.0503260566476478,0.0868598185918445,-7.899862820575666
1589986159.2729537,-0.5003959667725209,-2.4754593896334574,3.284213359168954,0.4477777777777778,0.3466666666666667,-0.6377777777777778,0.5906277702269722,2.165252543762999,-7.262710485540147
1589986159.2829537,-1.3507393652331485,-4.507253350557081,16.51344959362721,0.4477777777777778,0.3466666666666667,-0.6377777777777778,1.5978327136411377,3.4334934871818144,-6.760339315719879
1589986159.2929537,5.882991560544286,4.411959866445194,10.894048254223923,0.4477777777777778,0.3466666666666667,-0.6377777777777778,3.0782907189061124,2.6082689552898444,-6.073390221355254
1589986159.3029537,0.9991067263972075,0.3655134980956696,-0.37266589486753254,0.4477777777777778,0.3466666666666667,-0.6377777777777778,3.194973538952048,0.5018369934079487,-5.4170493585968655
1589986159.3129537,0.22624640868652043,0.753042461709168,3.0581765043888325,0.43556539658007887,0.3632305859922813,-0.634408845033585,0.39079844376871553,0.12230915022608943,-4.43363099849334
1589986159.3229537,1.7803372367195704,0.31257821633081684,19.820749767183816,0.3552291505676752,0.47219239092864485,-0.6122471219956805,-0.36798462865352966,0.5465749541611082,-3.9776359143495057
1589986159.3329537,0.47576919286488617,-0.6664600374494924,6.256402877697842,0.3511111111111111,0.4777777777777778,-0.6111111111111112,-1.1687949214103341,0.28261493749395805,-3.2200190544889615
1589986159.3429537,1.1416193602527396,-1.632488399644585,10.032625382564913,0.3511111111111111,0.4777777777777778,-0.6111111111111112,-0.07194187320491097,-0.023381433892338932,-2.669282848126984
1589986159.3529537,0.7503862079349545,0.08836896785364752,5.325620718211248,0.3511111111111111,0.4777777777777778,-0.6111111111111112,0.6336839104020379,0.6074328947537759,-2.1821806601804576
1589986159.3629537,0.7474965377306837,-0.028373538600276988,4.726266546426617,0.34743359063272744,0.4795882493979051,-0.6118466152067878,0.6760032836986527,0.2414238042663789,-1.8600361392773528
1589986159.3729537,1.071629322942036,-0.9178470530930346,8.285370189965905,0.2788888888888889,0.5133333333333333,-0.6255555555555555,-0.3439498912224085,-0.02464796710254869,-1.2790218070489172
1589986159.3829536,0.64,-0.89,6.35,0.2788888888888889,0.5133333333333333,-0.6255555555555555,-0.5246896063807953,-0.04363323129985824,-0.9653852425093636
1589986159.3929536,0.8882132126273071,-1.617837046864635,9.301097670425722,0.2788888888888889,0.5133333333333333,-0.6255555555555555,0.21993748487104003,0.09330534131257157,-0.590922619349514
1589986159.4029536,0.7327293479533304,-1.4296197369961368,7.656242049401023,0.2788888888888889,0.5133333333333333,-0.6255555555555555,0.1842308352356954,0.14418731704293766,-0.27938210128113194
1589986159.4129536,0.7539769452449568,-1.7303626320845342,8.900609990393852,0.277202209414025,0.515903511580745,-0.6259571459067136,-0.12530119614435575,-0.08432273889584696,0.15356953622063518
1589986159.4229536,0.4243227665706052,-1.3549231508165227,6.501460134486071,0.25583573487031697,0.5484619489806809,-0.6310444017504536,-0.054380691358143426,-0.019395516204244137,0.48220117107505567
1589986159.4329536,0.6175862335056718,-2.3284771201481593,9.731379736090748,0.25555555555555554,0.5488888888888889,-0.6311111111111111,0.08021373106624571,-0.035527211273341824,0.8850367043207961
1589986159.4429536,0.5204884636160197,-1.931994559765414,8.177815417856316,0.25555555555555554,0.5488888888888889,-0.6311111111111111,-0.11573315610242557,-0.10437341487314525,1.1560083005405353
1589986159.4529536,0.5504969307220111,-2.1815996784565916,8.787562847120725,0.25555555555555554,0.5488888888888889,-0.6311111111111111,-0.1242039666578479,-0.11469985236062925,1.4035471921726537
1589986159.4629536,0.4031576351642932,-2.1098856420689227,7.780671351951174,0.254929001500113,0.5500375713238669,-0.6319465165183678,0.024634006750852633,-0.11140414504317651,1.8053531555928364
1589986159.4729536,0.49956899513023095,-2.7532041463759622,9.862529248924004,0.2488888888888889,0.5611111111111111,-0.64,-0.0326050156275583,-0.13543540660198886,2.10226125555535
1589986159.4829535,0.4164439456933662,-2.4177431104897162,8.369836638581258,0.2488888888888889,0.5611111111111111,-0.64,-0.0641581803294892,-0.17095917909524105,2.278034471920769
1589986159.4929535,0.47045641855844583,-2.73410188012804,8.871381029471284,0.2488888888888889,0.5611111111111111,-0.64,-0.06247479552834682,-0.16843410189352745,2.4000798700035917
1589986159.5029535,0.8565394293599579,-6.44289845367101,8.06857908194326,0.2488888888888889,0.5611111111111111,-0.64,-0.0703416955021297,-0.17276454767009916,2.527911926199949
1589986159.5129535,2.7453311777059235,-22.23397113237108,6.801995066502217,0.2507408024711935,0.5607407283946502,-0.6423704493853499,-0.08813995628474365,-0.18820512674677345,2.686501716445878
1589986159.5229535,1.84,-10.11,4.73,0.2766666666666667,0.5555555555555556,-0.6755555555555556,-0.4363323129985824,-0.37960911230876665,4.22587845139127
1589986159.5329535,1.3440642337252506,-8.47442408510205,4.6206917086578105,0.2766666666666667,0.5555555555555556,-0.6755555555555556,-0.25041115218450194,-0.32109473271763683,4.698409667712092
1589986159.5429535,-0.648488134670357,-2.301822451109397,5.082443622668905,0.2766666666666667,0.5555555555555556,-0.6755555555555556,0.3540958775825851,-0.12911179358918276,6.532441898069403
1589986159.5529535,0.6124039733751296,-5.942044904024264,8.56707024650396,0.2766666666666667,0.5555555555555556,-0.6755555555555556,-0.14099479133965623,-0.3405794991035406,6.4089033161660485
1589986159.5629535,7.004119162927089,-18.693284755853735,11.513279868485359,0.2797726633195599,0.5531468234573935,-0.6759041878329212,-0.5813745187017404,-0.7701905564112044,6.128622238126983
1589986159.5729535,-1.0277966854756304,1.125607366597059,3.12728884347092,0.381232801646895,0.4744634508770111,-0.6872925707063976,-0.7226556191577005,-0.736649000187847,2.5762665108350356
1589986159.5829535,-2.8942029910632865,-0.8520299106328652,15.619204358927595,0.3855555555555555,0.4711111111111111,-0.6877777777777778,0.01616841302789407,0.2177786559235831,-1.4143214705562133
1589986159.5929534,-2.4512823333879536,0.9956696083709824,11.516442800627356,0.3855555555555555,0.4711111111111111,-0.6877777777777778,0.9192529237343268,0.5975325839194405,-1.192052494382562
1589986159.6029534,-1.3527706635622818,-1.228260435722601,8.93572842175287,0.3855555555555555,0.4711111111111111,-0.6877777777777778,0.595125382687997,0.28508843452277427,-0.9834282149658616
1589986159.6129534,-1.718978463329453,-2.257129968401796,11.612533053384333,0.3855555555555555,0.4711111111111111,-0.6877777777777778,-0.4073559524983137,-0.12104015193315998,-0.8588313886761019
1589986159.6229534,-0.8670296015568986,-2.6874550855269894,10.440750588958313,0.4488888888888889,0.4244444444444445,-0.6588888888888889,-0.23624011531000244,-0.0600311564901745,-0.5186779365983447
1589986159.6329534,-0.6166299989503516,-2.3326812217907,7.614129106749239,0.4488888888888889,0.4244444444444445,-0.6588888888888889,0.2946966091812018,0.20802080047826146,-0.15329496396417586
1589986159.6429534,0.4663948777159652,-4.683637661383436,8.705959063713657,0.4488888888888889,0.4244444444444445,-0.6588888888888889,0.14486090812947885,0.1283005236366396,0.13100867392883686
1589986159.6529534,3.2312439144466936,-14.385384278759368,8.971641048082708,0.4488888888888889,0.4244444444444445,-0.6588888888888889,-0.23716168480526387,-0.20661716982132822,0.1472598881697203
1589986159.6629534,0.4550812318800941,-7.072145807122148,9.45919027952519,0.4488888888888889,0.4244444444444445,-0.6588888888888889,-0.2759542612731189,-0.18784656830462415,-0.5015772375910157
1589986159.6729534,-3.993436866981769,-6.335633580913797,7.8614494710781,0.4586450596443844,0.41550128791857355,-0.684905344236877,0.07604168372396691,0.1662079442917378,-1.3722690526480454
1589986159.6829534,-1.1519599180432833,-3.0521814572928667,8.501722371622488,0.4622222222222222,0.4122222222222222,-0.6944444444444444,0.20542212672168514,0.2202538772650488,-0.710525879673204
1589986159.6929533,2.951024444230584,-5.070907997305361,8.90608747954961,0.4622222222222222,0.4122222222222222,-0.6944444444444444,-0.08320495243284079,-0.188799807677887,0.6464483041889564
1589986159.7029533,-0.16594589937973808,-4.246612680909718,9.345973466574776,0.4622222222222222,0.4122222222222222,-0.6944444444444444,-0.0670381672362928,-0.037579909824557424,0.18478117139308675
1589986159.7129533,-1.506875717895704,-5.386804502641857,9.113117390305536,0.4622222222222222,0.4122222222222222,-0.6944444444444444,0.05646158172888616,0.07102979848524535,-0.260168278779331
1589986159.7229533,0.20400748571803806,-4.441556241381575,8.69308359051809,0.4282270667804846,0.4342731338601061,-0.6944444444444444,0.006483097650781686,0.03129930097413677,-0.18256935900815136
1589986159.7329533,-0.05431021485111195,-4.07,8.905927487749718,0.4211111111111111,0.4388888888888889,-0.6944444444444444,-0.018099881129969523,-0.027917358172437623,0.07893728806309747
1589986159.7429533,-0.12,-4.07,8.52,0.4211111111111111,0.4388888888888889,-0.6944444444444444,0.02399827721492203,0.014180800172453925,-0.004363323129985824
1589986159.7529533,-0.049672790520708776,-4.1252570931623005,8.871636047396457,0.4211111111111111,0.4388888888888889,-0.6944444444444444,0.01084711979542133,0.0048653970003075964,-0.002719428452548236
1589986159.7629533,-0.1439059694793537,-4.222758078994614,8.585755161579893,0.4211111111111111,0.4388888888888889,-0.6944444444444444,-0.001404297752197244,-0.003585959317190156,-0.0003134669697007881
1589986159.7729533,-0.008716645489199492,-4.1236319356205,8.9253028377806,0.4355555555555555,0.4388888888888889,-0.6733333333333333,-0.01751404823696925,-0.009104348150988529,-0.0020231884779974506
1589986159.7829533,-0.11530622617534943,-4.168044260906395,8.62329902583651,0.4355555555555555,0.4388888888888889,-0.6733333333333333,-0.004918002035503027,-0.0003840084730503731,-8.533521623341634e-05
1589986159.7929533,-0.06191030072231306,-4.111910300722313,8.86725438251547,0.4355555555555555,0.4388888888888889,-0.6733333333333333,0.0019732800818204827,-0.0009052290302580437,0.0018104580605160874
1589986159.8029532,-0.11,-4.199409356395666,8.560631584878022,0.4355555555555555,0.4388888888888889,-0.6733333333333333,0.007055952474891719,-0.0012841184500242803,-0.001090830782496456
1589986159.8129532,-0.11,-4.191532292899131,8.702418727815653,0.4355555555555555,0.4388888888888889,-0.6733333333333333,-0.0006773365290378853,-0.003861881451334148,-0.001090830782496456
1589986159.8229532,-0.06951750067138127,-4.198552502014144,8.745789991943425,0.4477777777777778,0.4388888888888889,-0.6733333333333333,-0.004100160569890224,0.0009855657584582158,0.003167227323451128
1589986159.8329532,-0.06325977978694836,-4.179779339360845,8.820882642556619,0.4477777777777778,0.4388888888888889,-0.6733333333333333,-0.000687103285385043,-0.0003796571553438565,0.0018020044096490552
1589986159.8429532,-0.08870058918050348,-4.17,8.673446170326727,0.4477777777777778,0.4388888888888889,-0.6733333333333333,0.0065696408594250934,-0.001090830782496456,0.001090830782496456
1589986159.8529532,-0.12179024202842874,-4.162736585990523,8.672634140094761,0.4477777777777778,0.4388888888888889,-0.6733333333333333,0.008726646259971648,0.0012861158937693521,0.001090830782496456
1589986159.8629532,-0.07306466591720026,-4.1315323329586,8.7711691676035,0.4477777777777778,0.4388888888888889,-0.6733333333333333,0.0017396295691824186,0.002957996752858382,-0.001238174781099954
1589986159.8729532,-0.056832883791563725,-4.181495954124074,8.827331535166255,0.4477777777777778,0.4426849354397576,-0.683203054365592,-0.007798998758249384,0.0010364363555717252,-0.002181661564992912
1589986159.8829532,-0.010275555555555559,-4.21,8.810165333333334,0.4477777777777778,0.4444444444444444,-0.6877777777777778,-0.008738669639263164,-0.0032544572785520934,-1.2023379291516492e-05
1589986159.8929532,-0.059862098355066916,-4.202876843092134,8.710275803289866,0.4477777777777778,0.4444444444444444,-0.6877777777777778,-0.00561858273051034,-0.004049508229854695,0.0
1589986159.9029531,-0.0981447030294256,-4.118348836367585,8.724434109088277,0.4477777777777778,0.4444444444444444,-0.6877777777777778,0.003553797111515835,-0.0013944030394227019,0.0009896400301877073
1589986159.9129531,-0.060630236138603966,-4.165117669405954,8.82448743326735,0.4477777777777778,0.4444444444444444,-0.6877777777777778,0.00522223813637837,-0.001090830782496456,0.0002319157761039093
1589986159.9229531,-0.06833782359142557,-4.161662176408575,8.822493264612861,0.43657133002746207,0.45055705230825294,-0.6806464019366679,0.002453634543854773,-9.065765962062034e-05,0.0010001731228758356
1589986159.9329531,-0.07807370703004027,-4.200368535150202,8.80385258593992,0.4355555555555555,0.4511111111111111,-0.68,0.00042025193354772107,0.0,0.00021012596677386054
1589986159.942953,-0.08,-4.191542771442316,8.66157078581737,0.4355555555555555,0.4511111111111111,-0.68,0.0030200569605441795,0.004026742614058906,0.0
1589986159.952953,-0.07141070568137019,-4.129874939769591,8.744482237504927,0.4355555555555555,0.4511111111111111,-0.68,0.007020279004562697,0.0006155364729124946,0.0009369466642683323
1589986159.962953,-0.07,-4.12,8.7817270501836,0.4355555555555555,0.4511111111111111,-0.68,0.006450788719819464,-0.0011850267576557277,0.001090830782496456
1589986159.972953,-0.06553465858705292,-4.1333960242388414,8.817861365651789,0.4355555555555555,0.44565347160639796,-0.6834730433211811,-0.0013651507021561846,-0.002668754751752802,-0.000857541964543105
1589986159.982953,-0.07853386947107949,-4.224135477884318,8.775131456851222,0.4355555555555555,0.4388888888888889,-0.6877777777777778,-0.007795745508685622,-0.004283358114380608,0.0017818364869668368
1589986159.992953,-0.06140197612763075,-4.202102964191447,8.677009880638154,0.4355555555555555,0.4388888888888889,-0.6877777777777778,-0.001549626397399896,-0.001320228589948176,0.001167296718313696
1589986160.002953,-0.06871010311123041,-4.19128989688877,8.730970721778613,0.4355555555555555,0.4388888888888889,-0.6877777777777778,0.004609918372972508,0.0008094189359931989,0.00014070592325162855
1589986160.012953,-0.10122523844460748,-4.158774761555393,8.802450476889215,0.4355555555555555,0.4388888888888889,-0.6877777777777778,0.0028995450660195595,-0.0014637780639662641,0.0017030725643084799
1589986160.022953,-0.0738182315031995,-4.1789454147974405,8.82,0.44037979135512895,0.44290908538853335,-0.6821495026782756,0.000602934091334092,-0.001392297828163502,-0.0001864296454953179
1589986160.032953,-0.07818331554064359,-4.162725026689035,8.756358395607748,0.44222222222222224,0.4444444444444444,-0.68,-0.0019834920319580216,-0.0020825767984754668,-9.908476651744515e-05
1589986160.042953,-0.0732366520863709,-4.207343435395404,8.702656564604595,0.44222222222222224,0.4444444444444444,-0.68,0.0007694056737750118,-0.001443894755300931,0.0
1589986160.052953,-0.07871171609139524,-4.169017987360234,8.706135148274186,0.44222222222222224,0.4444444444444444,-0.68,0.005032563989252002,-0.002991432398669183,0.0009503008080863632
1589986160.062953,-0.07250720124562086,-4.167492798754379,8.80740638380693,0.44222222222222224,0.4444444444444444,-0.68,0.0038194788068167075,-0.0024551547946565816,0.0019081683353292423
1589986160.072953,-0.07902375407545412,-4.124881229622729,8.821952491849093,0.44222222222222224,0.43241277234383896,-0.6930343114423226,-0.002633540884020555,-0.002181661564992912,0.0011973226930745914
1589986160.082953,-0.06263599543511826,-4.172092013694645,8.811317997717559,0.44222222222222224,0.4311111111111111,-0.6944444444444444,-0.007060730484845764,-0.002181661564992912,0.00014377124815735697
1589986160.092953,-0.07726593553948566,-4.197265935539486,8.697771418993343,0.44222222222222224,0.4311111111111111,-0.6944444444444444,-0.005752394079968141,-0.0012399508662393865,0.0009417106987535254
1589986160.102953,-0.08,-4.174489685761892,8.748027504634953,0.44222222222222224,0.4311111111111111,-0.6944444444444444,0.001966495698740472,-0.0029459931853021443,0.001090830782496456
1589986160.112953,-0.09435038734667528,-4.17,8.767175193673337,0.44222222222222224,0.4311111111111111,-0.6944444444444444,0.003272492347489368,-0.00014172349578916218,0.0003081385695714045
1589986160.122953,-0.08357281439238051,-4.145359221588571,8.819281556822858,0.44222222222222224,0.44206256818285744,-0.6944444444444444,0.004168456334018073,-0.0033889891501470678,0.0017919279730574094
1589986160.132953,-0.0886081843273731,-4.183040921636866,8.752526341053642,0.44222222222222224,0.4444444444444444,-0.6944444444444444,-0.0012707203374354497,-0.001546301396275187,0.002181661564992912
1589986160.142953,-0.08308394405005645,-4.183083944050057,8.698503664300338,0.44222222222222224,0.4444444444444444,-0.6944444444444444,-0.0014272368926262925,-0.0033541047995963146,0.000672812220259673
1589986160.152953,-0.04827467600270254,-4.203793992997973,8.727587985995946,0.44222222222222224,0.4444444444444444,-0.6944444444444444,0.0006395172175498232,-0.0017678011299164047,0.0
1589986160.162953,-0.06742298555127157,-4.175721268060911,8.760567239163453,0.44222222222222224,0.4444444444444444,-0.6944444444444444,0.0025865226218605847,-0.0003429848628143917,0.0
1589986160.172953,-0.08,-4.149562402638128,8.801312792085618,0.44222222222222224,0.44154511184392425,-0.6869061796830921,0.002703209722607647,0.0005692826248817209,0.0017078478746451627
1589986160.182953,-0.07265514059930202,-4.132655140599302,8.800620562397208,0.44222222222222224,0.4388888888888889,-0.68,-0.0010231379259630206,0.00028963090975747284,0.0016700926020114016
1589986160.1929529,-0.08177250837346486,-4.1712037793071275,8.737023712319408,0.44222222222222224,0.4388888888888889,-0.68,-0.005392115195236102,-0.000642090726048638,0.000448740056447818
1589986160.2029529,-0.07628298887122417,-4.206858505564388,8.679424483306835,0.44222222222222224,0.4388888888888889,-0.68,-0.004643227880852164,-0.0003426838833406991,0.0
1589986160.2129529,-0.07,-4.2036813870171335,8.745823355794396,0.44222222222222224,0.4388888888888889,-0.68,0.0008630301791461353,0.0013785075088785011,0.0
1589986160.2229528,-0.08439893201354519,-4.178401601979682,8.804398932013545,0.44222222222222224,0.4388888888888889,-0.68,0.0048431721750342455,-0.0001743581763244042,0.0015706798275448774
1589986160.2329528,-0.07435272309172397,-4.162176361545862,8.833470915362414,0.44222222222222224,0.4388888888888889,-0.68,0.004600727346792606,-0.00023740421680678203,-0.00037861813207610987
1589986160.2429528,-0.07,-4.176958056478405,8.729772632890366,0.44222222222222224,0.4388888888888889,-0.68,0.0015885676272921292,0.0018498370017957964,0.0007590062192993404
1589986160.2529528,-0.06240213935271946,-4.187597860647281,8.732793581941841,0.44222222222222224,0.4388888888888889,-0.68,-0.0013955633000551613,-0.00030473251755870536,0.001090830782496456
1589986160.2629528,-0.06,-4.19,8.764459699770903,0.44222222222222224,0.4388888888888889,-0.68,-4.7150089735103606e-05,-0.0005572029136820039,0.0005572029136820039
1589986160.2729528,-0.07445050998419767,-4.179162117511852,8.797225254992098,0.44422923749780524,0.4433043224951715,-0.6723733419527845,0.000999431981477772,-0.00118222958351514,0.0007881530556767598
1589986160.2829528,-0.08540081583320744,-4.152700407916604,8.795400815833206,0.4477777777777778,0.4511111111111111,-0.6588888888888889,-0.001090830782496456,-0.0008837064242185372,0.0013853995905693016
1589986160.2929528,-0.08670758225455727,-4.163415164509114,8.722924177454427,0.4477777777777778,0.4511111111111111,-0.6588888888888889,-0.002554198222376068,0.002926734879759223,0.0018225145024362618
1589986160.3029528,-0.08280447239692523,-4.198782110412299,8.70439105520615,0.4477777777777778,0.4511111111111111,-0.6588888888888889,-0.004057402648063058,-0.0003461386734563178,0.0013967512644192217
1589986160.3129528,-0.07359802584062275,-4.197196051681246,8.748411844956264,0.4477777777777778,0.4511111111111111,-0.6588888888888889,-0.002966629033626707,-0.002181661564992912,0.00039248373431689755
1589986160.3229527,-0.07422544878563886,-4.185774551214362,8.786901795142555,0.4477777777777778,0.4511111111111111,-0.6739127067933826,-0.0003379617228980573,-0.0003379617228980573,0.0
1589986160.3329527,-0.0766828913912096,-4.18,8.816634217217581,0.4477777777777778,0.4511111111111111,-0.6944444444444444,0.002181661564992912,0.0018198211470576546,-0.0010855212538057723
1589986160.3429527,-0.07441794573497955,-4.166746162795062,8.785820542650205,0.4477777777777778,0.4511111111111111,-0.6944444444444444,0.002181661564992912,0.001090830782496456,-0.001826722986554982
1589986160.3529527,-0.06653786707882535,-4.154487377640391,8.738974755280783,0.4477777777777778,0.4511111111111111,-0.6944444444444444,0.00022367369986274607,0.00011183684993137303,0.0
1589986160.3629527,-0.055339736607584906,-4.165339736607585,8.76067947321517,0.4477777777777778,0.4511111111111111,-0.6944444444444444,0.0007307129659954972,-0.0005083558762987742,-0.0005824749061976818
1589986160.3729527,-0.065959795416289,-4.175959795416289,8.793839181665156,0.4318849900010071,0.4438269167134245,-0.6858358510653604,0.003922605177236301,-0.0019503384892407987,0.0015096205364912754
1589986160.3829527,-0.08446697765774613,-4.1582995335133806,8.766599067026762,0.4211111111111111,0.4388888888888889,-0.68,0.002785220674110028,-0.003272492347489368,0.0016943898916135717
1589986160.3929527,-0.08208979086619046,-4.1737306274014285,8.73417958173238,0.4211111111111111,0.4388888888888889,-0.68,-0.002132688244579123,-0.002409622385574961,0.001090830782496456
1589986160.4029527,-0.08588269040210003,-4.1623519287937,8.7476480712063,0.4211111111111111,0.4388888888888889,-0.68,-0.003272492347489368,-0.002181661564992912,-0.0008342751498556943
1589986160.4129527,-0.08622997191939213,-4.168850140403039,8.752459943838785,0.4211111111111111,0.4388888888888889,-0.68,-0.0036837386156096767,-0.0017704152968726033,-0.0017704152968726033
1589986160.4229527,-0.08,-4.18423783856172,8.75576216143828,0.4211111111111111,0.44107807797753895,-0.6835027025418401,-0.0017842454956525779,-0.0015206770548853302,-0.0006609845101075817
1589986160.4329526,-0.08,-4.167303357020338,8.772696642979662,0.4211111111111111,0.4444444444444444,-0.6888888888888889,0.0029783342303275574,-0.0005883162343236215,-0.0007966726653346452
1589986160.4429526,-0.08,-4.149183173499727,8.721427404832697,0.4211111111111111,0.4444444444444444,-0.6888888888888889,0.002515571176143205,-0.0015138423426923262,0.0011799327315420332
1589986160.4529526,-0.0872148288973384,-4.1616444866920155,8.736074144486691,0.4211111111111111,0.4444444444444444,-0.6888888888888889,0.0006076300746605734,-0.002181661564992912,-0.00017938567050559615
1589986160.4629526,-0.07161490561986375,-4.182256729586758,8.768385094380136,0.4211111111111111,0.4444444444444444,-0.6888888888888889,0.0006685008962985075,-0.002181661564992912,-0.0004223298861979485
1589986160.4729526,-0.06392902205398873,-4.182141955892023,8.783929022053988,0.4294057132250873,0.44706379248043693,-0.6801577287689139,0.001090830782496456,-0.0008958921045134033,0.0012857694604795087
1589986160.4829526,-0.07283213219771421,-4.17,8.795664264395429,0.44222222222222224,0.4511111111111111,-0.6666666666666666,0.001090830782496456,0.001399768480633055,0.00265461695121617
1589986160.4929526,-0.08,-4.166067028441129,8.770670284411292,0.44222222222222224,0.4511111111111111,-0.6666666666666666,0.001090830782496456,0.001323620276373035,0.001090830782496456
1589986160.5029526,-0.07055293825936028,-4.16,8.725745102901067,0.44222222222222224,0.4511111111111111,-0.6666666666666666,0.0007473259241353107,0.0006870097167222906,0.0007473259241353107
1589986160.5129526,-0.05376240414138867,-4.175049616565555,8.775049616565555,0.44222222222222224,0.4511111111111111,-0.6666666666666666,-0.0012312438760856731,0.0009504176889072388,-0.000820829250723782
1589986160.5229526,-0.05998383197116454,-4.199935327884658,8.79993532788466,0.44222222222222224,0.4511111111111111,-0.6666666666666666,-0.003267201372425566,-0.001085539807432654,-0.002178134248283711
1589986160.5329525,-0.09240591230902993,-4.176202956154515,8.78,0.4355555555555555,0.4444444444444444,-0.6588888888888889,-0.0002624443206676978,-0.0016567729236575163,0.0006766375515820769
1589986160.5429525,-0.0704526978560612,-4.17,8.746584442496214,0.4355555555555555,0.4444444444444444,-0.6588888888888889,0.0021322798893367405,-0.0022804249163052553,0.0005207245534201421
1589986160.5529525,-0.06,-4.156558806387691,8.730161790418464,0.4355555555555555,0.4444444444444444,-0.6588888888888889,0.004005595734779445,-0.0007331033872900766,-0.0011084793793737738
1589986160.5629525,-0.07082815413300186,-4.166242231199503,8.767070385332504,0.4355555555555555,0.4444444444444444,-0.6588888888888889,0.0014104021685121594,-0.001090830782496456,-0.0010004931804034462
1589986160.5729525,-0.08,-4.174326699885488,8.795673300114512,0.4355555555555555,0.4412926110474933,-0.6759087892324251,-0.00047196974217141073,-0.00047196974217141073,0.0
1589986160.5829525,-0.07291430164200284,-4.162914301642003,8.8,0.4355555555555555,0.4388888888888889,-0.6888888888888889,0.0015458595768775795,-0.0007729297884387897,0.0015458595768775795
1589986160.5929525,-0.07,-4.166393766277409,8.742456103503319,0.4355555555555555,0.4388888888888889,-0.6888888888888889,0.0007867581506957972,-0.0003933790753478986,8.930644354723967e-05
1589986160.6029525,-0.07,-4.183873767921147,8.751621303763441,0.4355555555555555,0.4388888888888889,-0.6888888888888889,0.0,-0.003026786623519792,0.00042256252926343996
1589986160.6129525,-0.058374517229742406,-4.19,8.793250965540516,0.4355555555555555,0.4388888888888889,-0.6888888888888889,-0.0012681434467179168,-0.0037292514066268657,0.001090830782496456
1589986160.6229525,-0.05621836747637471,-4.171344897570876,8.81,0.4355555555555555,0.4388888888888889,-0.6750702944969451,-0.0028599802310033456,-0.001237536349458068,-0.0002658065495244107
1589986160.6329525,-0.07013317129981264,-4.175199756949719,8.76946731480075,0.4355555555555555,0.4388888888888889,-0.6666666666666666,-0.002167134829674842,-0.001105357517814526,0.0005672054942253333
1589986160.6429524,-0.07562114689168245,-4.185621146891682,8.725621146891683,0.4355555555555555,0.4388888888888889,-0.6666666666666666,-0.000613172006238149,-0.003136979117509526,0.002181661564992912
1589986160.6529524,-0.06494864262760483,-4.174948642627605,8.735154072117187,0.4355555555555555,0.4388888888888889,-0.6666666666666666,0.0022040704460796244,-0.0032612879069460116,0.0005286087304331936
1589986160.6629524,-0.0652855058136798,-4.16735724709316,8.75528550581368,0.4355555555555555,0.4388888888888889,-0.6666666666666666,0.004363323129985824,-0.002181661564992912,-0.0008025511603651608
1589986160.6729524,-0.07844843007108224,-4.160775784964459,8.768448430071082,0.4355555555555555,0.4388888888888889,-0.6666666666666666,0.004363323129985824,-0.002181661564992912,-8.462501198296677e-05
1589986160.6829524,-0.07886503879600024,-4.171134961204,8.808865038796,0.44222222222222224,0.4511111111111111,-0.6733333333333333,-0.0016981487046577926,-0.0015743436428315753,-0.0006073179221613367
1589986160.6929524,-0.05754929250753886,-4.197483569164154,8.762384984149076,0.44222222222222224,0.4511111111111111,-0.6733333333333333,-0.002448992282160044,-0.00027450002177644133,-0.0019071615432164706
1589986160.7029524,-0.08,-4.182065204026068,8.71,0.44222222222222224,0.4511111111111111,-0.6733333333333333,0.0004327759850597227,-0.0015236067675561786,-0.0006580547974367333
1589986160.7129524,-0.08,-4.165724331926864,8.73351617440225,0.44222222222222224,0.4511111111111111,-0.6733333333333333,0.0003912262300092774,-0.0014820570125057334,0.0002332015174957262
1589986160.7229524,-0.07727184106373439,-4.152728158936266,8.822728158936266,0.4364627755789948,0.4477766946334531,-0.6751521059575104,-0.0024792575397150447,-9.955311639207485e-05,0.001090830782496456
1589986160.7329524,-0.06818668019987509,-4.16,8.828186680199876,0.4211111111111111,0.4388888888888889,-0.68,-0.0030746898418407094,-0.002876887336192051,0.0008930282768477974
1589986160.7429523,-0.07663168468635173,-4.165543894895451,8.747929366359143,0.4211111111111111,0.4388888888888889,-0.68,-0.000972171323616419,-0.002300321023872949,0.0006047451206882465
1589986160.7529523,-0.08415979885458863,-4.175840201145411,8.713360804581646,0.4211111111111111,0.4388888888888889,-0.68,0.0006370671185385783,-0.0007242238733350548,0.002364965019573613
1589986160.7629523,-0.08839230313382368,-4.171607696866176,8.75098075783456,0.4211111111111111,0.4388888888888889,-0.68,0.0024640181716589086,0.00017537252305482105,0.002357034088047733
1589986160.7729523,-0.09653241335044929,-4.163467586649551,8.790402759948652,0.4234228355441449,0.43619187705034945,-0.6776882755669662,0.003228558052494726,-0.0003343207308357238,0.001090830782496456
1589986160.7829523,-0.08020143967311401,-4.17,8.790402879346228,0.42777777777777776,0.4311111111111111,-0.6733333333333333,-0.0005124549018109103,2.197365962487859e-05,2.197365962487859e-05
1589986160.7929523,-0.07482159252809878,-4.165178407471902,8.73142725977521,0.42777777777777776,0.4311111111111111,-0.6733333333333333,-0.0011297532549319003,-0.002142739092557468,0.0004870316825950616
1589986160.8029523,-0.086085767291409,-4.16,8.714343069165636,0.42777777777777776,0.4311111111111111,-0.6733333333333333,-0.0013277084593158034,-0.0026086381178314663,0.0008539531056771085
