time,acc_x,acc_y,acc_z,mag_x,mag_y,mag_z,gyr_x,gyr_y,gyr_z
1589986232.8209212,-3.72,-0.44,8.84,0.2966666666666667,-0.36,-0.6433333333333333,-0.007635815477475192,0.015271630954950384,0.003272492347489368
1589986232.8309212,-3.75874315114259,-0.5112568488574102,9.025628424428705,0.2966666666666667,-0.3524954340950599,-0.6483363772699601,-0.014317901114714773,0.02072578486743266,0.006205220717121778
1589986232.8409212,-3.760915349118693,-0.5090846508813072,9.04637302367804,0.2966666666666667,-0.3466666666666667,-0.6522222222222223,-0.0146762910139321,0.017153745221322965,0.008826495359511759
1589986232.8509212,-3.77,-0.5044329310515382,9.037835344742309,0.2966666666666667,-0.3466666666666667,-0.6522222222222223,-0.015631473466764613,0.015631473466764613,0.012718823631089476
1589986232.8609211,-3.77,-0.5159294519711949,9.04557671182717,0.2966666666666667,-0.3466666666666667,-0.6522222222222223,-0.018100095393294664,0.01551288389988918,0.01765606748414958
1589986232.8709211,-3.7601108095493285,-0.5101108095493284,9.060110809549329,0.2966666666666667,-0.3466666666666667,-0.6522222222222223,-0.015307893295170976,0.01148394183306328,0.020701609973952265
1589986232.8809211,-3.740868627309988,-0.5,9.05,0.2997104575633374,-0.3497104575633374,-0.655266013118893,-0.009508943003282814,0.008228607139136007,0.021413329069918656
1589986232.890921,-3.7479142947765554,-0.5134357210824165,9.01417141044689,0.3033333333333333,-0.3533333333333333,-0.6588888888888889,-0.0060564480902541825,0.005681669058576979,0.022566173713283528
1589986232.900921,-3.759270850137119,-0.526423616712373,8.93423616712373,0.3033333333333333,-0.3533333333333333,-0.6588888888888889,-0.003113416524392611,0.0024922465514594784,0.02617993877991494
1589986232.910921,-3.7524682482626406,-0.5137658758686796,8.88246824826264,0.3033333333333333,-0.3533333333333333,-0.6588888888888889,0.0031309431338009354,-0.0029893939201125017,0.024139826428610463
1589986232.920921,-3.765244446221831,-0.5047555537781688,8.963422247105637,0.3033333333333333,-0.3533333333333333,-0.6588888888888889,0.002075001779617541,-0.002021671886929856,0.022907446432425576
1589986232.930921,-3.7615399128834643,-0.5,9.038460087116535,0.305683357532371,-0.34487324621679744,-0.6499587969325454,0.0,0.0015522569549624046,0.023368872604891525
1589986232.940921,-3.7547143445435824,-0.5,9.059428689087166,0.3088888888888889,-0.3333333333333333,-0.6377777777777778,0.0020570208589736874,0.002181661564992912,0.028112318932869407
1589986232.950921,-3.764465216963495,-0.504465216963495,9.011952179474564,0.3088888888888889,-0.3333333333333333,-0.6377777777777778,0.007285800798569264,-0.0012278957150211015,0.03467324192061597
1589986232.960921,-3.77,-0.51,8.969222797927461,0.3088888888888889,-0.3333333333333333,-0.6377777777777778,0.01090830782496456,-0.00598543937131475,0.039744673899041856
1589986232.970921,-3.775316278798936,-0.5153162787989364,9.026581393994682,0.3088888888888889,-0.3333333333333333,-0.6377777777777778,0.009748475712521947,-0.007704816807421348,0.04486206474224701
1589986232.980921,-3.762374826835543,-0.5023748268355432,9.044124942278515,0.305624967932508,-0.34116674362864746,-0.6377777777777778,0.008726646259971648,-0.008085776878817652,0.0481874624096556
1589986232.990921,-3.75,-0.48060031292908,8.98830172110994,0.3033333333333333,-0.3466666666666667,-0.6377777777777778,0.007188626059552634,-0.007123142077335521,0.0475493650119215
1589986233.000921,-3.754143158293659,-0.47,8.92792842085317,0.3033333333333333,-0.3466666666666667,-0.6377777777777778,0.004324282761612529,-0.006319010464804785,0.0446850217139814
1589986233.010921,-3.7666977270069006,-0.4766045459861983,8.939813637958595,0.3033333333333333,-0.3466666666666667,-0.6377777777777778,0.0007204442066158512,-0.00545415391248228,0.03819940633252132
1589986233.020921,-3.7635266305895754,-0.49352663058957563,8.990579891768727,0.3033333333333333,-0.3466666666666667,-0.6377777777777778,0.004105140167794267,-0.005838849633042551,0.03227697137514905
1589986233.030921,-3.76949971518086,-0.49949971518086017,9.008499145542581,0.3033333333333333,-0.3466666666666667,-0.6377777777777778,0.007362952437108484,-0.0064904120869053936,0.02967072155969768
1589986233.040921,-3.7478338191849434,-0.4421661808150568,8.962166180815057,0.3033333333333333,-0.3533333333333333,-0.6377777777777778,0.010581376579350661,-0.010817670250702386,0.020398853621818765
1589986233.050921,-3.7407057513914657,-0.44858849721706867,8.964353988868275,0.3033333333333333,-0.3533333333333333,-0.6377777777777778,0.0049922407069219995,-0.006160057023678502,0.015194645420690336
1589986233.060921,-3.7533614532142217,-0.4266385467857782,8.903445812856887,0.3033333333333333,-0.3533333333333333,-0.6377777777777778,-0.003290896766493308,0.002575945857498297,0.0116140565244576
1589986233.070921,-3.76,-0.4440703841944265,8.963698537872197,0.3033333333333333,-0.3533333333333333,-0.6377777777777778,-0.008160949797991125,0.009817477042468105,0.005757283214204837
1589986233.080921,-3.7630822584318513,-0.5230822584318516,9.076164516863704,0.3012784943787656,-0.3533333333333333,-0.6394901435732508,-0.009817477042468105,0.008808810329346214,0.0036087145851966653
1589986233.090921,-3.77,-0.5240618800682143,9.09,0.2966666666666667,-0.3533333333333333,-0.6433333333333333,-0.00787423183894381,0.003306242689104909,0.0037155747288110585
1589986233.100921,-3.7583684060348825,-0.49836840603488247,9.024087634197667,0.2966666666666667,-0.3533333333333333,-0.6433333333333333,-0.0007348721981593272,-0.006055069896205851,0.0009128514903278915
1589986233.110921,-3.7461522292736165,-0.4769238853631917,8.92,0.2966666666666667,-0.3533333333333333,-0.6433333333333333,0.0029369402938575306,-0.00839109420633981,-0.0007552787288646184
1589986233.120921,-3.7506344593319496,-0.4559516889979241,8.952779392338178,0.2966666666666667,-0.3533333333333333,-0.6433333333333333,0.0016708505622213122,-0.006103382469160394,0.0005108110027715996
1589986233.130921,-3.7357331473733146,-0.44,8.99853370525337,0.2966666666666667,-0.359496564905212,-0.6371701017614546,-0.00030549347437278714,-0.0011052331972909234,0.0020217136204092848
1589986233.1409209,-3.7400992913911564,-0.44,8.964553188739796,0.2966666666666667,-0.36777777777777776,-0.6288888888888889,-0.0032833233580803964,0.005475815933664337,0.0010691687613143992
1589986233.1509209,-3.75,-0.4501095795451516,8.904835630682273,0.2966666666666667,-0.36777777777777776,-0.6288888888888889,-0.008223067328067574,0.009841383590664762,0.0016661293589905074
1589986233.1609209,-3.75,-0.48387391064759067,8.91387391064759,0.2966666666666667,-0.36777777777777776,-0.6288888888888889,-0.013561682405438723,0.01512422620341643,0.004363323129985824
1589986233.1709208,-3.743023970629042,-0.5065119853145211,8.97139213216931,0.2966666666666667,-0.36777777777777776,-0.6288888888888889,-0.012608247302846345,0.017022189786951726,0.0055047732666018406
1589986233.1809208,-3.7442652195608783,-0.5,9.051397829341317,0.30102548375471283,-0.3650039850853848,-0.6288888888888889,-0.00646874493126945,0.011457635564640526,0.009969956569886675
1589986233.1909208,-3.7765180428134557,-0.49674097859327215,9.09,0.3088888888888889,-0.36,-0.6288888888888889,-0.004363323129985824,0.006189480607851374,0.020224369653619078
1589986233.2009208,-3.7893446483180426,-0.4903276758409786,9.09,0.3088888888888889,-0.36,-0.6288888888888889,-0.004363323129985824,0.005489897801884266,0.03211727735505991
1589986233.2109208,-3.7630884844510026,-0.4576460621959884,8.970734546646991,0.3088888888888889,-0.36,-0.6288888888888889,-0.00041702800041333056,-0.005710928694152075,0.059338285208776445
1589986233.2209208,-3.773877375186289,-0.4338773751862891,8.969386875931445,0.3088888888888889,-0.36,-0.6288888888888889,-0.0018698613634480158,-0.008303690239122438,0.06382490432713739
1589986233.2309208,-3.783205981767899,-0.45282392707159685,9.012823927071597,0.3088888888888889,-0.35572535764280105,-0.6271077879067227,-0.007244421415088109,-0.005187786957092384,0.05186881935138249
1589986233.2409208,-3.7773938175420962,-0.48,9.036848454385524,0.3088888888888889,-0.3466666666666667,-0.6233333333333333,-0.00666396447874437,-0.0017189014843560638,0.0334256431230618
1589986233.2509208,-3.7423223098875273,-0.46464461977505456,8.987772704381399,0.3088888888888889,-0.3466666666666667,-0.6233333333333333,-0.003437920671966,-0.002522882662878407,0.016957007546513397
1589986233.2609208,-3.7178535285256284,-0.44607323573718566,8.938219707211557,0.3088888888888889,-0.3466666666666667,-0.6233333333333333,-0.006558299327728895,0.005052439644634112,0.00958333332666862
1589986233.2709208,-3.5671428040647233,-0.4581318620074681,8.998131862007469,0.3088888888888889,-0.3466666666666667,-0.6233333333333333,-0.011339845500070209,0.018520150112975087,0.004363323129985824
1589986233.2809207,-3.385925506250457,-0.5053450544630456,9.1072508955333,0.3069782147817823,-0.35392722827367173,-0.6233333333333333,-0.022128458165825926,0.03644785501201176,0.01111620283556243
1589986233.2909207,-3.2675829405892323,-0.6021472848420124,9.205165881178464,0.3033333333333333,-0.36777777777777776,-0.6233333333333333,-0.04874339351177057,0.04916771663207164,0.04465844458282022
1589986233.3009207,-3.1716201050334525,-0.5251715786192177,8.903583367305341,0.3033333333333333,-0.36777777777777776,-0.6233333333333333,-0.02224493303398698,0.016155261175634063,0.08500993573893917
1589986233.3109207,-3.0787271280827366,-0.48942659567957897,8.83012606327642,0.3033333333333333,-0.36777777777777776,-0.6233333333333333,-0.0028346513890171662,0.0004515923287184704,0.11448843482402098
1589986233.3209207,-2.9109551012226897,-0.49196933253156944,8.936061334936861,0.3033333333333333,-0.36777777777777776,-0.6233333333333333,-0.01090830782496456,0.0036416781114190664,0.13011759293565614
1589986233.3309207,-2.6517363199037884,-0.47095159350571253,8.978096812988575,0.3033333333333333,-0.36777777777777776,-0.6233333333333333,-0.01090830782496456,0.007462810896066029,0.1423452178465264
1589986233.3409207,-2.5827057491101284,-0.42694099881350445,8.940822996440513,0.3033333333333333,-0.36,-0.6377777777777778,0.0061215244440667805,0.005864906826050948,0.20366437839838825
1589986233.3509207,-2.249697785592615,-0.5253338095499753,9.028833452387493,0.3033333333333333,-0.36,-0.6377777777777778,-0.00014181579380112184,-0.004632389528283895,0.23567770977645117
1589986233.3609207,-1.687150422744588,-0.63774969803958,9.020799033726657,0.3033333333333333,-0.36,-0.6377777777777778,0.0020945005064639745,0.0020727102418317397,0.26385030777634894
1589986233.3709207,-1.7465786516853932,-0.5703960674157303,8.824345505617977,0.3033333333333333,-0.36,-0.6377777777777778,0.024959495238711743,0.02213222118531433,0.2918686285796901
1589986233.3809206,-1.783306697791345,-0.5168549111151015,8.71112946669061,0.30135302567785954,-0.36,-0.6345788192573971,0.03859247267673827,0.023470392682900496,0.3096024172131726
1589986233.3909206,-1.9483341394598952,-0.5571793631600162,8.979872228939945,0.2888888888888889,-0.36,-0.6144444444444445,-0.003384521240427738,-0.016949953914622076,0.31632698926343006
1589986233.4009206,-2.076198222529284,-0.5367603554941431,8.971967465377006,0.2888888888888889,-0.36,-0.6144444444444445,-0.014456736546319736,-0.025334384774188094,0.32712659636055197
1589986233.4109206,-2.1091277517821814,-0.5301744496435637,8.833663442514839,0.2888888888888889,-0.36,-0.6144444444444445,0.004940357301256169,-0.008092523576342846,0.3357475269594746
1589986233.4209206,-2.1280681430451525,-0.49193185695484754,8.874773425187255,0.2888888888888889,-0.36,-0.6144444444444445,0.00187169455514547,-0.013685001834443043,0.34125646828365064
1589986233.4309206,-2.1212533510975353,-0.4987466489024648,8.997439680244366,0.2888888888888889,-0.36,-0.6144444444444445,-0.010765739660563343,-0.019632029700658957,0.3367961973839887
1589986233.4409206,-2.1581201584507044,-0.48624031690140845,9.06060079225352,0.2966666666666667,-0.36,-0.6,-0.014927049417715476,-0.023653695677687124,0.3343354097863583
1589986233.4509206,-2.143212471830749,-0.4666062359153745,8.996243651407621,0.2966666666666667,-0.36,-0.6,-0.007616039560359535,-0.01708309028673926,0.32484292023311057
1589986233.4609206,-2.0937581176470585,-0.4621814117647059,8.932786117647058,0.2966666666666667,-0.36,-0.6,-0.004839233350434043,-0.015714559585857237,0.3015522901729047
1589986233.4709206,-2.0725105986349557,-0.4749788027300881,9.004978802730088,0.2966666666666667,-0.36,-0.6,-0.007357327123219881,-0.016636325564797192,0.2784079662025169
1589986233.4809206,-2.078816109925133,-0.4623677801497339,8.992367780149735,0.2966666666666667,-0.36,-0.6,-0.003918204215867822,-0.017324150146267606,0.2625880008286974
1589986233.4909205,-2.10390317079333,-0.491219365841334,8.951219365841334,0.2822222222222222,-0.3533333333333333,-0.6288888888888889,0.005188129553511915,-0.0047623596684413716,0.219656678373833
1589986233.5009205,-2.06290695283911,-0.5,8.95418609432178,0.2822222222222222,-0.3533333333333333,-0.6288888888888889,0.00010149870732245733,-0.00985551102559203,0.17089269626275366
1589986233.5109205,-2.0679144010314476,-0.49374320309434383,8.946256796905656,0.2822222222222222,-0.3533333333333333,-0.6288888888888889,-0.006953304811023362,-0.013906609622046723,0.1311620216117172
1589986233.5209205,-2.062817845394737,-0.4643643092105263,8.97,0.2822222222222222,-0.3533333333333333,-0.6288888888888889,-0.0031338061312278943,-0.006574991512145271,0.08137759109085443
1589986233.5309205,-2.0843372426019364,-0.4436278921769171,8.981151188690395,0.2802751892762802,-0.35563437226944655,-0.6311899278250022,-0.0005213168522103955,-0.0007432862143561923,0.037869564875700756
1589986233.5409205,-2.153439453331921,-0.41,9.036063671999152,0.27,-0.36777777777777776,-0.6433333333333333,-0.002986234497267552,0.0018064754080509959,-0.017546438998457137
1589986233.5509205,-2.1067986411473196,-0.40679864114731995,8.99079184688392,0.27,-0.36777777777777776,-0.6433333333333333,-0.0002177955869162204,0.007941841007907112,-0.07815111940954327
1589986233.5609205,-2.092109373631954,-0.3921093736319541,8.902656241791725,0.27,-0.36777777777777776,-0.6433333333333333,0.0037880807076053668,0.014351243079141653,-0.12141458339037642
1589986233.5709205,-2.08,-0.39192530952643373,8.947701238105735,0.27,-0.36777777777777776,-0.6433333333333333,0.004363323129985824,0.017622573875807398,-0.21281247331577463
1589986233.5809205,-2.08,-0.39963003784121387,8.978520151364856,0.27,-0.36777777777777776,-0.6433333333333333,0.004363323129985824,0.022665306765727918,-0.26996344606820716
1589986233.5909204,-2.110815448484086,-0.4331115863630645,8.996223172726129,0.2766666666666667,-0.3855555555555555,-0.6233333333333333,0.013590908965806642,0.029953370703253487,-0.3649180135644431
1589986233.6009204,-2.097610284588668,-0.41880514229433413,8.94412990513711,0.2766666666666667,-0.3855555555555555,-0.6233333333333333,0.013990974920427564,0.03131392868376652,-0.44879597780365926
1589986233.6109204,-2.1305139744197064,-0.43683799147323543,8.93,0.2766666666666667,-0.3855555555555555,-0.6233333333333333,0.011943072695617877,0.03226787002765629,-0.5302339308150898
1589986233.6209204,-2.1163836721051204,-0.4470231256136539,8.947023125613654,0.2766666666666667,-0.3855555555555555,-0.6233333333333333,0.014877150776216834,0.03762223389782982,-0.6025582982480151
1589986233.6309204,-2.1426960318967154,-0.5064052908043795,9.010898677298904,0.278464021264477,-0.384457172190227,-0.627826719827859,0.017649353492178593,0.044417475188799425,-0.6759335256430334
1589986233.6409204,-2.1692405543952913,-0.4710125941396114,9.019746851465097,0.296160369596861,-0.3736427370982146,-0.672067590658819,0.019579725642053028,0.05213896378829715,-0.7473572951883876
1589986233.6509204,-2.2068610449614297,-0.5225558201542815,8.954888359691438,0.2966666666666667,-0.37333333333333335,-0.6733333333333333,0.025710311605394477,0.058777641958382636,-0.8560815380667712
1589986233.6609204,-2.2,-0.5579779091173336,8.905983431838001,0.2966666666666667,-0.37333333333333335,-0.6733333333333333,0.029887558569661646,0.06413844026930911,-0.9306540507146618
1589986233.6709204,-2.2141366291777613,-0.5970683145888804,8.94060247188332,0.2966666666666667,-0.37333333333333335,-0.6733333333333333,0.03182685107074522,0.06878805878486823,-1.006149098556134
1589986233.6809204,-2.279906781210016,-0.6303728751599342,8.989813562420034,0.2970291841832694,-0.37328154511667583,-0.6733333333333333,0.03271475488233157,0.07420699898744534,-1.0696852939556263
1589986233.6909204,-2.2722403582526045,-0.6610385669895814,8.97448071650521,0.32684305123987084,-0.369022421251447,-0.6733333333333333,0.031878477866973336,0.07671583003352003,-1.1248795769692694
1589986233.7009203,-2.2789417033879937,-0.6710582966120061,8.956295961857979,0.33555555555555555,-0.36777777777777776,-0.6733333333333333,0.03817907738737596,0.08623335294328943,-1.2142277150091605
1589986233.7109203,-2.263792169327458,-0.6862078306725421,8.903272592646104,0.33555555555555555,-0.36777777777777776,-0.6733333333333333,0.03817907738737596,0.08705963184797498,-1.2629781703856084
1589986233.7209203,-2.3578519905460573,-0.7532220141809141,8.934296018907885,0.33555555555555555,-0.36777777777777776,-0.6733333333333333,0.03732255808822491,0.08711287775060168,-1.3450100916568233
1589986233.7309203,-2.3449777464010557,-0.7725333803984161,8.960044507197889,0.33555555555555555,-0.36777777777777776,-0.6733333333333333,0.03872692026969915,0.09273032647649858,-1.3843322327381014
1589986233.7409203,-2.3676521808278004,-0.7937565106755199,9.02859130849668,0.3622222222222222,-0.3466666666666667,-0.6666666666666666,0.04061684629484597,0.10056131786365562,-1.4658261459689774
1589986233.7509203,-2.3259609955866565,-0.8604624070613495,9.003576597351994,0.3622222222222222,-0.3466666666666667,-0.6666666666666666,0.0451646491168261,0.10419956012123972,-1.5194902192683428
1589986233.7609203,-2.4028098816152226,-0.9040494080761122,8.848264230498947,0.3622222222222222,-0.3466666666666667,-0.6666666666666666,0.05253117673400968,0.1104804195682476,-1.597138424861901
1589986233.7709203,-2.417925293259095,-0.9796264662954755,8.946514406184118,0.3622222222222222,-0.3466666666666667,-0.6666666666666666,0.0475846698406372,0.11212925519937177,-1.6449546581645016
1589986233.7809203,-2.4193884652981428,-1.0130576735092864,8.94,0.36351323992614315,-0.3454435972629521,-0.6683653741718257,0.04211865061221604,0.10988357530246645,-1.7197458899555595
1589986233.7909203,-2.411188465298143,-1.0540576735092864,8.94,0.38082435103725426,-0.32904359726295207,-0.6911431519496035,0.05106346302868698,0.12061735020223159,-1.7716258019710909
1589986233.8009202,-2.4780207593868115,-1.1139584812263772,8.926249112641736,0.38333333333333336,-0.32666666666666666,-0.6944444444444444,0.051712172583779914,0.12630914662182574,-1.852106121299104
1589986233.8109202,-2.470132251469461,-1.1302645029389213,8.830132251469461,0.38333333333333336,-0.32666666666666666,-0.6944444444444444,0.049116238007124155,0.1298329071127313,-1.900453236667965
1589986233.8209202,-2.495764839958344,-1.204823060145796,8.885410960249935,0.38333333333333336,-0.32666666666666666,-0.6944444444444444,0.05586336205443111,0.1354940091766724,-1.9623529008004175
1589986233.8309202,-2.4768194742644924,-1.263710613358092,8.980530087622585,0.3853358865742084,-0.3241929244279386,-0.6964469976853195,0.056665377100202134,0.1366429657601248,-2.0054252017857173
1589986233.8409202,-2.4257040094821596,-1.3357040094821597,8.986197327011894,0.4211111111111111,-0.28,-0.7322222222222222,0.056254580819998394,0.14243021263721842,-2.0612396781607187
1589986233.8509202,-2.444701030927835,-1.3698409425625921,8.961673048600884,0.4211111111111111,-0.28,-0.7322222222222222,0.059152588479640666,0.145410795705138,-2.099879780289282
1589986233.8609202,-2.377189365499415,-1.498431903501754,8.857189365499416,0.4211111111111111,-0.28,-0.7322222222222222,0.06095098394966427,0.15128337318096505,-2.1521671091212253
1589986233.8709202,-2.374264712702314,-1.5285294254046282,8.853198534526735,0.4211111111111111,-0.28,-0.7322222222222222,0.058395541459085654,0.15668661388112137,-2.187288173672241
1589986233.8809202,-2.400199879423086,-1.5803997588461718,8.872649909567315,0.4211111111111111,-0.28,-0.7322222222222222,0.06193190123511009,0.1609302456123507,-2.214871779925232
1589986233.8909202,-2.3967975646879753,-1.6244033485540337,8.908398782343989,0.4688888888888889,-0.2411111111111111,-0.7744444444444445,0.06326818538479445,0.1679879405044542,-2.299471289502529
1589986233.9009202,-2.3329573820395737,-1.712183599695586,8.876478691019786,0.4688888888888889,-0.2411111111111111,-0.7744444444444445,0.06326818538479445,0.1679879405044542,-2.299471289502529
1589986233.9109201,-2.29,-1.7832560273204547,8.794418675773484,0.4688888888888889,-0.2411111111111111,-0.7744444444444445,0.06419834858223794,0.1764270939071942,-2.382382972951578
1589986233.9209201,-2.29,-1.8473923237677763,8.815797441255926,0.4688888888888889,-0.2411111111111111,-0.7744444444444445,0.063420994732904,0.180313863153864,-2.4088130038289326
1589986233.9309201,-2.1154817055875954,-1.8837950269452586,8.831265008981752,0.4702476022396605,-0.23825312785603983,-0.7744444444444445,0.06603471046189262,0.1825827138981373,-2.4569319961861154
1589986233.94092,-2.2185844757492674,-1.9551738678264157,8.855057955942138,0.4958029897156303,-0.1844986921307239,-0.7744444444444445,0.05651821484663806,0.19036893758334555,-2.4846163470668556
1589986233.95092,-2.1939298632237048,-2.0096493161185234,8.85,0.5011111111111111,-0.17333333333333334,-0.7744444444444445,0.04973040757865319,0.1908571332595958,-2.5356381266948658
1589986233.96092,-2.19732098827555,-2.109018517586675,8.835207819654809,0.5011111111111111,-0.17333333333333334,-0.7744444444444445,0.0560480525680069,0.2030796972670174,-2.5654815980934362
1589986233.97092,-2.1461311523294873,-2.191606543011538,8.764524609317949,0.5011111111111111,-0.17333333333333334,-0.7744444444444445,0.06833607973364847,0.21556246912111982,-2.5903332642747423
1589986233.98092,-2.130816781072002,-2.2375496567839934,8.703267124288008,0.5011111111111111,-0.17333333333333334,-0.7744444444444445,0.0624891940798632,0.2138919303628954,-2.6103797293734354
1589986233.99092,-2.1351535394892793,-2.3261548683690694,8.837770355205977,0.52,-0.19666666666666666,-0.8122222222222222,0.03902669165233702,0.20828168521632925,-2.636680726450728
1589986234.00092,-2.1125573752828357,-2.4014754157238807,8.920622957296269,0.52,-0.19666666666666666,-0.8122222222222222,0.04806450852933909,0.21814112180942247,-2.642432064463366
1589986234.01092,-2.0729336641611327,-2.5,8.645331679194337,0.52,-0.19666666666666666,-0.8122222222222222,0.048825802350829645,0.2147628727210464,-2.647960187562398
1589986234.02092,-2.0564354335366226,-2.5321771676831135,8.770725722561037,0.52,-0.19666666666666666,-0.8122222222222222,0.03545374702416368,0.2063218528075989,-2.64705398205039
1589986234.03092,-2.07414663256607,-2.6536583546462063,8.80926832907076,0.522926683716965,-0.19422776356919577,-0.8127100028417164,0.041531382652092746,0.2023358351237489,-2.636272012483565
1589986234.04092,-2.0026325660699063,-2.6983546462063086,8.800329070758739,0.5586837169650469,-0.16443023586246092,-0.8186695083830634,0.04250650446603666,0.19550998242614148,-2.6196949416465176
1589986234.05092,-1.9336611559764914,-2.693169422011754,8.84147520189421,0.56,-0.16333333333333333,-0.8188888888888889,0.043525951590751365,0.18578696333371184,-2.5924278687936604
1589986234.06092,-1.9018318503660272,-2.7140300708052596,8.69073274014641,0.56,-0.16333333333333333,-0.8188888888888889,0.05406196182045723,0.18714331728502487,-2.5657257118300665
1589986234.07092,-1.937785664077903,-2.7931284609713862,8.705114265631162,0.56,-0.16333333333333333,-0.8188888888888889,0.0446492754016435,0.17773063086621113,-2.5461159484575373
1589986234.08092,-1.9029797276647764,-2.9046364902034028,8.74761621786818,0.56,-0.16333333333333333,-0.8188888888888889,0.0455548625720356,0.17555874840872554,-2.5014986029079247
1589986234.09092,-1.82442881588597,-2.91,8.772671355234209,0.47771137729805624,-0.18852372803800999,-0.7643097003620895,0.0416931241697866,0.16160974241870993,-2.4661191731388645
1589986234.10092,-1.8340145065722264,-3.030665054825308,8.922043519716679,0.4511111111111111,-0.19666666666666666,-0.7466666666666667,0.047631185922841573,0.16340697869182022,-2.3973637871247795
1589986234.11092,-1.7697417080978002,-3.037806476878022,8.7292251242934,0.4511111111111111,-0.19666666666666666,-0.7466666666666667,0.05542126892874105,0.16106995379005032,-2.359192380395872
1589986234.12092,-1.6421119550515033,-3.0049278951201748,8.777039850171677,0.4511111111111111,-0.19666666666666666,-0.7466666666666667,0.04619885712842264,0.1409475495001857,-2.2851230341499176
1589986234.13092,-1.668296327125169,-3.066024763292061,8.86432109041723,0.4511111111111111,-0.19666666666666666,-0.7466666666666667,0.05095931030813847,0.14380382140801515,-2.228949686629271
1589986234.14092,-1.6021506106958785,-3.064507880214116,8.758626970053529,0.5011111111111111,-0.04777777777777778,-0.6588888888888889,0.053535529244059375,0.14659810487330463,-2.146003432777461
1589986234.15092,-1.5117876733895692,-3.0367038995044826,8.75167597487612,0.5011111111111111,-0.04777777777777778,-0.6588888888888889,0.042920225932157295,0.1321916218071518,-2.1035422195298525
1589986234.16092,-1.5250058135220048,-3.141370506889642,9.09448482299681,0.5011111111111111,-0.04777777777777778,-0.6588888888888889,0.05130361507341185,0.14042559370619012,-2.0104728053606284
1589986234.17092,-0.8566574394463667,-2.363318339100346,8.442269896193771,0.5011111111111111,-0.04777777777777778,-0.6588888888888889,0.15271630954950385,0.25441457663667777,-1.90616753274721
1589986234.18092,-1.0615489517606351,-2.696267046611032,7.383663749236719,0.5011111111111111,-0.04777777777777778,-0.6588888888888889,0.15271630954950385,0.06350664503478448,-1.8763672702532563
1589986234.1909199,-1.410473368226601,-3.2207100523399017,9.70783751539409,0.5260447668650794,0.03046231441570882,-0.6425530454638751,-0.11654784269482091,0.004142986562793223,-1.8666972325959117
1589986234.2009199,-1.3036953535155291,-3.0873907070310582,9.059788283204947,0.5333333333333333,0.05333333333333334,-0.6377777777777778,0.055473409727543256,0.10950927350606182,-1.728888808781484
1589986234.2109199,-1.3342764303321784,-3.1656585819930703,8.609178948820052,0.5333333333333333,0.05333333333333334,-0.6377777777777778,0.11717958832247621,0.15511833356196492,-1.6313068319396158
1589986234.2209198,-1.3631971522642259,-3.3391829135853546,8.941767251038597,0.5333333333333333,0.05333333333333334,-0.6377777777777778,0.017015914712271166,0.07546060887983336,-1.6052800506078297
1589986234.2309198,-1.3508215001046306,-3.38,9.2693204986398,0.5333333333333333,0.05333333333333334,-0.6377777777777778,0.03215793669377306,0.06927549951860007,-1.5165219598503075
1589986234.2409198,-1.329595196707227,-3.3837123618853524,8.521688345421488,0.5466666666666666,0.1511111111111111,-0.6144444444444445,0.0653737379147921,0.09972691960199696,-1.4047175635611884
1589986234.2509198,-1.4385402305740373,-3.626743591280545,9.309444744150733,0.5466666666666666,0.1511111111111111,-0.6144444444444445,0.0406914601714462,0.0659030575092637,-1.342554789985354
1589986234.2609198,-1.2672604023491192,-3.528356241409471,8.733287517181058,0.5466666666666666,0.1511111111111111,-0.6144444444444445,0.05612551319996852,0.08091577745246344,-1.2457289580650541
1589986234.2709198,-1.223586155191803,-3.502151693115082,8.785696613769835,0.5466666666666666,0.1511111111111111,-0.6144444444444445,0.0465972705596568,0.06662341349199584,-1.1761727867907785
1589986234.2809198,-1.1834734345351043,-3.408683586337761,8.762605075901329,0.5466666666666666,0.1511111111111111,-0.6144444444444445,0.050795430613348666,0.06544984694978735,-1.0907728256427371
1589986234.2909198,-1.102969503533662,-3.2997569401820317,8.680181154972555,0.5288888888888889,0.18222222222222226,-0.6144444444444445,0.03913108420430455,0.05577119387288712,-0.9998160728264069
1589986234.3009198,-1.1544576749732565,-3.4689323606264137,8.856712028479736,0.5288888888888889,0.18222222222222226,-0.6144444444444445,0.03672401781827177,0.058178260258919895,-0.9348252804035222
1589986234.3109198,-1.1501496697467777,-3.402544385695221,8.535388110883996,0.5288888888888889,0.18222222222222226,-0.6144444444444445,0.028394253218306565,0.046889397210648255,-0.836566211078225
1589986234.3209198,-1.1572349950166392,-3.522994915282869,8.790459820599017,0.5288888888888889,0.18222222222222226,-0.6144444444444445,0.029940031399979587,0.046116508119811744,-0.7801453074471599
1589986234.3309197,-1.1283467929081965,-3.546260094681147,8.89791330177295,0.5288888888888889,0.18222222222222226,-0.6144444444444445,0.02709043264385332,0.04149885628229184,-0.701155710945254
1589986234.3409197,-1.1574027712840567,-3.5250388914863775,8.772830577634208,0.5438499974025115,0.22211851159188262,-0.6318990710436708,0.02699594066526141,0.037096731410982985,-0.6347244434134433
1589986234.3509197,-1.0861451853833635,-3.436441709584643,8.733179943370565,0.5488888888888889,0.23555555555555555,-0.6377777777777778,0.019926066038796212,0.025186145315371816,-0.5441773263998444
1589986234.3609197,-0.9645794038302901,-3.3242271419971905,8.518102022161282,0.5488888888888889,0.23555555555555555,-0.6377777777777778,0.029106598881465367,0.028246322929594867,-0.47073306365849116
1589986234.3709197,-1.0499507891383197,-3.499753945691599,8.938671306734634,0.5488888888888889,0.23555555555555555,-0.6377777777777778,0.021821983722204515,0.016362461737446838,-0.39773989404600085
1589986234.3809197,-1.041727477698265,-3.4586373884913244,8.716641897853151,0.5488888888888889,0.23555555555555555,-0.6377777777777778,0.02271900784749123,0.016362461737446838,-0.32866903639892386
1589986234.3909197,-0.930551419405605,-3.3033085164336295,8.810625870104715,0.5633333333333334,0.2611111111111111,-0.6588888888888889,0.02642866219603165,0.0037536965568492234,-0.21142117625681645
1589986234.4009197,-0.939013982204467,-3.354083893226802,8.666762302524061,0.5633333333333334,0.2611111111111111,-0.6588888888888889,0.013504948596300321,0.011138675756695696,-0.12464767065862035
1589986234.4109197,-0.9584142917484533,-3.3692071458742268,8.999871543220612,0.5633333333333334,0.2611111111111111,-0.6588888888888889,-0.03018330157441401,-0.002061674786497327,-0.025150632729106975
1589986234.4209197,-0.944077901267539,-3.37796104936623,8.536414939293712,0.5633333333333334,0.2611111111111111,-0.6588888888888889,0.004394539665105439,0.0010695865073396746,0.06678303726374013
1589986234.4309196,-0.9763642558604397,-3.4381828093767037,8.860916772669453,0.5633333333333334,0.2611111111111111,-0.6588888888888889,-0.0056528246651184905,-0.020031998253088195,0.1478581678949302
1589986234.4409196,-0.9804507177033492,-3.3740564593301436,8.848563636363636,0.7044505050505051,0.29612514619883035,-0.6588888888888889,-0.0037149834180159203,-0.0179449492649728,0.2503778153849471
1589986234.4509196,-0.952145287103536,-3.293399539534724,8.791254252431187,0.7111111111111111,0.2977777777777777,-0.6588888888888889,-0.005551350717369168,-0.026568725999462493,0.29822150080601706
1589986234.4609196,-0.94,-3.297288369949301,8.704745352588722,0.7111111111111111,0.2977777777777777,-0.6588888888888889,-0.010612514871960067,-0.0346107920868821,0.3743771801842073
1589986234.4709196,-0.9662962235748412,-3.286851888212579,8.71314811178742,0.7111111111111111,0.2977777777777777,-0.6588888888888889,-0.013059662585377997,-0.0334723485329443,0.4172426672137121
1589986234.4809196,-0.9995498402258555,-3.3907824279465144,8.739549840225855,0.7111111111111111,0.2977777777777777,-0.6588888888888889,-0.013469947922078906,-0.034857480226018735,0.476520017551705
1589986234.4909196,-0.9809980485962483,-3.3339921943849933,8.817671219942088,1.3158555051967493,0.4599738763691301,-1.1003630380348874,-0.016253591524325338,-0.04127011937966283,0.5533094945255496
1589986234.5009196,-1.047199342568678,-3.4643986851373563,8.82959990608124,1.336666666666667,0.4655555555555556,-1.1155555555555556,-0.02264558557494157,-0.04249875704111444,0.6117809828281486
1589986234.5109196,-1.1179614438063987,-3.4797087776866285,8.713494667760461,1.336666666666667,0.4655555555555556,-1.1155555555555556,-0.018671193008029986,-0.04889678065395516,0.6702680884187462
1589986234.5209196,-1.1295955527289,-3.4608088945421995,8.7291911054578,1.336666666666667,0.4655555555555556,-1.1155555555555556,-0.01331056115656365,-0.04908738521234052,0.7232406710474028
1589986234.5309196,-1.1438825234676973,-3.4669412617338486,8.73,1.336666666666667,0.4655555555555556,-1.1155555555555556,-0.014604317783686848,-0.0566591271809874,0.7587181350221895
1589986234.5409195,-1.0906276304498836,-3.3611506558247863,8.73989539492502,0.9353534280408796,-0.21832618259578596,-0.901155332180135,-0.01635105109386742,-0.06539279373189026,0.8284494518747563
1589986234.5509195,-1.1435730808773132,-3.4135730808773133,8.82035962131597,0.9311111111111112,-0.2255555555555556,-0.8988888888888888,-0.017336447833015932,-0.06837180523649464,0.8894185326225902
1589986234.5609195,-1.158577199907128,-3.402845600185744,8.675610401671698,0.9311111111111112,-0.2255555555555556,-0.8988888888888888,-0.019324547257207475,-0.07246484877180509,0.9602855642790689
1589986234.5709195,-1.2471372644430683,-3.439607847474122,8.729215694948245,0.9311111111111112,-0.2255555555555556,-0.8988888888888888,-0.02481960919531981,-0.07827031753764616,1.021821838340618
1589986234.5809195,-1.1470792505088232,-3.2383031536540843,8.668052833672549,0.9311111111111112,-0.2255555555555556,-0.8988888888888888,-0.02096549343842839,-0.07814080559610227,1.072444450742612
1589986234.5909195,-1.2488670679956577,-3.5018638771012203,8.88595249843745,0.6516227507483799,0.08923659769509959,-0.7517897518558725,-0.028171739307696477,-0.08418831676092808,1.1215110845313065
1589986234.6009195,-1.27,-3.479486661209762,8.855896964736148,0.6144444444444445,0.13111111111111112,-0.7322222222222222,-0.032249453692094955,-0.08508480103472357,1.1488128036950405
1589986234.6109195,-1.3616696544980442,-3.339996740547588,8.878335234680574,0.6144444444444445,0.13111111111111112,-0.7322222222222222,-0.031997643694712294,-0.0905391327227571,1.1726434467347924
1589986234.6209195,-1.374001774763497,-3.343992900946012,8.770035495269939,0.6144444444444445,0.13111111111111112,-0.7322222222222222,-0.031634092692397225,-0.08770395649270751,1.176133362494348
1589986234.6309195,-1.3644846161472621,-3.354484616147262,8.761699990085594,0.6144444444444445,0.13111111111111112,-0.7322222222222222,-0.03283736278916733,-0.08688970617987873,1.177006414313676
1589986234.6409194,-1.378022231632437,-3.368022231632437,8.77794812619098,0.5950872326910862,0.1791703954642765,-0.723544851436234,-0.028573299581671825,-0.08704667971328336,1.1802829484859998
1589986234.6509194,-1.3983964357155845,-3.287639207128569,8.775189307146753,0.5822222222222222,0.2111111111111111,-0.7177777777777777,-0.028752744214143446,-0.09075517708812622,1.1787969320094334
1589986234.6609194,-1.446726422308773,-3.3234016254957406,8.71992317131729,0.5822222222222222,0.2111111111111111,-0.7177777777777777,-0.027996127704251774,-0.08726087546024469,1.17664094167302
1589986234.6709194,-1.4925577333592082,-3.4026347111714856,8.750153955624555,0.5822222222222222,0.2111111111111111,-0.7177777777777777,-0.0272707695624114,-0.08672524569682834,1.1759155835311794
1589986234.6809194,-1.485905165323244,-3.469331921368646,8.77,0.5822222222222222,0.2111111111111111,-0.7177777777777777,-0.0265020155854312,-0.08496020066877587,1.1705343056923183
1589986234.6909194,-1.4553699624977676,-3.4653699624977676,8.811050062503721,0.5886077875005787,0.1627632597178404,-0.7414955916688163,-0.025284365343865703,-0.08309839681617788,1.1566373133850643
1589986234.7009194,-1.4354682602277093,-3.4091389107969827,8.82,0.59,0.15222222222222226,-0.7466666666666667,-0.024296524544076353,-0.07735505529633573,1.1279437139209598
1589986234.7109194,-1.3424442017418579,-3.222848021507183,8.75632305581226,0.59,0.15222222222222226,-0.7466666666666667,-0.01965697903646607,-0.07005776617810831,1.0651377142817045
1589986234.7209194,-1.2518898469550692,-3.0778347704326037,8.67188984695507,0.59,0.15222222222222226,-0.7466666666666667,-0.004613501138323133,-0.054791717133160105,0.9800503472174515
1589986234.7309194,-1.2865759764695706,-3.168677278428998,8.815253254898568,0.59,0.15222222222222226,-0.7466666666666667,-0.011496188188929893,-0.059980853888505596,0.889663590492338
1589986234.7409194,-7.453493428912784,-10.023582437275985,3.5370394265232985,0.5144970131421744,0.08825441391212001,-0.6501906279038896,-0.3220049712755478,0.47625756675863207,0.6736621638325699
1589986234.7509193,-2.8437865574449495,-8.165853563128465,-0.02282220023470405,0.51,0.08444444444444445,-0.6444444444444445,-0.6930722479610856,0.7522952555981658,-0.9669970787119636
1589986234.7609193,4.641412213740458,-2.338915824221168,-4.314686403961213,0.51,0.08444444444444445,-0.6444444444444445,-1.2095030217520846,-0.1826457400256809,-5.737960648155036
1589986234.7709193,0.09663077492513206,-1.03427908072277,-0.012860459638615013,0.51,0.08444444444444445,-0.6444444444444445,-0.9263912078265277,-1.3241162449146142,-7.126577465820894
1589986234.7809193,-0.2686392212106558,-1.228284098315847,-0.024482243855259562,0.51,0.08444444444444445,-0.6444444444444445,-0.9903815767948079,-1.0062502163338585,-6.91821255844661
1589986234.7909193,0.7745419542317473,-2.739389756629132,6.896646567381039,0.5310437098922388,0.18882124550994875,-0.6713803931065101,-1.0179103494321797,-0.895869802269753,-6.666761667627353
1589986234.8009193,-0.09092072920934036,-1.777384268742319,2.4384227775501843,0.5377777777777778,0.2222222222222222,-0.68,-0.48005771301982114,-0.10972803585998481,-6.33415047647552
1589986234.8109193,0.021589083943978737,-1.7475732335213594,2.907945419719894,0.5377777777777778,0.2222222222222222,-0.68,0.6522783939435978,1.3087637331107091,-6.02617340655975
1589986234.8209193,0.14496359271067027,-1.789334041799504,3.6811134726650137,0.5377777777777778,0.2222222222222222,-0.68,1.7941191886428434,2.623497921515866,-5.631685795849043
1589986234.8309193,-0.7565960300833472,0.9046359402553166,13.757184885981701,0.5377777777777778,0.2222222222222222,-0.68,2.071651340587072,3.2626162754280026,-5.340458893292388
1589986234.8409193,-1.2099765686019266,1.228232231189794,10.339334808643583,0.4661268766814198,0.30138491133674683,-0.6730660418293847,1.1082306836633378,3.1669856379051677,-4.70257434330781
1589986234.8509192,-1.1501112291445355,-0.20053552458913954,2.639839405111542,0.4,0.3744444444444445,-0.6666666666666666,0.12857086594956588,1.6004242124267152,-3.8876314774615834
1589986234.8609192,-1.7024572568715814,0.950283807492518,1.389390071897898,0.4,0.3744444444444445,-0.6666666666666666,0.35426272900621913,-0.07424591551350579,-3.2511112536001336
1589986234.8709192,-0.017631454459444695,-1.5955562024671588,10.82703940904625,0.4,0.3744444444444445,-0.6666666666666666,0.07070191871410586,-1.3140644733593954,-2.904495436687237
1589986234.8809192,0.27500025456952293,-0.9621350745888704,5.353785448806068,0.4,0.3744444444444445,-0.6666666666666666,0.06203095523654975,-1.3520982785179991,-2.5008826883918536
1589986234.8909192,0.6520667988681179,-0.8609204340366746,4.84826474454669,0.3810537000314412,0.39609735869422596,-0.6348639488623,0.07158062656476998,-0.15819826833298234,-2.05688793554663
1589986234.9009192,0.49814163648510856,-1.7759073807095889,9.926866626815288,0.3688888888888889,0.41,-0.6144444444444445,0.006375562437997591,1.1412076103198303,-1.6564999390752342
1589986234.9109192,0.22202789064254652,-1.7348829042203484,8.093024276701309,0.3688888888888889,0.41,-0.6144444444444445,-0.04483983353441213,0.7977065307160225,-1.556578020057367
1589986234.9209192,0.6943226654975888,-2.2004953967558087,8.985313459009205,0.3688888888888889,0.41,-0.6144444444444445,0.010282311553904556,-0.26480550892969423,-1.5592888032880083
1589986234.9309192,0.46252211314995323,-1.8428667314162823,8.10123209268445,0.3688888888888889,0.41,-0.6144444444444445,-0.073267965757592,-0.34553187877278757,-1.4553066562186159
1589986234.9409192,0.38555021239079906,-1.9514113969704254,8.468205498116534,0.3358745424915177,0.4393460856865521,-0.6291174872877205,0.09617312172986203,0.35930332832929684,-1.156914827289974
1589986234.9509192,0.3149158036208396,-2.1250841963791602,8.779141434105462,0.3288888888888889,0.4455555555555555,-0.6322222222222222,0.033786346928998054,0.3859190108536082,-1.0300509227815289
1589986234.9609191,0.34318178927958287,-2.303888853563935,9.143703609503826,0.3288888888888889,0.4455555555555555,-0.6322222222222222,-0.01999306175518668,0.12118695103918645,-0.9585611285030713
1589986234.9709191,0.45691950740674636,-2.429321791897198,9.50316080671069,0.3288888888888889,0.4455555555555555,-0.6322222222222222,0.01986565807873565,-0.08317764801931476,-0.8256485148692396
1589986234.9809191,0.38138978347266,-2.3113897834726598,8.973213992051528,0.3288888888888889,0.4455555555555555,-0.6322222222222222,-0.012254953898203382,0.11258417865169612,-0.5965174760370455
1589986234.990919,0.3917801672640382,-2.3254241338112305,8.567885304659498,0.3195765299349529,0.46620469932297887,-0.6374857294570556,-0.026818537445892545,0.03982509803049786,-0.4186314005877498
1589986235.000919,0.39015553284400256,-2.496010963486017,9.0839401653814,0.3033333333333333,0.5022222222222222,-0.6466666666666666,-0.005035983531679493,0.00599674163683172,-0.186520428819081
1589986235.010919,0.4252821191130913,-2.7005642382261827,9.470251662083609,0.3033333333333333,0.5022222222222222,-0.6466666666666666,-0.004100079375763687,0.0031493946623331313,0.03733588482282797
1589986235.020919,0.4153563046449849,-2.6587470662574475,8.803195006834653,0.3033333333333333,0.5022222222222222,-0.6466666666666666,0.009758536787926797,-0.01807772161280453,0.3119289042328356
1589986235.030919,0.41,-2.6939966208268284,8.781243664050303,0.3033333333333333,0.5022222222222222,-0.6466666666666666,-0.020696809273791913,-0.039078137332733145,0.5412870457182015
1589986235.040919,0.37681693169833946,-2.6149202837114083,8.365437043776753,0.28551279665281193,0.5102107386652146,-0.6712467172604892,-0.018733624106917774,-0.050641174513002304,0.7557028617591744
1589986235.050919,0.3631294603933219,-2.8057186682597606,8.915626957729195,0.27111111111111114,0.5166666666666667,-0.6911111111111111,-0.030176316960074636,-0.06743135672396602,1.0193318919046421
1589986235.060919,-0.04603171790555505,-7.720497031983698,7.340642996367502,0.27111111111111114,0.5166666666666667,-0.6911111111111111,-0.010774986210323481,-0.08249653029017381,1.2481398259644592
1589986235.070919,3.189580602198835,-18.19549761052934,7.0684195544877655,0.27111111111111114,0.5166666666666667,-0.6911111111111111,-0.31771542555521654,-0.25747591718175633,2.5885067788813707
1589986235.080919,1.4694388284908984,-8.755271790959375,8.867751711276412,0.27111111111111114,0.5166666666666667,-0.6911111111111111,-0.46057359810096493,-0.5632917052039249,5.047454113510961
1589986235.090919,-1.2909111661254542,-2.8348741278976304,8.811887277754558,0.28342067753378564,0.5119322180425611,-0.6892173316614689,0.4273684426955023,-0.2002329096579491,6.14825838092547
1589986235.100919,-1.52,-2.86,8.67,0.2855555555555556,0.5111111111111111,-0.6888888888888889,0.5835944686356039,-0.11671889372712077,6.1708297365824505
1589986235.110919,3.5300986521501416,-6.867405567309292,5.701356883067488,0.2855555555555556,0.5111111111111111,-0.6888888888888889,0.010147498279276801,-0.09230409014095188,6.086303225579039
1589986235.120919,11.19394974874372,-16.75052261306533,8.332214405360133,0.2855555555555556,0.5111111111111111,-0.6888888888888889,-0.5217354100505771,-0.776900646417418,5.337841019759967
1589986235.130919,0.5860096832430657,-3.5712829476448382,6.905576070901034,0.2855555555555556,0.5111111111111111,-0.6888888888888889,-0.5374578585680372,-0.5736163299249571,2.1256455334465163
1589986235.140919,-1.4029341317365267,0.35619617907043055,9.327182777302538,0.32610049741786273,0.4868599309317872,-0.694572759243418,-0.08833987492660422,0.04705657991467316,-0.8955555871055321
1589986235.150919,-1.6906091925465838,-0.44611146997929607,11.577320082815735,0.4044444444444445,0.44,-0.7055555555555556,0.7697592725283645,0.5797380317599111,-1.121107168025599
1589986235.160919,-0.7941623732757188,-0.7953631377763004,5.766302143925544,0.4044444444444445,0.44,-0.7055555555555556,0.7385919687678156,0.33854224307588865,-0.974023055948424
1589986235.170919,-1.1011948133760303,-2.190993490471941,10.944623339807864,0.4044444444444445,0.44,-0.7055555555555556,-0.4673728022529326,-0.11180236723872733,-0.8295364386411475
1589986235.180919,-0.8270246180875452,-2.35,10.351348102757482,0.4044444444444445,0.44,-0.7055555555555556,-0.2277563897884498,0.006217896725466646,-0.6200224158968138
1589986235.190919,-0.6298984948569436,-2.1992206962013054,8.87945973693896,0.4138681509318629,0.42429382252096937,-0.6977024668160402,0.11937739095524474,0.11885233500569758,-0.41304054116329286
1589986235.200919,0.8852350055388509,-5.9986421902199725,9.12563222028802,0.4244444444444445,0.4066666666666667,-0.6888888888888889,-0.024274825864005645,0.0008401762016790881,-0.2626911795102393
1589986235.210919,1.9041457939508506,-10.756081049149339,9.200296550094517,0.4244444444444445,0.4066666666666667,-0.6888888888888889,-0.14669315541198352,-0.08447107984069613,-0.5082922184687199
1589986235.220919,-1.5555688667872214,-10.129436407474383,7.995666063893912,0.4244444444444445,0.4066666666666667,-0.6888888888888889,0.031994168766697764,0.11089595155958562,-1.3680277991099263
1589986235.230919,-1.967449244570349,-3.4686510184810473,7.996501416430595,0.4244444444444445,0.4066666666666667,-0.6888888888888889,0.13762641014944121,0.15888830310379282,-1.1280254193152497
1589986235.2409189,1.5407286091486476,-0.9258267323199885,8.897015628345107,0.421579485715645,0.4209914603106639,-0.6888888888888889,0.05374939653988853,-0.02222950128971797,0.12010908650586222
1589986235.2509189,2.38275590348415,-5.270876316534905,9.316070610048156,0.4177777777777778,0.44,-0.6888888888888889,-0.1180596439459696,-0.0903804694509824,0.4891734617400494
1589986235.2609189,-0.13956113728191877,-5.489536931871078,8.739078704824324,0.4177777777777778,0.44,-0.6888888888888889,-0.02259606194387745,0.019305371142162082,-0.0196282312184754
1589986235.2709188,-1.0914536199095022,-5.050876696832579,8.628232466063348,0.4177777777777778,0.44,-0.6888888888888889,0.05861950635158203,0.07352649873613909,-0.3345608242217729
1589986235.2809188,0.3472625623063451,-4.575579505141676,8.837157932551976,0.4177777777777778,0.44,-0.6888888888888889,0.008014757815855564,0.010035701980095374,-0.12607729016006192
1589986235.2909188,0.9842620137299772,-3.908266590389016,8.78162471395881,0.4177777777777778,0.441395881006865,-0.6888888888888889,-0.01700834838497764,-0.055388368284918735,0.12971463231149644
1589986235.3009188,0.12335744983458552,-4.249102742479052,8.821490585288934,0.4177777777777778,0.4533333333333333,-0.6888888888888889,-0.006707582326689319,0.002540010421438659,-0.0038502687484090956
1589986235.3109188,0.07342741855334034,-4.3394509928641,8.660282255660022,0.4177777777777778,0.4533333333333333,-0.6888888888888889,-0.011610716205154439,-0.00391501333931424,-0.0051256188985407125
1589986235.3209188,0.028068211995902728,-4.3236930460184375,8.544375165977465,0.4177777777777778,0.4533333333333333,-0.6888888888888889,-0.007177160841016745,-0.0021630596287763575,-0.0019709361829802425
1589986235.3309188,0.05668521993575268,-4.2633259120256985,8.650044527845806,0.4177777777777778,0.4533333333333333,-0.6888888888888889,-0.0003603721045065582,0.001090830782496456,-0.0029084773171165167
1589986235.3409188,0.07901240383105668,-4.255493798084472,8.773950384675773,0.41045271366514896,0.45028122328640463,-0.693161842954589,0.0030570322871375792,-0.00010773003017589423,-0.001582381158656737
1589986235.3509188,0.046164284509147,-4.22424642676372,8.762328569018294,0.4044444444444445,0.4477777777777778,-0.6966666666666667,0.001090830782496456,0.00020920582651604773,0.00020920582651604773
1589986235.3609188,0.04350480072949632,-4.267524003647481,8.675980797082016,0.4044444444444445,0.4477777777777778,-0.6966666666666667,-0.002837556510094261,0.0015818791940702954,0.0005997823709226164
1589986235.3709188,0.06,-4.316597768906465,8.660103346640302,0.4044444444444445,0.4477777777777778,-0.6966666666666667,-0.001714935921830977,0.0030925661120150987,0.0
1589986235.3809187,0.03581338526261643,-4.245813385262616,8.754186614737383,0.4044444444444445,0.4477777777777778,-0.6966666666666667,0.009711005160569188,0.0033079829747890066,0.0
1589986235.3909187,0.023061654608367413,-4.206938345391633,8.78,0.40154185453147395,0.4414888329663416,-0.6995692565796372,0.009290488078719107,0.0007568560732785256,0.0
1589986235.4009187,0.022820115038545075,-4.218633141602425,8.71128046015418,0.3977777777777778,0.43333333333333335,-0.7033333333333334,-9.42458634487029e-06,-0.0017155090276865551,0.0006246782451900992
1589986235.4109187,0.026658735475524963,-4.245552911825175,8.6155767053986,0.3977777777777778,0.43333333333333335,-0.7033333333333334,-0.00569540720804515,-0.0015759328498539667,-0.0013320840780593256
1589986235.4209187,0.05038487941055329,-4.286347077936937,8.61115463823166,0.3977777777777778,0.43333333333333335,-0.7033333333333334,-0.008202222784152452,-0.0005244234758191969,-0.002706085040812109
1589986235.4309187,0.0478377828777271,-4.298716120036023,8.65824332568341,0.3977777777777778,0.43333333333333335,-0.7033333333333334,-0.005078243034366944,0.0,-0.0018499885444833934
1589986235.4409187,0.023468611103041576,-4.256070069430323,8.694797083345437,0.3977777777777778,0.43333333333333335,-0.7033333333333334,0.002231983712470017,0.0,-0.0011854224765891243
1589986235.4509187,0.06658042744656918,-4.246321709786277,8.775804274465692,0.3977777777777778,0.43333333333333335,-0.7055555555555556,0.0047081189116298106,0.0014356265641404427,0.0007460350008524693
1589986235.4609187,0.04670304492010853,-4.251026228519747,8.687838408200182,0.3977777777777778,0.43333333333333335,-0.7055555555555556,0.0008550376950529951,0.0014504727914618238,0.00024769784304381386
1589986235.4709187,0.037673986258924964,-4.278489020611612,8.648489020611613,0.3977777777777778,0.43333333333333335,-0.7055555555555556,-0.0013445595214238951,0.003272492347489368,-0.0017631105432084036
1589986235.4809186,0.04611471067644662,-4.256114710676447,8.680508761206195,0.3977777777777778,0.43333333333333335,-0.7055555555555556,0.0016952772772147449,0.0020010343895783093,-0.00024319214388908352
1589986235.4909186,0.035418522500383964,-4.247709261250192,8.762290738749808,0.39930493694431646,0.43333333333333335,-0.7055555555555556,0.005862608135754644,0.0004997616685896066,0.00034118827961204616
1589986235.5009186,0.021321208088425567,-4.236036375734724,8.773963624265276,0.4044444444444445,0.43333333333333335,-0.7055555555555556,0.010475943489083187,0.0019654793970522257,-0.002181661564992912
1589986235.5109186,0.04342794311081881,-4.217707374219007,8.74430142222953,0.4044444444444445,0.43333333333333335,-0.7055555555555556,0.0009979478506507884,-0.0014647613690892377,-0.002555592151585694
1589986235.5209186,0.05743038210624418,-4.267708853681268,8.613436719478099,0.4044444444444445,0.43333333333333335,-0.7055555555555556,-0.00707521181792268,-0.000965868135912612,-0.002867227871129268
1589986235.5309186,0.06610387996645026,-4.257272840234848,8.66610387996645,0.4044444444444445,0.43333333333333335,-0.7055555555555556,-0.008542474742998947,0.0006658300160067368,-0.0017566607985031928
1589986235.5409186,0.057900960241250694,-4.291603840965003,8.67364375843187,0.4044444444444445,0.4348493064924301,-0.7075379819943743,-0.00551462096284128,-0.0002289697182527677,-0.0009763459233700721
1589986235.5509186,0.04,-4.23450505050505,8.770659932659932,0.4044444444444445,0.4477777777777778,-0.7244444444444444,0.003272492347489368,-0.0016542430452404168,-0.0005274185197524952
1589986235.5609186,0.04536713596036701,-4.244632864039633,8.696328640396331,0.4044444444444445,0.4477777777777778,-0.7244444444444444,0.003272492347489368,0.0006655603533271481,8.009664138594651e-05
1589986235.5709186,0.05,-4.256297881151219,8.65,0.4044444444444445,0.4477777777777778,-0.7244444444444444,0.0010502135413371738,0.002181661564992912,0.0002019192600355784
1589986235.5809186,0.04380092158381928,-4.272251151979774,8.662398156832362,0.4044444444444445,0.4477777777777778,-0.7244444444444444,-0.0015054470090449805,0.002012607926005929,-0.0007527235045224903
1589986235.5909185,0.01028310735908587,-4.230283107359086,8.73042466103863,0.4046331826838351,0.4475733113517713,-0.7241456088987427,0.002243426009401341,0.0010753896713943487,0.0010599485602922414
1589986235.6009185,0.025078800203355362,-4.252460599898322,8.767381799694967,0.4177777777777778,0.43333333333333335,-0.7033333333333334,0.006276574883728972,0.0,-0.0013592405937462193
1589986235.6109185,0.017246707379883746,-4.245506585240232,8.757389816790523,0.4177777777777778,0.43333333333333335,-0.7033333333333334,0.0034779210420519224,0.00039524657408607146,-0.001391168416820769
1589986235.6209185,0.03495034013605442,-4.232375850340135,8.695049659863946,0.4177777777777778,0.43333333333333335,-0.7033333333333334,-0.001349995851058964,0.00028083327186107724,-0.00026999917021179284
1589986235.6309185,0.042291087298963456,-4.266145543649482,8.687708912701035,0.4177777777777778,0.43333333333333335,-0.7033333333333334,-0.006295065839869136,-0.001340749637606056,-0.001511286746189884
1589986235.6409185,0.03591072755329485,-4.26394048503553,8.70394048503553,0.4138372927422479,0.43464682834517665,-0.7020198383214901,-0.006346294765058395,-0.0002149201187361328,-0.0015369012087845134
1589986235.6509185,0.05988226553123392,-4.279921510354156,8.719921510354157,0.39785626742362185,0.43997383678471863,-0.696692829881948,-0.0011165164590346364,-0.0010865498364067592,0.0010779879442273659
1589986235.6609185,0.04443140390150304,-4.233921490246242,8.696078509753757,0.3977777777777778,0.44,-0.6966666666666667,0.0013945505844729636,0.00017967137656693297,0.002361332941559845
1589986235.6709185,0.031018228333866325,-4.267454429165333,8.662545570834666,0.3977777777777778,0.44,-0.6966666666666667,0.0021261258244833388,-0.0020150543434641925,0.0001666072215287199
1589986235.6809185,0.03783118900737568,-4.262168810992624,8.670844054963123,0.3977777777777778,0.44,-0.6966666666666667,-0.00023658057921713057,0.0036535813923344322,-0.0019450809857757814
1589986235.6909184,0.03150484924357833,-4.268495150756421,8.702475753782108,0.3977777777777778,0.44,-0.6966666666666667,-0.0009266771947052805,0.0015832915458699822,-0.0012549843702876315
1589986235.7009184,0.04198771232381641,-4.253975424647633,8.748012287676184,0.4122222222222222,0.43333333333333335,-0.6966666666666667,0.0010841288947832503,0.0015311842281229616,-0.00021682577895665008
1589986235.7109184,0.051576781941510066,-4.262116090292449,8.72580896252641,0.4122222222222222,0.43333333333333335,-0.6966666666666667,0.00562615414039065,-0.001090830782496456,-0.0014348312383131968
1589986235.7209184,0.055536510590858415,-4.237853957636566,8.67678093645485,0.4122222222222222,0.43333333333333335,-0.6966666666666667,0.0036236377080756015,-0.0006039396180126002,-0.0018118188540378007
1589986235.7309184,0.05,-4.263386707570287,8.71,0.4122222222222222,0.43333333333333335,-0.6966666666666667,-0.002586027408288377,-0.0007388649737966791,-0.0007388649737966791
1589986235.7409184,0.048326985577899655,-4.27,8.713346028844201,0.40980564583474394,0.43444867628140027,-0.6966666666666667,-0.007453317914356434,-0.0018166664387553968,-0.0023641591281116695
1589986235.7509184,0.045390848286631896,-4.272695424143316,8.727304575856685,0.3977777777777778,0.44,-0.6966666666666667,-0.004486808555789512,0.0,-0.002684442022006733
1589986235.7609184,0.047545744989834444,-4.267545744989834,8.690940071642947,0.3977777777777778,0.44,-0.6966666666666667,0.002449379256311386,-0.0009056989825432866,-0.0006379812912248126
1589986235.7709184,0.03,-4.25,8.67633405747013,0.3977777777777778,0.44,-0.6966666666666667,0.003884556454711693,-0.0012241282144446503,0.0
1589986235.7809184,0.04531789372982023,-4.253829473432455,8.713829473432456,0.3977777777777778,0.44,-0.6966666666666667,0.0016015693471396327,0.0008354615001748677,0.00041773075008743384
1589986235.7909184,0.0606317704927355,-4.26,8.723122743169089,0.40228840679979405,0.44,-0.6966666666666667,-0.00245338453236522,0.0011597462525913388,-0.0002717229673723082
1589986235.8009183,0.04345629744987347,-4.256543702550126,8.733456297449873,0.4122222222222222,0.44,-0.6966666666666667,-0.002814988956232094,0.0007942870433965334,-0.00289546878231077
1589986235.8109183,0.05,-4.25,8.718928310373911,0.4122222222222222,0.44,-0.6966666666666667,0.0029478498211045635,0.0030863427031330706,-0.0016708693942518106
1589986235.8209183,0.04689793420691693,-4.237591736827667,8.662408263172333,0.4122222222222222,0.44,-0.6966666666666667,0.00477738814119742,-7.568212556916605e-05,0.00033838288564242997
1589986235.8309183,0.04,-4.219542126430855,8.694771063215427,0.4122222222222222,0.44,-0.6966666666666667,0.0022316078233644114,0.002008180810972086,0.0007438692744548037
1589986235.8409183,0.04,-4.262795710013406,8.716397855006704,0.4122222222222222,0.44,-0.6966666666666667,-0.002486626219148619,0.0012218084705532474,-0.0008288754063828729
1589986235.8509183,0.05,-4.262313526212303,8.717686473787698,0.4044444444444445,0.4477777777777778,-0.7055555555555556,-0.007131082355776671,-0.0013431973433457164,0.000504733121698521
1589986235.8609183,0.05,-4.27,8.695373746356406,0.4044444444444445,0.4477777777777778,-0.7055555555555556,-0.004177772495919557,-0.0009052801484301896,0.0015434708567115508
1589986235.8709183,0.0429714164949543,-4.265314277663302,8.669371444673395,0.4044444444444445,0.4477777777777778,-0.7055555555555556,-6.856474987636447e-05,0.001926095056837889,-0.0002555665081550229
1589986235.8809183,0.020811010725418716,-4.250540673816946,8.698918652366107,0.4044444444444445,0.4477777777777778,-0.7055555555555556,0.0031545356189264994,0.0011203199646371731,-0.0010613416003557388
1589986235.8909183,0.024436288659793814,-4.2588909278350515,8.74,0.4044444444444445,0.44555963344788085,-0.7037071019473081,0.002788568324475064,-0.0015767565362250317,0.000848868770989304
1589986235.9009182,0.05902845360824742,-4.250242886597938,8.74,0.4044444444444445,0.42826355097365404,-0.6892936998854524,-0.000984851511421748,0.003140018258645984,-0.001037841146959102
1589986235.9109182,0.05,-4.261367316174418,8.658489754899223,0.4044444444444445,0.42777777777777776,-0.6888888888888889,0.00031389324175013866,-0.0012399818397424958,-0.00031389324175013866
1589986235.9209182,0.04655383845335669,-4.241148720515548,8.639189764124383,0.4044444444444445,0.42777777777777776,-0.6888888888888889,0.0013414427222653972,0.0009655248126119853,-0.001090830782496456
1589986235.9309182,0.02504099571576304,-4.244959004284237,8.712520497857883,0.4044444444444445,0.42777777777777776,-0.6888888888888889,0.0027226050173706604,0.0002749436650593538,-0.0008158871174371021
1589986235.9409182,0.04091977516607052,-4.2318395503321415,8.72,0.4050576278884915,0.42869755294384826,-0.6882757054448418,0.0007898350632588034,0.0011911626889090068,0.0
1589986235.9509182,0.06233757431398749,-4.27,8.717662425686013,0.4177777777777778,0.4477777777777778,-0.6755555555555556,-0.00545415391248228,0.003272492347489368,0.0
1589986235.9609182,0.06750900255217984,-4.270830332482606,8.70003601020872,0.4177777777777778,0.4477777777777778,-0.6755555555555556,-0.00472955212709499,0.0031819171243159567,-9.057522317341129e-05
1589986235.9709182,0.04,-4.268104609794868,8.628660018166679,0.4177777777777778,0.4477777777777778,-0.6755555555555556,0.0029480959023502453,0.002181661564992912,-0.001090830782496456
1589986235.9809182,0.04,-4.24,8.721497705530062,0.4177777777777778,0.4477777777777778,-0.6755555555555556,0.0020182872354622926,0.002263348729758222,-0.001090830782496456
1589986235.9909182,0.04,-4.24,8.734546783853155,0.4177777777777778,0.4477777777777778,-0.6755555555555556,0.0005948536036586415,0.0029750655456600474,-0.001090830782496456
1589986236.0009181,0.050489049168792335,-4.230489049168793,8.740489049168792,0.4177777777777778,0.43333333333333335,-0.6822222222222222,0.0,-0.002154988070619263,-0.0031657983699947723
1589986236.0109181,0.06559931984874248,-4.25,8.731395579016827,0.4177777777777778,0.43333333333333335,-0.6822222222222222,0.00024001986864564305,-0.0006107910452051699,0.0006107910452051699
1589986236.0209181,0.04609366832769976,-4.25,8.645625326689201,0.4177777777777778,0.43333333333333335,-0.6822222222222222,0.001090830782496456,0.001090830782496456,-0.000877773440757158
1589986236.0309181,0.0314778548280308,-4.25,8.704088580687877,0.4177777777777778,0.43333333333333335,-0.6822222222222222,0.001090830782496456,0.001090830782496456,-8.060447692385042e-05
1589986236.040918,0.04,-4.25,8.722839581328673,0.4166419452463087,0.43333333333333335,-0.6838628692121219,0.0010288807280420887,-0.0021197115105385444,-0.0010288807280420887
1589986236.050918,0.04,-4.25,8.764022347465781,0.40016883879146514,0.43333333333333335,-0.7076573563135627,0.00013041214782786605,-0.001221242930324322,-0.00013041214782786605
1589986236.060918,0.05548914976876557,-4.27,8.702554251156172,0.3977777777777778,0.43333333333333335,-0.7111111111111111,-0.0029731056706142293,0.001090830782496456,-0.0015828882112426338
1589986236.070918,0.06351039596762469,-4.263510395967624,8.639734406048564,0.3977777777777778,0.43333333333333335,-0.7111111111111111,-5.794361157447376e-05,2.897180578723688e-05,-0.00035395299223640636
1589986236.080918,0.04758049535603715,-4.25,8.679356037151702,0.3977777777777778,0.43333333333333335,-0.7111111111111111,0.004363323129985824,-0.001125953507381791,-0.0008269037680936757
1589986236.090918,0.040366357069143446,-4.25,8.737069143446853,0.3977777777777778,0.43333333333333335,-0.7111111111111111,0.004363323129985824,0.00202180813763017,-3.996335684068554e-05
1589986236.100918,0.05,-4.2573441721900185,8.76,0.4122222222222222,0.43333333333333335,-0.6966666666666667,0.0037839113843582753,0.005164448039668505,0.00028970587281377434
1589986236.110918,0.05,-4.2553719642999015,8.727768214200587,0.4122222222222222,0.43333333333333335,-0.6966666666666667,0.001009680760831885,0.0037773327279053102,0.0007978355814561992
1589986236.120918,0.043315602836879435,-4.2666578014184395,8.65336879432624,0.4122222222222222,0.43333333333333335,-0.6966666666666667,-0.0007233523274001322,0.001817084255594717,-0.00036457730939819493
1589986236.130918,0.03529639531667742,-4.254703604683322,8.690592790633355,0.4122222222222222,0.43333333333333335,-0.6966666666666667,0.0019890791967361854,0.001090830782496456,-0.001090830782496456
1589986236.140918,0.05186832435564803,-4.238131675644352,8.723736648711297,0.4122222222222222,0.43333333333333335,-0.6966666666666667,0.0013865068527009834,0.001090830782496456,-0.001090830782496456
1589986236.150918,0.05112615793627716,-4.265495368254891,8.757747684127445,0.39940445035240035,0.43333333333333335,-0.6897647895059933,0.0020588167907085314,0.00012284477428438053,0.0008451412339276949
1589986236.160918,0.034488375770994784,-4.277755812114503,8.697953503083978,0.3977777777777778,0.43333333333333335,-0.6888888888888889,-0.002048477733886276,-0.004230139298879187,0.0019368586422722934
1589986236.170918,0.05,-4.270577858990827,8.621733576972481,0.3977777777777778,0.43333333333333335,-0.6888888888888889,-0.0030833884349483255,0.0009017268699554135,-0.001090830782496456
1589986236.180918,0.05,-4.278166193258915,8.644498579776744,0.3977777777777778,0.43333333333333335,-0.6888888888888889,-0.0006001118526975601,-0.001581549712295352,-0.001090830782496456
1589986236.190918,0.05,-4.259088762054714,8.711822475890573,0.3980815237595399,0.4330802116818649,-0.6899013754947626,0.0031730917073996496,0.0010411304624515967,-0.001090830782496456
1589986236.200918,0.05,-4.245070155704221,8.75253507785211,0.4044444444444445,0.42777777777777776,-0.7111111111111111,0.00026122849536428655,-0.00027653409571072314,-0.0005377625910750097
1589986236.210918,0.047830601380909714,-4.258915300690455,8.748068307595004,0.4044444444444445,0.42777777777777776,-0.7111111111111111,-0.001945016885672013,-0.001090830782496456,0.0007358637635151077
1589986236.220918,0.0338312240272006,-4.2538312240272,8.661493672081603,0.4044444444444445,0.42777777777777776,-0.7111111111111111,0.0,-0.00067290907214541,-0.001763739854641866
1589986236.230918,0.048675492134445116,-4.266026476403335,8.713973523596666,0.4044444444444445,0.42777777777777776,-0.7111111111111111,-0.0001444813951405948,0.001090830782496456,-0.0001444813951405948
1589986236.240918,0.04146445456889882,-4.244393363706696,8.735606636293303,0.4044444444444445,0.42777777777777776,-0.7111111111111111,-0.0009310835701642148,0.001090830782496456,-0.0009310835701642148
1589986236.250918,0.048618498706647584,-4.26,8.736907506466762,0.4244444444444445,0.4477777777777778,-0.7055555555555556,0.0023683018653808765,0.0018802647376234148,0.0009401323688117074
1589986236.260918,0.04599088599638583,-4.26,8.75004557001807,0.4244444444444445,0.4477777777777778,-0.7055555555555556,-0.0037081618714416755,0.0004356695239523074,-0.0004356695239523074
1589986236.270918,0.06324385805277526,-4.26,8.636756141947226,0.4244444444444445,0.4477777777777778,-0.7055555555555556,-0.0044715128982225055,0.002672982072122799,-0.0019360013114279686
1589986236.280918,0.04,-4.2606247466330345,8.663123733165174,0.4244444444444445,0.4477777777777778,-0.7055555555555556,-0.000818233639066415,0.004022576700698273,-0.0010226814966389458
1589986236.2909179,0.04013319802105798,-4.27,8.710332995052646,0.4243112464233865,0.4476815792070137,-0.7054001578643213,0.0032942868227200154,-0.001090830782496456,0.0
1589986236.3009179,0.05786883166307243,-4.27,8.75467207915768,0.40657561278137205,0.4348725104655588,-0.684708585281971,0.00619627309128838,-0.001090830782496456,0.0
1589986236.3109179,0.03884399308556612,-4.26,8.711907951598963,0.4044444444444445,0.43333333333333335,-0.6822222222222222,0.0,0.0,-0.00012610079270432238
1589986236.3209178,0.03084727200318598,-4.259152727996814,8.653389088012744,0.4044444444444445,0.43333333333333335,-0.6822222222222222,-0.0003696921528890817,9.242303822227042e-05,-0.001090830782496456
1589986236.3309178,0.03780714854639586,-4.2521928514536045,8.681228594185583,0.4044444444444445,0.43333333333333335,-0.6822222222222222,-0.0034065111831724252,0.0008516277957931063,-0.001090830782496456
