time,acc_x,acc_y,acc_z,mag_x,mag_y,mag_z,gyr_x,gyr_y,gyr_z
1589986420.5563164,-3.67,-0.36,8.94,0.25,-0.37666666666666665,-0.6266666666666667,-0.01090830782496456,0.00545415391248228,-0.006544984694978735
1589986420.5663164,-3.690979920282771,-0.38219598405655414,8.884155824622095,0.25,-0.37666666666666665,-0.6266666666666667,-0.01090830782496456,0.0067845293956548015,-0.02032782892805609
1589986420.5763164,-3.734264920515956,-0.39426492051595596,8.972132460257978,0.25,-0.37666666666666665,-0.6266666666666667,-0.01090830782496456,0.00740320014828992,-0.031008492568271314
1589986420.5863163,-3.75,-0.4104120669583718,8.981236200875117,0.2497252886944188,-0.37666666666666665,-0.6264835257962792,-0.010683560163643734,0.006455085630450406,-0.032455226281308695
1589986420.5963163,-3.75,-0.4188306370679619,9.006491911203886,0.24411290862135868,-0.37666666666666665,-0.6227419390809058,-0.006091942453570991,0.004618438546421308,-0.026945285029221396
1589986420.6063163,-3.75,-0.42,9.029942574749453,0.2433333333333333,-0.37666666666666665,-0.6222222222222222,0.00324743585509443,0.0021879256880916464,-0.009864457965708617
1589986420.6163163,-3.702515038020656,-0.39150902281239364,8.897042106457837,0.2433333333333333,-0.37666666666666665,-0.6222222222222222,0.006380375841453904,0.00010973923568322096,-0.002565748889884184
1589986420.6263163,-3.702022356740867,-0.3879776432591332,8.9460670702226,0.2433333333333333,-0.37666666666666665,-0.6222222222222222,-0.0013114356811091282,0.005686952521661856,0.0019610566663802397
1589986420.6363163,-3.71042951439462,-0.3806442715919303,8.970214757197311,0.2434765047982067,-0.376499633290981,-0.6218642935600387,-0.002087956060357498,0.010838028696487999,0.0010674044063376026
1589986420.6463163,-3.7279081920903954,-0.4120918079096045,8.973724576271186,0.25,-0.3688888888888889,-0.6055555555555555,0.004691650869745703,0.005125826172722401,0.00022818084588661742
1589986420.6563163,-3.7183455992941226,-0.41944853309804075,8.943933864078447,0.25,-0.3688888888888889,-0.6055555555555555,0.01442142300132795,-0.004724257373296861,0.0011509864897149623
1589986420.6663163,-3.6931126797280767,-0.41103755990935886,8.851413159002947,0.25,-0.3688888888888889,-0.6055555555555555,0.018091402387314583,-0.01022922645227681,0.0020684813362116207
1589986420.6763163,-3.6822776031070834,-0.38088958757166635,8.889608840392084,0.25,-0.3688888888888889,-0.6055555555555555,0.017053435554730056,-0.010756898817702937,-0.0008423828245448404
1589986420.6863163,-3.6901516047524328,-0.3501516047524326,8.990101069834955,0.2500617648991392,-0.3689618837696898,-0.6056397804180181,0.012004651111818558,-0.006567034712408909,5.512504357543511e-06
1589986420.6963162,-3.718156176938184,-0.3790780884690919,9.007234265407275,0.26222222222222225,-0.38333333333333336,-0.6222222222222222,0.01308996938995747,-0.011008872772629855,0.0011913957301617516
1589986420.7063162,-3.70246628635556,-0.37123314317777983,8.98369942953334,0.26222222222222225,-0.38333333333333336,-0.6222222222222222,0.01308996938995747,-0.011864623553706238,0.0020471465112381353
1589986420.7163162,-3.697470699037254,-0.37560302427794057,8.873073723315194,0.26222222222222225,-0.38333333333333336,-0.6222222222222222,0.005730057847318396,-0.002937201146580231,0.002181661564992912
1589986420.7263162,-3.73,-0.4019925495017709,8.931992549501771,0.26222222222222225,-0.38333333333333336,-0.6222222222222222,0.002399014998210876,0.003272492347489368,0.001964308131774948
1589986420.7363162,-3.73,-0.40968950140385,8.93968950140385,0.26222222222222225,-0.38333333333333336,-0.6222222222222222,0.0032386222048291363,0.003272492347489368,0.0011247009251566875
1589986420.7463162,-3.721864211505033,-0.3693210575251647,8.980678942474835,0.25679836322557753,-0.38333333333333336,-0.6149904102266959,0.0050474460535274825,-0.005602276182701207,0.0019783076355155134
1589986420.7563162,-3.7187287348600107,-0.366186204580032,8.911101144020074,0.25555555555555554,-0.38333333333333336,-0.6133333333333333,0.002181661564992912,-0.007497141962733689,0.002717798288523357
1589986420.7663162,-3.7104414060184543,-0.3413242180553635,8.853089842129181,0.25555555555555554,-0.38333333333333336,-0.6133333333333333,0.002181661564992912,-0.006593134622229671,-0.0008982310734927147
1589986420.7763162,-3.7,-0.3441940984132716,8.884194098413273,0.25555555555555554,-0.38333333333333336,-0.6133333333333333,-0.0022960378563433156,-0.010565178950913348,-0.0001143762913504037
1589986420.7863162,-3.7,-0.3778487893923893,8.917848789392389,0.25555555555555554,-0.38333333333333336,-0.6133333333333333,-0.0032138271787290023,-0.00781181098375629,-0.00103216561373609
1589986420.7963161,-3.715228364677505,-0.3835787264918714,8.931192908830624,0.25555555555555554,-0.3622222222222222,-0.6266666666666667,-0.0077659416447908225,-0.01077818165764893,-0.0020515353976772815
1589986420.8063161,-3.6823273782676056,-0.40825446629929596,8.939418155433097,0.25555555555555554,-0.3622222222222222,-0.6266666666666667,-0.008663176863551218,-0.009880946438888535,-0.001154300178916886
1589986420.8163161,-3.6725960259868544,-0.4025960259868546,8.902980129934273,0.25555555555555554,-0.3622222222222222,-0.6266666666666667,-0.010341942813240211,-0.00820218048919954,-0.001090830782496456
1589986420.826316,-3.690996750158529,-0.37099675015852884,8.980498375079264,0.25555555555555554,-0.3622222222222222,-0.6266666666666667,-0.008672281972202572,0.00010872857553814945,0.0009277379191892318
1589986420.836316,-3.7076196892834496,-0.3876196892834496,8.988809844641725,0.25555555555555554,-0.3622222222222222,-0.6266666666666667,-0.007765641287551161,0.0019220099448409734,-0.0017921841347650045
1589986420.846316,-3.6786635581307645,-0.37866355813076424,9.034654232523057,0.2433333333333333,-0.38333333333333336,-0.5988888888888889,-0.006982334273972583,0.001673963554488253,-0.0013823971684923545
1589986420.856316,-3.6714734117324372,-0.37147341173243736,9.00589364692975,0.2433333333333333,-0.38333333333333336,-0.5988888888888889,-0.009335304180557879,0.004811256763268645,-0.002951043772882551
1589986420.866316,-3.668505434166043,-0.3929891316679146,8.851956526671659,0.2433333333333333,-0.38333333333333336,-0.5988888888888889,-0.017340652788335704,0.017503684630150514,-0.007360143904052789
1589986420.876316,-3.660945902926633,-0.4118918058532651,8.924729514633162,0.2433333333333333,-0.38333333333333336,-0.5988888888888889,-0.02249471842057586,0.023379185197147455,-0.013134140640047736
1589986420.886316,-3.669847407627496,-0.42969481525499265,8.969237038137482,0.2433333333333333,-0.38333333333333336,-0.5988888888888889,-0.018610704285280215,0.017553163994203994,-0.023815179512110755
1589986420.896316,-3.7020612513200715,-0.4223675079204293,8.976183753960216,0.25555555555555554,-0.38333333333333336,-0.62,-0.009334374351687706,0.01135800310304366,-0.043733453537962125
1589986420.906316,-3.712415415533751,-0.46396146116562237,8.987922922331245,0.25555555555555554,-0.38333333333333336,-0.62,-0.002482049462468647,0.01229952650493675,-0.05711842213232606
1589986420.916316,-3.7288413000048726,-0.4153652000194903,8.903476099985383,0.25555555555555554,-0.38333333333333336,-0.62,0.004410043407616501,0.006165801008269691,-0.05923732566388699
1589986420.926316,-3.7144056290079965,-0.37440562900799623,8.941188741984007,0.25555555555555554,-0.38333333333333336,-0.62,0.012479718181279173,0.0035165928309606872,-0.05198610544149841
1589986420.936316,-3.67289763280817,-0.3328976328081704,9.024204734383659,0.25555555555555554,-0.38333333333333336,-0.62,0.00795189818382758,0.005327720829941323,-0.041119337447614604
1589986420.946316,-3.550057266935503,-0.24637404853372785,9.04,0.23777777777777775,-0.3888888888888889,-0.6055555555555555,0.004261317216301326,0.010117247929914993,-0.01974320685222731
1589986420.956316,-3.4290036736879026,-0.22013753253705995,9.006185825841348,0.23777777777777775,-0.3888888888888889,-0.6055555555555555,0.01026354384567804,0.004700707592131066,-0.0022266689824988577
1589986420.966316,-3.258657903967214,-0.16593660580774983,8.820354077055143,0.23777777777777775,-0.3888888888888889,-0.6055555555555555,0.018709835176558963,-0.005434842004926037,0.015510542812351074
1589986420.976316,-3.041238993710692,-0.15096540880503145,8.818069182389937,0.23777777777777775,-0.3888888888888889,-0.6055555555555555,0.02062047510321052,-0.011472589786350303,0.03716371288542958
1589986420.986316,-2.9213037447988905,-0.18289875173370318,8.754202496532594,0.23777777777777775,-0.3888888888888889,-0.6055555555555555,0.01641934833581281,-0.011281399185524373,0.05434243603054189
1589986420.996316,-2.838112821616966,-0.4710410162557865,8.72,0.2519498570591261,-0.3888888888888889,-0.6055555555555555,-0.0049501334884888715,0.03691902632739243,0.08826499141267452
1589986421.006316,-2.3156982736408143,-0.7815659623808296,8.836886755990724,0.25555555555555554,-0.3888888888888889,-0.6055555555555555,-0.02341786866922371,0.11708934334611855,0.11445284104065286
1589986421.016316,-1.8645061944425,-0.6843347098761111,8.658884300412963,0.25555555555555554,-0.3888888888888889,-0.6055555555555555,0.010248174630769531,0.1201879142774621,0.11908311121014752
1589986421.026316,-1.6663433540981312,-0.640298523132918,8.80567158955694,0.25555555555555554,-0.3888888888888889,-0.6055555555555555,-0.003362033314814399,0.03692546566918395,0.0950650971885288
1589986421.036316,-1.7174614054775408,-0.6397461405477541,9.093399654241606,0.25555555555555554,-0.3888888888888889,-0.6055555555555555,-0.03418659900704901,0.02914782165197303,0.08944812416470939
1589986421.046316,-1.72,-0.5924511278195488,8.965278195488722,0.25555555555555554,-0.38448621553884715,-0.5888253968253968,-0.010701624097754707,0.01562102487475752,0.11365308510684127
1589986421.056316,-1.7474619106988145,-0.57,8.896269044650593,0.25555555555555554,-0.38333333333333336,-0.5844444444444444,0.016407456807231786,-0.009585609518407248,0.14551585364325212
1589986421.066316,-1.818366967436553,-0.57,8.860816516281723,0.25555555555555554,-0.38333333333333336,-0.5844444444444444,-0.0038957155553662297,0.002983020991772476,0.16001811961653642
1589986421.0763159,-1.93,-0.5312325665467968,8.858767433453203,0.25555555555555554,-0.38333333333333336,-0.5844444444444444,-0.00647775861844267,-0.008659420183435582,0.17186546754076817
1589986421.0863159,-1.93,-0.5471935232224062,8.842806476777593,0.25555555555555554,-0.38333333333333336,-0.5844444444444444,-0.005607223475450321,-0.0077888850404432336,0.17970028382769931
1589986421.0963159,-1.9594460921330574,-0.5152478289628096,8.932099131585124,0.25,-0.3688888888888889,-0.6222222222222222,-0.008612156392493464,-0.012228118342417384,0.1855557228918757
1589986421.1063159,-2.0399903983613203,-0.5599946657562891,8.949997866302516,0.25,-0.3688888888888889,-0.6222222222222222,-0.007635931852620017,-0.014180567422164276,0.18653194743174917
1589986421.1163158,-1.9904044465468307,-0.5401617786187323,8.830970671712393,0.25,-0.3688888888888889,-0.6222222222222222,0.004266262926491224,-0.008770764534287375,0.186532063806894
1589986421.1263158,-2.009955389264642,-0.5300223053676788,8.939754640955533,0.25,-0.3688888888888889,-0.6222222222222222,0.0010981301970001377,-0.013080236837285895,0.18326687087390828
1589986421.1363158,-2.015918707925553,-0.53,8.969593539627764,0.25,-0.3688888888888889,-0.6222222222222222,-0.0021373236164030094,-0.014381231149517257,0.17874015530094536
1589986421.1463158,-2.014779573109914,-0.5038978655495712,8.969118292439656,0.2529002371611588,-0.37642950550790166,-0.6175818427643682,-0.00151602195524692,-0.011285409310315919,0.17106807410234717
1589986421.1563158,-2.032545522949586,-0.4912727614747931,8.938727238525207,0.25555555555555554,-0.38333333333333336,-0.6133333333333333,0.001705664543518678,-0.008250649238497413,0.15644493578458
1589986421.1663158,-2.077462642836214,-0.48626867858189277,8.902537357163785,0.25555555555555554,-0.38333333333333336,-0.6133333333333333,-0.00530761247861922,-0.008726646259971648,0.12663409169304282
1589986421.1763158,-2.080980927166631,-0.4619618543332613,8.88098092716663,0.25555555555555554,-0.38333333333333336,-0.6133333333333333,-0.007742818032349966,-0.005775161577106601,0.0940908444918221
1589986421.1863158,-2.1148417606402328,-0.4512895598399418,8.897420880320118,0.25555555555555554,-0.38333333333333336,-0.6133333333333333,-0.003835168975201254,-0.0007033457846398576,0.06407509858821625
1589986421.1963158,-2.1576959052172104,-0.45,8.9,0.26058167625118367,-0.3917102011593801,-0.6300870689854269,-0.003272492347489368,-0.0016447941514000813,0.0320341924635037
1589986421.2063158,-2.191931098696462,-0.42193109869646184,8.952919304779641,0.26222222222222225,-0.3944444444444444,-0.6355555555555555,-0.005983250854408245,-0.0006695304020685883,-0.016778819185092442
1589986421.2163157,-2.211457635009311,-0.441457635009311,8.88132200496586,0.26222222222222225,-0.3944444444444444,-0.6355555555555555,-0.00030321168491738784,0.0035904989750495542,-0.043049000343987655
1589986421.2263157,-2.210870255001354,-0.45,8.886518979994584,0.26222222222222225,-0.3944444444444444,-0.6355555555555555,0.009152966381598945,0.00545415391248228,-0.09338166596019926
1589986421.2363157,-2.187036022832459,-0.45765465905584696,8.920618636223388,0.26222222222222225,-0.3944444444444444,-0.6355555555555555,0.01232245836075804,0.012134104094588778,-0.13382366564377032
1589986421.2463157,-2.229386531543728,-0.46,9.044478783893553,0.25,-0.3888888888888889,-0.6222222222222222,0.009850936556277709,0.01431463822769234,-0.19590777400246856
1589986421.2563157,-2.213162882450779,-0.46,8.898465942057014,0.25,-0.3888888888888889,-0.6222222222222222,0.010735799348028159,0.01785408939469415,-0.2419206391734921
1589986421.2663157,-2.1610566748804176,-0.49915466009566606,8.879788665023916,0.25,-0.3888888888888889,-0.6222222222222222,0.009840530112201108,0.022815234153493565,-0.3074832987506479
1589986421.2763157,-2.1793017211099404,-0.48069827889005967,8.94755602388479,0.25,-0.3888888888888889,-0.6222222222222222,0.007711985888279651,0.02185470085533135,-0.36976435491796217
1589986421.2863157,-2.0089249987800715,-0.4734201922607719,8.772345191040843,0.25,-0.3888888888888889,-0.6222222222222222,0.012660035254876037,0.025405344062358292,-0.4157557834629274
1589986421.2963157,-2.1553528060387266,-0.5680636691828027,9.033029209058089,0.2815982934033475,-0.4008744484556759,-0.6494621303285564,0.029177843923539927,0.04224669122089244,-0.516602708925655
1589986421.3063157,-2.1417794937042074,-0.5639264979014025,8.99141198321122,0.2822222222222222,-0.4011111111111111,-0.65,0.010901974596624703,0.04718001465005668,-0.572470958668814
1589986421.3163157,-2.1420486928756732,-0.5901217321891838,8.911805228497307,0.2822222222222222,-0.4011111111111111,-0.65,0.006795020264081795,0.04294951920214025,-0.6595079319071661
1589986421.3263156,-2.187254433734238,-0.6006863915664404,8.88,0.2822222222222222,-0.4011111111111111,-0.65,0.03638210846852977,0.05545034770563298,-0.7730130297162194
1589986421.3363156,-2.1509112094162255,-0.6078177581167549,8.92690654870053,0.2822222222222222,-0.4011111111111111,-0.65,0.027945655942734668,0.0567232006898157,-0.853045484176119
1589986421.3463156,-2.2196432395986196,-0.5977471939079047,8.982884821322333,0.2910714710665133,-0.39362328516594175,-0.654764980146926,0.026425681803140255,0.05605491378695482,-0.9305598435228365
1589986421.3563156,-2.277661538461538,-0.5823384615384615,8.979353846153847,0.2966666666666667,-0.3888888888888889,-0.6577777777777778,0.033956723158512746,0.06733278870049662,-1.0341713534523862
1589986421.3663156,-2.33702344638377,-0.6306875078966843,8.887632799667887,0.2966666666666667,-0.3888888888888889,-0.6577777777777778,0.03185055377975289,0.07228628820981303,-1.1121982915971234
1589986421.3763156,-2.404091517681342,-0.66,8.91670591478302,0.2966666666666667,-0.3888888888888889,-0.6577777777777778,0.029452431127404314,0.07773417204086631,-1.223467283129822
1589986421.3863156,-2.403933444523866,-0.684266221904535,8.899667222619332,0.2966666666666667,-0.3888888888888889,-0.6577777777777778,0.032099465310239966,0.08581916034254287,-1.283325205550605
1589986421.3963156,-2.3845071692668407,-0.7542249075660564,8.918732076832898,0.3267916153144758,-0.3733960581557299,-0.6792955982404986,0.03466075709097698,0.09391896628155323,-1.373355463310399
1589986421.4063156,-2.398718650250798,-0.807437300501596,8.901922024623802,0.33555555555555555,-0.3688888888888889,-0.6855555555555556,0.03796941702493992,0.09592322207220944,-1.4581915513541546
1589986421.4163156,-2.3915276971690207,-0.8354169084929387,8.789860063197265,0.33555555555555555,-0.3688888888888889,-0.6855555555555556,0.045572556368707454,0.10338658784101962,-1.5173309868150673
1589986421.4263155,-2.442178341404963,-0.9095711218732838,8.813481951170802,0.33555555555555555,-0.3688888888888889,-0.6855555555555556,0.04690572364734761,0.10661701315246452,-1.5802863204135718
1589986421.4363155,-2.4644252828409807,-0.9632758485229416,8.870488489943432,0.33555555555555555,-0.3688888888888889,-0.6855555555555556,0.048479277904263554,0.10296753104236281,-1.6275884757377388
1589986421.4463155,-2.4443693624357357,-1.0141741834190192,8.915630637564265,0.3583383445015683,-0.36319319165238567,-0.6732148782097986,0.05281521033635511,0.11263073814421423,-1.684729191084827
1589986421.4563155,-2.449070345634476,-1.110703456344757,8.929070345634475,0.3622222222222222,-0.3622222222222222,-0.6711111111111111,0.05246128711972949,0.11453723216212787,-1.7413496047818453
1589986421.4663155,-2.465101192126421,-1.1275505960632104,8.839392847241475,0.3622222222222222,-0.3622222222222222,-0.6711111111111111,0.04988895077624594,0.12112637025168507,-1.7801894154858064
1589986421.4763155,-2.446461318051576,-1.1770773638968481,8.841384909264566,0.3622222222222222,-0.3622222222222222,-0.6711111111111111,0.05165505709721398,0.12326387842209953,-1.8185326449644978
1589986421.4863155,-2.4192268009580546,-1.1969243996806485,8.863848799361296,0.3622222222222222,-0.3622222222222222,-0.6711111111111111,0.053870547224221896,0.12855122224747154,-1.8562641231869073
1589986421.4963155,-2.4159933207169098,-1.2479465657352777,8.89397328286764,0.38552958056576,-0.3462400336437963,-0.6970821675510532,0.04865761027018183,0.12893838428136106,-1.893219676617489
1589986421.5063155,-2.394899638383732,-1.3051003616162675,8.853524186363398,0.4011111111111111,-0.33555555555555555,-0.7144444444444444,0.04403955590478426,0.13036522626236705,-1.9349651041164742
1589986421.5163155,-2.352847098454729,-1.341722321236217,8.738541295364186,0.4011111111111111,-0.33555555555555555,-0.7144444444444444,0.05133422871817435,0.1337676779324518,-1.9699541248578505
1589986421.5263155,-2.3566771777690185,-1.433362238864801,8.750031533307055,0.4011111111111111,-0.33555555555555555,-0.7144444444444444,0.05781403147231216,0.1374455385321037,-2.0125931129565644
1589986421.5363154,-2.37,-1.5286111337783364,8.80065656977788,0.4011111111111111,-0.33555555555555555,-0.7144444444444444,0.05432667716745251,0.13911673509452652,-2.04775934036003
1589986421.5463154,-2.3511959054006355,-1.6035051182492057,8.842907165548889,0.4230492214770365,-0.308916421539789,-0.7217571478997529,0.053833057430578715,0.14475436146603696,-2.0860980116647996
1589986421.5563154,-2.3378447422079813,-1.6849131954558694,8.903534226623945,0.4477777777777778,-0.2788888888888889,-0.73,0.059290386574180294,0.15310183386887552,-2.1451371314205003
1589986421.5663154,-2.3056901646264243,-1.7686196707471507,8.789915576192486,0.4477777777777778,-0.2788888888888889,-0.73,0.05999569303730508,0.1584854184029855,-2.1938435063950763
1589986421.5763154,-2.3,-1.7997326407178016,8.816042828341537,0.4477777777777778,-0.2788888888888889,-0.73,0.05999569303730508,0.16284878956363605,-2.232493146167733
1589986421.5863154,-2.2659633406023456,-1.8848806506748395,8.812770672481877,0.4477777777777778,-0.2788888888888889,-0.73,0.05851056360513274,0.16991340116956805,-2.2841936151637423
1589986421.5963154,-2.25,-1.9316569865477573,8.811656986547758,0.4477777777777778,-0.24327031888185258,-0.7468378694578717,0.05654245149656808,0.17044389367082394,-2.3298084597271393
1589986421.6063154,-2.2706304385811635,-1.9881376900227152,8.826876812860387,0.4477777777777778,-0.21777777777777774,-0.7588888888888888,0.05188165033052993,0.17507992260981356,-2.387497388132398
1589986421.6163154,-2.2714864969434343,-2.103648533622224,8.719324460264644,0.4477777777777778,-0.21777777777777774,-0.7588888888888888,0.054821611595326794,0.18430617138760808,-2.445052925906499
1589986421.6263154,-2.1984732862155885,-2.137881678446103,8.726822517669154,0.4477777777777778,-0.21777777777777774,-0.7588888888888888,0.06441001828858985,0.1990953527285962,-2.4892487811062867
1589986421.6363153,-2.1823778969739904,-2.208598927234086,8.699511587895962,0.4477777777777778,-0.21777777777777774,-0.7588888888888888,0.06711273187141348,0.19988142151853486,-2.5219082124545427
1589986421.6463153,-2.1315002088085064,-2.317299624144688,8.767599665906388,0.46178882856643144,-0.22532218974089901,-0.7933776292917286,0.062341001997147115,0.2027963371074313,-2.560354251890524
1589986421.6563153,-2.105196169354839,-2.32,8.819607661290323,0.4622222222222222,-0.2255555555555556,-0.7944444444444444,0.05766789093703617,0.20650209647655027,-2.5874255665601975
1589986421.6663153,-2.108194795940932,-2.3773635715865256,8.616935305535764,0.4622222222222222,-0.2255555555555556,-0.7944444444444444,0.054935373556086534,0.21977263861043084,-2.614358695598826
1589986421.6763153,-2.0762853022004792,-2.430457637359425,8.63742939559904,0.4622222222222222,-0.2255555555555556,-0.7944444444444444,0.05380599852117714,0.222529479629277,-2.6293822772250297
1589986421.6863153,-2.068083681740273,-2.4985020904416357,8.706376567831226,0.4622222222222222,-0.2255555555555556,-0.7944444444444444,0.0459554687958615,0.21812051519018005,-2.6365608219484895
1589986421.6963153,-2.0821012568596213,-2.586810054876969,8.755797486280757,0.4647904250506481,-0.22298735272712972,-0.7944444444444444,0.036281854438530554,0.2113919602378718,-2.63866443580922
1589986421.7063153,-2.096293916359742,-2.6877634981584513,8.771469581798709,0.4744444444444445,-0.21333333333333332,-0.7944444444444444,0.04419780881793114,0.202978183543385,-2.630236981104342
1589986421.7163153,-1.9891198795365845,-2.6502953197504686,8.687649119572232,0.4744444444444445,-0.21333333333333332,-0.7944444444444444,0.04674528862306968,0.18736645331573262,-2.61664660593534
1589986421.7263153,-1.999030720670042,-2.686449153072067,8.693224576536034,0.4744444444444445,-0.21333333333333332,-0.7944444444444444,0.050705836096740134,0.18164112057500498,-2.6052211045205236
1589986421.7363153,-1.986950704885749,-2.743606639367322,8.686393360632678,0.4744444444444445,-0.21333333333333332,-0.7944444444444444,0.05551077625377974,0.1809563162408722,-2.5859985164378374
1589986421.7463152,-1.9203473441290755,-2.7749421093118207,8.739073748989131,0.464011102563934,-0.21498070310394024,-0.7664391583441269,0.05727493097553252,0.1794858679819471,-2.547919462771559
1589986421.7563152,-1.8242669648421748,-2.7979271914066794,8.748291234373282,0.4533333333333333,-0.21666666666666667,-0.7377777777777778,0.0567232006898157,0.17562375598192942,-2.5230915999143027
1589986421.7663152,-1.8114484187435258,-2.8854762049844616,8.788055572481872,0.4533333333333333,-0.21666666666666667,-0.7377777777777778,0.04711782778645833,0.16190179469141888,-2.502508657978537
1589986421.7763152,-1.8222470364791408,-2.992023708166874,8.708199620145393,0.4533333333333333,-0.21666666666666667,-0.7377777777777778,0.060903063642353705,0.15972716021688807,-2.4142521350622808
1589986421.7863152,-1.82,-3.0846682275315276,8.76333528441441,0.4533333333333333,-0.21666666666666667,-0.7377777777777778,0.05296561088797718,0.15737043575618348,-2.363684265641684
1589986421.7963152,-1.7875762691899957,-3.1705296635125055,8.803788134594999,0.45603531090083366,-0.13470668045248907,-0.6657250426444348,0.05179782281254097,0.15136109074940363,-2.301281788494939
1589986421.8063152,-1.7878492281666314,-3.250643053499683,8.980532247832523,0.4566666666666666,-0.11555555555555555,-0.6488888888888888,0.06372532398592606,0.13426650654881134,-2.2505023986384587
1589986421.8163152,-1.5343684036158833,-2.871515452695348,8.879628472715225,0.4566666666666666,-0.11555555555555555,-0.6488888888888888,0.14937577257276885,0.02400958356833993,-2.1960076754103164
1589986421.8263152,-1.0787018275529676,-2.3687018275529677,7.901754568882419,0.4566666666666666,-0.11555555555555555,-0.6488888888888888,0.014030157241815833,0.16190170859739297,-2.129008513114225
1589986421.8363152,-1.3108993948562784,-2.748842410489158,9.452413262733232,0.4566666666666666,-0.11555555555555555,-0.6488888888888888,-0.10107232063331535,0.15848129247542517,-2.0785765983054065
1589986421.8463151,-1.4229652669777086,-2.9729652669777087,9.62748574390876,0.4686901676170727,-0.04914002649616958,-0.6448810552387535,0.009057458083590306,0.12529398858755433,-2.0031119622154216
1589986421.8563151,-1.2751071919747592,-2.851394709165925,8.460257260739422,0.48,0.013333333333333334,-0.6411111111111111,0.11384201616791163,0.16047152427046402,-1.9220110988331582
1589986421.8663151,-1.4914496658762664,-3.2148275490407414,9.189415822375512,0.48,0.013333333333333334,-0.6411111111111111,0.058272326189942165,0.11946478216484493,-1.86694959479361
1589986421.876315,-1.456965942592559,-3.2504489138888384,9.04313263036047,0.48,0.013333333333333334,-0.6411111111111111,0.025137544206628795,0.10018099623721037,-1.8035721856059586
1589986421.886315,-1.270961054608597,-3.0364208511995465,8.316379389772848,0.48,0.013333333333333334,-0.6411111111111111,0.06375892200848034,0.11517076367261139,-1.7259509730713685
1589986421.896315,-1.2403083391730905,-3.1194916716079995,8.625408333782545,0.5024481459520002,0.04955647793769728,-0.6370296300289292,0.06047475068298447,0.10051278577387199,-1.6514187237946423
1589986421.906315,-1.2185012285012284,-3.190953316953317,8.85765601965602,0.5288888888888889,0.09222222222222222,-0.6322222222222222,0.042144126673924504,0.08716836823450917,-1.5795765765331233
1589986421.916315,-1.2341178216093558,-3.2582356432187116,8.653783731890382,0.5288888888888889,0.09222222222222222,-0.6322222222222222,0.0465940114682544,0.09389393078133816,-1.4960792164022536
1589986421.926315,-1.2403032807502965,-3.3159477523446763,8.56257788637752,0.5288888888888889,0.09222222222222222,-0.6322222222222222,0.056731471389269754,0.08719202630463002,-1.4145097797175576
1589986421.936315,-1.2346673649016093,-3.372001047352414,8.826334467965115,0.5288888888888889,0.09222222222222222,-0.6322222222222222,0.053487136013324325,0.07497647386639818,-1.3279417666791649
1589986421.946315,-1.1601547413933226,-3.3000773706966613,8.670386853483306,0.5207722621356768,0.13575685662581405,-0.633697972540988,0.0509026232385819,0.07598329140224225,-1.2364886959511898
1589986421.956315,-1.1260219333156452,-3.29,8.738813566817015,0.5166666666666667,0.15777777777777774,-0.6344444444444445,0.044407579338746346,0.0713499033896154,-1.1537487674973765
1589986421.966315,-1.0868690200481905,-3.2634952160385526,8.57796172830842,0.5166666666666667,0.15777777777777774,-0.6344444444444445,0.0428971814462936,0.06510831001870605,-1.0737218339206258
1589986421.976315,-1.1432136206437882,-3.4363619434569155,8.856035454303612,0.5166666666666667,0.15777777777777774,-0.6344444444444445,0.032016697322220095,0.05963801851678253,-0.9941935534794378
1589986421.986315,-1.124394267028823,-3.444737876110862,8.838698214709527,0.5166666666666667,0.15777777777777774,-0.6344444444444445,0.030223701793797467,0.05740965517092391,-0.9367120070471808
1589986421.996315,-1.0414395717412517,-3.317540676669919,8.523470372616757,0.5166666666666667,0.15777777777777774,-0.6344444444444445,0.03625633747195058,0.05680639160310859,-0.8890541851897713
1589986422.006315,-1.0843287174299767,-3.46597230457986,8.776110781680561,0.5188888888888888,0.20444444444444448,-0.6055555555555555,0.030429647179127647,0.04348678016163127,-0.7594756650959027
1589986422.016315,-1.0649485491343575,-3.4561599609851257,8.733942940746159,0.5188888888888888,0.20444444444444448,-0.6055555555555555,0.027799347697250936,0.03584282161346158,-0.6579342273743306
1589986422.026315,-1.0410065549398568,-3.4030196648195705,8.758522942289499,0.5188888888888888,0.20444444444444448,-0.6055555555555555,0.028793642459802548,0.03005274557428602,-0.5834619479544827
1589986422.036315,-1.035578514857381,-3.3978925742869053,8.747892574286906,0.5188888888888888,0.20444444444444448,-0.6055555555555555,0.030216460881690214,0.028843909554699804,-0.5044596418767757
1589986422.046315,-1.030417970907752,-3.4765273430307495,8.852636715153746,0.5304930542768878,0.21894965117944315,-0.6153465701016796,0.016695676296121415,0.02371065620948382,-0.4046245073809087
1589986422.056315,-0.9808603984716157,-3.462581195414847,8.83225982532751,0.5544444444444444,0.2488888888888889,-0.6355555555555555,0.020432534779889266,0.016163066563708573,-0.32288628376373213
1589986422.066315,-0.964102309877271,-3.4171273916072673,8.64727986494453,0.5544444444444444,0.2488888888888889,-0.6355555555555555,0.008223352288884666,0.006332506830195877,-0.19423548986371195
1589986422.076315,-1.0023327788836474,-3.4938336105581764,8.789836937256291,0.5544444444444444,0.2488888888888889,-0.6355555555555555,0.0027083823540324584,-0.003945141089489609,-0.08252416106600619
1589986422.086315,-1.01,-3.5058871120902495,8.761182816120332,0.5544444444444444,0.2488888888888889,-0.6355555555555555,0.002307744980161246,-0.005518666524186879,0.006624206347887664
1589986422.096315,-0.9944089698583707,-3.473226909575112,8.722832889480692,0.5960205248221226,0.24773399776728675,-0.6471044667715773,-0.00606404069091776,-0.01504857249963842,0.10002295019071561
1589986422.106315,-1.0041407407407408,-3.4722462962962966,8.718281481481482,0.6344444444444445,0.2466666666666667,-0.6577777777777778,-0.004344132588441905,-0.022907446432425576,0.1984057568743679
1589986422.116315,-1.0260062931138811,-3.542044051797168,8.707955948202832,0.6344444444444445,0.2466666666666667,-0.6577777777777778,-0.0034920314484565233,-0.028148925966280023,0.28847332255971325
1589986422.1263149,-0.9766255652417136,-3.427668173977903,8.614764579739873,0.6344444444444445,0.2466666666666667,-0.6577777777777778,-0.003716406725178185,-0.036809423930858336,0.37876163478297786
1589986422.1363149,-0.9445805582578761,-3.3803861408366385,8.64328893212602,0.6344444444444445,0.2466666666666667,-0.6577777777777778,-0.012266397455166875,-0.03836209337288497,0.46007639227466623
1589986422.1463149,-0.9531348909130445,-3.418055763608688,8.73,0.8127849052754221,0.2578129454686028,-0.7145541354251398,-0.01982977447547992,-0.039417051330100435,0.5441511144443343
1589986422.1563148,-0.9927454099097541,-3.3512883371944264,8.73,1.2033333333333334,0.2822222222222222,-0.8388888888888889,-0.020233909612962335,-0.04996741231434969,0.6589722297680395
1589986422.1663148,-1.0354709361026972,-3.3245290638973026,8.63152315015145,1.2033333333333334,0.2822222222222222,-0.8388888888888889,-0.024780881038971844,-0.05524106799529433,0.7595613808178253
1589986422.1763148,-1.0566268271353016,-3.36572377462208,8.666387789947112,1.2033333333333334,0.2822222222222222,-0.8388888888888889,-0.023630321135372567,-0.05808347980389829,0.8313188095651625
1589986422.1863148,-1.08,-3.4128941855019597,8.816315348401567,1.2033333333333334,0.2822222222222222,-0.8388888888888889,-0.023940792898218537,-0.061488456958436015,0.8975821952010526
1589986422.1963148,-1.0661050713634983,-3.3105253568174917,8.734420285453993,1.1456951108411781,0.07328366568816003,-0.8388888888888889,-0.022161123397817464,-0.06890612093047715,0.9624460614079561
1589986422.2063148,-1.0948899257949802,-3.2848654648605313,8.769755390655511,1.0788888888888888,-0.1688888888888889,-0.8388888888888889,-0.028353595522828238,-0.07907322449787363,1.006794119859804
1589986422.2163148,-1.1051825903037111,-3.258759377375326,8.788759377375326,1.0788888888888888,-0.1688888888888889,-0.8388888888888889,-0.026253606538401066,-0.08082897839693524,1.0372665713708686
1589986422.2263148,-1.0220146072242968,-3.0647007501900263,8.594700750190025,1.0788888888888888,-0.1688888888888889,-0.8388888888888889,-0.013401295429735366,-0.07326879539183778,1.0682633216917685
1589986422.2363148,-1.137164447139492,-3.287164447139492,8.772684422884064,1.0788888888888888,-0.1688888888888889,-0.8388888888888889,-0.029615329406209378,-0.08741287515547522,1.1127278678099586
1589986422.2463148,-1.1263820391322568,-3.25829223479354,8.73231505657093,0.9128646846246691,-0.06437001937630506,-0.7910514063042832,-0.02845474448773199,-0.09014429663876564,1.152338863556091
1589986422.2563148,-1.1639403827498016,-3.2492935884998677,8.623469441749714,0.62,0.12,-0.7066666666666667,-0.030543261909900768,-0.08998069663246672,1.1978024264031937
1589986422.2663147,-1.1704924991431358,-3.225677186321812,8.630738748714704,0.62,0.12,-0.7066666666666667,-0.0289271619821193,-0.09053895494720583,1.2367737832300647
1589986422.2763147,-1.1677103539749647,-3.211481389372461,8.671817955732404,0.62,0.12,-0.7066666666666667,-0.03138433105588431,-0.09136166724590042,1.2666528466857978
1589986422.2863147,-1.2286757714320322,-3.281324228567968,8.841324228567968,0.62,0.12,-0.7066666666666667,-0.03760127367337578,-0.09272061651219876,1.2890432877788263
1589986422.2963147,-1.22,-3.295724313151322,8.82424059081905,0.6056892171216949,0.13335673068641804,-0.7066666666666667,-0.0341279671070957,-0.0933450422116099,1.3214739678351315
1589986422.3063147,-1.2137992806262783,-3.325501798434304,8.76,0.57,0.16666666666666666,-0.7066666666666667,-0.03423019148323882,-0.09591686841216333,1.3399878731197212
1589986422.3163147,-1.2,-3.3347654382245477,8.704483964094004,0.57,0.16666666666666666,-0.7066666666666667,-0.031623858004194816,-0.0992758358953799,1.3444131180181733
1589986422.3263147,-1.2300786512625597,-3.2160042148045007,8.69511797689384,0.57,0.16666666666666666,-0.7066666666666667,-0.03464460174654778,-0.09953616402234454,1.3250459403088857
1589986422.3363147,-1.2890739018087856,-3.0622684754521963,8.767731524547804,0.57,0.16666666666666666,-0.7066666666666667,-0.038977046882271944,-0.09644260442786566,1.2858170385492749
1589986422.3463147,-1.331757457212714,-3.0974340668296656,8.756080847595761,0.5678226931087567,0.1540382866974554,-0.7158113556098886,-0.028833209076365655,-0.08882890211367073,1.2112037015283736
1589986422.3563147,-1.3318871152761846,-3.1671693270857233,8.777169327085723,0.5644444444444444,0.13444444444444445,-0.73,-0.025192034169087555,-0.08222401337391048,1.1310274928043393
1589986422.3663146,-1.31,-3.25702479338843,8.774359504132232,0.5644444444444444,0.13444444444444445,-0.73,-0.020499279715282055,-0.07550509805744837,1.0594908084344632
1589986422.3763146,-1.299137953037264,-3.3455172707163516,8.71,0.5644444444444444,0.13444444444444445,-0.73,-0.011811069134878994,-0.0700200557801203,0.9744504880640381
1589986422.3863146,-1.2453162413834804,-3.2766453017293506,8.747574071834563,0.5644444444444444,0.13444444444444445,-0.73,-0.004798257111106977,-0.06118084526247718,0.891220094256346
1589986422.3963146,-9.061337608207758,-8.182763065084963,1.8840872074382817,0.5295777136546613,0.10225976986926008,-0.7009443910085141,-0.12332955909569773,0.1630904984994993,0.7548782639422672
1589986422.4063146,-9.70806387905203,-9.350123433669301,-5.038317216017433,0.4777777777777778,0.054444444444444434,-0.6577777777777778,-0.7888397144587258,0.960929710600518,-1.0791139903270621
1589986422.4163146,4.99109445868665,-0.025874186550976175,-0.09897495563005324,0.4777777777777778,0.054444444444444434,-0.6577777777777778,-1.31155354003104,0.6526929090056701,-4.295489459615515
1589986422.4263146,-0.6124392256329549,-0.6023628279371095,-0.6047332956438034,0.4777777777777778,0.054444444444444434,-0.6577777777777778,-0.7660134535310156,-1.918315859931763,-5.9338717126709675
1589986422.4363146,0.6180306201964947,-0.46137149143581835,-0.21380277170840523,0.4777777777777778,0.054444444444444434,-0.6577777777777778,-0.8575929870748388,-1.0934009776286218,-5.8066390782818385
1589986422.4463146,-0.24052465897166841,-0.7662014690451208,-0.08576425323539699,0.48681221095177024,0.10484707162566553,-0.6577777777777778,-0.9496134089815371,-0.9062089125729369,-5.50806685989176
1589986422.4563146,0.13572777572851347,-0.40232017705643675,-0.12780818886019918,0.4988888888888889,0.17222222222222222,-0.6577777777777778,-1.019675540490479,-0.8179083006415429,-5.248035501140993
1589986422.4663146,-0.2845701186368578,-0.49788084321973813,-0.8858687432055585,0.4988888888888889,0.17222222222222222,-0.6577777777777778,-0.2296682934842219,0.13620950878593807,-5.095927883156493
1589986422.4763145,-0.55,-0.52,-1.43,0.4988888888888889,0.17222222222222222,-0.6577777777777778,0.4232423436086249,0.8595746566072073,-5.054909846088576
1589986422.4863145,1.2688786086804722,-1.627383420254435,6.612038536234098,0.4988888888888889,0.17222222222222222,-0.6577777777777778,2.0454252099415067,2.6841060023074936,-4.924472125345147
1589986422.4963145,0.4970463078848561,1.0472340425531916,9.537801418439717,0.4824238631622862,0.19520465396560516,-0.6577777777777778,2.3437671197257557,3.1968359286623045,-4.632225432617349
1589986422.5063145,-0.16750528432231793,3.132181265144095,16.847720781564163,0.3922222222222223,0.3211111111111111,-0.6577777777777778,0.5872689436831647,2.470012168822378,-3.8914846321224865
1589986422.5163145,-1.4020327533265098,-0.12271238485158649,5.191529170931423,0.3922222222222223,0.3211111111111111,-0.6577777777777778,-0.20501522563469265,0.6652292521494327,-3.4044609885651576
1589986422.5263145,1.9657674003569305,-0.47861986912552057,14.645213414634146,0.3922222222222223,0.3211111111111111,-0.6577777777777778,0.3163335454842632,-0.6006539491798616,-3.021660400147577
1589986422.5363145,5.28,-0.8,23.91,0.3922222222222223,0.3211111111111111,-0.6577777777777778,0.445058959258554,-1.0733774899765127,-2.88088409657314
1589986422.5463145,0.3449988194421021,-1.4712692683914055,7.027157216581779,0.3939279222555777,0.32836033625287175,-0.6498889151235089,-0.01969099129887833,-0.7574471837403893,-2.546759945614176
1589986422.5563145,1.61072647063757,-2.51072647063757,12.786201586795713,0.4011111111111111,0.3588888888888889,-0.6166666666666667,0.05633923162108216,0.6186165280044291,-2.0935298591564897
1589986422.5663145,1.0675321956930501,-1.9652151701138822,11.53780075921524,0.4011111111111111,0.3588888888888889,-0.6166666666666667,0.16732156894154201,1.387173286973864,-1.820896267105883
1589986422.5763144,0.08369084285186294,-1.1301997571234974,5.655453809465143,0.4011111111111111,0.3588888888888889,-0.6166666666666667,0.0022557095828758186,0.46466398312314294,-1.515274712141704
1589986422.5863144,0.48231137471620417,-2.591808373959415,10.084570830180045,0.4011111111111111,0.3588888888888889,-0.6166666666666667,-0.020290903949339953,-0.4396162667582253,-1.3985154634927295
1589986422.5963144,0.051489607859056596,-2.0989337906957863,9.295595315417716,0.39197017672052176,0.3675727765599488,-0.6214656572217261,-0.3168605926156174,-0.14996390356802974,-1.0596231429115863
1589986422.6063144,0.018772289727000162,-2.7124554205459996,10.93386460470254,0.3566666666666667,0.4011111111111111,-0.64,0.10642442566393348,0.33205357231237004,-0.7620694982614139
1589986422.6163144,0.27303583455660135,-2.4451883257058977,8.41641412658665,0.3566666666666667,0.4011111111111111,-0.64,0.21095013332225898,0.0834108311990853,-0.521775907973094
1589986422.6263144,0.154981953406978,-3.052148091436071,11.642031062014656,0.3566666666666667,0.4011111111111111,-0.64,-0.1702631393475262,-0.0017789978997926994,-0.3527794235079094
1589986422.6363144,0.14553431392466784,-2.3991820730567635,8.280817926943238,0.3566666666666667,0.4011111111111111,-0.64,-0.025988508194014243,0.0013376428263927424,-0.0586177163759576
1589986422.6463144,0.18640163133236712,-2.453598368667633,8.247991843338164,0.345871560663768,0.4159044045224907,-0.6392003625183038,0.0183106180848849,0.004025290226474663,0.187016869317629
1589986422.6563144,0.1507282853620169,-2.609610985927469,8.69630883040687,0.32666666666666666,0.44222222222222224,-0.6377777777777778,-0.06327361148068969,-0.04068904094247527,0.4194293750084586
1589986422.6663144,0.09723183538114877,-2.883037285829684,9.457147230134773,0.32666666666666666,0.44222222222222224,-0.6377777777777778,-0.009456803984542211,-0.04328262202662694,0.5659667062630288
1589986422.6763144,0.09676073085846867,-2.637313225058005,8.35672505800464,0.32666666666666666,0.44222222222222224,-0.6377777777777778,-0.0011055734491044415,-0.06228444457325942,0.8934173019946764
1589986422.6863143,0.09,-2.964904109589041,9.268273972602739,0.32666666666666666,0.44222222222222224,-0.6377777777777778,-0.0294554197048906,-0.07949317255787187,1.1305848402191077
1589986422.6963143,0.08051810101885974,-2.863484717103837,8.632306525037936,0.3300906857431895,0.44590962738155454,-0.6427821133511573,-0.04188820945736255,-0.08391345261046686,1.3171924762295997
1589986422.7063143,0.05123861967694567,-3.0430234948604995,9.178104992657858,0.3411111111111111,0.4577777777777778,-0.6588888888888889,-0.05908963072876011,-0.10471975511965977,1.5008997826443027
1589986422.7163143,0.058937408223201176,-2.688879221732746,7.923202459618208,0.3411111111111111,0.4577777777777778,-0.6588888888888889,-0.02633713614543219,-0.10471975511965977,1.6495457195994065
1589986422.7263143,-0.008228141612939712,-3.02,8.685825132903517,0.3411111111111111,0.4577777777777778,-0.6588888888888889,-0.030474414089899295,-0.1326815322374802,1.867552825050224
1589986422.7363143,-0.00032123063001922823,-3.02,8.622569845040154,0.3411111111111111,0.4577777777777778,-0.6588888888888889,-0.02529935295312191,-0.11629383863768517,1.9943418229012702
1589986422.7463143,-0.03815231163229546,-3.2001124140719774,9.122621916700364,0.34460118913899745,0.45449299845741414,-0.660325979841548,-0.06402672373321057,-0.15441179493638613,2.1445242684959935
1589986422.7563143,1.0337197575981865,-3.948986445852801,7.939413424619512,0.36,0.44,-0.6666666666666666,-0.07915504550661334,-0.15944164439559708,2.2662533046603888
1589986422.7663143,4.2227362770300925,-9.708646605171632,7.182736277030092,0.36,0.44,-0.6666666666666666,-0.1162158298863649,-0.17460754557977953,2.1362595481977094
1589986422.7763143,5.522950249508543,-22.393660970815063,8.482950249508544,0.36,0.44,-0.6666666666666666,-0.29436983327195515,-0.2100653812050669,1.3337017077034006
1589986422.7863142,-3.405815230460922,-2.243543887775551,0.7261619238476954,0.36,0.44,-0.6666666666666666,-0.5332637112139081,-0.03083006952245293,-4.613184238353833
1589986422.7963142,2.026009659130678,1.9310751032407083,4.6996591306782385,0.3681116477294821,0.43244141916116435,-0.6701694236407612,-0.12921626263283764,0.6726651884076571,-2.876151233232663
1589986422.8063142,2.76,0.73,23.7,0.4088888888888889,0.3944444444444444,-0.6877777777777778,0.6305001922829515,-0.12435470920459595,-0.03926990816987242
1589986422.8163142,1.7288950153572882,0.7091695962698442,13.914917847759316,0.4088888888888889,0.3944444444444444,-0.6877777777777778,0.487348784998649,-0.19990684082686672,0.15103057373584725
1589986422.8263142,0.6624364394836236,-0.47056335381551007,7.90033466749347,0.4088888888888889,0.3944444444444444,-0.6877777777777778,0.03336183074275406,-0.210575436155354,0.38797760071950677
1589986422.8363142,0.3658954525921994,-3.1009438588508886,14.257516999064736,0.4088888888888889,0.3944444444444444,-0.6877777777777778,-0.7017025096244768,-0.06444771975484662,0.5551621149783965
1589986422.8463142,0.09844525177927996,-2.6934209821029746,10.024641315029331,0.4032110750457435,0.4013051361715785,-0.6847022952794074,-0.4226166125892023,0.012119165400627522,0.7741269816059172
1589986422.8563142,-0.24,-2.78,9.82,0.38222222222222224,0.4266666666666667,-0.6733333333333333,0.29343348049154666,0.03272492347489368,0.9381144729469519
1589986422.8663142,-0.18233061044639526,-1.7227278581839136,5.254506660339627,0.38222222222222224,0.4266666666666667,-0.6733333333333333,0.20536291702555443,0.053694105252510865,1.1079648453456512
1589986422.8763142,5.775374802735402,-17.015537217254074,10.005986322987901,0.38222222222222224,0.4266666666666667,-0.6733333333333333,-0.24591470248478314,-0.1629774207575256,1.1187307450904336
1589986422.8863142,-2.6090670297812526,-8.412217341649828,6.954373188087499,0.38222222222222224,0.4266666666666667,-0.6733333333333333,-0.31222570718464643,-0.23495237767802762,-0.19949841273568825
1589986422.8963141,-2.041650659337266,-3.1857830209073223,10.098350575955035,0.3889453005706364,0.4230810248808458,-0.6762466672843128,0.22401873095667899,0.20825486012668343,-0.6255016263851224
1589986422.9063141,0.5033056317160811,-3.4445193372047482,7.268326663374261,0.4155555555555556,0.4088888888888889,-0.6877777777777778,0.3522424322657771,0.06527184690622745,0.2458134903366977
1589986422.9163141,1.7890024011852659,-6.844473016467703,9.29687045520342,0.4155555555555556,0.4088888888888889,-0.6877777777777778,-0.07161746858017881,0.07618000611917485,0.39463194817048003
1589986422.926314,-0.20419314752352236,-6.176721551571099,8.771519172732114,0.4155555555555556,0.4088888888888889,-0.6877777777777778,-0.3062438191962698,-0.17032118165315013,0.07847654118295788
1589986422.936314,0.1079604682986164,-3.884955602858446,9.644614717956516,0.4155555555555556,0.4088888888888889,-0.6877777777777778,0.06885701385944597,0.04821903282601873,-0.07468769263773689
1589986422.946314,-0.10886513608027978,-4.286720693325225,8.82195286604835,0.4155555555555556,0.4088888888888889,-0.6877777777777778,0.10363937322560746,0.07187103719500855,0.007398675466404256
1589986422.956314,0.28581241743725233,-4.358244265641888,8.826892037948841,0.3888888888888889,0.4088888888888889,-0.6588888888888889,-0.04552761150229384,-0.04022096274906351,-0.0013340963959341788
1589986422.966314,0.07091060145097122,-4.282018020126375,8.683945939620875,0.3888888888888889,0.4088888888888889,-0.6588888888888889,-0.01912846958400642,-0.005586595524922993,0.001862198508307664
1589986422.976314,0.042224861441013464,-4.344220110847189,8.471559778305622,0.3888888888888889,0.4088888888888889,-0.6588888888888889,-0.005066360546416636,0.0018664175146277447,-0.0007393120742810501
1589986422.986314,0.11,-4.29,8.58,0.3888888888888889,0.4088888888888889,-0.6588888888888889,-0.006544984694978735,-0.001090830782496456,0.0
1589986422.996314,0.08037007028702223,-4.279259859425956,8.690370070287022,0.38895742042352266,0.40903965826508315,-0.659258959175911,0.0032455800767712925,-0.002181661564992912,1.3456135359037892e-05
1589986423.006314,0.10585752192671515,-4.228284956146569,8.715857521926715,0.39367731887531754,0.4194234348590321,-0.6847464108156041,0.0013920802890401713,-0.002181661564992912,0.0009402060292245983
1589986423.016314,0.02745616022474965,-4.298728080112375,8.57254383977525,0.3944444444444444,0.4211111111111111,-0.6888888888888889,-0.005553430437320022,-0.00208238504015517,0.0019436401035260722
1589986423.026314,0.09175937536969123,-4.331759375369692,8.532871879805986,0.3944444444444444,0.4211111111111111,-0.6888888888888889,-0.007898296231242824,0.001989743483870384,0.0007069946202514
1589986423.036314,0.09860134085681144,-4.33020938599768,8.653986591431886,0.3944444444444444,0.4211111111111111,-0.6888888888888889,0.0023113911405846206,0.0013959708720184972,-0.000785690692974415
1589986423.046314,0.09035507146648841,-4.272485500265418,8.736449285335116,0.3944444444444444,0.4211111111111111,-0.6888888888888889,0.009507618733962732,0.0031950277703630247,0.0010133662053701125
1589986423.056314,0.06766977272727273,-4.239320909090909,8.731358181818182,0.4011111111111111,0.4133333333333333,-0.6877777777777778,0.008440501512435871,0.0003282656907053539,0.0
1589986423.066314,0.06,-4.275292750129154,8.657650249698639,0.4011111111111111,0.4133333333333333,-0.6877777777777778,-0.003849841823983747,-0.0023741113904910383,0.0
1589986423.076314,0.06198523070288917,-4.3,8.596029538594221,0.4011111111111111,0.4133333333333333,-0.6877777777777778,-0.007194649923299312,-0.0033807698855427976,-0.00010827753805342948
1589986423.086314,0.08,-4.304680488809557,8.576381710833449,0.4011111111111111,0.4133333333333333,-0.6877777777777778,-0.011685923540544004,-0.004108042066456103,-0.0008355497189667348
1589986423.096314,0.08,-4.3277166003020735,8.657008101057256,0.4011111111111111,0.4133333333333333,-0.6877777777777778,-0.00477558617115313,-0.0028516170902032163,0.0004208752572861516
1589986423.106314,0.08784469287173939,-4.308621228513042,8.684310614256521,0.3958813158632848,0.40374537537898514,-0.6816763499886472,0.0014763389566206993,-0.003037384811365297,0.001946554028868841
1589986423.116314,0.09,-4.314057670126874,8.651884659746251,0.3944444444444444,0.4011111111111111,-0.68,0.00448184246067921,-0.0017390384170318355,0.0006482076345353796
1589986423.126314,0.05103972484049676,-4.319220206369628,8.542599312101242,0.3944444444444444,0.4011111111111111,-0.68,-0.003187430057888862,-0.001034122589429452,0.001090830782496456
1589986423.136314,0.09,-4.297896205470803,8.637038922948449,0.3944444444444444,0.4011111111111111,-0.68,0.0004306711996234251,0.0007678273827788872,0.0011984985824023122
1589986423.146314,0.09,-4.36623928142249,8.611410269466566,0.3944444444444444,0.4011111111111111,-0.68,0.004158207750553124,-0.002027825030418387,0.0021303827201347367
1589986423.156314,0.07188327611574302,-4.2547081902893575,8.745291809710642,0.3944444444444444,0.4011111111111111,-0.6733333333333333,0.009098459596820613,0.0008853972265971725,0.0008853972265971725
1589986423.166314,0.08765618045958164,-4.295312360919163,8.689452812068117,0.3944444444444444,0.4011111111111111,-0.6733333333333333,0.0015424839391666523,-0.001218666307661708,-0.000962995257331204
1589986423.1763139,0.0722221061701961,-4.268888424680784,8.605555787659608,0.3944444444444444,0.4011111111111111,-0.6733333333333333,-0.004242069072459454,-0.002181661564992912,-0.00036359127186378205
1589986423.1863139,0.09,-4.334200462436232,8.581599075127537,0.3944444444444444,0.4011111111111111,-0.6733333333333333,-0.011366507197580698,-0.002181661564992912,-0.002481703085138972
1589986423.1963139,0.09,-4.303413219804015,8.64317356039197,0.3944444444444444,0.4011111111111111,-0.6733333333333333,-0.008008140000439812,-0.002181661564992912,0.001716255911287136
1589986423.2063138,0.07631799926980651,-4.335090665693075,8.686136667883655,0.4088888888888889,0.4266666666666667,-0.6877777777777778,0.0018941187300303558,-0.0002677626491779666,0.003272492347489368
1589986423.2163138,0.05079591091639285,-4.30106121455519,8.728673481806013,0.4088888888888889,0.4266666666666667,-0.6877777777777778,0.0074621746519299365,-0.00212378128981116,0.003272492347489368
1589986423.2263138,0.06790916503228367,-4.317909165032284,8.577772097225589,0.4088888888888889,0.4266666666666667,-0.6877777777777778,0.0017750549256679475,-0.002181661564992912,0.0022956989221881606
1589986423.2363138,0.08693712152256067,-4.31153143923872,8.585405682283842,0.4088888888888889,0.4266666666666667,-0.6877777777777778,-0.002604275922242028,-0.0012578848888082908,0.0012578848888082908
1589986423.2463138,0.09,-4.316147293452267,8.620736467261334,0.4088888888888889,0.4266666666666667,-0.6877777777777778,-0.00260192665481223,-0.0004202650898193182,0.0024319621678507318
1589986423.2563138,0.08208065994500459,-4.32,8.663758020164986,0.4185680822894388,0.41610754659333943,-0.6710591709950097,0.0030015343804347945,-0.0017277319818092354,0.0006808943747755149
1589986423.2663138,0.060641428010984696,-4.260427618673989,8.71828952530404,0.4211111111111111,0.4133333333333333,-0.6666666666666666,0.007589169516199353,-0.0011141537631343755,2.332298063791952e-05
1589986423.2763138,0.08532346018046293,-4.276882306786976,8.6524707728521,0.4211111111111111,0.4133333333333333,-0.6666666666666666,0.005794241485197044,-0.00201161777863553,0.0009207869961390739
1589986423.2863138,0.07590459605696873,-4.2940954039430315,8.625904596056968,0.4211111111111111,0.4133333333333333,-0.6666666666666666,-0.0030024813695469646,-0.002181661564992912,-0.0004467392687815886
1589986423.2963138,0.07,-4.3293197152911915,8.641989786468393,0.4211111111111111,0.4133333333333333,-0.6666666666666666,-0.008943698293003515,-0.002981232764334505,-0.0002912595831548629
1589986423.3063138,0.07,-4.303902991840435,8.686097008159564,0.4030626070313287,0.42035219603102647,-0.6917340334441422,-0.005879904276820198,-0.0022880991560773915,-0.0009843931914119764
1589986423.3163137,0.07036736473231503,-4.3,8.67853054107074,0.4011111111111111,0.4211111111111111,-0.6944444444444444,0.004363323129985824,0.0,8.014655168255847e-05
1589986423.3263137,0.07739994299223689,-4.3,8.650400228031053,0.4011111111111111,0.4211111111111111,-0.6944444444444444,0.004363323129985824,0.0,0.001614417120930185
1589986423.3363137,0.08954535872391259,-4.31,8.650227320638043,0.4011111111111111,0.4211111111111111,-0.6944444444444444,0.0009916434427065315,-0.001090830782496456,-2.4796834947481096e-05
1589986423.3463137,0.07480886796430328,-4.31,8.657595566017848,0.4011111111111111,0.4211111111111111,-0.6944444444444444,-0.00222336010660475,-0.001090830782496456,-0.0008285477222753015
1589986423.3563137,0.07,-4.299625413147264,8.679812706573632,0.3888888888888889,0.42777777777777776,-0.6588888888888889,0.0011316918694647404,4.086108696828443e-05,6.129163045242665e-05
1589986423.3663137,0.07134199342089467,-4.279552668859702,8.66731601315821,0.3888888888888889,0.42777777777777776,-0.6588888888888889,0.0033700848630506763,0.002132865307212258,0.003077307316366752
1589986423.3763137,0.09900219526285385,-4.270997804737146,8.611995609474292,0.3888888888888889,0.42777777777777776,-0.6588888888888889,0.005127623075822335,0.0010364089763864653,-0.0009819871702764745
1589986423.3863137,0.08,-4.29,8.65,0.3888888888888889,0.42777777777777776,-0.6588888888888889,-0.0012165713969778877,-3.592588985183764e-05,0.001090830782496456
1589986423.3963137,0.08,-4.29,8.65,0.3888888888888889,0.42777777777777776,-0.6588888888888889,-0.00759376437544789,-0.0018579810265575525,0.001090830782496456
1589986423.4063137,0.05946046698513326,-4.3283814009554,8.660539533014866,0.3944444444444444,0.4211111111111111,-0.6877777777777778,-0.008314668805418821,-0.0009142690162595302,0.0002354156883159011
1589986423.4163136,0.0500977722219742,-4.300293316665923,8.669902227778026,0.3944444444444444,0.4211111111111111,-0.6877777777777778,-0.001165487847078226,0.0021496656801721532,0.004320661950224813
1589986423.4263136,0.06699875084471567,-4.3,8.59350562119878,0.3944444444444444,0.4211111111111111,-0.6877777777777778,0.005399135457394761,0.002181661564992912,0.0006547709929051282
1589986423.4363136,0.07,-4.290515139060145,8.627424304699275,0.3944444444444444,0.4211111111111111,-0.6877777777777778,0.00551034686688955,0.00011238590881454099,0.002069275656178371
1589986423.4463136,0.08653002702535431,-4.29,8.663060054050709,0.3944444444444444,0.4211111111111111,-0.6877777777777778,4.471521805583453e-05,0.0,0.001280088449255171
1589986423.4563136,0.09,-4.29,8.682850108256213,0.39087496992882975,0.4132582671767589,-0.6784971440371796,-0.001090830782496456,-0.0007008646822144366,-0.0003108985819324172
1589986423.4663136,0.09,-4.29,8.681463504051031,0.3888888888888889,0.4088888888888889,-0.6733333333333333,0.0007715437286616609,0.0017027309842407195,-0.0020220180380755145
1589986423.4763136,0.08321988780505235,-4.29,8.62575910244042,0.3888888888888889,0.4088888888888889,-0.6733333333333333,0.0033096173098050097,0.0007024705467872094,0.0007767204714184931
1589986423.4863136,0.09946852236194198,-4.29,8.668139828266797,0.3888888888888889,0.4088888888888889,-0.6733333333333333,0.006487009478198514,0.0,-0.00206571113143247
1589986423.4963136,0.08432273374466066,-4.29783863312767,8.67,0.3888888888888889,0.4088888888888889,-0.6733333333333333,0.0014146113099636056,-0.0008550622308358551,0.0003835251275146538
1589986423.5063136,0.0703623805468824,-4.3,8.650724761093764,0.4145892074305359,0.4206682015538104,-0.6936794188454705,-0.005256505984723673,-3.952958555172121e-05,3.952958555172121e-05
1589986423.5163136,0.07,-4.3,8.631065676491065,0.4155555555555556,0.4211111111111111,-0.6944444444444444,-0.007519568205411518,0.0,0.001032707146464619
1589986423.5263135,0.07,-4.3,8.59031033360863,0.4155555555555556,0.4211111111111111,-0.6944444444444444,0.0010231264918692511,0.0,0.001090830782496456
1589986423.5363135,0.07,-4.307159094817209,8.618636379268839,0.4155555555555556,0.4211111111111111,-0.6944444444444444,0.003433639082923337,-0.0023428083004268813,0.0018717668826387498
1589986423.5463135,0.08101544727776935,-4.304492276361115,8.652030894555539,0.4155555555555556,0.4211111111111111,-0.6944444444444444,0.004964122578663703,-0.002671692898811488,0.002181661564992912
1589986423.5563135,0.0838359588443876,-4.318492123466837,8.67,0.4114461947851473,0.4135772830320293,-0.681431468671485,0.003436976161347172,-0.0015092689812812093,0.00016448381385780406
1589986423.5663135,0.08980021138045072,-4.300599365858647,8.67,0.4088888888888889,0.4088888888888889,-0.6733333333333333,4.3587115239366106e-05,-0.003228905232250002,-0.001090830782496456
1589986423.5763135,0.09,-4.319410053034215,8.592359787863144,0.4088888888888889,0.4088888888888889,-0.6733333333333333,0.0021173083339609483,-0.0022138381805088935,0.003143785885425441
1589986423.5863135,0.08029529625035779,-4.2714764812517885,8.667637629997138,0.4088888888888889,0.4088888888888889,-0.6733333333333333,0.0032402805235047624,-0.0011230426064810619,0.001155254430465667
1589986423.5963135,0.0724856931881115,-4.285028613623777,8.67,0.4088888888888889,0.4088888888888889,-0.6733333333333333,0.0008134411936301334,-0.0002711470645433779,0.0002711470645433779
1589986423.6063135,0.06450708843668627,-4.306478734689941,8.675492911563314,0.4046166243396449,0.41560244746627234,-0.6892017445162396,-0.00299591850939667,-0.000599183701879334,0.000599183701879334
1589986423.6163135,0.07980031977260615,-4.326600106590869,8.633799253863918,0.4011111111111111,0.4211111111111111,-0.7022222222222222,-0.006174113856190013,-0.001090830782496456,0.001090830782496456
1589986423.6263134,0.09,-4.324284957720621,8.581424788603103,0.4011111111111111,0.4211111111111111,-0.7022222222222222,-0.005298155886655602,0.0007794124299882442,-0.0007794124299882442
1589986423.6363134,0.08371151998291754,-4.313711519982918,8.604019360119578,0.4011111111111111,0.4211111111111111,-0.7022222222222222,-0.0009334893411121316,0.0014956948072181735,-0.00012376129166869615
1589986423.6463134,0.08,-4.315010812185969,8.655054060929848,0.4011111111111111,0.4211111111111111,-0.7022222222222222,0.0005442359647200566,0.0005442359647200566,0.0005442359647200566
1589986423.6563134,0.07584692794528088,-4.311693855890562,8.68,0.4011111111111111,0.41603513415534327,-0.6902244585085892,0.00045302988392134354,0.0,-0.00045302988392134354
1589986423.6663134,0.07,-4.3,8.685942178513413,0.4011111111111111,0.4088888888888889,-0.6733333333333333,0.0004426396587445008,0.0,0.00020555146500745441
1589986423.6763134,0.061776336546888695,-4.308223663453111,8.607763365468887,0.4011111111111111,0.4088888888888889,-0.6733333333333333,0.0035882500958179654,0.0008970625239544914,0.00019376825854196462
1589986423.6863134,0.06861367405573335,-4.318613674055734,8.598613674055732,0.4011111111111111,0.4088888888888889,-0.6733333333333333,0.0006048988058318158,-0.0007883813795805481,-0.000939606081038502
1589986423.6963134,0.07683717839172126,-4.3063256432165575,8.654697427133769,0.4011111111111111,0.4088888888888889,-0.6733333333333333,-0.001491640931021832,0.00040081014852537595,-0.001836651248007372
1589986423.7063134,0.06810658262975941,-4.3,8.69189341737024,0.40573632897731576,0.4115318705267201,-0.6733333333333333,-0.002181661564992912,-0.00150391037281084,-0.000884290987339264
1589986423.7163134,0.06806081169254861,-4.3,8.683878376614903,0.4088888888888889,0.4133333333333333,-0.6733333333333333,-0.004819556022834726,-0.0006345978896475533,-0.0008792981526139381
1589986423.7263134,0.07863326778262747,-4.325899803347882,8.57640078660847,0.4088888888888889,0.4133333333333333,-0.6733333333333333,-0.002628923637234792,0.000941743425082496,0.002676142917833528
1589986423.7363133,0.08893567712827592,-4.294257291486896,8.640421094154483,0.4088888888888889,0.4133333333333333,-0.6733333333333333,0.0036667254393908393,-0.0008586315522981275,0.0022977611800920764
1589986423.7463133,0.09,-4.311626623749857,8.678835498333141,0.4088888888888889,0.4133333333333333,-0.6733333333333333,0.00514968936024623,-0.0003044645522360495,0.000608929104472099
1589986423.7563133,0.09,-4.294469573327116,8.709147820004663,0.4039246392580503,0.4133333333333333,-0.6690782622211859,0.002669216381977222,0.0006962343826262644,0.0020887031478787933
1589986423.7663133,0.09,-4.28,8.670457176332748,0.4011111111111111,0.4133333333333333,-0.6666666666666666,0.001090830782496456,-0.0022868465367556047,0.0012458859559381316
1589986423.7763133,0.07351922521886926,-4.304721162171695,8.590557675656608,0.4011111111111111,0.4133333333333333,-0.6666666666666666,0.001090830782496456,-0.002565549484920953,0.0017977736450648708
1589986423.7863133,0.054889644167202045,-4.31,8.610220711665596,0.4011111111111111,0.4133333333333333,-0.6666666666666666,0.002739114910185545,-0.0013575195011483678,0.0005333774373038234
1589986423.7963133,0.05485841834679044,-4.300283163306419,8.644292091733952,0.4011111111111111,0.4133333333333333,-0.6666666666666666,0.003272492347489368,-0.002150773239881367,0.0005299712286924553
1589986423.8063133,0.07173902876295891,-4.29,8.681739028762959,0.4011111111111111,0.4133333333333333,-0.6718840127835373,0.001565119823323117,-0.0024188060854062423,0.001090830782496456
1589986423.8163133,0.0797450380787285,-4.295127480960636,8.684617557118093,0.4011111111111111,0.4133333333333333,-0.68,-0.0027687950030542484,-0.001090830782496456,0.001090830782496456
1589986423.8263133,0.07672800985730753,-4.3067280098573075,8.609447911284231,0.4011111111111111,0.4133333333333333,-0.68,-0.00583114718144395,-0.0025586548339545834,0.00035691875676739247
1589986423.8363132,0.08595779651131966,-4.30404220348868,8.615746779067917,0.4011111111111111,0.4133333333333333,-0.68,-0.0039454055628197465,-0.0019727027814098732,-0.0006498947830397473
1589986423.8463132,0.08476617816565124,-4.294766178165651,8.650467643668698,0.4011111111111111,0.4133333333333333,-0.68,0.00010202402181096453,-0.001661752179197425,-0.0005199093857954869
1589986423.8563132,0.08,-4.29,8.671359108871993,0.4055285423391083,0.4133333333333333,-0.6882038008519948,0.002801204845957829,-0.002181661564992912,0.001239086561929833
1589986423.8663132,0.0873585920931852,-4.297358592093185,8.66528281581363,0.4088888888888889,0.4133333333333333,-0.6944444444444444,0.0016670965932730787,0.0002264320663315218,0.002181661564992912
1589986423.8763132,0.06874172185430463,-4.3,8.589139072847683,0.4088888888888889,0.4133333333333333,-0.6944444444444444,0.0003178579763565832,-0.00045511482978328956,0.002181661564992912
1589986423.8863132,0.06755046708901535,-4.292449532910984,8.620403736712124,0.4088888888888889,0.4133333333333333,-0.6944444444444444,-0.0016472563845848715,-0.0002672025902040202,0.002181661564992912
1589986423.8963132,0.08259203836930455,-4.302592038369304,8.658888057553957,0.4088888888888889,0.4133333333333333,-0.6944444444444444,0.0005654950485298655,-0.0006867891533806944,0.002181661564992912
1589986423.9063132,0.07352707160877159,-4.299018047739181,8.686472928391227,0.4046181296763482,0.4133333333333333,-0.6907837936908381,0.0027806341438933045,-0.001090830782496456,0.0015826889860925193
1589986423.9163132,0.08148903542401473,-4.29,8.678510964575985,0.4011111111111111,0.4133333333333333,-0.6877777777777778,-0.00141568791784504,0.002034622727726483,0.001090830782496456
1589986423.9263132,0.07534866003405934,-4.3046513399659405,8.618720310119208,0.4011111111111111,0.4133333333333333,-0.6877777777777778,-0.003272492347489368,0.003272492347489368,-0.0005073824814704096
1589986423.9363132,0.08210414859931832,-4.316052074299659,8.606052074299658,0.4011111111111111,0.4133333333333333,-0.6877777777777778,-0.003272492347489368,0.0019521345586845898,-0.001751009676898845
1589986423.9463131,0.08640772801002136,-4.312815456020043,8.624369087959915,0.4011111111111111,0.4133333333333333,-0.6877777777777778,-0.0024887801743356678,-8.473747723409457e-05,-0.0017898054784160618
1589986423.9563131,0.0815783174394811,-4.30078915871974,8.653156634878963,0.40172490122646487,0.41298259612455973,-0.687163987662424,-0.0006604114706122129,-0.0018373261154855174,-0.001090830782496456
1589986423.9663131,0.07816821076138455,-4.304542052690346,8.69,0.4088888888888889,0.4088888888888889,-0.68,0.003767953436524409,0.0033724009519157418,-0.0016862004759578709
1589986423.976313,0.06644150617993677,-4.293558493820063,8.63202644438057,0.4088888888888889,0.4088888888888889,-0.68,0.001164514379474515,0.0008500265166277356,-0.0014790022423212942
1589986423.986313,0.0749907874857206,-4.2949907874857205,8.614972362457163,0.4088888888888889,0.4088888888888889,-0.68,-0.0005444104618322125,-0.002179651706160881,-0.0005464203206642435
1589986423.996313,0.08,-4.304021037142,8.646084148568002,0.4088888888888889,0.4088888888888889,-0.68,-0.0006522036732908614,-0.001956611019872584,0.0008772542184111891
1589986424.006313,0.07159703404961455,-4.305798517024807,8.686805931900771,0.4028200801469438,0.4056210687970723,-0.6898034602754497,0.0,0.0,0.0012650401726979085
1589986424.016313,0.07733317214700193,-4.282666827852998,8.686889103803997,0.3944444444444444,0.4011111111111111,-0.7033333333333334,0.0,0.0006302519245419965,-0.001260503849083993
1589986424.026313,0.08413742989696484,-4.275862570103035,8.611374298969649,0.3944444444444444,0.4011111111111111,-0.7033333333333334,-0.0012790143865868341,0.0004513235892030389,-0.0009026471784060778
1589986424.036313,0.08639918295885614,-4.286399182958856,8.60199591479428,0.3944444444444444,0.4011111111111111,-0.7033333333333334,-0.002879704140427615,0.00209412772630411,-0.0006980425754347032
