time,acc_x,acc_y,acc_z,mag_x,mag_y,mag_z,gyr_x,gyr_y,gyr_z
1589986442.5579572,0.06,-4.19,8.68,0.42777777777777776,0.3144444444444445,-0.5966666666666667,0.0,0.003272492347489368,0.001090830782496456
1589986442.5679572,0.07413043922578536,-4.19,8.59880434116132,0.42777777777777776,0.3144444444444445,-0.5966666666666667,-0.003272492347489368,0.001221256929155852,0.0003201348786123533
1589986442.5779572,0.06,-4.19222695292448,8.62890781169792,0.42777777777777776,0.3144444444444445,-0.5966666666666667,-0.0027866465872507374,-0.0013337536626157713,0.0013337536626157713
1589986442.5879571,0.056719183491626336,-4.2,8.692808165083736,0.44053650864367533,0.3078828114276972,-0.5897404984823222,-0.0007329492185908022,-0.002181661564992912,0.0018237800010872582
1589986442.5979571,0.043263894227073565,-4.2,8.76,0.4666666666666667,0.29444444444444445,-0.5755555555555556,0.0014695903062520476,-0.002549059141555924,0.00182562593562248
1589986442.6079571,0.03,-4.195512415021631,8.715124150216308,0.4666666666666667,0.29444444444444445,-0.5755555555555556,0.0033842839632910733,-0.002293453180794617,0.002293453180794617
1589986442.617957,0.039047507788161996,-4.194523753894082,8.66452375389408,0.4666666666666667,0.29444444444444445,-0.5755555555555556,0.0016881965649827356,-0.001090830782496456,0.0015842957825066323
1589986442.627957,0.044601293520777664,-4.194601293520778,8.713189651833778,0.4666666666666667,0.29444444444444445,-0.5755555555555556,0.001679738303816335,0.0006758917814631814,0.0004149390010332746
1589986442.637957,0.04582071394269249,-4.19,8.744179286057308,0.45955246073670913,0.29444444444444445,-0.583963253472778,0.0002768373815543268,0.0028166029594724404,0.0001790520064626005
1589986442.647957,0.05,-4.19,8.74,0.4544444444444444,0.29444444444444445,-0.59,-0.0005322677268131613,0.003272492347489368,0.0005322677268131613
1589986442.657957,0.04525168006324944,-4.19,8.692516800632495,0.4544444444444444,0.29444444444444445,-0.59,0.0005179613552149135,0.0017186082818446274,0.0
1589986442.667957,0.04,-4.184326641937595,8.668366790312023,0.4544444444444444,0.29444444444444445,-0.59,-0.0007657713018821401,-0.001237734722919064,-0.000618867361459532
1589986442.677957,0.054013941698352344,-4.189342627798902,8.713356569497254,0.4544444444444444,0.29444444444444445,-0.59,-0.0016721002653704653,-0.005239029362727592,-0.0016003920821189028
1589986442.687957,0.06292012535998645,-4.192920125359986,8.743539937320007,0.45877103450223045,0.29444444444444445,-0.5923599582133379,-0.0014769780421735959,-0.006795909961585948,-0.002181661564992912
1589986442.697957,0.06164127447321095,-4.1838804248244035,8.734478300702385,0.4666666666666667,0.29444444444444445,-0.5966666666666667,-0.0013350841954683306,-0.003695781032251659,-0.0013350841954683306
1589986442.707957,0.07407734040181337,-4.195922659598187,8.662618723214507,0.4666666666666667,0.29444444444444445,-0.5966666666666667,0.0006460619403950075,-0.0024251373088008013,-0.0006460619403950075
1589986442.717957,0.06157706863214953,-4.1873656029482245,8.651057328419627,0.4666666666666667,0.29444444444444445,-0.5966666666666667,0.0006314311417511422,-0.0015502304232417699,0.0002873681397394855
1589986442.727957,0.04783068285185534,-4.172169317148144,8.693015902888868,0.4666666666666667,0.29444444444444445,-0.5966666666666667,-0.0004732715844387246,-0.0009984826038961002,0.0019450257727735495
1589986442.737957,0.046360111633482554,-4.183180055816742,8.746360111633482,0.4606598945683776,0.29621114212041183,-0.5853598015404755,-0.0014878810100012532,0.0043131631799768555,0.00039705022750479736
1589986442.747957,0.06,-4.19,8.749315512978987,0.4477777777777778,0.3,-0.5611111111111111,0.0,0.007477382081995175,-0.0008577314357423461
1589986442.757957,0.056325992239090475,-4.197348015521819,8.695303968956363,0.4477777777777778,0.3,-0.5611111111111111,-0.00040077207607309886,0.010106763672818361,0.0
1589986442.767957,0.048259950430091854,-4.206519900860184,8.676960198279632,0.4477777777777778,0.3,-0.5611111111111111,-0.0007112108557113502,0.008157216369793989,0.0003796199267851058
1589986442.777957,0.035932879110679855,-4.19,8.72626848355728,0.4477777777777778,0.3,-0.5611111111111111,-0.0006837854823854533,0.004566845780041325,0.002181661564992912
1589986442.787957,0.025095136670216543,-4.185095136670217,8.745095136670217,0.45486258036524274,0.3,-0.5649260048120538,-0.003272492347489368,6.226680504985106e-05,0.0016466239745863258
1589986442.797957,0.033616174244916766,-4.184538724748306,8.694612752516944,0.4622222222222222,0.3,-0.5688888888888889,-0.003272492347489368,-0.003272492347489368,0.0005957327156234346
1589986442.807957,0.05320317937071902,-4.186796820629281,8.620780923775687,0.4622222222222222,0.3,-0.5688888888888889,-0.0029230796815455746,-0.003272492347489368,0.0003494126659437935
1589986442.817957,0.07681912980942107,-4.18,8.602425506412562,0.4622222222222222,0.3,-0.5688888888888889,-0.0034047832003875956,-0.0026609315297920263,0.0017023916001937978
1589986442.827957,0.08551037091959923,-4.184489629080401,8.660406661723608,0.4622222222222222,0.3,-0.5688888888888889,-0.0024043528888288584,-0.00022269132383594646,0.0016919190047036707
1589986442.837957,0.06652013813763835,-4.19,8.728871806607307,0.46012535482141037,0.3017973149149815,-0.5706862038038705,0.0,0.0010053217039317842,0.0005026608519658921
1589986442.847957,0.025563634003051054,-4.187781817001526,8.78,0.4544444444444444,0.30666666666666664,-0.5755555555555556,0.0,-0.002181661564992912,-0.001090830782496456
1589986442.857957,0.029542648938195068,-4.194656986703646,8.765343013296354,0.4544444444444444,0.30666666666666664,-0.5755555555555556,0.0,-0.0016487184891602904,-0.001090830782496456
1589986442.8679569,0.05543613121533979,-4.199127737569321,8.75543613121534,0.4544444444444444,0.30666666666666664,-0.5755555555555556,0.0005929899267382511,-0.002276810635972958,9.514907098004616e-05
1589986442.8779569,0.06,-4.194471912789659,8.777887651158634,0.4544444444444444,0.30666666666666664,-0.5755555555555556,0.000603020769736529,-0.005223732398529076,-0.0003725992557833252
1589986442.8879569,0.06446877277480276,-4.2,8.786593681675592,0.4514652625945759,0.31014237882484663,-0.5755555555555556,0.0014624024708210829,-0.007635815477475192,-0.0016941940747192176
1589986442.8979568,0.06476527427423148,-4.184295822822694,8.754295822822694,0.4477777777777778,0.3144444444444445,-0.5755555555555556,0.0027014723515299275,-0.008206835473434633,-0.001090830782496456
1589986442.9079568,0.06,-4.1958449722507165,8.683141061048424,0.4477777777777778,0.3144444444444445,-0.5755555555555556,-0.001201437391468913,-0.008162796433894677,-0.0005269809564194852
1589986442.9179568,0.035179500136862274,-4.195179500136862,8.61014360010949,0.4477777777777778,0.3144444444444445,-0.5755555555555556,-0.0027388252127262414,-0.006552816865968803,0.001082998611506388
1589986442.9279568,0.006373694904343278,-4.155494779617373,8.586373694904344,0.4477777777777778,0.3144444444444445,-0.5755555555555556,-0.006628790097589006,-0.007827565047521945,0.0029727986100061337
1589986442.9379568,-0.041617090319091395,-4.095319091400757,8.53144672796106,0.45278724235322393,0.31675650501772734,-0.5878865452797308,-0.03414303298999691,-0.02334843940696105,0.004741633156635825
1589986442.9479568,-0.449913287385799,-3.685585029652188,8.062956242987658,0.4622222222222222,0.3211111111111111,-0.6111111111111112,-0.13486175774989564,-0.08387579546045129,0.014154539107614859
1589986442.9579568,-0.9954439179607789,-3.1295804655345347,7.678702313838066,0.4622222222222222,0.3211111111111111,-0.6111111111111112,-0.26741316904330753,-0.1563219027505422,0.04010532013047211
1589986442.9679568,-0.6005819871653021,-3.6451958397875637,10.66656118610312,0.4622222222222222,0.3211111111111111,-0.6111111111111112,-0.3141986115456461,-0.10630470641814874,0.24031516294087724
1589986442.9779568,-0.7466124046981248,-3.486912072061464,9.340416826116392,0.4622222222222222,0.3211111111111111,-0.6111111111111112,-0.018441080236853483,0.13163094965918712,0.43860921474198883
1589986442.9879568,-0.8692249882573979,-3.490976984499765,8.353790511977454,0.4635624445488231,0.3147450550597568,-0.6023996659882053,-0.07273212873072776,0.1626962071453075,0.6289712871373576
1589986442.9979568,-0.4239822219048979,-2.963010852491789,8.848444238183637,0.4666666666666667,0.3,-0.5822222222222222,-0.2127331089085322,0.019296396223197523,0.742569542465573
1589986443.0079567,0.06295533090613392,-2.453934280803563,9.356114324788852,0.4666666666666667,0.3,-0.5822222222222222,-0.1604303856693426,-0.03145864128320343,0.8473218059481888
1589986443.0179567,0.22149709543568466,-2.048569294605809,9.13643817427386,0.4666666666666667,0.3,-0.5822222222222222,-0.03006221006108864,-0.024103648752749902,0.9749814755325436
1589986443.0279567,-0.07546162402669633,-2.265166852057842,8.596718576195773,0.4666666666666667,0.3,-0.5822222222222222,-0.016040915400003502,-0.08544699568274935,1.1723985946289928
1589986443.0379567,-0.11473003586936001,-2.37784028695488,8.897300358693599,0.4608855117152266,0.29421884504856,-0.5790688649759822,-0.04554862059719627,-0.08576335255979924,1.3404144924078358
1589986443.0479567,-0.19556688662267546,-2.4739763475876253,8.874433113377325,0.4544444444444444,0.2877777777777778,-0.5755555555555556,-0.029452431127404314,-0.10028814405697932,1.494536046716286
1589986443.0579567,-0.27861317686657117,-2.561879647949785,8.861186236383071,0.4544444444444444,0.2877777777777778,-0.5755555555555556,-0.04163472689906835,-0.1108865424736829,1.6217390496743664
1589986443.0679567,-0.31798604673854713,-2.5920139532614526,8.82107674293799,0.4544444444444444,0.2877777777777778,-0.5755555555555556,-0.04778447653218838,-0.12162382708657757,1.751938418858586
1589986443.0779567,-0.3527184736781666,-2.5922573289367916,8.709538855258625,0.4544444444444444,0.2877777777777778,-0.5755555555555556,-0.04234118816573047,-0.13040194207098835,1.8598903919919054
1589986443.0879567,-0.3802373121815954,-2.6398813439092024,8.73059328045399,0.45468175662603977,0.28771185772733465,-0.5754764514950238,-0.05130787689224528,-0.13637973455533153,1.9407138082126034
1589986443.0979567,-0.4069933143493872,-2.63,8.773006685650612,0.4744444444444445,0.2822222222222222,-0.5688888888888889,-0.05428725503935661,-0.1410783502317118,2.0667007811235854
1589986443.1079566,-0.4388086722465986,-2.6440938755945576,8.735906124405442,0.4744444444444445,0.2822222222222222,-0.5688888888888889,-0.05537246251022872,-0.15040469428596567,2.1655259490802234
1589986443.1179566,-0.4867161238370997,-2.70664193808145,8.666641938081451,0.4744444444444445,0.2822222222222222,-0.5688888888888889,-0.06142855431906426,-0.1578284329627234,2.277506861207462
1589986443.1279566,-0.5116649244243537,-2.7053838112727786,8.66717841503037,0.4744444444444445,0.2822222222222222,-0.5688888888888889,-0.05612177216261078,-0.1636246173744684,2.3432991414095765
1589986443.1379566,-0.6383570032013407,-2.7683570032013405,8.754624755602347,0.48117647480108006,0.26968671742021116,-0.5716745566226691,-0.06131442572833763,-0.16567573455129325,2.439372007247764
1589986443.1479566,-0.6664501714642004,-2.778701028785202,8.8117749142679,0.5066666666666667,0.2222222222222222,-0.5822222222222222,-0.06275819393821318,-0.17402293375285166,2.5166931853327776
1589986443.1579566,-0.6998029556650247,-2.7430837438423645,8.803399014778325,0.5066666666666667,0.2222222222222222,-0.5822222222222222,-0.0679850881477274,-0.1770767640784173,2.6062666410470596
1589986443.1679566,-0.8073401948297821,-2.87,8.777340194829781,0.5066666666666667,0.2222222222222222,-0.5822222222222222,-0.07268531690377017,-0.17980714516438423,2.665911692544883
1589986443.1779566,-0.8534316092059924,-2.8800737069044944,8.803284195397003,0.5066666666666667,0.2222222222222222,-0.5822222222222222,-0.07053771054276066,-0.18871372537188688,2.7465144637032073
1589986443.1879566,-0.8882892887264549,-2.8958553556367725,8.781710711273545,0.5094297629088184,0.2111698372536157,-0.5886694467872426,-0.0709434464932504,-0.18984400178536412,2.805451399935549
1589986443.1979566,-0.9417905481361573,-2.853851342236611,8.741283780745537,0.52,0.1688888888888889,-0.6133333333333333,-0.07526732399225547,-0.19654485935180827,2.8890174297729443
1589986443.2079566,-1.00045114650401,-2.8314191799390036,8.684323280243985,0.52,0.1688888888888889,-0.6133333333333333,-0.07485211089264443,-0.20252852489412876,2.9535330323963724
1589986443.2179565,-1.0528698709970565,-2.8528698709970564,8.638698709970564,0.52,0.1688888888888889,-0.6133333333333333,-0.07636787374752708,-0.20819701176194153,3.0148306992126424
1589986443.2279565,-1.0695588956052933,-2.856415414148015,8.721948619506618,0.52,0.1688888888888889,-0.6133333333333333,-0.08089993414960335,-0.21053034102181603,3.072046243406695
1589986443.2379565,-1.1380820127430158,-2.830719245221369,8.807602515928771,0.52,0.1688888888888889,-0.6133333333333333,-0.07435956066954001,-0.21053034102181603,3.1365156391387488
1589986443.2479565,-1.1357650897226754,-2.751823817292007,8.77605872756933,0.5277777777777778,0.11555555555555555,-0.59,-0.06697060386124164,-0.21008439943275628,3.23822139826597
1589986443.2579565,-1.1965851005981512,-2.797438825448613,8.760853724850461,0.5277777777777778,0.11555555555555555,-0.59,-0.06862921236261009,-0.21257231218480893,3.2995899128166033
1589986443.2679565,-1.2892400857772812,-2.827862212691413,8.718551149234347,0.5277777777777778,0.11555555555555555,-0.59,-0.0803302363830323,-0.22712599917952647,3.4024128009251
1589986443.2779565,-1.3462467909027758,-2.821528134344136,8.743887462623457,0.5277777777777778,0.11555555555555555,-0.59,-0.08240305867501857,-0.22781693994352192,3.457688062044734
1589986443.2879565,-1.4027058575642646,-2.8191765697429414,8.788647071217866,0.5303333099218055,0.10322887109612773,-0.5909019525214215,-0.08532220497809494,-0.2345606812148582,3.568030400493137
1589986443.2979565,-1.4248621320233783,-2.750324142134892,8.777731005055756,0.5466666666666666,0.024444444444444446,-0.5966666666666667,-0.09388216413842405,-0.2488154936747852,3.63240634946007
1589986443.3079565,-1.591367808292561,-2.7519870718902895,8.69931609585372,0.5466666666666666,0.024444444444444446,-0.5966666666666667,-0.09686718372368844,-0.25314734390868177,3.7085544557699976
1589986443.3179564,-1.6512436021579748,-2.7284454973025314,8.671554502697468,0.5466666666666666,0.024444444444444446,-0.5966666666666667,-0.09919777323142258,-0.2564808898381769,3.744646923200528
1589986443.3279564,-1.6845664176047133,-2.6582656704188534,8.72,0.5466666666666666,0.024444444444444446,-0.5966666666666667,-0.09560215990818219,-0.26041220106985247,3.77881443964445
1589986443.3379564,-1.6860425946547883,-2.5839574053452115,8.736042594654789,0.547557921925266,0.013749381341252167,-0.6014794450631032,-0.09285476865534124,-0.2587427384301287,3.7937344639618686
1589986443.3479564,-1.7972300336229858,-2.511670014409851,8.835560019213135,0.5522222222222222,-0.042222222222222223,-0.6266666666666667,-0.09714393271543702,-0.25458790602002235,3.784756290471564
1589986443.3579564,-1.8433708462132923,-2.4962915378670787,8.802695614374034,0.5522222222222222,-0.042222222222222223,-0.6266666666666667,-0.09013442448217457,-0.25231278485415415,3.761061777435183
1589986443.3679564,-1.8397520446885238,-2.4095040893770476,8.72757583614208,0.5522222222222222,-0.042222222222222223,-0.6266666666666667,-0.08364839181049108,-0.24466462599229802,3.7233449970715027
1589986443.3779564,-1.8277820572169243,-2.344059809276919,8.807782057216924,0.5522222222222222,-0.042222222222222223,-0.6266666666666667,-0.08366998310749527,-0.23937582141904284,3.6752014200383183
1589986443.3879564,-1.8504123078226251,-2.2683507687095,8.83,0.5516266664784304,-0.04648273638934772,-0.6281326500360002,-0.07976557454167633,-0.2343487150108246,3.622548335532343
1589986443.3979564,-1.859294396679514,-2.2328224132819448,8.83,0.5387969825740356,-0.13826432124386467,-0.659713410416049,-0.08267223132306524,-0.23047317263563943,3.549881915997621
1589986443.4079564,-1.8965143462389589,-2.1788799152654574,8.837302869247791,0.5377777777777778,-0.14555555555555555,-0.6622222222222223,-0.08449637838493826,-0.22697881727633698,3.473210080604247
1589986443.4179564,-1.9770589036895718,-1.9689074370592443,8.688151466630327,0.5377777777777778,-0.14555555555555555,-0.6622222222222223,-0.08454397521188872,-0.2182761574912235,3.328023746891593
1589986443.4279563,-2.0430367535054486,-1.8214119439128227,8.834816232472757,0.5377777777777778,-0.14555555555555555,-0.6622222222222223,-0.08779183206341072,-0.21726943676022925,3.180712717918629
1589986443.4379563,-2.05,-1.6908176964149504,8.805754691075515,0.5286128993982541,-0.1604751250105941,-0.6707476904822443,-0.08315698436303653,-0.2097825519746419,3.062703072469171
1589986443.4479563,-2.05,-1.61,8.83,0.49,-0.22333333333333333,-0.7066666666666667,-0.07963064712224129,-0.1974403716318585,2.9463339435229283
1589986443.4579563,-2.1981893288836436,-1.5008078629278419,8.85339831508689,0.49,-0.22333333333333333,-0.7066666666666667,-0.08388458084812996,-0.1889325041800812,2.8323285196691117
1589986443.4679563,-2.2232492034018754,-1.3862460170093758,8.843249203401875,0.49,-0.22333333333333333,-0.7066666666666667,-0.07594865875443782,-0.1819639926667511,2.6768246978845447
1589986443.4779563,-2.125704000654504,-1.2765775996072977,8.83254880143991,0.49,-0.22333333333333333,-0.7066666666666667,-0.061679586642512975,-0.1617871346522944,2.4903027955039505
1589986443.4879563,-2.1600188169843735,-1.2559887098093758,8.908041397365622,0.49,-0.22333333333333333,-0.7066666666666667,-0.05868505400664624,-0.1572953356984943,2.3914832185203485
1589986443.4979563,-2.16,-1.2376145018787448,8.89952290037575,0.4444444444444444,-0.2822222222222222,-0.72,-0.0499179985166117,-0.14009264899430218,2.212400505129095
1589986443.5079563,-2.16,-1.195019802985681,8.891003960597137,0.4444444444444444,-0.2822222222222222,-0.72,-0.045271637644239526,-0.12894138290060894,2.099029299843214
1589986443.5179563,-2.1785639787294167,-1.1121540319058751,8.808563978729415,0.4444444444444444,-0.2822222222222222,-0.72,-0.047665104626484746,-0.11368136981057221,1.9042341564350311
1589986443.5279562,-2.2377986260825082,-0.9979862608250814,8.87,0.4444444444444444,-0.2822222222222222,-0.72,-0.04945781806494148,-0.10290852640726783,1.7572854421540929
1589986443.5379562,-2.2301355647312455,-0.9213556473124567,8.87,0.4444444444444444,-0.2822222222222222,-0.72,-0.0469500871019067,-0.10040079544423303,1.6394220868914573
1589986443.5479562,-2.2942635237231794,-0.8461435478996675,8.92360471441523,0.4244444444444445,-0.3211111111111111,-0.75,-0.045975567063518054,-0.08863423715385853,1.4627006663279079
1589986443.5579562,-2.32188888160912,-0.7245925877394134,8.867296293869707,0.4244444444444445,-0.3211111111111111,-0.75,-0.03699936303787664,-0.0770934512892369,1.2713026355845012
1589986443.5679562,-2.3065284577723375,-0.7034715422276622,8.85347154222766,0.4244444444444445,-0.3211111111111111,-0.75,-0.031204558600615544,-0.061747820510516305,1.11892128847156
1589986443.5779562,-2.3345498070746045,-0.68,8.839099614149209,0.4244444444444445,-0.3211111111111111,-0.75,-0.02082400172764936,-0.048885728831850724,0.9680318750751579
1589986443.5879562,-2.3549684690728565,-0.6760252247417148,8.880930631960284,0.4196967962192705,-0.32431301340250757,-0.7518769772053013,-0.01723650215968115,-0.036329480343962,0.8448260331281957
1589986443.5979562,-2.4,-0.64,8.966277046150967,0.37666666666666665,-0.3533333333333333,-0.7688888888888888,-0.013560840042344306,-0.024533907253661842,0.6970880744536723
1589986443.6079562,-2.4012788557339952,-0.6361634327980141,8.886980596788085,0.37666666666666665,-0.3533333333333333,-0.7688888888888888,-0.00556847405426881,-0.003247310969174481,0.5839394369397025
1589986443.6179562,-2.4083617880000676,-0.6149146359997973,8.759487815998785,0.37666666666666665,-0.3533333333333333,-0.7688888888888888,-0.00016007767195052452,0.0029337134677607027,0.5012682350956946
1589986443.6279562,-2.4148731373338705,-0.5970761175996778,8.821695529601289,0.37666666666666665,-0.3533333333333333,-0.7688888888888888,-0.01080199246074219,0.0037763920283284476,0.34194711419283585
1589986443.6379561,-2.4461547411285633,-0.578307155322862,8.896771378708552,0.37666666666666665,-0.3533333333333333,-0.7688888888888888,-0.010119533733840015,0.014013272931861102,0.26824157168740076
1589986443.6479561,-2.448109885567185,-0.5894599673049099,8.869189950957365,0.3033333333333333,-0.3944444444444444,-0.7833333333333333,0.00548360812685022,0.050443303924148426,0.11227028250667916
1589986443.6579561,-2.392941430692046,-0.5736975516262989,8.845546327439449,0.3033333333333333,-0.3944444444444444,-0.7833333333333333,0.006343314538286903,0.058180661627078585,0.014263751602897251
1589986443.667956,-2.431505509690678,-0.6207527548453389,8.745269283917372,0.3033333333333333,-0.3944444444444444,-0.7833333333333333,0.004363323129985824,0.061661313529679865,-0.14394361131499567
1589986443.677956,-2.446366793041137,-0.6281833965205683,8.79728377564398,0.3033333333333333,-0.3944444444444444,-0.7833333333333333,0.004363323129985824,0.06733521440080877,-0.24039992612418698
1589986443.687956,-2.45,-0.6684902222762056,8.848490222276205,0.3033333333333333,-0.3944444444444444,-0.7833333333333333,0.0064626390941866126,0.06767268131517634,-0.3867910332698885
1589986443.697956,-2.5177176490162636,-0.6615352938729671,8.926182355143297,0.2948686272063003,-0.4217196086315507,-0.7833333333333333,0.013931834301501887,0.06024465890825713,-0.5005642826124441
1589986443.707956,-2.611513811114771,-0.6645414333443133,8.859403322196602,0.2933333333333333,-0.4266666666666667,-0.7833333333333333,0.015271630954950384,0.0625076169548735,-0.6622499845934253
1589986443.717956,-2.6186921193232413,-0.69,8.805231522707036,0.2933333333333333,-0.4266666666666667,-0.7833333333333333,0.015699633905562584,0.06578569266933157,-0.7812634727656192
1589986443.727956,-2.6046648393233376,-0.692371182522961,8.84059279563074,0.2933333333333333,-0.4266666666666667,-0.7833333333333333,0.01880277919113611,0.07552597988095183,-0.8831063625115151
1589986443.737956,-2.527448605968867,-0.7266895084582813,8.84917237711457,0.2933333333333333,-0.4266666666666667,-0.7833333333333333,0.02254632782453549,0.0792695285143512,-0.9710797553964006
1589986443.747956,-2.584361455922575,-0.7910903639806438,9.035093362087101,0.1955555555555556,-0.44,-0.7411111111111112,0.020110715122620863,0.07707179633127889,-1.0826173637427663
1589986443.757956,-2.6402044962751288,-0.8060408992550258,8.913378318108988,0.1955555555555556,-0.44,-0.7411111111111112,0.029765180758085204,0.08923218871652826,-1.1764741615429968
1589986443.767956,-2.5016392738565223,-0.7783278547713045,8.657032656634566,0.1955555555555556,-0.44,-0.7411111111111112,0.03959000940793465,0.08772067661655142,-1.2414691818420005
1589986443.777956,-2.6149727704741754,-0.8771039578202504,8.815683166256202,0.1955555555555556,-0.44,-0.7411111111111112,0.02297899803011196,0.10012395551363737,-1.3720744966972291
1589986443.787956,-2.665893891567519,-0.9498484165250268,8.873878733220023,0.1955555555555556,-0.44,-0.7411111111111112,0.03488178225179383,0.097743398669301,-1.4371430504424234
1589986443.797956,-2.622811881188119,-0.97,8.89,0.2665111844517785,-0.39340227356068935,-0.6574470113678035,0.0423379147469136,0.10540161436125986,-1.550821523119638
1589986443.807956,-1.4001515768517263,-0.8711605809691869,7.293704357268902,0.27,-0.3911111111111111,-0.6533333333333333,0.014283116457333125,0.09329626283663008,-1.68059714909409
1589986443.817956,-1.8378849543890876,-1.1425872426363621,9.199753547039997,0.27,-0.3911111111111111,-0.6533333333333333,-0.07283704284571049,0.030193827900145572,-1.803786124801145
1589986443.827956,-2.218343117287648,-1.3220486402300229,9.51560560680484,0.27,-0.3911111111111111,-0.6533333333333333,-0.01019319748091034,0.09675291360024572,-1.8695621624341854
1589986443.837956,-2.0594354610819803,-1.0997849226035354,8.171720305190115,0.27,-0.3911111111111111,-0.6533333333333333,0.2118235212740914,0.19980677812575925,-1.947141749026609
1589986443.847956,-2.2567704174051926,-1.3683447926608363,8.597162501704291,0.3292034955818287,-0.358416643401743,-0.6312424767729494,0.13510891415533824,0.20983457281250156,-2.06556040006286
1589986443.857956,-2.564243053337592,-1.7363302459278187,9.632349089747684,0.34444444444444444,-0.35,-0.6255555555555555,0.0010147060536636627,0.09456381046135158,-2.276114585231065
1589986443.867956,-2.0953816671989776,-1.5279474076439903,8.285302885127221,0.34444444444444444,-0.35,-0.6255555555555555,0.03429944532617516,0.1262249039156918,-2.3678505739577433
1589986443.877956,-2.4430640681418385,-1.6381708483782365,8.879405764898312,0.34444444444444444,-0.35,-0.6255555555555555,0.09225167003192918,0.1825445038221177,-2.5135536728770145
1589986443.887956,-2.4624803258957506,-1.689947535722001,9.002375397339753,0.34444444444444444,-0.35,-0.6255555555555555,0.0823677392671314,0.164188632401779,-2.598273079432424
1589986443.897956,-2.6089698526429634,-1.675257536839259,8.99788630525889,0.4119992339236628,-0.3046417842068105,-0.6381014450302676,0.06432801073643786,0.16276435492081245,-2.7258292180701647
1589986443.907956,-2.4139156357736766,-1.7626075846684244,8.773915635773678,0.4222222222222222,-0.2977777777777777,-0.64,0.07396292840801046,0.15857365717202018,-2.809196715064556
1589986443.9179559,-2.503555155538055,-1.8927529954435507,8.772041964335939,0.4222222222222222,-0.2977777777777777,-0.64,0.0774539558724524,0.1785134113348755,-2.899956239163614
1589986443.9279559,-2.542878438431681,-2.144422005962761,9.015846318276425,0.4222222222222222,-0.2977777777777777,-0.64,0.06544334258668084,0.1622132933041855,-2.9419933856638143
1589986443.9379559,-2.4522671171972257,-2.1411335585986127,8.760693046416504,0.4222222222222222,-0.2977777777777777,-0.64,0.07193025089294446,0.18124961438055567,-2.957602188647171
1589986443.9479558,-2.4217819939002654,-2.2132914801758625,8.840146948152256,0.485786210022753,-0.2518704532551722,-0.6567738301140289,0.09911697135445091,0.1995923072263061,-2.942761858326948
1589986443.9579558,-2.4901037264694583,-2.172199171895676,8.946804968625946,0.5022222222222222,-0.24,-0.6611111111111111,0.06849376165988076,0.17805662478948725,-2.9143626417757287
1589986443.9679558,-2.4096693194291987,-2.1899586649286498,8.839421309001098,0.5022222222222222,-0.24,-0.6611111111111111,0.05786362999736015,0.17128297763605632,-2.8938929047402917
1589986443.9779558,-2.35211855104281,-2.1827648188803512,8.738707464324918,0.5022222222222222,-0.24,-0.6611111111111111,0.06649562558278718,0.17520661199306858,-2.8797678210550477
1589986443.9879558,-2.3048068292682924,-2.331159024390244,8.565636422764227,0.5022222222222222,-0.24,-0.6611111111111111,0.08721811130356874,0.1941195279882214,-2.8404452789686654
1589986443.9979558,-2.293069851908711,-2.422371332821598,8.886507404564432,0.5207026171323252,-0.1907189469063919,-0.6557209959289977,0.07693164098977977,0.1830770957879088,-2.8075197068974647
1589986444.0079558,-2.228921404682274,-2.4907704252269474,8.642311275680841,0.5288888888888889,-0.1688888888888889,-0.6533333333333333,0.07496477871311587,0.16877622600781106,-2.740518201286808
1589986444.0179558,-2.17882226469183,-2.5265555252201217,8.749666575660363,0.5288888888888889,-0.1688888888888889,-0.6533333333333333,0.0609120028072992,0.15472345010199443,-2.7061669712948118
1589986444.0279558,-1.9799782763653644,-2.859970130002376,8.800013577271647,0.5288888888888889,-0.1688888888888889,-0.6533333333333333,0.05890752814586255,0.15490048890049213,-2.6441675963589497
1589986444.0379558,-1.8660839754251384,-2.7033654662095654,8.871197515359288,0.5288888888888889,-0.1688888888888889,-0.6533333333333333,0.07288446170522034,0.16810092615099667,-2.611554751387115
1589986444.0479558,-1.7484035476718403,-2.7111751662971177,8.813614190687362,0.5755555555555556,-0.13666666666666666,-0.6466666666666666,0.07618400884051744,0.18186398529199782,-2.5558189420827273
1589986444.0579557,-1.7148900341583269,-2.945769760891712,8.679560136633308,0.5755555555555556,-0.13666666666666666,-0.6466666666666666,0.07252825162350228,0.1754664101622213,-2.5329704594763824
1589986444.0679557,-1.6903650415193618,-3.1763495848063803,8.875984543287018,0.5755555555555556,-0.13666666666666666,-0.6466666666666666,0.06556930650765015,0.16061095406901507,-2.5082181674855617
1589986444.0779557,-1.6110311842356992,-3.1405155921178496,8.619402907977808,0.5755555555555556,-0.13666666666666666,-0.6466666666666666,0.0714797600062967,0.17241195113999772,-2.492314478242614
1589986444.0879557,-1.59,-3.0409002878827534,8.647199685946088,0.5755555555555556,-0.13666666666666666,-0.6466666666666666,0.06866781203230504,0.1694387654289889,-2.4908357251113906
1589986444.0979557,-1.5604765893470791,-2.9628595360824743,8.783336125429553,0.6944444444444444,-0.15555555555555556,-0.6611111111111111,0.061865427604055764,0.16128699231035437,-2.516496454808986
1589986444.1079557,-1.5694849656357388,-3.016909793814433,8.846394759450172,0.6944444444444444,-0.15555555555555556,-0.6611111111111111,0.055969459110466996,0.15833900806356,-2.5567855728485087
1589986444.1179557,-1.492990788884345,-3.0739064477809586,8.557364997760512,0.6944444444444444,-0.15555555555555556,-0.6611111111111111,0.06319273152918448,0.1648907849036441,-2.586810341683525
1589986444.1279557,-1.476935699162294,-3.1662926907852342,8.64339247905735,0.6944444444444444,-0.15555555555555556,-0.6611111111111111,0.0669629817786604,0.17294964903744994,-2.617783453992164
1589986444.1379557,-1.3517924130663856,-3.162291886195996,8.62950052687039,0.6944444444444444,-0.15555555555555556,-0.6611111111111111,0.07503547934649199,0.1805597365364039,-2.6549592480835718
1589986444.1479557,-1.3222505634861008,-3.205127535687453,8.75925732531931,1.1075606686701729,-0.35156457133316643,-0.6706393271558561,0.06408569380368266,0.17615525938780358,-2.6838537084866942
1589986444.1579556,-1.337251879827158,-3.2835112789629477,8.743969922765471,1.3688888888888888,-0.4755555555555556,-0.6766666666666666,0.06433400102839115,0.18026183738086904,-2.709190612325526
1589986444.1679556,-1.2431691059525725,-3.275792276488143,8.712103861755928,1.3688888888888888,-0.4755555555555556,-0.6766666666666666,0.06631118201573544,0.18127908171083734,-2.716627639849272
1589986444.1779556,-1.1951967539427346,-3.335983769713673,8.659212984229063,1.3688888888888888,-0.4755555555555556,-0.6766666666666666,0.07290953609742906,0.1783293704124393,-2.7108906208335264
1589986444.1879556,-1.175054898943982,-3.401575168426697,8.797985640021446,1.3688888888888888,-0.4755555555555556,-0.6766666666666666,0.06801108823108501,0.17871244701706862,-2.687671155125335
1589986444.1979556,-0.9624324675887785,-3.192162337943893,8.87681090924858,0.8722222222222222,-0.12222222222222222,-0.7066666666666667,0.08383476562083123,0.1817441949931858,-2.6367030708612456
1589986444.2079556,-1.007898148549625,-3.419490742748125,9.00411481593895,0.8722222222222222,-0.12222222222222222,-0.7066666666666667,0.08085904376047598,0.1738089366989051,-2.599010593963412
1589986444.2179556,-0.9091903965544891,-3.3383549059586266,8.716735699067604,0.8722222222222222,-0.12222222222222222,-0.7066666666666667,0.051730383907655005,0.15244854359146282,-2.567277306230528
1589986444.2279556,-0.8577283514542745,-3.33,8.52795868057472,0.8722222222222222,-0.12222222222222222,-0.7066666666666667,0.07368003345796659,0.16590505313802725,-2.519200474446295
1589986444.2379556,-0.7553252238051333,-3.260720637658746,8.737117449365018,0.8722222222222222,-0.12222222222222222,-0.7066666666666667,0.060482662375117624,0.15723685142772684,-2.4632378125321335
1589986444.2479556,-0.722604173424154,-3.380520704941075,8.738645907665694,0.6774654557249433,0.07006926874977475,-0.700092598599248,0.06151830363326455,0.15432982860769148,-2.406202305893685
1589986444.2579556,-0.72,-3.4758434270644876,8.810855539541873,0.6088888888888889,0.13777777777777778,-0.6977777777777778,0.05635782874055905,0.15489797111449674,-2.322000151322514
1589986444.2679555,-0.6696692253415725,-3.5219423122153564,8.627065363809361,0.6088888888888889,0.13777777777777778,-0.6977777777777778,0.06295268434789329,0.15215285319928148,-2.2572712357153835
1589986444.2779555,-0.5658448601850931,-3.5385595581649913,8.684155139814907,0.6088888888888889,0.13777777777777778,-0.6977777777777778,0.057823095495631735,0.14508955809534818,-2.1815950773967057
1589986444.2879555,-0.5115254453738587,-3.5323050890747716,8.65383053444863,0.6088888888888889,0.13777777777777778,-0.6977777777777778,0.06595643096620372,0.1448290478601129,-2.1086387989449733
1589986444.2979555,-0.4944960993472377,-3.590542907180385,8.76108581436077,0.5721962178704736,0.1977091404411895,-0.7173472023209326,0.05491354350885518,0.13247246313477418,-2.0492057743235286
1589986444.3079555,-0.42476613380698636,-3.600859680284192,8.788242747187685,0.5422222222222223,0.2466666666666667,-0.7333333333333333,0.052172324416409524,0.12573100310483276,-1.9589279986097756
1589986444.3179555,-0.3844579179768515,-3.602168328092594,8.661326687629625,0.5422222222222223,0.2466666666666667,-0.7333333333333333,0.05551410595582159,0.12460446471710006,-1.884456865662949
1589986444.3279555,-0.363400882970254,-3.653198234059492,8.639797351089237,0.5422222222222223,0.2466666666666667,-0.7333333333333333,0.05574866097937666,0.11975880393049534,-1.7988626193675072
1589986444.3379555,-0.32639444931812744,-3.6941633304091237,8.727211101363745,0.5422222222222223,0.2466666666666667,-0.7333333333333333,0.052603254878365015,0.11368977869816656,-1.7136148106847604
1589986444.3479555,-0.2796245969599263,-3.757542607093505,8.783395900506678,0.5346757766518246,0.2508172117303854,-0.7261642100414555,0.0513304719561267,0.1090830782496456,-1.6294368974828726
1589986444.3579555,-0.1992118713932399,-3.8092118713932397,8.732896619950536,0.52,0.2588888888888889,-0.7122222222222222,0.05069516007316365,0.09929463007581639,-1.4732847599031713
1589986444.3679554,-0.13715569660117735,-3.632659705903728,8.675963080500981,0.52,0.2588888888888889,-0.7122222222222222,0.05004812175945748,0.09516246654795064,-1.3415411628197114
1589986444.3779554,-0.13637660190161224,-3.5717403885903263,8.625363786688714,0.52,0.2588888888888889,-0.7122222222222222,0.052264954087438184,0.09142438125618964,-1.2492409220894454
1589986444.3879554,4.149679267629077,-18.08538747159182,9.068451714093658,0.52,0.2588888888888889,-0.7122222222222222,0.04615068620166073,0.07484807988337819,-1.1279877799675284
1589986444.3979554,0.031879791566842286,-1.3114533421178756,-2.1065779228557737,0.41061465154661136,0.3314618604589256,-0.6449081616355214,-3.2462400503546607,0.9825016031686616,-4.68313490588496
1589986444.4079554,-0.24250418577564242,0.06906093033413409,-1.345388367183519,0.4044444444444445,0.33555555555555555,-0.6411111111111111,-3.98440002533011,0.7165736654191145,-3.135431964998177
1589986444.4179554,-0.2872238701797243,-0.21503053568312688,-0.2740795672657478,0.4044444444444445,0.33555555555555555,-0.6411111111111111,-4.560867236179969,0.47103809076652103,-0.8040227999473136
1589986444.4279554,-0.06768237082066869,-0.23860942249240122,-0.5413623534520191,0.4044444444444445,0.33555555555555555,-0.6411111111111111,-4.7067097212488544,0.6169767088358165,-0.3356540314575813
1589986444.4379554,-0.03540740142862908,-2.0280733685782315,4.243998143589329,0.4044444444444445,0.33555555555555555,-0.6411111111111111,-4.809925382143283,0.5439448233363149,-0.20223198858657127
1589986444.4479554,0.34833743059967404,-0.9575554512057014,4.0659975692622154,0.37911809027490057,0.45280719522937024,-0.608280652002443,-4.2192360834659235,-0.22317361907816824,-0.08360573296160295
1589986444.4579554,0.85478729519977,-2.164364041391204,8.822228370221328,0.3744444444444445,0.4744444444444445,-0.6022222222222222,-2.51230839743059,-2.046511581736588,-0.010717984661706342
1589986444.4679554,0.40155042731062096,-0.6051736022168923,3.486092727569104,0.3744444444444445,0.4744444444444445,-0.6022222222222222,-0.19098884026917595,-0.4554375881259094,0.28985987485211884
1589986444.4779553,0.40371362427147006,-0.7153156793859026,3.5345634912576407,0.3744444444444445,0.4744444444444445,-0.6022222222222222,1.4985716017264812,0.02431604761020484,0.4224242482117487
1589986444.4879553,0.5945313625403188,-1.1669868161463064,3.9302633639182036,0.3744444444444445,0.4744444444444445,-0.6022222222222222,2.3985881581375406,-0.23869251537767755,0.4489693893150943
1589986444.4979553,0.9900295159386069,-1.8041145218417947,4.749264069264069,0.3824017228562684,0.5010601687874415,-0.583014998469544,3.2750945004953116,-0.5145967385681691,0.44826491135760305
1589986444.5079553,1.3324875224595727,-2.6855340387302857,6.722681173887003,0.4066666666666667,0.5822222222222222,-0.5244444444444445,5.14038076071431,-0.12368222258923381,0.44296331848794845
1589986444.5179553,0.6993302821770768,-2.8500134997201276,7.347618122551118,0.4066666666666667,0.5822222222222222,-0.5244444444444445,6.660580037669075,-0.06128359959944521,0.43271958029013724
1589986444.5279553,-0.0014091564165298331,-0.9846499312933603,0.866927640178301,0.4066666666666667,0.5822222222222222,-0.5244444444444445,6.753606968703107,0.01226489082644975,0.5110194716361629
1589986444.5379553,-0.15746084063157234,0.1004765043789434,-1.3738936497473082,0.4066666666666667,0.5822222222222222,-0.5244444444444445,3.5474839497334565,0.13152716899419278,0.8257626346709803
1589986444.5479553,0.2082657725161097,0.1553974973774914,-0.5841192117488385,0.4048804885358909,0.5179198095142947,-0.5917238207036649,0.8365851894427097,0.11490708150206466,1.1534332390693642
1589986444.5579553,0.7158982423035258,-1.239536639060698,6.619625048048364,0.4033333333333333,0.4622222222222222,-0.65,-0.3206940724735363,-0.2204843196204262,1.3307957152912293
1589986444.5679553,1.180721588441953,-2.4345231516204158,11.23615994947302,0.4033333333333333,0.4622222222222222,-0.65,-1.6001768697925345,-0.1305272492284657,1.4810262669595073
1589986444.5779552,0.779538729329852,-1.5869538729329853,6.472610966057442,0.4033333333333333,0.4622222222222222,-0.65,-1.1771725547722807,-0.3162412426488093,1.5828495797231603
1589986444.5879552,0.4379438976377953,-2.532128937007874,9.93357283464567,0.4033333333333333,0.4622222222222222,-0.65,-0.010834547908864622,-0.20780380089174733,1.6819908497461737
1589986444.5979552,0.37632631074934164,-0.13840615274120172,0.06321941584869606,0.4087754369164472,0.39782399648870803,-0.6563491208469662,1.2604317266705511,0.18018333463814123,1.870527873019284
1589986444.6079552,-0.33930794809033393,-2.5739294785941906,6.804074954971599,0.41,0.38333333333333336,-0.6577777777777778,0.8008177036110423,0.10981854394001947,1.912707545396101
1589986444.6179552,-0.3688419596163317,-4.641587673835042,15.2963797753336,0.41,0.38333333333333336,-0.6577777777777778,-0.3467093376718843,-0.2355884439558357,1.8756402334153606
1589986444.6279552,-0.12028942891348635,-3.087654113545189,10.478393438491105,0.41,0.38333333333333336,-0.6577777777777778,-0.6680445115928021,-0.32557604407419916,1.9066136843914825
1589986444.6379552,-0.11605771951334529,-1.7009761388286333,5.476863151938131,0.41,0.38333333333333336,-0.6577777777777778,-0.0941089746570436,-0.08104009555383623,2.0567251753918026
1589986444.6479552,-0.2962691785611452,-2.167869894286537,6.445984739418369,0.4554230595203817,0.35746742443978263,-0.6735496734445771,0.2983594939028001,0.034518505757347336,2.175106596757597
1589986444.6579552,2.83039881366976,-6.366573348012672,8.251065450378592,0.49,0.3377777777777778,-0.6855555555555556,0.046126919438018554,-0.07544486860744867,2.205088802452259
1589986444.6679552,1.8289289206468595,-2.4876908612260245,4.632223392252726,0.49,0.3377777777777778,-0.6855555555555556,-0.46841881945064,-0.3393870348097576,1.2074254552529335
1589986444.6779552,-1.0290385401276287,-1.4049047499292697,9.283599541039264,0.49,0.3377777777777778,-0.6855555555555556,-0.4983384183811832,-0.21553053362173094,-1.492787455047299
1589986444.6879551,-0.43777654723127024,-3.023587622149837,13.674830618892509,0.49,0.3377777777777778,-0.6855555555555556,-0.0131566273231159,0.20440925245827649,-3.4975882286091386
1589986444.6979551,0.317681041761382,-0.5650305254270314,2.8691589270637134,0.5118406904663967,0.30753682174738217,-0.703196113239953,1.0149456729340656,0.6013927504713469,-3.13292852978001
1589986444.7079551,-1.6297800995230327,-2.214052156676509,10.094897895975718,0.5188888888888888,0.2977777777777777,-0.7088888888888889,0.3136385468757654,0.17160204525883438,-2.7216092432418937
1589986444.717955,-1.4705207107021896,-2.8926301776755476,11.836622896781554,0.5188888888888888,0.2977777777777777,-0.7088888888888889,-0.3078548391485545,0.04918492440733418,-2.4095069208709563
1589986444.727955,-0.479342225036609,-2.218036965211541,7.96216844104959,0.5188888888888888,0.2977777777777777,-0.7088888888888889,-0.16078483951358064,0.1483204777885282,-1.9681961651691795
1589986444.737955,-0.6054241076047595,-2.5511257113295396,9.0614975685463,0.5188888888888888,0.2977777777777777,-0.7088888888888889,0.19832788916328523,0.20056665992392672,-1.6087869212638277
1589986444.747955,-0.5249890178851585,-2.7241575149042987,9.30645497332915,0.47275710351079037,0.3552249067391835,-0.6949623121709724,-0.07802667749157458,0.04902529650699228,-1.3822401164296318
1589986444.757955,-0.36269647320188836,-2.566972736331411,8.484797523563715,0.46,0.3711111111111111,-0.6911111111111111,-0.0734077958033831,0.01872366837920657,-1.2143446270099494
1589986444.767955,2.187705995693075,-8.71404510937323,7.242112660092939,0.46,0.3711111111111111,-0.6911111111111111,0.08137328113326787,0.08662615741751666,-0.9742849776388234
1589986444.777955,-0.2941219101850647,-6.208676718001812,6.8214992882101715,0.46,0.3711111111111111,-0.6911111111111111,-0.02577393006625378,0.029894438527429734,-1.3132437957874956
1589986444.787955,-0.048140417457305684,-0.47326375711574986,10.356299810246679,0.46,0.3711111111111111,-0.6911111111111111,-0.15316340527819308,0.032983659428996254,-1.093345695970333
1589986444.797955,0.7700547331757681,0.4614037815648713,8.999662271426793,0.46540566129009964,0.38585382372047383,-0.6817740597918481,-0.0005566100099267113,0.07910572127548329,-0.08994964308150333
1589986444.807955,0.10329110512129375,-2.0810741239892185,6.484301886792453,0.4722222222222222,0.4044444444444445,-0.67,0.2367102798017309,0.08944812416470939,0.7581273938350369
1589986444.817955,0.8960260279139947,-3.9647001131648434,10.356818181818182,0.4722222222222222,0.4044444444444445,-0.67,0.060269738039622156,0.06688014789281176,0.21700887186112772
1589986444.827955,0.5980287644020659,-3.2897053635280096,8.84945633690902,0.4722222222222222,0.4044444444444445,-0.67,0.01622395179780209,0.15413580240280442,-0.42316735061752314
1589986444.837955,0.2683986940806094,-3.6066570795600295,8.11647712697734,0.4722222222222222,0.4044444444444445,-0.67,0.13458708266890368,0.2126346705743998,-0.46318072427830775
1589986444.847955,0.923386669284382,-3.984315303818592,8.628042603317954,0.446993990161753,0.39435315162025675,-0.6641134125192238,-0.10089055037026609,-0.06427667113227178,-0.07581022298776519
1589986444.857955,0.3737425039774813,-3.5587467874189205,8.74354913719251,0.4388888888888889,0.3911111111111111,-0.6622222222222223,0.010385387230785317,-0.005467904441254431,0.06553608813024171
1589986444.867955,-0.28421084552265435,-3.933100071352123,8.506179272208348,0.4388888888888889,0.3911111111111111,-0.6622222222222223,0.03119814954485797,0.006965983888879791,0.01702157181763774
1589986444.877955,-0.16564047872970739,-4.40535371489513,8.581453173756763,0.4388888888888889,0.3911111111111111,-0.6622222222222223,-0.010324308124132828,-0.013663542063520405,-0.01971212270410322
1589986444.887955,0.11609725993581832,-4.2972606953648675,8.609042781459468,0.4388888888888889,0.3911111111111111,-0.6622222222222223,-0.010953297370937679,-0.005499143458455397,0.00014940589093190553
1589986444.897955,0.08612206062253636,-4.273469484844366,8.65101875764578,0.4352608249135366,0.4034465286273088,-0.6716551885581381,-0.003650954434253294,0.001803199478228986,0.001803199478228986
1589986444.907955,0.10476256941317726,-4.336675971784481,8.71,0.43333333333333335,0.41,-0.6766666666666666,0.003481212168081403,0.0016621458330259293,0.002181661564992912
1589986444.917955,0.0941025833866055,-4.362307750159816,8.686153875079908,0.43333333333333335,0.41,-0.6766666666666666,0.01090830782496456,0.00195790035269952,0.002181661564992912
1589986444.927955,0.05460387287752333,-4.248415491510094,8.66143485589771,0.43333333333333335,0.41,-0.6766666666666666,0.008397284698213065,0.003358913879285227,0.002181661564992912
1589986444.937955,0.06749784997611084,-4.27749784997611,8.706251075011945,0.43333333333333335,0.41,-0.6766666666666666,-0.000680010254879241,0.0005458844536965065,0.002181661564992912
1589986444.947955,0.08,-4.283703452404709,8.684258631011774,0.4350823743320251,0.40825095900130826,-0.6745678174682366,-0.011251731221984397,-0.0018382381679730737,0.0011513913739333974
1589986444.957955,0.08,-4.29353996674272,8.62351753741444,0.4388888888888889,0.4044444444444445,-0.67,-0.010073279581818369,-0.0014118072867702303,-0.00012790126967513252
1589986444.9679549,0.08,-4.293202684885532,8.582718926045787,0.4388888888888889,0.4044444444444445,-0.67,0.001980597250319168,-0.0015620989680927913,-0.0002965888226075706
1589986444.9779549,0.08368412136146619,-4.27947297089173,8.622104728168797,0.4388888888888889,0.4044444444444445,-0.67,0.006028314282459161,-0.0006889554837424482,-0.0009760356687308885
1589986444.9879549,0.09,-4.32671969936431,8.661968180381415,0.4388888888888889,0.4044444444444445,-0.67,0.0031293622311192363,3.5782529092532926e-05,0.0011266133115889888
1589986444.9979548,0.08175217590471828,-4.295982592762254,8.682884791571233,0.4338485519417723,0.40673550669313385,-0.67,-0.0019905288236713847,0.0015406798030839202,0.0012819635238179835
1589986445.0079548,0.07991849965269739,-4.31561125260477,8.63,0.4266666666666667,0.41,-0.67,-0.0005676411631536896,0.002181661564992912,0.0010819404737342714
1589986445.0179548,0.08475329674617005,-4.2872203292844695,8.614259890238511,0.4266666666666667,0.41,-0.67,0.005043294272943924,0.0016093350234027096,0.002181661564992912
1589986445.0279548,0.07482655358587073,-4.273092089444578,8.651734464141292,0.4266666666666667,0.41,-0.67,0.007635815477475192,0.001090830782496456,0.0010529906449672887
1589986445.0379548,0.07333232668948393,-4.246658613515871,8.706664653378967,0.4266666666666667,0.41,-0.67,0.004000810947251614,0.0007273303294740983,-0.0003635004530223577
1589986445.0479548,0.07915476190476191,-4.299154761904762,8.718309523809525,0.4260092592592593,0.4089669312169312,-0.6705634920634921,-0.003733498213901561,9.220117328243855e-05,-0.0011830319557788946
1589986445.0579548,0.07338816836037655,-4.29,8.693223663279246,0.4188888888888889,0.3977777777777778,-0.6766666666666666,-0.009096238094349576,-0.000387536555015257,-0.0014424778962370554
1589986445.0679548,0.07293426394131472,-4.29471049070579,8.644671319706573,0.4188888888888889,0.3977777777777778,-0.6766666666666666,-0.008275972563706288,-0.0022448226949814895,-0.0002569174131269696
1589986445.0779548,0.06972685887708649,-4.295204855842185,8.569453717754172,0.4188888888888889,0.3977777777777778,-0.6766666666666666,0.0004932740109012805,0.0005528641598692204,-0.001090830782496456
1589986445.0879548,0.09400425311799529,-4.292012759353986,8.642034024943962,0.4188888888888889,0.3977777777777778,-0.6766666666666666,0.004800119386187491,0.001747185024806669,-0.001090830782496456
1589986445.0979548,0.09117438607398197,-4.307793596518495,8.694412806963008,0.4233016958518979,0.39924871343211416,-0.6783827582633923,0.0040100662107428,0.003641279279116084,-0.0008501494988732094
1589986445.1079547,0.06305131273315971,-4.306102625466319,8.699320405433943,0.4388888888888889,0.4044444444444445,-0.6844444444444444,-0.0019229472465849575,0.0012572540753141564,-0.0001664232928177003
1589986445.1179547,0.07527494908350306,-4.321099796334012,8.59274949083503,0.4388888888888889,0.4044444444444445,-0.6844444444444444,-0.0029370230029741643,0.001666238466135116,-0.00057540768363866
1589986445.1279547,0.08070820150888294,-4.3,8.572124604526648,0.4388888888888889,0.4044444444444445,-0.6844444444444444,0.004011039740262583,0.0016748725740496815,0.0011680835831064508
1589986445.1379547,0.07698946769143182,-4.273978935382863,8.652042129234273,0.4388888888888889,0.4044444444444445,-0.6844444444444444,0.005598832085722013,0.0017085852603645505,0.0017085852603645505
1589986445.1479547,0.06776975183794022,-4.26330925551382,8.723884875918971,0.4311191370509487,0.4096242790030713,-0.6844444444444444,0.0030920004584082824,0.00024328233477809505,-0.00018049188908108552
1589986445.1579547,0.08,-4.2895960192674725,8.70399004816868,0.4188888888888889,0.4177777777777778,-0.6844444444444444,-0.004583660439274053,-0.0016582799046735066,-0.0004793141984617596
1589986445.1679547,0.07503350583072999,-4.30979896501562,8.61543557579949,0.4188888888888889,0.4177777777777778,-0.6844444444444444,-0.007650435154096541,-0.001639901092900021,0.001090830782496456
1589986445.1779547,0.07356530517958283,-4.325738779281669,8.567826525897914,0.4188888888888889,0.4177777777777778,-0.6844444444444444,-0.003120667129152478,-0.00031300185471985536,0.0007019163186081556
1589986445.1879547,0.07913750596468905,-4.3,8.60862494035311,0.4188888888888889,0.4177777777777778,-0.6844444444444444,0.0015612483042148457,0.0008085802694654221,0.0
1589986445.1979547,0.07079827421663751,-4.3,8.692017257833625,0.4188888888888889,0.4177777777777778,-0.6844444444444444,0.006109593650788017,-0.0019204269384784812,0.0
1589986445.2079546,0.0722341942317093,-4.315531611536581,8.698829028841454,0.43333333333333335,0.4177777777777778,-0.6844444444444444,0.0006034052140915503,0.0013345435666989088,0.002425374349195365
1589986445.2179546,0.08,-4.30449029221416,8.643535595214749,0.43333333333333335,0.4177777777777778,-0.6844444444444444,-0.0012541024148167727,0.002018389932672595,0.0029459490828487346
1589986445.2279546,0.08,-4.310635790278397,8.56613684143467,0.43333333333333335,0.4177777777777778,-0.6844444444444444,-0.0007734564954568104,0.0017949333172645068,3.467698034437987e-05
1589986445.2379546,0.08,-4.270555201630884,8.599537331974263,0.43333333333333335,0.4177777777777778,-0.6844444444444444,0.002141286163028814,0.003252304646507319,-0.0021513800135198394
1589986445.2479546,0.06759163235785023,-4.290366529431401,8.702041838210748,0.4317277549052335,0.4145666209215781,-0.6809656911835614,0.0046660174445946655,0.0005254243119250761,0.00030269431460884185
1589986445.2579546,0.06488017700769734,-4.272200442519243,8.735119822992303,0.4266666666666667,0.4044444444444445,-0.67,0.0011169721041873711,0.0016493168345901414,-0.0013831444693887562
1589986445.2679546,0.08,-4.313217378647842,8.678174077578051,0.4266666666666667,0.4044444444444445,-0.67,-0.003585507832198161,0.00035096156680131227,0.0007398692156951437
1589986445.2779546,0.0818029617600433,-4.321802961760044,8.593605923520087,0.4266666666666667,0.4044444444444445,-0.67,-0.006348312076226813,0.00010746768873684293,0.00019667261875192259
1589986445.2879546,0.09,-4.318284762227494,8.617810158515004,0.4266666666666667,0.4044444444444445,-0.67,-0.00289828551517922,-0.0026594108651171178,0.0006648527162792794
1589986445.2979546,0.09,-4.3,8.65143232,0.4324499911111111,0.4044444444444445,-0.6764637155555556,0.0020927893994813606,0.0,0.0
1589986445.3079545,0.09,-4.304168758487305,8.712506275461914,0.4455555555555555,0.4044444444444445,-0.6911111111111111,0.004363323129985824,0.0,0.00045474100827457085
1589986445.3179545,0.08636863603598793,-4.31,8.67552954053982,0.4455555555555555,0.4044444444444445,-0.6911111111111111,0.0019866009733501945,0.00039612035943927155,0.00029859006361791286
1589986445.3279545,0.07549780963759459,-4.314502190362405,8.58900438072481,0.4455555555555555,0.4044444444444445,-0.6911111111111111,-0.0011994359977987713,0.0030552819168847374,-0.0015819435660935264
1589986445.3379545,0.07,-4.310198127334661,8.613069163553785,0.4455555555555555,0.4044444444444445,-0.6911111111111111,0.0,0.0033157170265897557,-0.0007560369743978958
1589986445.3479545,0.07034881355932204,-4.289651186440678,8.6431393220339,0.44462538606403007,0.40421190207156316,-0.6908785687382297,0.00015219862714425128,-0.001090830782496456,0.0021436119082068493
1589986445.3579545,0.0777456115396844,-4.28,8.72549122307937,0.4188888888888889,0.3977777777777778,-0.6844444444444444,0.0038714918643424144,-0.0008449151496747512,0.0005989995168530464
1589986445.3679545,0.07072691979450794,-4.28,8.711453839589018,0.4188888888888889,0.3977777777777778,-0.6844444444444444,0.0023402508626439635,-7.92946488255258e-05,-0.0009322414848454044
1589986445.3779545,0.06825708181382842,-4.3,8.6,0.4188888888888889,0.3977777777777778,-0.6844444444444444,-0.006925230456748506,-0.0012809536633813412,0.002512000823949827
1589986445.3879545,0.06053191881239179,-4.3,8.6,0.4188888888888889,0.3977777777777778,-0.6844444444444444,-0.008610599577102463,-0.002123638223558319,-0.0008587374167580855
1589986445.3979545,0.06865673848753698,-4.324626953950148,8.652686523024926,0.421575411913815,0.39867328545275316,-0.6844444444444444,-0.0033376334252696272,-0.0006512494804752288,0.00029305420134748475
1589986445.4079545,0.06,-4.290350902790443,8.67105270837133,0.4388888888888889,0.4044444444444445,-0.6844444444444444,0.0033107699040373015,0.002181661564992912,0.002181661564992912
1589986445.4179544,0.06,-4.29725490891047,8.66705890692564,0.4388888888888889,0.4044444444444445,-0.6844444444444444,0.0034649941716209994,0.0015827755927496955,0.0012833326066280875
1589986445.4279544,0.06,-4.291072076236532,8.581786793727554,0.4388888888888889,0.4044444444444445,-0.6844444444444444,0.001090830782496456,7.79635839994978e-05,-0.0010128671984969582
1589986445.4379544,0.06,-4.3169340695702525,8.636131860859495,0.4388888888888889,0.4044444444444445,-0.6844444444444444,0.00042194852454427174,0.0015127793070407276,0.0007563896535203638
1589986445.4479544,0.06503937951067588,-4.307480310244662,8.655039379510676,0.43748906124703446,0.41088365159697476,-0.6900437550118621,-0.0005411197530037371,0.0,0.0002748555147463594
1589986445.4579544,0.08,-4.2959850421281836,8.665985042128183,0.43333333333333335,0.43,-0.7066666666666667,0.0019667587098972836,0.0,0.001090830782496456
1589986445.4679544,0.07600733566668265,-4.29,8.64402934266673,0.43333333333333335,0.43,-0.7066666666666667,0.001965895999801891,0.0008710642317916514,0.001090830782496456
1589986445.4779544,0.07,-4.297049834025763,8.62,0.43333333333333335,0.43,-0.7066666666666667,-0.001538035193358539,0.0014126439683136425,0.0007063219841568212
1589986445.4879544,0.06612351678757028,-4.308061758393785,8.625814724818644,0.43333333333333335,0.43,-0.7066666666666667,-0.003940464408390915,0.00021142936079745432,0.00021142936079745432
1589986445.4979544,0.05124510029974637,-4.300622550149873,8.64813234955038,0.43333333333333335,0.43,-0.7066666666666667,-0.002317480938418802,0.0010229210957835109,0.0010229210957835109
1589986445.5079544,0.08036557733186947,-4.320365577331869,8.67321147422271,0.4455555555555555,0.41,-0.6844444444444444,0.00031043919323400044,0.00031043919323400044,0.0003503174939326141
1589986445.5179543,0.06536504102286451,-4.3,8.655857315397109,0.4455555555555555,0.41,-0.6844444444444444,0.004150345132053901,0.0029798747526345237,0.0005055955927867668
1589986445.5279543,0.08,-4.293608805937431,8.60704318416685,0.4455555555555555,0.41,-0.6844444444444444,0.004685861702883188,0.002646442313016799,-0.001090830782496456
1589986445.5379543,0.07367218667670306,-4.282655626646593,8.666836093338352,0.4455555555555555,0.41,-0.6844444444444444,-0.002181661564992912,0.002982808418197121,-5.544474865492883e-05
1589986445.5479543,0.0611388939587516,-4.306583318123745,8.662277787917503,0.4441635740504147,0.4093672811340269,-0.6852037070836121,-0.0018089593885312646,0.0002484681176410982,0.002057427506172363
1589986445.5579543,0.06964470402141511,-4.281065887935755,8.67928940804283,0.433767583973826,0.40464183109921387,-0.6908742471253878,0.0009745604453951732,0.0021041480069253896,0.0011295875615302171
1589986445.5679543,0.08274925353758275,-4.287583084512527,8.67066467610022,0.43333333333333335,0.4044444444444445,-0.6911111111111111,0.0019180169837501784,0.0005272891624854672,0.0024815586037611674
1589986445.5779543,0.06233042321173569,-4.2807768077372454,8.616214461897961,0.43333333333333335,0.4044444444444445,-0.6911111111111111,0.0011755673616833076,0.0020121884066192086,0.00025420973756055433
1589986445.5879543,0.07,-4.30465713083719,8.64,0.43333333333333335,0.4044444444444445,-0.6911111111111111,-0.0021068591175604666,0.00032880953119844786,0.001090830782496456
1589986445.5979543,0.06939301266496029,-4.3193930126649605,8.64182096200512,0.4329286751099735,0.4052537608911641,-0.6902343516271648,-0.005387941865517598,-0.002049237471063548,0.001090830782496456
1589986445.6079543,0.07011031765574981,-4.306629894114749,8.66662989411475,0.4266666666666667,0.4177777777777778,-0.6766666666666666,-0.0017899724620536526,0.0007352430479806204,0.0003555877345158356
1589986445.6179543,0.09,-4.296510941783208,8.628598476048879,0.4266666666666667,0.4177777777777778,-0.6766666666666666,0.003272492347489368,0.001039869933553456,5.096084894299995e-05
1589986445.6279542,0.08469158878504673,-4.2873457943925235,8.583271028037384,0.4266666666666667,0.4177777777777778,-0.6766666666666666,0.003851550183431412,-0.000511772946554412,0.001602603729050868
1589986445.6379542,0.070797237915882,-4.280797237915882,8.623986189579409,0.4266666666666667,0.4177777777777778,-0.6766666666666666,0.005019328082673586,0.0010038656165347172,0.0
1589986445.6479542,0.07869305286465542,-4.291960420703017,8.67,0.4266666666666667,0.41647083064243323,-0.6766666666666666,0.00014256581663294398,7.128290831647199e-05,7.128290831647199e-05
1589986445.6579542,0.05779783393501805,-4.311191335740072,8.678808664259927,0.4266666666666667,0.3977777777777778,-0.6766666666666666,0.0019414425118077718,0.0013310498356815961,0.0008506117293113158
1589986445.6679542,0.05910400373526322,-4.286069335823509,8.676618652970703,0.4266666666666667,0.3977777777777778,-0.6766666666666666,0.001090830782496456,0.0018506306477133175,0.0003310309172795945
1589986445.6779542,0.07727049328163045,-4.294540986563261,8.613647533591848,0.4266666666666667,0.3977777777777778,-0.6766666666666666,0.0007930877875536163,0.0013885737774392956,0.0007930877875536163
1589986445.6879542,0.07376656175933481,-4.28753312351867,8.65753312351867,0.4266666666666667,0.3977777777777778,-0.6766666666666666,-0.0010271703778141044,0.0015653593383044492,0.0
1589986445.6979542,0.08984487517051042,-4.319896583447007,8.690103416552992,0.4266264491182805,0.39784097678238467,-0.6767413563993838,-0.00545415391248228,-0.001090830782496456,-5.640497971224893e-06
1589986445.7079542,0.06417590656196977,-4.302087953280985,8.691208420471137,0.4188888888888889,0.41,-0.6911111111111111,-0.004543112427957165,-0.0015463515247590134,-0.001090830782496456
1589986445.7179542,0.08077806203353279,-4.309610968983233,8.618054844916168,0.4188888888888889,0.41,-0.6911111111111111,-0.001005957380809521,-0.003272492347489368,-0.0010483940816529886
1589986445.7279541,0.09851407065987272,-4.3007429646700635,8.573714823350318,0.4188888888888889,0.41,-0.6911111111111111,0.0009287410360139076,-0.003272492347489368,-8.104487324127416e-05
1589986445.7379541,0.07775956284153006,-4.29224043715847,8.64568306010929,0.4188888888888889,0.41,-0.6911111111111111,0.0033857480025026613,-0.0002443937818707907,-0.0004887875637415814
1589986445.7479541,0.07011967213114755,-4.299880327868852,8.699162295081967,0.4188888888888889,0.41,-0.6911111111111111,5.221681778507653e-05,-0.0010777765780501868,-0.0021555531561003737
1589986445.7579541,0.07,-4.302862346484211,8.691412960547364,0.4266666666666667,0.41,-0.6911111111111111,-0.0009367006965445436,0.0001541300859519124,-0.001090830782496456
1589986445.767954,0.07610673335535319,-4.306946633322323,8.645573066578587,0.4266666666666667,0.41,-0.6911111111111111,-0.0022732804388118,-0.0018485909287670559,-0.0007577601462705999
1589986445.777954,0.08728730792603524,-4.297287307926035,8.611701536591719,0.4266666666666667,0.41,-0.6911111111111111,0.0005918176035429812,-0.001090830782496456,0.0
1589986445.787954,0.08,-4.293224886284789,8.671612443142395,0.4266666666666667,0.41,-0.6911111111111111,0.0016539907805681172,-0.0007390502595465928,-0.00035178052294986315
1589986445.797954,0.08,-4.309392876416621,8.67969643820831,0.4266666666666667,0.41,-0.6911111111111111,-0.0009914904184671653,0.0010246038731435948,-0.0021154346556400507
1589986445.807954,0.062348542819038455,-4.327651457180962,8.68882572859048,0.4266666666666667,0.41686445557037394,-0.6597307427894017,-0.003016306067387553,-0.0008346445023946407,-0.00025618628010181527
1589986445.817954,0.052594689246563846,-4.297784067739691,8.666647796780925,0.4266666666666667,0.4177777777777778,-0.6555555555555556,-0.0013325514946435993,-0.0008077940923800185,-0.0005660733802328751
1589986445.827954,0.06788776212981214,-4.314741491913459,8.610517016173082,0.4266666666666667,0.4177777777777778,-0.6555555555555556,0.001090830782496456,0.00028680712454029646,-0.001608047315912319
1589986445.837954,0.08792528199958152,-4.3,8.644149436000838,0.4266666666666667,0.4177777777777778,-0.6555555555555556,0.0017697806604532484,0.0008645141565108585,-0.0002263166259855975
1589986445.847954,0.08008430276476809,-4.299915697235232,8.660337211059073,0.42654489600644613,0.4177777777777778,-0.6556773262157761,0.004326539109642387,-2.758801525757769e-05,-0.0011092227926681744
1589986445.857954,0.09,-4.294380819813766,8.69342877027935,0.4122222222222222,0.4177777777777778,-0.67,0.0,-0.003272492347489368,-0.003033555692218053
1589986445.867954,0.09,-4.31,8.653816998863988,0.4122222222222222,0.4177777777777778,-0.67,0.00017652915792336533,-0.0029194340316426376,-0.002181661564992912
1589986445.877954,0.09,-4.31,8.58162346380254,0.4122222222222222,0.4177777777777778,-0.67,0.0009640384613460107,-0.0013444154247973465,-0.002181661564992912
1589986445.887954,0.07646831764756908,-4.307645545098379,8.618240592155672,0.4122222222222222,0.4177777777777778,-0.67,0.00025683118826874386,0.0019248303767241681,-0.0030156611592206243
1589986445.897954,0.05827731274667129,-4.295518208497781,8.660686270257766,0.4122222222222222,0.4177777777777778,-0.67,0.0015797183956316229,0.0006019431693612891,-0.0016927739518577448
1589986445.907954,0.07651022538369351,-4.281163258205436,8.724183708972824,0.43578686700772756,0.40599545538502513,-0.6827641825921487,-0.0016740944216006616,0.0,-0.00012689178584806258
1589986445.917954,0.07159698704923753,-4.298403012950763,8.682433142458386,0.4388888888888889,0.4044444444444445,-0.6844444444444444,-0.0016590487752259687,0.0005226127897669431,-0.0003484085265112955
1589986445.927954,0.08,-4.29,8.590200601202405,0.4388888888888889,0.4044444444444445,-0.6844444444444444,0.001090830782496456,0.003184963560853781,-0.0021160149750162212
1589986445.937954,0.08,-4.29,8.598606012024048,0.4388888888888889,0.4044444444444445,-0.6844444444444444,0.001090830782496456,-0.0004825887846571491,0.0006346492841169762
1589986445.947954,0.0887043164572708,-4.298704316457271,8.660930215200896,0.4388888888888889,0.4044444444444445,-0.6844444444444444,0.002040324415714605,-0.002040324415714605,-0.0008081564839398424
1589986445.957954,0.06682236897450997,-4.284548245983006,8.685451754016993,0.45004848901227296,0.4087365983380537,-0.6895950291167756,0.0013388991187279309,0.0003466257738020304,-0.000248068336231475
1589986445.967954,0.07957703153037683,-4.309788515765188,8.638731094591131,0.4533333333333333,0.41,-0.6911111111111111,-4.613870266903748e-05,-6.920805400355624e-05,0.0
1589986445.977954,0.0616572673673417,-4.300828633683671,8.584971802102025,0.4533333333333333,0.41,-0.6911111111111111,-0.0020008817390805922,-0.0030013226086208888,0.0
1589986445.987954,0.06361593196806664,-4.284821242624089,8.6108477959042,0.4533333333333333,0.41,-0.6911111111111111,-0.0028780553576713596,0.001090830782496456,-0.0017872245751749032
1589986445.997954,0.08545366192294342,-4.313938215897259,8.676360985768829,0.4533333333333333,0.41,-0.6911111111111111,-0.0004959285522089059,0.001090830782496456,0.0005949022302875503
1589986446.007954,0.07171454075209999,-4.2834290815042,8.711714540752101,0.4266666666666667,0.4044444444444445,-0.6844444444444444,0.0018076067989458563,-0.0036152135978917126,-0.002181661564992912
