time,acc_x,acc_y,acc_z,mag_x,mag_y,mag_z,gyr_x,gyr_y,gyr_z
1589986452.4542165,-3.67,-0.45,8.96,0.2788888888888889,-0.3944444444444444,-0.6377777777777778,-0.01963495408493621,0.04908738521234052,0.003272492347489368
1589986452.4642165,-3.709228395061728,-0.4107716049382716,8.950192901234567,0.2788888888888889,-0.3944444444444444,-0.6377777777777778,-0.02070474260696784,0.05122696225640379,0.005412069391552633
1589986452.4742165,-3.7176329614435017,-0.44053184577400734,8.965265922887005,0.2788888888888889,-0.3944444444444444,-0.6377777777777778,-0.02072578486743266,0.05293430063816949,0.00545415391248228
1589986452.4842165,-3.739516493346752,-0.43048350665324836,8.948065973387006,0.27111111111111114,-0.4011111111111111,-0.6222222222222222,-0.02391916362378626,0.047785584853482006,0.002234403959083426
1589986452.4942164,-3.7207563457452757,-0.4492436542547244,8.873025382981101,0.27111111111111114,-0.4011111111111111,-0.6222222222222222,-0.020849541650606193,0.03959992625833517,0.004280818607870135
1589986452.5042164,-3.729932416990434,-0.4400225276698554,8.810157693688987,0.27111111111111114,-0.4011111111111111,-0.6222222222222222,-0.01744592035722245,0.026177481392341325,0.00546398346277674
1589986452.5142164,-3.709391589669921,-0.4468694701100265,8.858086290770185,0.27111111111111114,-0.4011111111111111,-0.6222222222222222,-0.015205263683306445,0.025430595834369324,0.008451525694664746
1589986452.5242164,-3.687770734851741,-0.4683438977223893,8.90445853029652,0.27111111111111114,-0.4011111111111111,-0.6222222222222222,-0.014180800172453925,0.0210870903361087,0.010484479986019734
1589986452.5342164,-3.708196576635744,-0.4856393153271488,8.982032468598637,0.27549724525444913,-0.4054972452544491,-0.6259817657736548,-0.013565646297348122,0.022235046553074563,0.007832538449435548
1589986452.5442164,-3.7228948091183742,-0.4615792364734963,9.03,0.2788888888888889,-0.4088888888888889,-0.6288888888888889,-0.009989745018281194,0.022763939718661277,0.003904041726644141
1589986452.5542164,-3.712573575037674,-0.44257357503767397,8.97058860030139,0.2788888888888889,-0.4088888888888889,-0.6288888888888889,-0.00224586789772739,0.01857622646880699,0.0008422004616477712
1589986452.5642164,-3.7224341498411397,-0.4524341498411397,8.943782925079429,0.2788888888888889,-0.4088888888888889,-0.6288888888888889,0.0,0.014740581839765576,0.0006781776700444298
1589986452.5742164,-3.736697844188434,-0.46,8.953395688376869,0.2788888888888889,-0.4088888888888889,-0.6288888888888889,-0.0007306214617108691,0.008706240619692256,0.0003602093207855869
1589986452.5842164,-3.730870192741378,-0.4417403854827555,8.91435096370689,0.2920763882624543,-0.4088888888888889,-0.622802350716474,-9.492330289998332e-05,0.0025613547765928456,0.0009959074795964726
1589986452.5942163,-3.6976860376109397,-0.4642354717917951,8.92615698119453,0.2933333333333333,-0.4088888888888889,-0.6222222222222222,0.002643679865881464,-0.0013432449228490402,0.0028532840264174327
1589986452.6042163,-3.7032887053126333,-0.4567112946873665,8.856912120780516,0.2933333333333333,-0.4088888888888889,-0.6222222222222222,-0.0003514398561468429,-0.003631234446447396,0.0003733465845803994
1589986452.6142163,-3.71,-0.45,8.903892103721066,0.2933333333333333,-0.4088888888888889,-0.6222222222222222,-0.0011648605744670807,-0.0013129201584083298,-7.402979197062469e-05
1589986452.6242163,-3.716283108171645,-0.4562831081716453,8.953981757201518,0.2933333333333333,-0.4088888888888889,-0.6222222222222222,-0.001776211562835028,-0.000405450002157884,-0.0013707615606771439
1589986452.6342163,-3.726647337709701,-0.4533526622902991,8.999942013129102,0.2962877056487559,-0.4088888888888889,-0.6266537806953563,0.000718786673163602,0.001450224119078257,-6.325386375526359e-06
1589986452.6442163,-3.7423905188884476,-0.45,8.991414221667329,0.2977777777777777,-0.4088888888888889,-0.6288888888888889,0.0028574595357240273,0.0008300656235306818,-0.0009365631296968889
1589986452.6542163,-3.75,-0.4675602300607328,8.918539194787435,0.2977777777777777,-0.4088888888888889,-0.6288888888888889,0.00806130222198111,-0.004788809874491741,-0.002181661564992912
1589986452.6642163,-3.7281870164816686,-0.47727099450611055,8.91727099450611,0.2977777777777777,-0.4088888888888889,-0.6288888888888889,0.007933503797308847,-0.008626723763133483,-0.0013885191023301113
1589986452.6742163,-3.707447946557701,-0.46117191983655104,8.9451041068846,0.2977777777777777,-0.4088888888888889,-0.6288888888888889,0.007635815477475192,-0.013925126925988308,-0.00040622246857642183
1589986452.6842163,-3.7053387438249823,-0.45,8.949322512350035,0.2912526464361327,-0.4088888888888889,-0.621177370030581,0.004141615814983016,-0.014032995295785387,-0.0005823666104153626
1589986452.6942163,-3.71,-0.45,8.94,0.2855555555555556,-0.4088888888888889,-0.6144444444444445,0.00025167055242436977,-0.011159978377388928,-0.001090830782496456
1589986452.7042162,-3.701989926110014,-0.441989926110014,8.867909334990125,0.2855555555555556,-0.4088888888888889,-0.6144444444444445,-0.0008737635169267882,-0.007413253757257406,-0.002838357816350033
1589986452.7142162,-3.7063596914175507,-0.4463596914175506,8.913596914175505,0.2855555555555556,-0.4088888888888889,-0.6144444444444445,0.0002966386505920931,-0.007932454128067284,-0.00049755348131227
1589986452.7242162,-3.7163225983280803,-0.46896779498424007,8.96896779498424,0.2855555555555556,-0.4088888888888889,-0.6144444444444445,0.0038495847351485866,-0.010106023236297713,-0.00028854619382960947
1589986452.7342162,-3.72,-0.4554276854164872,8.996381543055675,0.28009504120366385,-0.41252923179015,-0.6089839300925527,0.011708475912954824,-0.018056104396933184,-0.001090830782496456
1589986452.7442162,-3.72,-0.45,8.956968831116566,0.2788888888888889,-0.4133333333333333,-0.6077777777777778,0.01465462684411924,-0.022764268993259743,-0.0003085020554155722
1589986452.7542162,-3.6969349102638325,-0.42693491026383257,8.878493094036886,0.2788888888888889,-0.4133333333333333,-0.6077777777777778,0.016110301284458863,-0.020643595896888106,0.0
1589986452.7642162,-3.6602037735849056,-0.40510188679245285,8.882347169811322,0.2788888888888889,-0.4133333333333333,-0.6077777777777778,0.009861933542283053,-0.010696727816586003,0.0008125660243954733
1589986452.7742162,-3.6623887792672756,-0.41858316890091335,8.908583168900913,0.2788888888888889,-0.4133333333333333,-0.6077777777777778,-0.00047262159190366096,0.006553949393937799,0.002442236960726265
1589986452.7842162,-3.6874031907722267,-0.4125968092277732,8.937403190772226,0.2914578600021638,-0.4133333333333333,-0.6319488760725372,-0.016844515637284233,0.025712795869352177,0.004221689157889531
1589986452.7942162,-3.69600240245862,-0.42800720737585995,8.94,0.2933333333333333,-0.4133333333333333,-0.6355555555555555,-0.021817925987837297,0.03709217761860404,0.004363323129985824
1589986452.8042161,-3.71992835334826,-0.4665711377976796,8.906786077752901,0.2933333333333333,-0.4133333333333333,-0.6355555555555555,-0.019650584959572427,0.040010154420400235,0.004363323129985824
1589986452.8142161,-3.736285277275186,-0.4737147227248139,8.933996940926303,0.2933333333333333,-0.4133333333333333,-0.6355555555555555,-0.011282735984474731,0.02995166867341787,0.0016208535586664618
1589986452.8242161,-3.7287070644929767,-0.47,8.96,0.2933333333333333,-0.4133333333333333,-0.6355555555555555,-0.0033242768909422394,0.016466030824352582,0.0018478022513712653
1589986452.834216,-3.7050612000598537,-0.44759180008978006,8.967469399970074,0.2734149334131378,-0.4100136000133007,-0.6214466889454171,0.003259140565653634,0.008187906759641287,0.004087277488902776
1589986452.844216,-3.70808552250338,-0.44,8.994256567510142,0.26666666666666666,-0.4088888888888889,-0.6166666666666667,0.0025993357621348087,0.010281796529251715,0.0034813294460603163
1589986452.854216,-3.716581528995182,-0.4136738840192721,8.914440123062633,0.26666666666666666,-0.4088888888888889,-0.6166666666666667,0.0007457946802254169,0.01378004159449955,0.003272492347489368
1589986452.864216,-3.7124580589039393,-0.4150838821921213,8.922793587672423,0.26666666666666666,-0.4088888888888889,-0.6166666666666667,-0.008226981507358011,0.017739725407157785,0.003272492347489368
1589986452.874216,-3.722716639886402,-0.4263583199432009,8.952716639886402,0.26666666666666666,-0.4088888888888889,-0.6166666666666667,-0.013682648272566435,0.01923770841434022,0.004659662571290305
1589986452.884216,-3.7369798240432743,-0.4579192961730966,8.973959648086549,0.2751975627195573,-0.4034601368552312,-0.6050336265945431,-0.01755577303179408,0.02039633477721744,0.00773829598932598
1589986452.894216,-3.74,-0.4570987370148716,8.954197474029742,0.2788888888888889,-0.4011111111111111,-0.6,-0.01713681382271373,0.01650385642825461,0.010133955739697664
1589986452.904216,-3.74,-0.45,8.883709128956317,0.2788888888888889,-0.4011111111111111,-0.6,-0.0125247233056976,0.011110609427054538,0.014746046256713795
1589986452.914216,-3.714405095438696,-0.43720254771934774,8.872797452280652,0.2788888888888889,-0.4011111111111111,-0.6,-0.009512322336438065,0.00842149155394161,0.018456439970236584
1589986452.924216,-3.6958607409954443,-0.39274666895899596,8.92139259004556,0.2788888888888889,-0.4011111111111111,-0.6,-0.008726646259971648,0.00402363056635893,0.0277623701349478
1589986452.934216,-3.68638414437641,-0.34,8.99807927811795,0.28129945930461564,-0.40553049020661003,-0.608035234719089,-0.007148931612261659,-0.0022741167682789475,0.04991948204191484
1589986452.944216,-3.6546565326497085,-0.3298626130598834,9.035068693470057,0.2855555555555556,-0.4133333333333333,-0.6222222222222222,-0.004363323129985824,-0.008786592621328533,0.08862705200831893
1589986452.954216,-3.647718023255814,-0.2786579457364341,8.975033914728682,0.2855555555555556,-0.4133333333333333,-0.6222222222222222,-0.004363323129985824,-0.0143784604014528,0.14020452275453238
1589986452.964216,-3.5991853905727127,-0.1663799120374797,8.93760182617841,0.2855555555555556,-0.4133333333333333,-0.6222222222222222,-0.004363323129985824,-0.02356393695354843,0.22057992858215825
1589986452.974216,-3.548873151508057,-0.4325923758242616,9.039605915174217,0.2855555555555556,-0.4133333333333333,-0.6222222222222222,-0.001646993170216663,-0.029575351229626394,0.28235322072303043
1589986452.984216,-3.8817876351695633,-0.5716231670724112,8.837758308328143,0.26849918536551615,-0.4012517377820553,-0.6222222222222222,0.010465657673034347,-0.035122645250075336,0.2787035594504652
1589986452.994216,-3.7472540397350995,-0.5267851655629139,8.875718675496689,0.2588888888888889,-0.3944444444444444,-0.6222222222222222,-0.011493339878538688,-0.012608905790831616,0.21199659097056922
1589986453.004216,-3.7878330983736204,-0.4797986796410274,8.90702781693773,0.2588888888888889,-0.3944444444444444,-0.6222222222222222,-0.017755546753026118,0.0026899445257947798,0.1604786941042934
1589986453.014216,-3.7986246094529017,-0.35862460945290164,8.924265771455161,0.2588888888888889,-0.3944444444444444,-0.6222222222222222,-0.012624645908518944,0.0018739839069371747,0.12186790797778393
1589986453.024216,-3.5887866038015095,-0.2163234454616572,8.93772057424361,0.2588888888888889,-0.3944444444444444,-0.6222222222222222,-0.011826693383435687,0.003424895455735908,0.12014378918285666
1589986453.034216,-2.8870466850546532,-0.14580447441005212,9.188085606292777,0.2803960227466204,-0.40609414195071564,-0.632975789151088,-0.029805677994348204,0.04546610337162263,0.13139290230118153
1589986453.044216,-2.430748432601881,-0.19014890282131663,8.982539184952978,0.2855555555555556,-0.4088888888888889,-0.6355555555555555,0.006300488140281252,0.015337029508916668,0.1403752177186897
1589986453.054216,-2.5912850949862682,-0.19209696089334755,8.843066569826822,0.2855555555555556,-0.4088888888888889,-0.6355555555555555,-0.0013367808266036701,0.009359991144037148,0.17801569072234036
1589986453.064216,-1.8036355868063185,-0.7409353255694717,9.027598818330526,0.2855555555555556,-0.4088888888888889,-0.6355555555555555,0.006739586626854554,0.008946495575372616,0.24249472701640618
1589986453.074216,-1.5333043302647302,-0.8970087009205809,8.875895588953028,0.2855555555555556,-0.4088888888888889,-0.6355555555555555,0.03702944502632153,0.02851716843004687,0.2724250331498533
1589986453.0842159,-1.5435442201834864,-0.7850634862385321,8.52367119266055,0.274317879714577,-0.4088888888888889,-0.6229958002038736,0.04678146901436159,0.025461951957351403,0.28211093718264546
1589986453.0942159,-1.6898180655248383,-0.6926787956316774,8.70481178783787,0.26666666666666666,-0.4088888888888889,-0.6144444444444445,-0.014237598932549798,-0.02125066949667171,0.27315593552066686
1589986453.1042159,-1.837382626445906,-0.6647334996597868,8.87684962576548,0.26666666666666666,-0.4088888888888889,-0.6144444444444445,-0.022102126814138895,-0.027614422081551245,0.26776988642541494
1589986453.1142159,-1.929019584212112,-0.5919608315757758,8.844705935522748,0.26666666666666666,-0.4088888888888889,-0.6144444444444445,0.005304415285032629,-0.00896193573185752,0.26457993814144426
1589986453.1242158,-1.9521665338793055,-0.5517501991810416,8.856499601637918,0.26666666666666666,-0.4088888888888889,-0.6144444444444445,0.003136247136083084,-0.010571888666997254,0.25004583820871823
1589986453.1342158,-1.9765216010165183,-0.5358695997458705,8.954347204574333,0.27446853381335595,-0.4107246223351687,-0.6231641783142736,-0.00417360589573652,-0.01752441482556826,0.2316119106751217
1589986453.1442158,-2.0192242885429206,-0.53,9.02155142291416,0.2855555555555556,-0.4133333333333333,-0.6355555555555555,-0.00021154248392940903,-0.014434651153169217,0.20872945592789602
1589986453.1542158,-2.049615255150128,-0.53,8.936731351824426,0.2855555555555556,-0.4133333333333333,-0.6355555555555555,0.00545415391248228,-0.008160246292441047,0.18384713959531102
1589986453.1642158,-2.0857693796948813,-0.53,8.911474483079068,0.2855555555555556,-0.4133333333333333,-0.6355555555555555,0.004048652281631506,-0.005915642998270101,0.15346442365232957
1589986453.1742158,-2.0762907630522087,-0.5190726907630522,8.901754417670682,0.2855555555555556,-0.4133333333333333,-0.6355555555555555,0.0027776538292689375,-0.000989677036440861,0.1133124569974032
1589986453.1842158,-2.04,-0.5038786613525653,8.863878661352565,0.27399302699929007,-0.4058516972086909,-0.6328349606011401,-6.61799658641174e-05,-0.000667734462670697,0.07596107497956722
1589986453.1942158,-2.0471596391354687,-0.5,8.867159639135469,0.26666666666666666,-0.4011111111111111,-0.6311111111111111,-0.005305643469207241,-0.001090830782496456,0.035933343722919064
1589986453.2042158,-2.0914746923905323,-0.4930875512682446,8.821612858877712,0.26666666666666666,-0.4011111111111111,-0.6311111111111111,-0.006544984694978735,0.0019252939611144862,-0.007334232996399143
1589986453.2142158,-2.0963508654168863,-0.47635086541688637,8.916017643956467,0.26666666666666666,-0.4011111111111111,-0.6311111111111111,-0.0035672054634392904,0.0010391579238347836,-0.0530832975810933
1589986453.2242157,-2.075475266567688,-0.4748415778107707,8.97,0.26666666666666666,-0.4011111111111111,-0.6311111111111111,0.0009871437021113662,0.0036969394782883245,-0.08981314538451021
1589986453.2342157,-2.06,-0.47491341894491923,8.980173162110162,0.25649350455650516,-0.4141101515852064,-0.6237638273648833,0.008802202484022142,0.011519834912256971,-0.14285397710012201
1589986453.2442157,-2.06,-0.49029585281650134,8.956173578639165,0.2466666666666667,-0.4266666666666667,-0.6166666666666667,0.011614013322673668,0.016747587022234188,-0.21184922470224818
1589986453.2542157,-2.076779744852744,-0.505593248284248,8.895254013726015,0.2466666666666667,-0.4266666666666667,-0.6166666666666667,0.013348822786005868,0.019893807480984602,-0.2672537215646079
1589986453.2642157,-2.0781366298358477,-0.492204944753772,8.88965842541038,0.2466666666666667,-0.4266666666666667,-0.6166666666666667,0.015918677422910733,0.025698894457691218,-0.33508497660212094
1589986453.2742157,-2.0487894255675756,-0.4906052872162121,8.888789425567575,0.2466666666666667,-0.4266666666666667,-0.6166666666666667,0.018097747800345884,0.029518457720173884,-0.40264582792313447
1589986453.2842157,-2.042747593227841,-0.5159344915348014,8.88274759322784,0.25693556121131644,-0.42418796798347536,-0.6255191619637785,0.015115677278842672,0.03575781207077793,-0.46284854198100206
1589986453.2942157,-2.073471470220741,-0.5534714702207414,8.903057059558517,0.2788888888888889,-0.4188888888888889,-0.6444444444444445,0.00640085055680839,0.045391009016425836,-0.5279365430300275
1589986453.3042157,-2.103583803120259,-0.5632080984398704,8.853020246099675,0.2788888888888889,-0.4188888888888889,-0.6444444444444445,0.013130952413007083,0.04114260350476599,-0.6175520699164405
1589986453.3142157,-2.124533927768007,-0.5418008916520104,8.844597325043969,0.2788888888888889,-0.4188888888888889,-0.6444444444444445,0.018943932482445098,0.048992619594850136,-0.6914317627178453
1589986453.3242157,-2.1289865116918305,-0.5342398837688729,8.95271965130662,0.2788888888888889,-0.4188888888888889,-0.6444444444444445,0.022389669647283637,0.05195265519911311,-0.7859970676835051
1589986453.3342156,-2.1545199118995177,-0.55,9.018079647598071,0.2874265002546448,-0.4143689769893711,-0.6404267449782064,0.024281845167012157,0.054017844246506595,-0.8695658977531316
1589986453.3442156,-2.1540294834060694,-0.5798525829696539,8.986265350654623,0.2977777777777777,-0.4088888888888889,-0.6355555555555555,0.029875898877637638,0.064554669338951,-0.9675374273976245
1589986453.3542156,-2.18567774761003,-0.5940537087316616,8.896483378584955,0.2977777777777777,-0.4088888888888889,-0.6355555555555555,0.03228273244811656,0.07087470729337694,-1.0493820002549772
1589986453.3642156,-2.1956263501060267,-0.6091648665252978,8.874373649893974,0.2977777777777777,-0.4088888888888889,-0.6355555555555555,0.03377020479230521,0.07569886572079139,-1.1207795449807112
1589986453.3742156,-2.191487676056338,-0.6453169014084508,8.901487676056338,0.2977777777777777,-0.4088888888888889,-0.6355555555555555,0.03490658503988659,0.08104603847206504,-1.1954065018613846
1589986453.3842156,-2.213594139919112,-0.6879706995955598,8.92,0.3073621508954096,-0.4104862844084942,-0.6383509977148648,0.03412246534781326,0.08665304041887023,-1.2753546043985122
1589986453.3942156,-2.2288178589548453,-0.7420446473871132,8.915591070522577,0.3244444444444444,-0.4133333333333333,-0.6433333333333333,0.034167742272442264,0.08992906376389224,-1.356972462695132
1589986453.4042156,-2.2508536810004296,-0.7808536810004298,8.828597392496777,0.3244444444444444,-0.4133333333333333,-0.6433333333333333,0.03954927462398277,0.09586674314960543,-1.43869946291192
1589986453.4142156,-2.241442098286147,-0.8178368525707793,8.778557901713853,0.3244444444444444,-0.4133333333333333,-0.6433333333333333,0.043554577039762496,0.10238078503447538,-1.5055172933482388
1589986453.4242156,-2.253518019973947,-0.8709487624837169,8.854466782457663,0.3244444444444444,-0.4133333333333333,-0.6433333333333333,0.0451810931818036,0.10517678621910867,-1.5700333610005217
1589986453.4342155,-2.322665538607012,-0.9264431283748475,8.933777589767836,0.32990096299798444,-0.40158083183340104,-0.6492095840832994,0.04787524846605038,0.10704679926287576,-1.6282214408697515
1589986453.4442155,-2.34022995214194,-0.974942511964515,8.94,0.3388888888888889,-0.38222222222222224,-0.6588888888888889,0.053964768874208424,0.11285708918527058,-1.6910133086952202
1589986453.4542155,-2.3159846643282487,-0.9920460070152541,8.887800636267231,0.3388888888888889,-0.38222222222222224,-0.6588888888888889,0.055847190339255205,0.11890891960352201,-1.740611566803147
1589986453.4642155,-2.3183270669252387,-1.0349812007757153,8.820408833656549,0.3388888888888889,-0.38222222222222224,-0.6588888888888889,0.054087368078324885,0.1230813897325989,-1.782591784579695
1589986453.4742155,-2.3541928208264844,-1.134192820826484,8.868385641652969,0.3388888888888889,-0.38222222222222224,-0.6588888888888889,0.05235987755982988,0.1260790049672868,-1.840263305485576
1589986453.4842155,-2.36,-1.1713115309093372,8.90739758954567,0.3541097719698167,-0.36874086863625766,-0.6728051248485942,0.05193293278779246,0.12587248475912988,-1.884153145743392
1589986453.4942155,-2.3822216040797404,-1.2588878071395457,8.883335187760778,0.37777777777777777,-0.3477777777777778,-0.6944444444444444,0.053087047509830655,0.13017237223458333,-1.9354967104062553
1589986453.5042155,-2.3836052707373274,-1.3227894585253457,8.79174563172043,0.37777777777777777,-0.3477777777777778,-0.6944444444444444,0.0533492807681282,0.13367748464291493,-1.9797047601500373
1589986453.5142155,-2.364740301232314,-1.3552596987676861,8.770519397535372,0.37777777777777777,-0.3477777777777778,-0.6944444444444444,0.054081109956565045,0.1353196745115542,-2.0247375661347866
1589986453.5242155,-2.3730008392524513,-1.390335291589053,8.814668904673203,0.37777777777777777,-0.3477777777777778,-0.6944444444444444,0.05705054147280546,0.1391901909430294,-2.066871056807493
1589986453.5342155,-2.377813975347675,-1.448279036978488,8.872186024652326,0.3980878188649866,-0.34202326613640194,-0.698844953346673,0.06023415133551034,0.14389579931756202,-2.1071679429860968
1589986453.5442154,-2.343767086927671,-1.511815195753152,8.9,0.4444444444444444,-0.3288888888888889,-0.7088888888888889,0.06462799607357869,0.1478710882155054,-2.1555788382727776
1589986453.5542154,-2.325793275909975,-1.564206724090025,8.84110586273965,0.4444444444444444,-0.3288888888888889,-0.7088888888888889,0.06809039092786714,0.15346100841935484,-2.2063887802550424
1589986453.5642154,-2.32,-1.6138787739771197,8.785595951486654,0.4444444444444444,-0.3288888888888889,-0.7088888888888889,0.0667279927409248,0.15598880189699318,-2.2496831228436016
1589986453.5742154,-2.299142285834561,-1.7066861713323511,8.842514628499263,0.4444444444444444,-0.3288888888888889,-0.7088888888888889,0.062358095918227524,0.15826402556341052,-2.296037204499868
1589986453.5842154,-2.265435416199596,-1.748258335201614,8.850870832399192,0.45965972377912295,-0.3020085620642902,-0.7195395844231638,0.06258028037543098,0.16243879351322846,-2.339615909593145
1589986453.5942154,-2.254720953830543,-1.8069533231862,8.84,0.4777777777777778,-0.27,-0.7322222222222222,0.06263145234813175,0.16650389040640032,-2.3823185315044606
1589986453.6042154,-2.235668140461139,-1.8650807541930061,8.797004421383418,0.4777777777777778,-0.27,-0.7322222222222222,0.06069568298091642,0.17025129380360604,-2.413116310014297
1589986453.6142154,-2.201143144703094,-1.9277137105938118,8.73328528294536,0.4777777777777778,-0.27,-0.7322222222222222,0.06072029281685371,0.17404199645338686,-2.445128098931967
1589986453.6242154,-2.178210449330347,-2.003684082217245,8.793684082217245,0.4777777777777778,-0.27,-0.7322222222222222,0.0644623468338171,0.18267394237221615,-2.481169183396098
1589986453.6342154,-2.1973826393015496,-2.035637732169249,8.82563773216925,0.4777777777777778,-0.27,-0.7322222222222222,0.06725082883227812,0.18894802686875342,-2.497900075386864
1589986453.6442153,-2.156239008935246,-2.1950439642590154,8.773673062546724,0.4844444444444445,-0.2111111111111111,-0.7377777777777778,0.07022343056238595,0.19007486597165427,-2.537301174626995
1589986453.6542153,-2.1230222742740974,-2.241582180580722,8.713813364564459,0.4844444444444445,-0.2111111111111111,-0.7377777777777778,0.06796118749591351,0.18871372537188688,-2.564228989943086
1589986453.6642153,-2.1071519094574906,-2.295759547287452,8.728607637829962,0.4844444444444445,-0.2111111111111111,-0.7377777777777778,0.06427961850130864,0.1918343345678301,-2.5818514911979835
1589986453.6742153,-2.1028205296491977,-2.3613214977192922,8.782642995438584,0.4844444444444445,-0.2111111111111111,-0.7377777777777778,0.062177354602297986,0.19787283074921944,-2.5995745417499863
1589986453.6842153,-2.0075739477215597,-2.4051478954431196,8.8,0.49616040959215096,-0.2016732502976809,-0.7507955168307849,0.05994083090208757,0.20007385720785917,-2.618555426272937
1589986453.6942153,-2.0427720837487535,-2.504455832502493,8.792772083748755,0.5244444444444445,-0.17888888888888888,-0.7822222222222223,0.05532998247883938,0.19971386744537983,-2.629388241741995
1589986453.7042153,-1.9897388653234358,-2.5740522269353128,8.719477730646872,0.5244444444444445,-0.17888888888888888,-0.7822222222222223,0.05536862715184821,0.207286334048684,-2.639190177621154
1589986453.7142153,-1.9405621847705745,-2.6026774511009965,8.682677451100997,0.5244444444444445,-0.17888888888888888,-0.7822222222222223,0.047704489821884466,0.21088373047509495,-2.642376207082355
1589986453.7242153,-1.8741867725845187,-2.6536876039164974,8.707874376501016,0.5244444444444445,-0.17888888888888888,-0.7822222222222223,0.046162697196554574,0.21323019255062037,-2.635672006998419
1589986453.7342153,-1.8211869402562069,-2.6776261194875866,8.667062313418736,0.5316254560875352,-0.17888888888888888,-0.7822222222222223,0.05075761808374489,0.21534359114386428,-2.62415690908973
1589986453.7442153,-1.8,-2.7763410497566134,8.670243827228475,0.5488888888888889,-0.17888888888888888,-0.7822222222222223,0.04131858261164958,0.20821569233360732,-2.6112893087486566
1589986453.7542152,-1.7953857629014964,-2.8530711854925177,8.675385762901497,0.5488888888888889,-0.17888888888888888,-0.7822222222222223,0.03650075100886152,0.20088118479842684,-2.5973538808043597
1589986453.7642152,-1.7808925204274042,-2.9073224387177876,8.638123821495915,0.5488888888888889,-0.17888888888888888,-0.7822222222222223,0.0395719263720658,0.1955507866937314,-2.5741361042144093
1589986453.7742152,-1.7864353641673958,-2.9728707283347915,8.638349183057256,0.5488888888888889,-0.17888888888888888,-0.7822222222222223,0.04194479381218397,0.18810177413572043,-2.547943253594026
1589986453.7842152,-1.8219431667466208,-3.0438863334932416,8.721200722408781,0.5488888888888889,-0.17888888888888888,-0.7822222222222223,0.04065369367644311,0.17970962325340487,-2.5285767515579134
1589986453.7942152,-1.7126711970726607,-3.0680135912179822,8.688510193413487,0.5255555555555556,-0.18444444444444444,-0.8177777777777778,0.04541516867325156,0.1669512806181089,-2.4671809626667542
1589986453.8042152,-1.6694227911213386,-3.1046289371494318,8.719752624766288,0.5255555555555556,-0.18444444444444444,-0.8177777777777778,0.0425064212480604,0.16196588415741034,-2.407797574153781
1589986453.8142152,-1.5360649697334285,-3.0120487273000713,8.705983757566642,0.5255555555555556,-0.18444444444444444,-0.8177777777777778,0.04253797108078963,0.16187663046053075,-2.3601440711358497
1589986453.8242152,-1.4447012663581045,-2.9752594976857836,8.678286070060851,0.5255555555555556,-0.18444444444444444,-0.8177777777777778,0.05242077115142849,0.15708819263723123,-2.313664929611595
1589986453.8342152,-1.474076796160192,-3.1111151942402877,8.585662779361032,0.5191036906488009,-0.17447338049764177,-0.7935344066130028,0.057893794485131586,0.13486019336276792,-2.258249539504856
1589986453.8442152,-1.5369881505924705,-3.2054822258887055,8.923811309434528,0.49026931986733996,-0.12991117110811123,-0.6851870739796344,0.033874819790985645,0.1623104501560776,-2.2007755643438642
1589986453.8542151,-1.4364001095976202,-3.238159934241428,8.716319868482856,0.4888888888888889,-0.12777777777777774,-0.68,0.05693267367474321,0.1375494150870172,-2.1028775627581817
1589986453.8642151,-1.388554050794307,-3.2436486439918673,8.738743237189427,0.4888888888888889,-0.12777777777777774,-0.68,0.04617162411423574,0.13127706218330198,-2.03718544658238
1589986453.8742151,-1.3390049945637403,-3.1840133188366404,8.6450083242729,0.4888888888888889,-0.12777777777777774,-0.68,0.04734169274542133,0.12468032397218305,-1.9494104340546592
1589986453.884215,-1.36,-3.2426182327317985,8.688145612943373,0.4894060706630713,-0.12406053377584177,-0.6787070455645441,0.04559275573132784,0.11749238574744109,-1.8913656654499618
1589986453.894215,-1.2432910659696472,-3.167221749905034,8.505449414829153,0.5066666666666667,0.0,-0.6355555555555555,0.05794558310349904,0.13001817760689832,-1.7828942178746665
1589986453.904215,-1.0167233348858873,-2.8734466697717744,7.700340009315324,0.5066666666666667,0.0,-0.6355555555555555,0.09468037759081285,0.16706960019734554,-1.7061332683139088
1589986453.914215,-1.2143019098605117,-3.290630754126299,9.168490450697442,0.5066666666666667,0.0,-0.6355555555555555,0.003655939079398547,0.051640126867172176,-1.646766387243497
1589986453.924215,-1.1740333955610869,-3.2460500933416307,9.27908162207011,0.5066666666666667,0.0,-0.6355555555555555,-0.035925972175925205,0.03532693162486539,-1.5867293347208562
1589986453.934215,-1.074534552670175,-3.071142840709746,8.673216576079142,0.508804915691293,0.02993548634476941,-0.6312790575063028,0.08014640213029421,0.11204792450723927,-1.4629699641572946
1589986453.944215,-0.9321769911504425,-2.92987610619469,8.715380530973452,0.5133333333333333,0.09333333333333334,-0.6222222222222222,0.019640746106790175,0.057698191035232896,-1.3784625877642824
1589986453.954215,-1.0239155797960635,-3.2348944747450794,8.745413089874319,0.5133333333333333,0.09333333333333334,-0.6222222222222222,0.04017436390404335,0.07353997262486713,-1.2828086708937556
1589986453.964215,-1.0004946457002029,-3.2537807245207304,8.6144864888443,0.5133333333333333,0.09333333333333334,-0.6222222222222222,0.05333901065800494,0.08667293036788463,-1.1940088002924172
1589986453.974215,-1.0205295302725055,-3.3536863535150037,9.02217919626763,0.5133333333333333,0.09333333333333334,-0.6222222222222222,0.013834223419546243,0.05540131873871413,-1.1272392001322757
1589986453.984215,-0.9927936383783079,-3.334595228783731,8.575222265675922,0.5155352771621837,0.10774605657671751,-0.6208209852402266,0.03159427616011994,0.0643590161672909,-1.0534888477002098
1589986453.994215,-0.9615494347915153,-3.3111620760936367,8.684576978229696,0.525082117147037,0.17023446375030263,-0.6147457234316835,0.050339452636002674,0.0643590161672909,-0.9861766230822673
1589986454.004215,-0.9136378466557912,-3.2627297444263186,8.60364328439369,0.5255555555555556,0.17333333333333334,-0.6144444444444445,0.04100550951276782,0.046558722011806324,-0.893586748542143
1589986454.014215,-0.9538863832645619,-3.3298106387742696,8.791469788567955,0.5255555555555556,0.17333333333333334,-0.6144444444444445,0.04612768282581745,0.048753939145970454,-0.839438059232761
1589986454.024215,-0.93,-3.349483594990298,8.664309843005821,0.5255555555555556,0.17333333333333334,-0.6144444444444445,0.030750161856783694,0.04545742401916712,-0.7452995971282954
1589986454.034215,-0.920785745970723,-3.3915357090048794,8.649214254029276,0.5247023838861781,0.1794761693528513,-0.6144444444444445,0.030628973499109494,0.03826478897658469,-0.6804446933873793
1589986454.044215,-0.8845200671448191,-3.434848161147566,8.73775217457653,0.52,0.21333333333333332,-0.6144444444444445,0.025089107997418484,0.03145780857845495,-0.6057225361997786
1589986454.054215,-0.9006549274019153,-3.498236793327155,8.762292245906703,0.52,0.21333333333333332,-0.6144444444444445,0.025352885505913726,0.027834045327917365,-0.5418873776029851
1589986454.064215,-0.8508848516533786,-3.446327277480068,8.560884851653379,0.52,0.21333333333333332,-0.6144444444444445,0.024695747374113335,0.024992585655273656,-0.47197272447128935
1589986454.074215,-0.8818280215187432,-3.486343956962514,8.637528559487322,0.52,0.21333333333333332,-0.6144444444444445,0.02072578486743266,0.021417803221186926,-0.4099759269564023
1589986454.084215,-0.8811449698255852,-3.454819948272432,8.814579879302341,0.5229516767248049,0.2167066781616818,-0.6171150091002203,0.021277747124243324,0.018255048442909556,-0.3358580374287846
1589986454.094215,-0.8236689479997177,-3.3610068439991534,8.66906159599238,0.5433333333333333,0.24,-0.6355555555555555,0.019886246154706255,0.009527086543465837,-0.23563615051361123
1589986454.104215,-0.8429965397923875,-3.389747404844291,8.752273356401384,0.5433333333333333,0.24,-0.6355555555555555,0.01090830782496456,0.007718477048882362,-0.152015007267885
1589986454.114215,-0.8578057930156421,-3.400244634412514,8.609021462349945,0.5433333333333333,0.24,-0.6355555555555555,0.00878001720949721,-0.0007714235060374739,-0.06928273426729514
1589986454.124215,-0.8236726496268577,-3.373672649626858,8.728163675186572,0.5433333333333333,0.24,-0.6355555555555555,0.0011801017484177636,-0.007546544511553883,0.015223709211942254
1589986454.1342149,-0.8423360123539114,-3.391168006176956,8.722336012353912,0.5461235703116165,0.24025955692821238,-0.6360097801799273,-0.0033361972020878347,-0.012062843462059481,0.08729877443702484
1589986454.1442149,-0.8717769276664444,-3.4058884638332225,8.751776927666445,0.5812891080460308,0.24353076974071602,-0.6417344026018086,-0.0041390736192823884,-0.012865719879254035,0.14269724722344906
1589986454.1542149,-0.8505474413263475,-3.394926971937128,8.696715352041915,0.5911111111111111,0.24444444444444444,-0.6433333333333333,-0.00253996107522725,-0.022967163017464633,0.21903004077129018
1589986454.1642148,-0.8580732792650542,-3.462659513385488,8.651560324409676,0.5911111111111111,0.24444444444444444,-0.6433333333333333,-0.007465610487799796,-0.02378810458622672,0.2608980607781568
1589986454.1742148,-0.8023601915762784,-3.3188199042118605,8.712360191576279,0.5911111111111111,0.24444444444444444,-0.6433333333333333,-0.01097267206556439,-0.03285365195609335,0.3256535739647437
1589986454.1842148,-0.8319016762924355,-3.304049161853782,8.741901676292436,0.5911111111111111,0.24444444444444444,-0.6433333333333333,-0.011778291087790212,-0.034464890000544986,0.360295191920454
1589986454.1942148,-0.8464493761206044,-3.3123670825862637,8.712487284569505,0.8355555555555556,0.3688888888888889,-0.7377777777777778,-0.0070034058423669235,-0.03285402780238407,0.4173691045557855
1589986454.2042148,-0.8234282264261407,-3.3277145157159063,8.858287899301109,0.8355555555555556,0.3688888888888889,-0.7377777777777778,-0.0170482773364389,-0.03369110042689007,0.45001493691151945
1589986454.2142148,-0.8037095599708728,-3.2903224799750337,8.53556433995631,0.8355555555555556,0.3688888888888889,-0.7377777777777778,-0.011128221489427072,-0.03838140249766319,0.5124441145403373
1589986454.2242148,-0.92,-3.392331277003766,8.708134978396988,0.8355555555555556,0.3688888888888889,-0.7377777777777778,-0.02295830700679026,-0.04457148035926064,0.5509257488677634
1589986454.2342148,-0.921004906307265,-3.4385931311698292,8.671607850091624,0.8486863313038168,0.36145258221512877,-0.7552854787754593,-0.024020200869591817,-0.04153926435354448,0.597758697104381
1589986454.2442148,-0.9878384412421352,-3.392298051552669,8.747770194844733,1.4888888888888892,-0.0011111111111111113,-1.6088888888888888,-0.02362970393601783,-0.046301360885318034,0.6613239108386261
1589986454.2542148,-1.05,-3.4596119156358296,8.685462557088105,1.4888888888888892,-0.0011111111111111113,-1.6088888888888888,-0.017694250137769204,-0.05082946497874588,0.7130614598327829
1589986454.2642148,-1.0569340905836873,-3.448490908223166,8.583161361141602,1.4888888888888892,-0.0011111111111111113,-1.6088888888888888,-0.015019500306373553,-0.05814847030907813,0.7635200638953678
1589986454.2742147,-1.08,-3.487354139979038,8.743015604984278,1.4888888888888892,-0.0011111111111111113,-1.6088888888888888,-0.014180800172453925,-0.057279223321117324,0.8230445286750772
1589986454.2842147,-1.08,-3.389619538293867,8.670570692559199,1.4850842718275594,-0.001148100443651816,-1.6047883571672334,-0.014196363397726836,-0.0643745793925638,0.8773755278249123
1589986454.2942147,-1.0826604781109885,-3.317981434332965,8.774037131334069,0.6888888888888889,-0.008888888888888889,-0.7466666666666667,-0.019194571371717824,-0.0693727873665548,0.9689774657819705
1589986454.3042147,-1.1009800979863569,-3.346588058791814,8.705843784430014,0.6888888888888889,-0.008888888888888889,-0.7466666666666667,-0.02399827721492203,-0.07513468752002665,1.0332345898725952
1589986454.3142147,-1.1362442211273414,-3.3681221105636707,8.625633668308987,0.6888888888888889,-0.008888888888888889,-0.7466666666666667,-0.024612815095903906,-0.079359200181054,1.0838195909354573
1589986454.3242147,-1.1185583115475357,-3.349908180832749,8.663696040298413,0.6888888888888889,-0.008888888888888889,-0.7466666666666667,-0.027663929098090876,-0.08282450756259477,1.1165589616683675
1589986454.3342147,-1.105186188866926,-3.256303322068482,8.790731205764203,0.6888888888888889,-0.008888888888888889,-0.7466666666666667,-0.031310609859922865,-0.08209517141022836,1.1326043570204285
1589986454.3442147,-1.1193248786362098,-3.3745990290896772,8.78202536409137,0.5761604301776657,0.15751978825625007,-0.703722491919534,-0.029562897602235832,-0.09235239492942703,1.1525294490411508
1589986454.3542147,-1.0969801091752038,-3.3339602183504073,8.764653406116802,0.5722222222222222,0.16333333333333333,-0.7022222222222222,-0.027778377425977947,-0.08769845540791968,1.1655635398594517
1589986454.3642147,-1.15,-3.448298359548031,8.746880325838058,0.5722222222222222,0.16333333333333333,-0.7022222222222222,-0.028547220523482738,-0.09652707910645991,1.1660052963994243
1589986454.3742146,-1.15,-3.401063478358797,8.660283043657795,0.5722222222222222,0.16333333333333333,-0.7022222222222222,-0.03369974676436065,-0.0810695003838262,1.163429033278985
1589986454.3842146,-1.1210282930935989,-3.2547987011034607,8.765544063261071,0.5722222222222222,0.16333333333333333,-0.7022222222222222,-0.029639380087391982,-0.0879833954622376,1.133329266407252
1589986454.3942146,-1.05962649812932,-3.215500856073897,8.778624785981526,0.5808470082037479,0.17962459574288192,-0.7280965801667993,-0.021925885494530582,-0.08083074774933921,1.0918271694546249
1589986454.4042146,-1.0858303306727481,-3.3519434435575826,8.771131128848348,0.5822222222222222,0.18222222222222226,-0.7322222222222222,-0.02378628040925647,-0.07463133357525878,1.0106914624474077
1589986454.4142146,-1.1114524415949412,-3.3643573247848235,8.618714649569647,0.5822222222222222,0.18222222222222226,-0.7322222222222222,-0.021956825631501538,-0.07056890044338002,0.9485418658043744
1589986454.4242146,-1.1143196381454958,-3.3836884868283286,8.67441805922017,0.5822222222222222,0.18222222222222226,-0.7322222222222222,-0.01643130966596475,-0.061901962888226345,0.8829792060988255
1589986454.4342146,-1.0352713908782512,-3.2958571009758346,8.735900029316916,0.5822222222222222,0.18222222222222226,-0.7322222222222222,-0.017389401459536994,-0.058069595713937376,0.8139965969616241
1589986454.4442146,-1.153836625376632,-3.458490123870104,8.69836625376632,0.5366666666666666,0.07111111111111111,-0.7377777777777778,-0.00747111354145045,-0.04715953261749659,0.70673418151835
1589986454.4542146,-1.165595105377714,-3.4011902107554284,8.832689653341827,0.5366666666666666,0.07111111111111111,-0.7377777777777778,-0.0023738613508986154,-0.04344103151395253,0.6230718645526593
1589986454.4642146,1.44618848413631,-2.989003525264395,6.802352526439483,0.5366666666666666,0.07111111111111111,-0.7377777777777778,-0.11952470020940299,0.29391703513830214,0.3944312850903039
1589986454.4742146,11.704902277098714,-1.4825674753366012,-1.3568424644785009,0.5366666666666666,0.07111111111111111,-0.7377777777777778,-0.7983388939789795,1.3929544963323583,-1.3797280123498405
1589986454.4842145,2.414899211394544,-1.3352160618009175,-1.9661384485394704,0.5361287250878464,0.07203329667480307,-0.7367915515499405,-1.6753117541319897,-1.251572712528454,-8.390475355763979
1589986454.4942145,1.3095372978192645,-2.4490158525790617,-0.21949786754647138,0.4967519648078109,0.1395363142977209,-0.6646008243698757,-1.5805075033563472,-1.2801060307230647,-10.132848624873597
1589986454.5042145,-0.5798062702203051,-4.460264982283162,5.052267947927899,0.49,0.1511111111111111,-0.6522222222222223,-1.6306813780641491,-0.9747484938160067,-10.273934687647959
1589986454.5142145,-0.6406503496503496,-2.9613349650349647,2.5481405594405597,0.49,0.1511111111111111,-0.6522222222222223,-1.5945612577606119,-0.672149026941141,-9.90978199905486
1589986454.5242145,-0.6363478161314329,-3.011760833476444,3.6851954891522123,0.49,0.1511111111111111,-0.6522222222222223,-0.778764321171787,0.5828319673656362,-9.32052896947531
1589986454.5342145,-0.6701898509581263,-2.787404187366927,3.0461994322214334,0.49,0.1511111111111111,-0.6522222222222223,0.28202291825200115,2.05628047615035,-8.576731736512887
1589986454.5442145,-1.198756727664155,-2.576616433440976,7.592241358689152,0.37666666666666665,0.36777777777777776,-0.6433333333333333,1.1991135137259814,3.1372655349260365,-7.896262057669546
1589986454.5542145,-3.307887240356083,-2.421406528189911,18.939958456973294,0.37666666666666665,0.36777777777777776,-0.6433333333333333,1.891083018478107,3.6588639632722937,-7.444009878027813
1589986454.5642145,-0.3887359050445105,1.169074183976261,4.35174480712166,0.37666666666666665,0.36777777777777776,-0.6433333333333333,3.41329367748288,2.4016002405915953,-6.89519122421366
1589986454.5742145,0.11576169018538282,-0.07427131507174198,-0.7142383098146172,0.37666666666666665,0.36777777777777776,-0.6433333333333333,1.9677315564232833,-0.04333707843889232,-5.824238703940134
1589986454.5842144,-0.7214735760306732,0.9204636546899088,-1.5514735760306735,0.37666666666666665,0.36777777777777776,-0.6433333333333333,0.8075921438052103,0.23064752173513434,-5.442649590826474
1589986454.5942144,2.204817037754114,-0.17876992578251044,16.54862407228138,0.2822222222222222,0.4688888888888889,-0.6255555555555555,-0.6835805320711176,0.5749318149655832,-4.898611993069599
1589986454.6042144,-1.2261447241045502,-2.2630622781542433,21.630778476928043,0.2822222222222222,0.4688888888888889,-0.6255555555555555,-1.7672363302164116,0.3224724941442681,-4.570119601942449
1589986454.6142144,-0.17154438619593032,-2.0588486670476285,12.851009962980447,0.2822222222222222,0.4688888888888889,-0.6255555555555555,-0.8551384289378562,0.08840390892411193,-3.829756867447143
1589986454.6242144,2.161729668532612,-2.0221969935216055,12.740938423800237,0.2822222222222222,0.4688888888888889,-0.6255555555555555,0.4081743472069451,0.39703688189952646,-3.195512448670904
1589986454.6342144,0.0776382162400151,0.16741807660859154,1.2388640795018553,0.2822222222222222,0.4688888888888889,-0.6255555555555555,1.1832376453657618,0.5054306352311431,-2.8022253790606135
1589986454.6442144,1.7542139295173107,-1.2371279616329842,8.197484669895731,0.16351734760696604,0.5229420014369073,-0.6117773111805705,0.46100974696086094,0.14944837198207067,-2.501819241440122
1589986454.6542144,0.6417344663072015,-1.5726016994608023,9.167263077661406,0.15777777777777774,0.5255555555555556,-0.6111111111111112,-0.6593495454653933,-0.09659612521580832,-2.1528298878082444
1589986454.6642144,0.96,-2.05,10.5,0.15777777777777774,0.5255555555555556,-0.6111111111111112,-0.5486878835957173,0.19307704850187268,-1.8664114688514364
1589986454.6742144,1.1508536609649735,-1.9262030307254225,9.891331567733328,0.15777777777777774,0.5255555555555556,-0.6111111111111112,-0.04622080207914281,0.19814110643429056,-1.7651303102030786
1589986454.6842144,1.1445094339622641,-1.6309056603773584,8.328584905660378,0.15777777777777774,0.5255555555555556,-0.6111111111111112,0.5035686526261186,0.14149515968880444,-1.523540714028635
1589986454.6942143,1.194411332222331,-2.4358866777766885,12.101132241937066,0.10111111111111112,0.5433333333333333,-0.6177777777777778,-0.3261584039664404,0.14289883250703572,-0.8715737952146684
1589986454.7042143,1.23,-2.08,9.69,0.10111111111111112,0.5433333333333333,-0.6177777777777778,-0.3261584039664404,0.14289883250703572,-0.8715737952146684
1589986454.7142143,1.23,-2.08,9.69,0.10111111111111112,0.5433333333333333,-0.6177777777777778,-0.3261584039664404,0.14289883250703572,-0.8715737952146684
1589986454.7242143,25.367560946884936,-23.586975621246026,5.097169944647273,0.10111111111111112,0.5433333333333333,-0.6177777777777778,-0.36989055644195773,-0.44897058517604926,-0.08761628384818401
1589986454.7342143,3.7893010246143,-4.2562795901542785,1.0548480744317512,0.10111111111111112,0.5433333333333333,-0.6177777777777778,-0.5270515742705125,-0.12746404584677729,0.3964396510637645
1589986454.7442143,-0.8475283373714441,0.18819776011927958,9.069072533505025,0.05666666666666665,0.5522222222222222,-0.6377777777777778,0.24255995020402912,0.19763136543586587,0.7444195685453343
1589986454.7542143,-1.0109767709798207,0.45113654461971164,3.0925450263465555,0.05666666666666665,0.5522222222222222,-0.6377777777777778,1.019304175840148,0.3418174192964627,0.9420939972251847
1589986454.7642143,-0.16548281110332666,-0.32235788659918346,5.167935641292005,0.05666666666666665,0.5522222222222222,-0.6377777777777778,0.004690153351630089,-0.24830724488778305,0.9364944734133979
1589986454.7742143,1.19,-1.47,10.87,0.05666666666666665,0.5522222222222222,-0.6377777777777778,-0.8312130562622995,-0.13199052468207118,1.0133817969392076
1589986454.7842143,0.9139615153337342,-1.7376736821006213,10.77798717177791,0.05666666666666665,0.5522222222222222,-0.6377777777777778,-0.3959703933514399,-0.11830364848990577,1.1018902629818772
1589986454.7942142,0.599685524827571,-2.1426841276529682,9.811111751790824,0.06692996138672659,0.559686436564084,-0.6629695011815613,0.2900072011070802,0.018107486173228188,1.2391879782827246
1589986454.8042142,8.46880646061986,-8.05880646061986,5.657960652075861,0.06888888888888889,0.5611111111111111,-0.6677777777777778,0.025831549559018393,-0.17008853773156535,1.3916603529437417
1589986454.8142142,10.883103159432117,-10.473103159432117,8.801951502394811,0.06888888888888889,0.5611111111111111,-0.6677777777777778,-0.2080468905157089,-0.05413200021552411,1.36611060738936
1589986454.8242142,-0.9826234574054507,-1.3296521063019597,7.934286768077513,0.06888888888888889,0.5611111111111111,-0.6677777777777778,-0.016540094980362983,-0.09356322180073771,1.442475316066911
1589986454.8342142,-0.213318646703483,-1.973526784824259,8.653419525907614,0.06888888888888889,0.5611111111111111,-0.6677777777777778,-0.05485054876593391,-0.1072455267241559,1.5729132896701643
1589986454.8442142,1.4869311331669002,-3.267806125555623,8.242743713085307,0.08333333333333333,0.5633333333333334,-0.6322222222222222,-0.06477421334328708,-0.15394894899793404,1.7414329343585735
1589986454.8542142,4.100440845156183,-6.051577056567011,9.068510625342508,0.08333333333333333,0.5633333333333334,-0.6322222222222222,-0.0712746296004009,-0.13909085469595953,1.8853707229089514
1589986454.8642142,0.19898722762073026,-2.494780440223793,7.985106191107184,0.08333333333333333,0.5633333333333334,-0.6322222222222222,-0.02705600020671449,-0.12376448495169927,2.0579619645577214
1589986454.8742142,0.5617892373380448,-2.6877602326266197,8.594922335100117,0.08333333333333333,0.5633333333333334,-0.6322222222222222,-0.062421394262781385,-0.1439732815551661,2.172478478644033
1589986454.8842142,0.9861267256116615,-3.161715593463356,8.788114372897557,0.08333333333333333,0.5633333333333334,-0.6322222222222222,-0.06402114556408386,-0.15619078234720712,2.288735285659366
1589986454.8942142,1.5157435483104416,-4.058721068390286,9.102977520079845,0.10726940523528138,0.5528014616964761,-0.6628603942567157,-0.05875399881784914,-0.16708275988269725,2.50925830407791
1589986454.9042141,0.8777480248898832,-3.3722327483744667,8.754293854436133,0.1111111111111111,0.5511111111111111,-0.6677777777777778,-0.06337019099002335,-0.1746859336072763,2.661261776692887
1589986454.9142141,0.7020581242681239,-3.1437613995245024,8.926948298498989,0.1111111111111111,0.5511111111111111,-0.6677777777777778,-0.08841148461373399,-0.20516134475886683,2.8765679585225996
1589986454.9242141,0.9178678897129271,-3.538172350165005,8.606954508356694,0.1111111111111111,0.5511111111111111,-0.6677777777777778,-0.09409384167295372,-0.21409076299478352,2.995897456766214
1589986454.934214,0.527827240818423,-3.1998587449704647,8.63546442941529,0.1111111111111111,0.5511111111111111,-0.6677777777777778,-0.08817005635465491,-0.22055223794125392,3.192243117788302
1589986454.944214,0.41,-3.2095025593909963,8.517644047775299,0.17628560178501115,0.5375683598022487,-0.6677777777777778,-0.0670632571201447,-0.22891740416302742,3.3601014217261125
1589986454.954214,0.5483647358370465,-3.8331085295989813,9.132174092934438,0.19666666666666666,0.5333333333333333,-0.6677777777777778,-0.10960054587577893,-0.25066173471163966,3.5467397045884073
1589986454.964214,0.3846530669536331,-3.674653066953633,8.663411781219295,0.19666666666666666,0.5333333333333333,-0.6677777777777778,-0.08364956721473654,-0.2530130273195773,3.7224722177831513
1589986454.974214,0.2648011140037537,-3.135148029303142,8.773427377853121,0.19666666666666666,0.5333333333333333,-0.6677777777777778,-0.09636697778623121,-0.26384381219237824,3.8431577933122942
1589986454.984214,0.24,-3.571423790882687,8.660399040282863,0.19666666666666666,0.5333333333333333,-0.6677777777777778,-0.10459543705156997,-0.26996973653227274,3.930521174623887
1589986454.994214,0.18,-3.93,8.86,0.2888888888888889,0.5066666666666667,-0.6677777777777778,-0.10471975511965977,-0.284706834231575,4.113522880794135
1589986455.004214,0.17444797643045432,-3.913343929291363,8.848895952860907,0.2888888888888889,0.5066666666666667,-0.6677777777777778,-0.10397647970238809,-0.284706834231575,4.1170740855655446
1589986455.014214,-0.06807445630601458,-3.452483965989095,8.581428123759585,0.2888888888888889,0.5066666666666667,-0.6677777777777778,-0.09555604274780521,-0.2923629545166881,4.281802084762585
1589986455.024214,3.170094277570708,-7.139697434773076,7.84687860849229,0.2888888888888889,0.5066666666666667,-0.6677777777777778,-0.16298915642531403,-0.33513091167004416,4.270797034200753
1589986455.034214,6.737402514194817,-16.099811324923227,9.023982502264543,0.2888888888888889,0.5066666666666667,-0.6677777777777778,-0.42179965525096885,-0.38587866000193044,1.6613817221220568
1589986455.044214,-3.002542511933176,-6.418773493436754,14.890314737470167,0.3659160368602493,0.4681530926809865,-0.6925365039114294,0.012510750285245176,0.2745787372661079,-1.58316706218033
1589986455.054214,-3.757407963701792,-2.3426255182664475,10.80670140029727,0.38222222222222224,0.46,-0.6977777777777778,0.6699489956771395,0.47665086257921796,-1.3448927385077338
1589986455.064214,-1.9768785966583324,-0.44607731079096713,5.17849188395444,0.38222222222222224,0.46,-0.6977777777777778,0.5107042267009472,0.19738599676727875,-0.45677336579249517
1589986455.074214,-1.1331614170811075,-4.117952968625284,11.381546632283417,0.38222222222222224,0.46,-0.6977777777777778,-0.5486714745859727,-0.13857542680483695,0.17503202699787118
1589986455.084214,-0.7468421864455799,-4.517280632411067,9.745877566759859,0.38222222222222224,0.46,-0.6977777777777778,-0.34648234919383875,-0.14332942305191276,0.48910357877986466
1589986455.094214,-0.6066076228547798,-3.442869942794128,9.365088565717832,0.38222222222222224,0.42625037333149535,-0.6865279022216095,0.08869396305235,-0.046166599143748266,0.9577353678026976
1589986455.104214,-0.17384586180713746,-2.4703492786636296,6.684998101746394,0.38222222222222224,0.4133333333333333,-0.6822222222222222,0.0570739727751515,-0.03761461180022993,1.3021870116306462
1589986455.114214,-0.6617136910268271,-3.809000264305537,8.03855854367649,0.38222222222222224,0.4133333333333333,-0.6822222222222222,-0.1488243054684637,-0.1407595528965894,0.6449784589969253
1589986455.124214,-2.0842000316505778,-2.6937778920715303,9.870036793796487,0.38222222222222224,0.4133333333333333,-0.6822222222222222,0.101616351037949,0.12923522319141978,-0.32082185228066723
1589986455.134214,-0.8841664136046157,-2.2116434861828123,7.072221682356513,0.38222222222222224,0.4133333333333333,-0.6822222222222222,0.1578144279548415,0.06483370809298707,-0.027250496606477992
1589986455.144214,1.2630508474576272,-4.503763286411951,8.819652398735995,0.41285965080277054,0.4133333333333333,-0.6679977018098248,-0.20278484706865169,-0.10803141835132381,0.1753693019183307
1589986455.154214,0.0524278734552206,-3.861627130634713,8.960839210311057,0.4133333333333333,0.4133333333333333,-0.6677777777777778,-0.018351244992391602,-0.011175245811201454,-0.01628280719154926
1589986455.164214,-0.06964551908840547,-4.002555900856515,8.111548801131914,0.4133333333333333,0.4133333333333333,-0.6677777777777778,0.06940408442059544,0.032539714579813556,-0.010668170160852489
1589986455.174214,0.06438461902732395,-4.310765575918297,8.572743603100188,0.4133333333333333,0.4133333333333333,-0.6677777777777778,0.01964094624152897,0.004497578431577356,-0.0028369589887031555
1589986455.1842139,0.13576856725792896,-4.454611403547574,8.828842836289645,0.4133333333333333,0.4133333333333333,-0.6677777777777778,-0.007971166206822314,-0.005998628391612196,0.0001676753646735606
1589986455.1942139,0.05380319468353417,-4.350152928459906,8.774601064894512,0.41827201515940055,0.4133333333333333,-0.6769496154547597,0.002164979657834352,0.002874310071385333,0.0002944662302883864
1589986455.2042139,0.0770000510282186,-4.351875031892637,8.625999897943563,0.4211111111111111,0.4133333333333333,-0.6822222222222222,0.00014998436206749462,-0.0003817935570313408,-0.0016498836458940758
1589986455.2142138,0.08265318766650834,-4.279185064331592,8.592653187666508,0.4211111111111111,0.4133333333333333,-0.6822222222222222,0.007724711168760605,-0.00028941787783672316,0.0002225771489862867
1589986455.2242138,0.0852921062204438,-4.297628955983994,8.627044743543106,0.4211111111111111,0.4133333333333333,-0.6822222222222222,0.005712794692413596,-0.0005772792369501071,0.001668110019446563
1589986455.2342138,0.08541891313649978,-4.289608044501498,8.692067608044502,0.4211111111111111,0.4133333333333333,-0.6822222222222222,-0.00040832638790239606,-0.001090830782496456,0.002181661564992912
1589986455.2442138,0.08,-4.2757448717181985,8.675106153938161,0.4155200712344424,0.4113002279236356,-0.6918794729182863,-0.007670652128264803,0.00040616664385042384,0.0011836632807616589
1589986455.2542138,0.09123941082194917,-4.3187605891780505,8.615619705410975,0.4088888888888889,0.4088888888888889,-0.7033333333333334,-0.006824622991430356,0.0015686467999076145,0.0006130147650852976
1589986455.2642138,0.0882990532158015,-4.345102840352595,8.561495266079007,0.4088888888888889,0.4088888888888889,-0.7033333333333334,-0.000452643135668624,-0.000185544511159208,-0.0008237321579870397
1589986455.2742138,0.08671421024828314,-4.289429477020602,8.634141574220813,0.4088888888888889,0.4088888888888889,-0.7033333333333334,0.00732406721898043,-0.000358424060598413,-0.000716848121196826
1589986455.2842138,0.09,-4.29240267363478,8.665769900780125,0.4088888888888889,0.4088888888888889,-0.7033333333333334,0.0056221202065681155,-0.0006607734522995555,0.0019823203568986665
1589986455.2942138,0.09,-4.312912794014025,8.671261617957924,0.3986518135758145,0.4120387582159887,-0.6883714540296092,0.0014085673198534917,0.00045535770778238477,0.00018011536693168665
1589986455.3042138,0.08198274199768607,-4.3500862900115695,8.607844677979175,0.3944444444444444,0.4133333333333333,-0.6822222222222222,0.001090830782496456,0.001090830782496456,-0.00021628360048244909
1589986455.3142138,0.07240950022512382,-4.291685502026114,8.620361999099504,0.3944444444444444,0.4133333333333333,-0.6822222222222222,0.004402811106083399,0.00026283570159972016,-0.0008279950808967358
1589986455.3242137,0.07771491368878572,-4.3085745684439285,8.583710517867287,0.3944444444444444,0.4133333333333333,-0.6822222222222222,0.004612587378879205,0.0,0.0014338688183127672
1589986455.3342137,0.06818704152061576,-4.266841686842771,8.664503667835074,0.3944444444444444,0.4133333333333333,-0.6822222222222222,0.004363323129985824,0.0,0.0008930676908264267
1589986455.3442137,0.07972825531044359,-4.308913021241774,8.703695659586074,0.38932971158618124,0.41041062884289725,-0.6822222222222222,-0.0013753937173691206,-0.0014346792118387361,0.0007173396059193681
1589986455.3542137,0.09,-4.310096815350361,8.697980636929927,0.38666666666666666,0.4088888888888889,-0.6822222222222222,-0.0052338755726951385,-0.0004405566795742824,-0.0006502741029221736
1589986455.3642137,0.09,-4.3267432541797435,8.606398610370897,0.38666666666666666,0.4088888888888889,-0.6822222222222222,-0.004724844790397491,0.002187927366254365,-0.0003615216604116677
1589986455.3742137,0.09,-4.312203558404243,8.622541993590453,0.38666666666666666,0.4088888888888889,-0.6822222222222222,0.0009428893439044819,0.0017564316406635662,0.0015160607068258015
1589986455.3842137,0.08410485347985348,-4.3,8.66768543956044,0.38666666666666666,0.4088888888888889,-0.6822222222222222,0.003915553076639637,-0.00019529067580408162,0.002181661564992912
1589986455.3942137,0.07538852266570345,-4.3,8.712280341340076,0.3902533712600084,0.41093843437079847,-0.6822222222222222,0.004363323129985824,-8.476249668938054e-05,0.0011755932791858365
1589986455.4042137,0.07653694527831024,-4.3,8.678093601938588,0.3944444444444444,0.4133333333333333,-0.6822222222222222,-0.0006281676631671521,0.001090830782496456,0.0
1589986455.4142137,0.08548740379073,-4.32194961516292,8.59610076967416,0.3944444444444444,0.4133333333333333,-0.6822222222222222,-0.0008781607591229566,0.002287996576679662,0.0005985828970916029
1589986455.4242136,0.09,-4.305410224579619,8.57729488771019,0.3944444444444444,0.4133333333333333,-0.6822222222222222,0.001090830782496456,0.002014772621216322,0.002348550508769502
1589986455.4342136,0.09,-4.2911809502987905,8.645904751493951,0.3944444444444444,0.4133333333333333,-0.6822222222222222,0.002920309497018961,-0.0007386479320260493,0.0008331873947926946
1589986455.4442136,0.09,-4.275378209576683,8.708466342817488,0.39854807618166394,0.41812090369342275,-0.6822222222222222,0.00033459209289620623,0.0005041591264001661,0.00025207956320008303
1589986455.4542136,0.09,-4.296422249321427,8.732140749773809,0.4011111111111111,0.4211111111111111,-0.6822222222222222,-0.004168187101371582,0.00019513602861424102,0.0004286556037035659
1589986455.4642136,0.09,-4.332540466470639,8.620865568528934,0.4011111111111111,0.4211111111111111,-0.6822222222222222,-0.006822106597786009,0.002329050930762866,0.0
1589986455.4742136,0.07655179640021423,-4.346724101799893,8.590344610799358,0.4011111111111111,0.4211111111111111,-0.6822222222222222,-0.0017679296951047998,0.002896351684393226,-0.000733485722796299
1589986455.4842136,0.0807149996155916,-4.323212500961021,8.652859998462366,0.4011111111111111,0.4211111111111111,-0.6822222222222222,0.002844068494765208,0.0015972489942366612,-0.001090830782496456
1589986455.4942136,0.07856564358026676,-4.294282821790134,8.69,0.39285296480797044,0.41412344885460745,-0.6822222222222222,0.0031160283339177245,0.0035854203746326545,0.00015646401357164341
1589986455.5042136,0.08357446102032588,-4.283212769489837,8.662851077959349,0.38666666666666666,0.4088888888888889,-0.6822222222222222,-3.9454425522545983e-05,0.0039734099188053085,0.0003504587856579701
1589986455.5142136,0.09610241973610693,-4.310512098680535,8.588975802638931,0.38666666666666666,0.4088888888888889,-0.6822222222222222,-0.001090830782496456,0.0006098094291456316,-0.0006656707295859341
1589986455.5242136,0.09337286342631257,-4.323372863426313,8.563254273147376,0.38666666666666666,0.4088888888888889,-0.6822222222222222,-0.0018137392399350907,0.0010778945898194477,-0.001090830782496456
1589986455.5342135,0.09,-4.291893139841688,8.631835092348284,0.38666666666666666,0.4088888888888889,-0.6822222222222222,-0.000342071869392358,0.000342071869392358,0.00013556234790391302
1589986455.5442135,0.08492678958785249,-4.280146420824295,8.695219631236442,0.39794046758255003,0.4179079296215956,-0.6929323330923114,0.0016442321908616592,1.5972034233950258e-05,-1.5972034233950258e-05
1589986455.5542135,0.09994156134660553,-4.283352812884465,8.71,0.4088888888888889,0.4266666666666667,-0.7033333333333334,6.37466820103353e-06,0.00036573515023249654,-0.0018159264147604155
1589986455.5642135,0.09605153678981683,-4.303247438683639,8.64955665942254,0.4088888888888889,0.4266666666666667,-0.7033333333333334,-0.003119552520921408,0.0005071804346062379,-0.001674481130386674
1589986455.5742135,0.08304890484153853,-4.33,8.583048904841538,0.4088888888888889,0.4266666666666667,-0.7033333333333334,-0.00545415391248228,0.0007582468570911859,-9.307900628064553e-05
1589986455.5842135,0.09,-4.32618498261096,8.612890104334237,0.4088888888888889,0.4266666666666667,-0.7033333333333334,-0.003789538550992843,-0.0004161538403723591,0.00010089236313111632
1589986455.5942135,0.08942268873637464,-4.3188453774727495,8.652309245054502,0.4084398690171803,0.42589691831516624,-0.7021145651101243,-0.000775956333774225,-0.0010278558927520097,-0.0031465425680004756
1589986455.6042135,0.08326359077231694,-4.3065271815446335,8.696527181544633,0.4011111111111111,0.4133333333333333,-0.6822222222222222,0.0036513180748028815,0.0,-0.0007348282549049848
1589986455.6142135,0.09,-4.313292692708751,8.659695195315633,0.4011111111111111,0.4133333333333333,-0.6822222222222222,0.001815834701945051,0.00036582686304786096,0.001097480589143583
1589986455.6242135,0.08393415578826567,-4.306065844211734,8.602460909482142,0.4011111111111111,0.4133333333333333,-0.6822222222222222,0.00042914982369768046,0.001090830782496456,0.0012874494710930413
1589986455.6342134,0.08465016146393972,-4.31,8.63465016146394,0.4011111111111111,0.4133333333333333,-0.6822222222222222,-0.000507253926844423,0.000583576855652033,0.0
1589986455.6442134,0.09,-4.31,8.657142080956262,0.3992064354493042,0.41555545493877466,-0.6904758167567187,-0.000467527129725231,0.0009349554791568376,0.00124660730554245
1589986455.6542134,0.09,-4.305676001830968,8.687028005492905,0.3944444444444444,0.4211111111111111,-0.7111111111111111,0.0015625058131202617,0.0023291422862417566,0.003419973068738213
1589986455.6642134,0.07770263518063913,-4.3,8.633107905541918,0.3944444444444444,0.4211111111111111,-0.7111111111111111,0.00016950995171074144,0.0004201135780690659,0.0008402271561381318
1589986455.6742134,0.07590451342322792,-4.311809026846456,8.598190973153544,0.3944444444444444,0.4211111111111111,-0.7111111111111111,-0.004311243281356723,0.0012881649995441068,0.0006440824997720534
1589986455.6842134,0.08,-4.31511272204299,8.629098223656081,0.3944444444444444,0.4211111111111111,-0.7111111111111111,-0.004945626723541818,0.002181661564992912,0.0005577114586841502
1589986455.6942134,0.08427820947794681,-4.314278209477947,8.665721790522053,0.40252550679167726,0.4239632507630756,-0.6958996996339669,-0.0004724107919818845,0.0017149813057416646,0.0009333605185024945
1589986455.7042134,0.0845640879836646,-4.309128175967329,8.670871824032671,0.4133333333333333,0.42777777777777776,-0.6755555555555556,0.0038654583633254704,0.002276762814168661,0.0009957295333207071
1589986455.7142134,0.07569872476089268,-4.295698724760893,8.658493623804464,0.4133333333333333,0.42777777777777776,-0.6755555555555556,0.0034249304430242072,0.0023340996605277515,0.0
1589986455.7242134,0.07,-4.293719584174251,8.633719584174251,0.4133333333333333,0.42777777777777776,-0.6755555555555556,0.0013701741819210273,0.0014965744740323983,-0.00040574369153594236
1589986455.7342134,0.07745339795873542,-4.3,8.647453397958737,0.4133333333333333,0.42777777777777776,-0.6755555555555556,-0.00040651979637924184,0.0005555823794759446,-0.0006843109861172142
1589986455.7442133,0.08973700780483518,-4.3,8.659737007804836,0.4133333333333333,0.42777777777777776,-0.6755555555555556,-0.0010764867833943513,-0.0021242855685844934,-1.4343999102104646e-05
1589986455.7542133,0.08696034517432401,-4.296079309651352,8.660881035522973,0.4133333333333333,0.43333333333333335,-0.6677777777777778,0.00042768097209420076,0.00042768097209420076,-0.0008553619441884015
1589986455.7642133,0.08,-4.304454906734453,8.633068633418066,0.4133333333333333,0.43333333333333335,-0.6677777777777778,-0.0009396118218496379,-0.0012420497431432742,0.0018792236436992757
1589986455.7742133,0.083418587758535,-4.28367435103414,8.600255763275605,0.4133333333333333,0.43333333333333335,-0.6677777777777778,-0.001118730227902662,-0.001808751489025358,0.000372910075967554
1589986455.7842133,0.09,-4.31,8.624017432222875,0.4133333333333333,0.43333333333333335,-0.6677777777777778,-0.0034916092842546716,-0.001090830782496456,0.0015290646560270627
1589986455.7942133,0.08741102686913378,-4.307411026869134,8.647766919392598,0.4133333333333333,0.4301690328400524,-0.6697914235462293,-0.004080909971365315,-0.0008084176238759469,0.00270766603024835
1589986455.8042133,0.08270886444751985,-4.30270886444752,8.66729113555248,0.4133333333333333,0.4211111111111111,-0.6755555555555556,-0.0014995447125104241,0.0005909825449929812,0.0004998482375034748
1589986455.8142133,0.09,-4.301592007363657,8.638980018409143,0.4133333333333333,0.4211111111111111,-0.6755555555555556,0.004189662066161984,0.0026402464243292204,-0.0006322459231601477
1589986455.8242133,0.09,-4.29,8.617115186107231,0.4133333333333333,0.4211111111111111,-0.6755555555555556,0.004678007509586326,0.0017201995416974596,0.0003880732014479771
1589986455.8342133,0.09,-4.298173786139707,8.642260679209562,0.4133333333333333,0.4211111111111111,-0.6755555555555556,0.003272492347489368,-0.0006450199059596742,0.0006450199059596742
1589986455.8442132,0.08583985529931476,-4.31,8.672480434102056,0.40547528223203894,0.4238845409115679,-0.6663107895540328,0.0019110881777452782,0.0004538013899146966,0.0
1589986455.8542132,0.08,-4.304173268473477,8.713306926106092,0.3944444444444444,0.42777777777777776,-0.6533333333333333,0.0006355978110473906,0.001090830782496456,0.0
1589986455.8642132,0.08,-4.303722540294977,8.681606976165288,0.3944444444444444,0.42777777777777776,-0.6533333333333333,0.0019029630910655237,0.0006847646282119221,0.0008121323085690678
1589986455.8742132,0.0806226805734599,-4.30937731942654,8.60186804172038,0.3944444444444444,0.42777777777777776,-0.6533333333333333,0.003000796692612326,6.792391371926055e-05,0.002181661564992912
1589986455.8842132,0.0926333328439936,-4.305266665687987,8.637899998531982,0.3944444444444444,0.42777777777777776,-0.6533333333333333,-0.001090830782496456,0.0005163266771390248,0.0016071574596354808
1589986455.8942132,0.09879064578164683,-4.317581291563294,8.656371937344941,0.3944444444444444,0.42777777777777776,-0.6533333333333333,-0.001090830782496456,-0.0008269906208321391,0.0002638401616643169
1589986455.9042132,0.07,-4.316886261261262,8.670658783783784,0.4011111111111111,0.4211111111111111,-0.6755555555555556,-0.0007511745760096654,0.0029328361410025775,0.001018968619460372
1589986455.9142132,0.08264178571428572,-4.305786071428571,8.6205025,0.4011111111111111,0.4211111111111111,-0.6755555555555556,0.0018386732003822404,0.0012623249648017918,0.0023531557472982476
1589986455.9242132,0.09289187444124368,-4.3,8.594216251117512,0.4011111111111111,0.4211111111111111,-0.6755555555555556,0.0038464056522964085,0.0010338349553788305,0.001090830782496456
1589986455.9342132,0.07265442324986984,-4.29734557675013,8.653272116249349,0.4011111111111111,0.4211111111111111,-0.6755555555555556,0.0024712142240661417,0.0037842178118393643,0.001090830782496456
1589986455.9442132,0.0778530083477713,-4.292146991652229,8.69,0.4037352120193906,0.4194412287149332,-0.6755555555555556,0.0025698909722851717,0.001713260648190114,0.0006224298656936581
1589986455.9542131,0.07161985424463266,-4.300809927122316,8.69,0.4133333333333333,0.4133333333333333,-0.6755555555555556,-8.834934366014235e-05,0.0001766986873202847,-0.001090830782496456
1589986455.9642131,0.09,-4.3064847408974165,8.658362668076748,0.4133333333333333,0.4133333333333333,-0.6755555555555556,-0.00032392021498667235,0.0010312957137282364,-0.0007073754987415642
1589986455.9742131,0.09250708775631304,-4.297492912243687,8.612535438781565,0.4133333333333333,0.4133333333333333,-0.6755555555555556,0.0008173499325958313,-0.0016377924822977054,0.0005469616998012493
1589986455.984213,0.08926552199337033,-4.286421840664457,8.66073447800663,0.4133333333333333,0.4133333333333333,-0.6755555555555556,-0.0007806332695775226,-0.0024918590779118453,0.0014010282954153893
1589986455.994213,0.07538458761956326,-4.285384587619563,8.677307706190218,0.41004275201026685,0.4154273396298301,-0.6791452806352644,-0.001887977868669466,-0.0007971470861730101,0.0002936836963234458
1589986456.004213,0.08516059240754784,-4.309678815184904,8.65064236963019,0.4011111111111111,0.4211111111111111,-0.6888888888888889,-0.001090830782496456,0.0,-0.000492861648771707
1589986456.014213,0.08484953196317595,-4.310300936073648,8.615451404110473,0.4011111111111111,0.4211111111111111,-0.6888888888888889,0.0004961748413433815,0.0026450093730663953,-0.0016526596903796327
1589986456.024213,0.0947633501723652,-4.295236649827634,8.604763350172364,0.4011111111111111,0.4211111111111111,-0.6888888888888889,0.0027012624645754877,0.0033757503141519773,-0.0016104316820790316
1589986456.034213,0.0975461053560837,-4.287546105356084,8.624723367863497,0.4011111111111111,0.4211111111111111,-0.6888888888888889,0.003272492347489368,0.001090830782496456,-0.001646304802075496
1589986456.044213,0.09176062457756873,-4.281760624577569,8.659436252534588,0.4011111111111111,0.4211111111111111,-0.6888888888888889,0.003272492347489368,0.001090830782496456,-0.0003841086971263575
1589986456.054213,0.09,-4.324939707910463,8.671686764029845,0.4088888888888889,0.4133333333333333,-0.6888888888888889,0.0007228359571838144,0.00018399741265632077,0.0016296693270239496
1589986456.064213,0.09,-4.3,8.636306318762715,0.4088888888888889,0.4133333333333333,-0.6888888888888889,-0.001090830782496456,0.0002964572409261606,-0.0006936440117113083
1589986456.074213,0.08815637704453058,-4.301843622955469,8.571061737732817,0.4088888888888889,0.4133333333333333,-0.6888888888888889,-0.00048750658115351677,-0.0006886146482678299,0.0
1589986456.084213,0.080225394724402,-4.309774605275598,8.618647631653587,0.4088888888888889,0.4133333333333333,-0.6888888888888889,0.0021079013139159086,0.0010416572817784537,0.0
1589986456.094213,0.0716080187673278,-4.291608018767328,8.673216037534656,0.4088888888888889,0.41458401459681044,-0.6888888888888889,-0.001090830782496456,0.0007400155084498244,0.0027462694364194205
1589986456.104213,0.0797398165920239,-4.299739816592024,8.689479633184048,0.4088888888888889,0.4209087462382408,-0.6888888888888889,-0.001090830782496456,-0.0010340675683934203,8.514482115455375e-05
1589986456.114213,0.07710438300033272,-4.3,8.655252596003992,0.4088888888888889,0.4211111111111111,-0.6888888888888889,-0.0024975243807486233,0.0007749679667407449,-0.0012340731177257784
1589986456.124213,0.07057024106400665,-4.3005702410640065,8.57342144638404,0.4088888888888889,0.4211111111111111,-0.6888888888888889,-0.003148085046276971,0.0001866109518185957,0.001090830782496456
1589986456.134213,0.08,-4.306795639873522,8.646021800632385,0.4088888888888889,0.4211111111111111,-0.6888888888888889,0.0010064180160027209,0.003272492347489368,0.001090830782496456
1589986456.144213,0.08039553064648557,-4.300395530646485,8.68079106129297,0.40906468028732695,0.4211111111111111,-0.6888888888888889,0.005367862511560845,0.0031430552461072163,0.001090830782496456
1589986456.154213,0.0844470292825228,-4.31,8.683341087847568,0.4133333333333333,0.4211111111111111,-0.6888888888888889,0.002363889638550534,0.00030286756964627797,0.000787963212850178
1589986456.164213,0.07212907367546544,-4.308935463162267,8.634677315811336,0.4133333333333333,0.4211111111111111,-0.6888888888888889,0.0,0.0009747078273264281,-0.00011612295517002794
1589986456.174213,0.09,-4.3,8.59808696998518,0.4133333333333333,0.4211111111111111,-0.6888888888888889,-0.0004410757898479952,-0.0004410757898479952,-0.001090830782496456
1589986456.184213,0.08415677421865878,-4.30292161289067,8.627529677344024,0.4133333333333333,0.4211111111111111,-0.6888888888888889,-0.001090830782496456,-0.0007721322549282605,-0.001728227837632847
1589986456.194213,0.07142313293645725,-4.308576867063542,8.672846265872915,0.4095383121694473,0.4211111111111111,-0.6858844971341458,-0.0009355910610292427,-0.0003104794429344265,-0.0028067731830877284
1589986456.204213,0.08264916165770327,-4.3,8.692649161657704,0.38666666666666666,0.4211111111111111,-0.6677777777777778,-0.0002889787084032054,-0.0013147254397832958,-0.0005779574168064108
1589986456.214213,0.0856713793183238,-4.304328620681676,8.652385172501562,0.38666666666666666,0.4211111111111111,-0.6677777777777778,-0.001090830782496456,0.00014647224543181932,-0.002181661564992912
1589986456.224213,0.08,-4.31,8.606397112422696,0.38666666666666666,0.4211111111111111,-0.6677777777777778,-0.0006436689081281554,-0.001090830782496456,-0.002181661564992912
1589986456.2342129,0.08,-4.306847236256128,8.642611054975488,0.38666666666666666,0.4211111111111111,-0.6677777777777778,0.0003439131741754198,-0.0007469176083210362,-0.0014938352166420723
1589986456.2442129,0.08,-4.298413780834914,8.674758657495255,0.38895787212734556,0.421992343980603,-0.6690115037950665,0.001263860451802553,0.0,-0.00034605933861219396
1589986456.2542129,0.08285452747206498,-4.29570905494413,8.680018307695544,0.4011111111111111,0.4266666666666667,-0.6755555555555556,0.002181661564992912,-0.00031138064360102744,-0.0024930422085939394
1589986456.2642128,0.09243818303925759,-4.307561816960742,8.615370901764456,0.4011111111111111,0.4266666666666667,-0.6755555555555556,0.001915697053734618,-0.000558901759979868,-0.002208634302456192
1589986456.2742128,0.09646979010340645,-4.310590629689781,8.591181259379562,0.4011111111111111,0.4266666666666667,-0.6755555555555556,-0.0004495138670546936,0.0003206584577208812,0.001090830782496456
1589986456.2842128,0.08821813850604049,-4.322872554024162,8.633563722987919,0.4011111111111111,0.4266666666666667,-0.6755555555555556,-0.0028837504739381383,-0.001090830782496456,0.0008964598457208411
1589986456.2942128,0.0810813340139527,-4.2943253360558105,8.647837331972095,0.4011111111111111,0.4266666666666667,-0.6755555555555556,-0.0013267412682124665,-0.001090830782496456,0.0001179552428580054
1589986456.3042128,0.07,-4.311851590106007,8.696296819787985,0.4088888888888889,0.43333333333333335,-0.6755555555555556,0.0008888536340766175,0.0019796844165730736,0.00048489933723694053
1589986456.3142128,0.07,-4.319262014134276,8.681475971731448,0.4088888888888889,0.43333333333333335,-0.6755555555555556,8.050176993794518e-05,0.0011713325524344011,-0.0019401562551790766
1589986456.3242128,0.07780653854336572,-4.302193461456634,8.592193461456635,0.4088888888888889,0.43333333333333335,-0.6755555555555556,0.0007178085831348568,0.003166975491427729,-0.00037302219936159915
1589986456.3342128,0.07037036380398554,-4.309629636196014,8.599629636196013,0.4088888888888889,0.43333333333333335,-0.6755555555555556,0.0031512910760563974,-0.0008888286634415044,0.002060460293559941
1589986456.3442128,0.07904459485808195,-4.280955405141918,8.670955405141918,0.4100566062845665,0.43269639657205466,-0.6755555555555556,0.003272492347489368,0.0019732244972809907,-0.0018690059634250298
1589986456.3542128,0.07,-4.292523645858311,8.687570937574934,0.4211111111111111,0.4266666666666667,-0.6755555555555556,0.003272492347489368,0.0002752870586365713,0.0008155437238598847
1589986456.3642128,0.07310934910182323,-4.303109349101823,8.672687810778122,0.4211111111111111,0.4266666666666667,-0.6755555555555556,0.0019157828619707727,0.0014300081538761048,-0.0010175321141389466
1589986456.3742127,0.08250515417712442,-4.307494845822875,8.602525770885622,0.4211111111111111,0.4266666666666667,-0.6755555555555556,-0.0016373706407578348,0.0010885818484701545,-0.0024526825600973
1589986456.3842127,0.0882259613377312,-4.298225961337731,8.643548077324539,0.4211111111111111,0.4266666666666667,-0.6755555555555556,-0.0030789747492752043,-0.001407591172136256,-0.00019351759821416398
1589986456.3942127,0.0805013427059474,-4.291002685411895,8.661002685411894,0.4201084256992163,0.42672237141177194,-0.6758897840261872,-0.002126973559370163,0.002181661564992912,-0.001090830782496456
1589986456.4042127,0.08878327146354947,-4.307566542927098,8.6775665429271,0.40354456818401213,0.42764258571817215,-0.6814110698645885,-0.0012235552766466646,0.002181661564992912,-0.001090830782496456
1589986456.4142127,0.08,-4.302791893043571,8.650456748695003,0.4011111111111111,0.42777777777777776,-0.6822222222222222,-0.0006090965746729705,-0.0009136448620094558,-0.0015725649903199413
1589986456.4242127,0.08343896632226151,-4.31,8.610316898966785,0.4011111111111111,0.42777777777777776,-0.6822222222222222,-0.001056262467705465,-0.001396827185343623,-0.000750266064858298
1589986456.4342127,0.09,-4.308024594224436,8.637901623102254,0.4011111111111111,0.42777777777777776,-0.6822222222222222,0.000659864096915346,0.001966178222202357,-0.001966178222202357
1589986456.4442127,0.09,-4.301913483113325,8.662346067546697,0.4011111111111111,0.42777777777777776,-0.6822222222222222,-0.0006733735261358778,0.001299559410676745,-0.001299559410676745
1589986456.4542127,0.08855871850222931,-4.297838077753344,8.697838077753344,0.38666666666666666,0.4133333333333333,-0.6677777777777778,0.0011694404936969994,-0.0010122210712959125,-0.0010122210712959125
1589986456.4642127,0.07163495874271189,-4.272452438114067,8.672452438114068,0.38666666666666666,0.4133333333333333,-0.6677777777777778,0.0020924883987598203,-8.917316623309143e-05,-8.917316623309143e-05
1589986456.4742126,0.08789717493110619,-4.295794349862212,8.618411300275575,0.38666666666666666,0.4133333333333333,-0.6677777777777778,0.001090830782496456,0.001493513670386532,-0.001090830782496456
1589986456.4842126,0.08080609984953253,-4.281612199699065,8.64677560060187,0.38666666666666666,0.4133333333333333,-0.6677777777777778,0.001090830782496456,-0.0008270352236057006,-0.001090830782496456
1589986456.4942126,0.08,-4.299884464175871,8.66988446417587,0.38666666666666666,0.4133333333333333,-0.6677777777777778,-0.0010782277791523767,0.0010782277791523767,-6.301501672039637e-06
1589986456.5042126,0.08927307880350238,-4.309273078803502,8.679273078803503,0.3938790612916129,0.4205457279582796,-0.695597014188285,-0.001090830782496456,0.003113902743971616,-0.00101153598073758
1589986456.5142126,0.08220229415767473,-4.307797705842325,8.624583940896278,0.3944444444444444,0.4211111111111111,-0.6977777777777778,0.00024023302593037047,-0.00048046605186074094,-0.0008505977565660855
1589986456.5242126,0.09,-4.304935409573402,8.58727393350691,0.3944444444444444,0.4211111111111111,-0.6977777777777778,0.0008216459481516841,-0.0013741070619585963,-0.0002691848343447718
1589986456.5342126,0.08800440995775193,-4.318004409957752,8.643991180084496,0.3944444444444444,0.4211111111111111,-0.6977777777777778,-0.00021768510473275964,0.0008731456777636964,-0.0008731456777636964
1589986456.5442126,0.08094460621770379,-4.310944606217704,8.658110787564592,0.3944444444444444,0.4211111111111111,-0.6977777777777778,-0.0009877902285355714,0.00010304055396088453,-0.00010304055396088453
1589986456.5542126,0.07159616306954437,-4.3,8.67680767386091,0.4011111111111111,0.4133333333333333,-0.6966666666666667,0.0,-0.002181661564992912,0.0025760348234321584
1589986456.5642126,0.07964278177458034,-4.3,8.660714436450839,0.4011111111111111,0.4133333333333333,-0.6966666666666667,0.0,-0.002181661564992912,-0.0009349649279538448
1589986456.5742126,0.07,-4.312722662821437,8.595445325642874,0.4011111111111111,0.4133333333333333,-0.6966666666666667,-0.000496837899299996,-0.00059399288319646,-0.00029699644159823
