time,acc_x,acc_y,acc_z,mag_x,mag_y,mag_z,gyr_x,gyr_y,gyr_z
1589986527.9845796,-3.66,-0.28,8.97,0.26666666666666666,-0.3688888888888889,-0.6311111111111111,0.002181661564992912,-0.001090830782496456,-0.0567232006898157
1589986527.9945796,-3.66,-0.2986732853994613,8.998009928099192,0.26666666666666666,-0.3688888888888889,-0.6311111111111111,0.001163191838789211,0.0029830481223183476,-0.06487095849944531
1589986528.0045795,-3.6833357955679777,-0.33111439409063687,9.023335795567977,0.26666666666666666,-0.3688888888888889,-0.6311111111111111,0.0019393442538162687,0.003272492347489368,-0.08326862984750343
1589986528.0145795,-3.663582511787398,-0.3576116588084012,9.074029147021003,0.2852567509644235,-0.36008305948468833,-0.6311111111111111,0.0031422285429443565,0.009035894215198034,-0.1287011064561736
1589986528.0245795,-3.69817533928075,-0.3313684955394375,9.070456165179813,0.2877777777777778,-0.3588888888888889,-0.6311111111111111,0.004313563227981576,0.011899618803452519,-0.16956859618379916
1589986528.0345795,-3.5253899509389273,-0.34940111656234135,8.992395533750635,0.2877777777777778,-0.3588888888888889,-0.6311111111111111,0.007537823404136397,0.015173638881611589,-0.1776094334002447
1589986528.0445795,-3.557508293402138,-0.3593770733505344,9.046262440103208,0.2877777777777778,-0.3588888888888889,-0.6311111111111111,0.007635815477475192,0.00913435079865628,-0.15530205697384394
1589986528.0545795,-3.583836107398858,-0.32821852346818936,9.065890738265905,0.2877777777777778,-0.3588888888888889,-0.6311111111111111,0.005902404831770804,0.007859940937119454,-0.1269392753235823
1589986528.0645795,-3.59,-0.34640863787375414,9.076602159468438,0.29951495016611296,-0.36549104835732743,-0.6164396456256922,0.00473397003456996,0.007635815477475192,-0.10198678912680217
1589986528.0745795,-3.6510768863419294,-0.3861758084322554,9.027648383135489,0.3055555555555556,-0.3688888888888889,-0.6088888888888889,0.0015079853705223722,0.00478047771801174,-0.08320282398065393
1589986528.0845795,-3.635299441846432,-0.39823351938452256,8.962365364308342,0.3055555555555556,-0.3688888888888889,-0.6088888888888889,0.0019889684217883033,0.006159598408569519,-0.08360858396581788
1589986528.0945795,-3.6850206521739133,-0.38165978260869565,8.962226811594203,0.3055555555555556,-0.3688888888888889,-0.6088888888888889,0.0008479233191188032,0.007878722940852845,-0.09466387621921997
1589986528.1045794,-3.628963788124028,-0.35049224031229176,9.035025865625695,0.3055555555555556,-0.3688888888888889,-0.6088888888888889,-0.0007093221588298545,0.009435968418801503,-0.1106684508369585
1589986528.1145794,-3.592860469952173,-0.34,9.063569765023914,0.297696379473672,-0.3624586539128024,-0.6231782999468589,0.0010134586926837006,0.007011757742227896,-0.11843378224486453
1589986528.1245794,-3.579969652488001,-0.3300151737559994,9.089878609952004,0.2933333333333333,-0.3588888888888889,-0.6311111111111111,0.002183316765005936,0.007635815477475192,-0.10794093626674542
1589986528.1345794,-3.5661341557948907,-0.3369329221025548,9.034536623179562,0.2933333333333333,-0.3588888888888889,-0.6311111111111111,0.002937926049204595,0.007635815477475192,-0.08454804845658699
1589986528.1445794,-3.6044772536767504,-0.34,9.01889545073535,0.2933333333333333,-0.3588888888888889,-0.6311111111111111,0.003272492347489368,0.006665472328845123,-0.043125512453596845
1589986528.1545794,-3.6166627986348123,-0.3533255972696246,9.039988395904437,0.2933333333333333,-0.3588888888888889,-0.6311111111111111,0.003272492347489368,0.005091387525293015,-0.02473393647301521
1589986528.1645794,-3.6377021310243944,-0.3334468034634089,9.067702131024394,0.2933333333333333,-0.3520047268238467,-0.6370118214525758,0.004237993819349098,0.005328824601845554,-0.012625785160644644
1589986528.1745794,-3.621342541700521,-0.3673149165989581,9.032685083401041,0.2933333333333333,-0.3511111111111111,-0.6377777777777778,0.0013105036545534654,0.002401334437049922,-0.0058934996565963
1589986528.1845794,-3.6359217217950284,-0.35407827820497173,8.982234834614916,0.2933333333333333,-0.3511111111111111,-0.6377777777777778,0.0019592259947145345,0.002181661564992912,-0.001980573063609965
1589986528.1945794,-3.64,-0.36881166139520266,8.976270553798402,0.2933333333333333,-0.3511111111111111,-0.6377777777777778,0.0008136389436737607,0.0008136389436737607,-0.001090830782496456
1589986528.2045794,-3.633827064232517,-0.39234587153496625,9.017037614604899,0.2933333333333333,-0.3511111111111111,-0.6377777777777778,-0.002020088506063195,-0.0006733628353543982,-0.005131007794622846
1589986528.2145793,-3.660389339767493,-0.3817663961395043,9.04,0.2899567400258341,-0.35921493504910923,-0.620219492578782,-0.003935484893051866,0.0002351543086285407,-0.01691771111535017
1589986528.2245793,-3.6644117647058825,-0.37,9.04779411764706,0.2877777777777778,-0.3644444444444445,-0.6088888888888889,-0.004363323129985824,-0.0006095819078656666,-0.03821116064568467
1589986528.2345793,-3.638786128331052,-0.34878612833105227,9.007572256662105,0.2877777777777778,-0.3644444444444445,-0.6088888888888889,-0.002820606847824646,-0.00031947264141586693,-0.05025598192816766
1589986528.2445793,-3.63,-0.3449246700945669,9.024472690661968,0.2877777777777778,-0.3644444444444445,-0.6088888888888889,-0.0005700670451549202,0.0016115945198379917,-0.05076471747592968
1589986528.2545793,-3.6252142807286942,-0.3452142807286941,9.064785719271306,0.2877777777777778,-0.3644444444444445,-0.6088888888888889,0.0021349127620018584,0.002750451357736667,-0.04225410354256434
1589986528.2645793,-3.6099033409987475,-0.34,9.07,0.2939479582785433,-0.35771333844360936,-0.6055233358884714,0.003272492347489368,0.0027323488869397273,-0.027186418671233996
1589986528.2745793,-3.6,-0.34649741498886133,9.095989659955444,0.3,-0.3511111111111111,-0.6022222222222222,0.0011462182645382247,0.0025637343198389867,-0.007912752887684034
1589986528.2845793,-3.6116434559689603,-0.35,9.01685235224832,0.3,-0.3511111111111111,-0.6022222222222222,0.0,0.003451765583551281,-0.000276505537155358
1589986528.2945793,-3.62,-0.35649713806555106,8.975988552262205,0.3,-0.3511111111111111,-0.6022222222222222,-0.0007087278200032572,0.005072050949989081,0.001090830782496456
1589986528.3045793,-3.633038306451613,-0.3730383064516129,9.022595766129031,0.3,-0.3511111111111111,-0.6022222222222222,-0.001090830782496456,0.004031895309578131,0.0003797014810443814
1589986528.3145792,-3.6323614077444515,-0.39527718451109667,9.047638592255549,0.30933605720122576,-0.36469083067653035,-0.6132557443691254,-0.001090830782496456,0.000772768877302021,0.0008332411567291158
1589986528.3245792,-3.623972703799336,-0.3939727037993361,9.037945407598672,0.31222222222222223,-0.3688888888888889,-0.6166666666666667,-0.002405782828678093,0.0,0.0017483068055872744
1589986528.3345792,-3.6270001448855402,-0.37599971022891915,8.980998985801218,0.31222222222222223,-0.3688888888888889,-0.6166666666666667,-0.00403608969979763,0.002290792056924787,-0.00010913049193187526
1589986528.3445792,-3.63,-0.3622118877397561,8.983364336780731,0.31222222222222223,-0.3688888888888889,-0.6166666666666667,-0.0009651180935810019,-0.001824815207117865,0.000608271735705955
1589986528.3545792,-3.616744305041036,-0.3467443050410365,9.036394932356373,0.31222222222222223,-0.3688888888888889,-0.6166666666666667,-0.0007229860052310268,0.00034243767866576564,0.0018138167877274828
1589986528.3645792,-3.5994105906567704,-0.34,9.03882118131354,0.3057509165124708,-0.36359418421727413,-0.6243145734145547,-0.0016683934664989768,0.002759224248995433,-0.00012858917101717104
1589986528.3745792,-3.59,-0.3726939355974673,9.033077574238986,0.3,-0.3588888888888889,-0.6311111111111111,-0.00788782978110074,0.013971557752691547,0.0006714225430610021
1589986528.3845792,-3.59,-0.4136107182731671,8.937686887482943,0.3,-0.3588888888888889,-0.6311111111111111,-0.020351917197679384,0.035088133058469556,0.002181661564992912
1589986528.3945792,-3.6188878785910674,-0.39833409105669937,8.96055378753437,0.3,-0.3588888888888889,-0.6311111111111111,-0.029209803874056937,0.05896477517497041,0.0037572509254007523
1589986528.4045792,-3.6726499089558176,-0.3778143117269093,9.016557064819272,0.3,-0.3588888888888889,-0.6311111111111111,-0.0342925974672359,0.07850394921905787,0.005692575517405164
1589986528.4145792,-3.7162728099000213,-0.3944092148500315,9.129500454450115,0.3045202249722281,-0.363409113861117,-0.6247827961499918,-0.040435136311547035,0.09061335230638401,0.011870249281975522
1589986528.4245791,-3.676941411686301,-0.4,9.078235686143834,0.3055555555555556,-0.3644444444444445,-0.6233333333333333,-0.0375374336029132,0.08067020456023637,0.013872796616347893
1589986528.4345791,-3.650025174318573,-0.3850377614778593,9.000125871592864,0.3055555555555556,-0.3644444444444445,-0.6233333333333333,-0.03164507706104827,0.06765347725208239,0.013092715482120234
1589986528.4445791,-3.645547087642896,-0.38109417528579204,8.944452912357104,0.3055555555555556,-0.3644444444444445,-0.6233333333333333,-0.02666567616700373,0.059509955650216294,0.013209325398276352
1589986528.454579,-3.669244812623274,-0.40924481262327417,8.988112031558185,0.3055555555555556,-0.3644444444444445,-0.6233333333333333,-0.031428147283125894,0.06419425983987384,0.014180800172453925
1589986528.464579,-3.64487728672342,-0.4012855460967216,9.0564082593733,0.30327663064259697,-0.35897502465334385,-0.620598623437783,-0.038878110046037875,0.0700647368781455,0.014180800172453925
1589986528.474579,-3.5622679611650483,-0.30089320388349516,9.056357281553398,0.3,-0.3511111111111111,-0.6166666666666667,-0.04274107998803783,0.06103399449279974,0.018049330931971454
1589986528.484579,-3.5776132930513596,-0.22548338368580062,9.005483383685801,0.3,-0.3511111111111111,-0.6166666666666667,-0.047398410058173045,0.043661243570707844,0.04934114343062519
1589986528.494579,-3.533403910230418,-0.23263843590783279,9.006978826930874,0.3,-0.3511111111111111,-0.6166666666666667,-0.056495796039091654,0.03309623248091313,0.11774043580293149
1589986528.504579,-3.4724555006962907,-0.473692366122294,9.094564122040763,0.3,-0.3511111111111111,-0.6166666666666667,-0.061698902604698645,0.02309862837131506,0.21633100874610228
1589986528.514579,-3.3365881115705442,-0.5898821673558163,9.038784148760724,0.3,-0.35741177157941423,-0.623492382173995,-0.052838978553141264,0.007599444891620306,0.34932044449985006
1589986528.524579,-3.1180286904211014,-0.19306455344747803,8.92364993058769,0.3,-0.3644444444444445,-0.6311111111111111,-0.017715904604438334,-0.021410645887401228,0.5281458388508339
1589986528.534579,-3.119678699913162,-0.10032130008683786,9.014196749782904,0.3,-0.3644444444444445,-0.6311111111111111,-0.03328894564353842,-0.03131757449363042,0.6370484247063486
1589986528.544579,-3.1823321492007106,-0.07504795737122558,9.032523978685612,0.3,-0.3644444444444445,-0.6311111111111111,-0.020248376865999042,-0.03924898281916023,0.7186796201841109
1589986528.554579,-2.908562059752247,-0.4132491296251316,9.178957169459963,0.3,-0.3644444444444445,-0.6311111111111111,-0.006731779861765231,-0.04357096624426274,0.7748442806336251
1589986528.564579,-2.821080916649767,-0.5502433583451632,9.181810991685257,0.29131233240947296,-0.36049550463056856,-0.6358498388877623,0.008358095441955201,-0.025339749099947077,0.8301074038082501
1589986528.574579,-1.8678765948918925,-0.8004397782181745,8.986312765815315,0.2877777777777778,-0.3588888888888889,-0.6377777777777778,0.041814046471537136,-0.00891370203623042,0.8722507763262263
1589986528.584579,-1.6029334454038358,-0.7770665545961641,8.691059066248949,0.2877777777777778,-0.3588888888888889,-0.6377777777777778,0.052645108929716244,0.0122690331649397,0.8867953314725696
1589986528.594579,-1.7371836765331399,-0.6586679010183402,8.63377736632722,0.2877777777777778,-0.3588888888888889,-0.6377777777777778,0.029016502755046282,-0.0022055431907012334,0.8533534794635468
1589986528.604579,-1.7883499901244322,-0.6081062611100139,8.774662453091054,0.2877777777777778,-0.3588888888888889,-0.6377777777777778,0.0020330431423648196,-0.02503115155252582,0.8230420593383061
1589986528.614579,-1.84,-0.5215231272387478,9.002913876343248,0.2877777777777778,-0.3645842634411393,-0.6295511256467493,-0.037861222786215565,-0.06107208360542492,0.7526226142297989
1589986528.624579,-1.8664171164675851,-0.4603743252986223,8.972388589021609,0.2877777777777778,-0.3688888888888889,-0.6233333333333333,-0.02438132952559388,-0.051871821175315344,0.7051414029150633
1589986528.634579,-1.904849941297329,-0.40515005870267096,8.930600234810683,0.2877777777777778,-0.3688888888888889,-0.6233333333333333,-0.0028089212822686293,-0.03546836929634031,0.6466557419589989
1589986528.644579,-1.9499494178278296,-0.3866835273907234,9.025409429280398,0.2877777777777778,-0.3688888888888889,-0.6233333333333333,-0.0058104072945879175,-0.03635918686353357,0.5833937507744994
1589986528.654579,-1.9974990147959732,-0.3750019704080536,9.154994088775839,0.2877777777777778,-0.3688888888888889,-0.6233333333333333,-0.011725893566397166,-0.03681500156381566,0.5230458373708944
1589986528.664579,-1.9664391242185528,-0.37821956210927643,9.092329343163915,0.2792696837455885,-0.3734701702908369,-0.6318414273655225,-0.0005680601221063099,-0.020516982406529247,0.36169598343782683
1589986528.674579,-1.9157987765130622,-0.37,9.011597553026125,0.2733333333333333,-0.37666666666666665,-0.6377777777777778,0.004363323129985824,-0.011999138607461015,0.28907015736156083
1589986528.684579,-1.912518132946497,-0.3449637341070057,8.898632135847768,0.2733333333333333,-0.37666666666666665,-0.6377777777777778,-0.00041598453511192644,-0.005854314466621051,0.1600288504039216
1589986528.694579,-1.900990446025235,-0.3173269640168233,8.869009553974765,0.2733333333333333,-0.37666666666666665,-0.6377777777777778,-0.00189007857167593,0.004039200426167559,0.015164864454872196
1589986528.7045789,-1.8790016004425916,-0.3209983995574085,8.901996799114817,0.2733333333333333,-0.37666666666666665,-0.6377777777777778,-0.0016907004222672837,0.009435424396787675,-0.08458511083177563
1589986528.7145789,-1.8859864304980118,-0.31401356950198817,8.957301671162028,0.2626757130013254,-0.3867321969802297,-0.6377777777777778,-0.0016003785486771963,0.012652156873911705,-0.19578818597652992
1589986528.7245789,-1.8945349822860744,-0.3,8.984534982286075,0.2533333333333333,-0.3955555555555556,-0.6377777777777778,0.004274437811818091,0.018353786856920795,-0.3100104856389961
1589986528.7345788,-1.918593521080905,-0.29428129578381895,8.968562591567638,0.2533333333333333,-0.3955555555555556,-0.6377777777777778,0.013717157135973667,0.02867856810443189,-0.42796986890935795
1589986528.7445788,-1.9555380686542345,-0.28482064378192185,8.985896781090391,0.2533333333333333,-0.3955555555555556,-0.6377777777777778,0.01914823287880152,0.03777061509472599,-0.5365026857171238
1589986528.7545788,-2.0027026838619726,-0.29226350644823984,9.04679051934472,0.2533333333333333,-0.3955555555555556,-0.6377777777777778,0.023401266934449414,0.0445729654797182,-0.6333930800806868
1589986528.7645788,-2.05,-0.3178165711307973,9.1,0.25637311099531,-0.3955555555555556,-0.6377777777777778,0.0272707695624114,0.050792696492949874,-0.7381564934278206
1589986528.7745788,-2.047121236315892,-0.3271212363158922,9.097121236315893,0.2611111111111111,-0.3955555555555556,-0.6377777777777778,0.02884089158349025,0.057219001192915564,-0.833774605100386
1589986528.7845788,-2.036048977806931,-0.32526802959075835,9.075512918625414,0.2611111111111111,-0.3955555555555556,-0.6377777777777778,0.03236576542234985,0.06725899383737148,-0.9143233824248753
1589986528.7945788,-2.019564268119728,-0.3908697842800627,8.885217026199895,0.2611111111111111,-0.3955555555555556,-0.6377777777777778,0.026606801538535355,0.07711700154531034,-1.039655881654202
1589986528.8045788,-2.116252639340416,-0.37625263934041625,8.923126319670208,0.2611111111111111,-0.3955555555555556,-0.6377777777777778,0.023895507991152965,0.07567609762831447,-1.1216869585956983
1589986528.8145788,-2.15,-0.4197407500629247,8.9789630002517,0.27157339821573395,-0.3894224907011215,-0.6359739351735325,0.021703496525240337,0.07730758665138737,-1.2286027377818565
1589986528.8245788,-2.160575246079569,-0.44264381151989224,9.028274261761293,0.2933333333333333,-0.37666666666666665,-0.6322222222222222,0.033138817800016214,0.08979926887672152,-1.3099007865459433
1589986528.8345788,-2.19,-0.4746931087968092,8.919422409335992,0.2933333333333333,-0.37666666666666665,-0.6322222222222222,0.04036073895236887,0.09381144729469522,-1.4033045334178973
1589986528.8445787,-2.212787243667069,-0.5289893697225573,8.935574487334138,0.2933333333333333,-0.37666666666666665,-0.6322222222222222,0.042432157855726044,0.09671143375939525,-1.4785619540252724
1589986528.8545787,-2.258567347281741,-0.5771346945634821,9.027134694563482,0.2933333333333333,-0.37666666666666665,-0.6322222222222222,0.048618550706629286,0.10425092061394854,-1.5495908000305152
1589986528.8645787,-2.28004519153609,-0.6200903830721798,9.06004519153609,0.29965808355976026,-0.37257418122603747,-0.6418953696273458,0.05162937061692057,0.10981851482442244,-1.6047057440577694
1589986528.8745787,-2.288195051602145,-0.689512370994637,9.068195051602146,0.31222222222222223,-0.3644444444444445,-0.6611111111111111,0.04953435593992886,0.11537798154435573,-1.6789005135874655
1589986528.8845787,-2.2638267795148734,-0.7207821469900841,8.97913389757437,0.31222222222222223,-0.3644444444444445,-0.6611111111111111,0.046735085644703446,0.11554274394330225,-1.7299236155061162
1589986528.8945787,-2.276755807337407,-0.7942139376097765,8.94745813027237,0.31222222222222223,-0.3644444444444445,-0.6611111111111111,0.04297289858710341,0.11745583798754668,-1.7820745141783216
1589986528.9045787,-2.313934353871155,-0.840710430752563,8.966065646128845,0.31222222222222223,-0.3644444444444445,-0.6611111111111111,0.04449157416223633,0.12404472531110482,-1.8292158090194135
1589986528.9145787,-2.3345609785274237,-0.8436829355822716,8.954560978527423,0.34009486877870154,-0.3522818350379808,-0.666685640422407,0.05048418231785372,0.12772298117937794,-1.8754041841305489
1589986528.9245787,-2.3554807598318726,-0.9064422794956176,8.948389430126095,0.37333333333333335,-0.3377777777777778,-0.6733333333333333,0.05218419164024824,0.127802887471667,-1.9151789372193189
1589986528.9345787,-2.3748891081294397,-0.9902217837411208,8.912963693764798,0.37333333333333335,-0.3377777777777778,-0.6733333333333333,0.0512932396305206,0.13036637493492007,-1.9472781038752969
1589986528.9445786,-2.3839371654139407,-1.0569685827069704,8.875249553885254,0.37333333333333335,-0.3377777777777778,-0.6733333333333333,0.060425171160235734,0.13554933577818098,-2.000835702896781
1589986528.9545786,-2.404746426831249,-1.127789304856261,8.936267865843755,0.37333333333333335,-0.3377777777777778,-0.6733333333333333,0.06498741318396577,0.13916390639372475,-2.0358576226268315
1589986528.9645786,-2.4180566092792533,-1.204075479039004,8.996113218558506,0.3967400490656983,-0.3270775648715538,-0.6659769369603044,0.06719723457326117,0.1420302846239975,-2.0759230220925375
1589986528.9745786,-2.43,-1.22,9.02,0.4122222222222222,-0.32,-0.6611111111111111,0.06763150851478028,0.14289883250703572,-2.0911226100457063
1589986528.9845786,-2.4248974430460413,-1.2761281264935478,8.963871873506452,0.4122222222222222,-0.32,-0.6611111111111111,0.06206548231996055,0.14234222988755377,-2.1273017803120347
1589986528.9945786,-2.404977054290415,-1.3350076485698619,8.87995410858083,0.4122222222222222,-0.32,-0.6611111111111111,0.05726945041060866,0.1439930006077111,-2.1767753533693854
1589986529.0045786,-2.386288085305059,-1.3734072322544693,8.872271488169647,0.4122222222222222,-0.32,-0.6611111111111111,0.0574091243911879,0.1461713248545251,-2.204031161550232
1589986529.0145786,-2.3802268520341854,-1.4303024693789137,8.910226852034185,0.41246587811079166,-0.3197395402570465,-0.6614891978347534,0.056731449262547744,0.1462043191454533,-2.2255010106110715
1589986529.0245786,-2.4067417151530486,-1.4928079939286618,8.949774854540856,0.4444444444444444,-0.2855555555555556,-0.7111111111111111,0.05816945521323183,0.15231176668910926,-2.2607403118963334
1589986529.0345786,-2.3971407302930574,-1.5714519667763673,8.929970224102806,0.4444444444444444,-0.2855555555555556,-0.7111111111111111,0.06015245401952562,0.15630069983817244,-2.2857640203232608
1589986529.0445786,-2.3613618141421946,-1.655727637171561,8.852910548686244,0.4444444444444444,-0.2855555555555556,-0.7111111111111111,0.06639212685364931,0.16145315073588645,-2.3191368283666987
1589986529.0545785,-2.3154549318867277,-1.6943630953585813,8.879818027245308,0.4444444444444444,-0.2855555555555556,-0.7111111111111111,0.07139979088291971,0.16417995783983624,-2.3407045076067625
1589986529.0645785,-2.28500446242637,-1.7549776878681502,8.91497768786815,0.47719296853824134,-0.2528070314617587,-0.7144414694935312,0.07090692151349903,0.16471447460655506,-2.364365498781765
1589986529.0745785,-2.28,-1.78,8.94,0.51,-0.22,-0.7177777777777777,0.06763150851478028,0.16580627893946132,-2.3758294442772807
1589986529.0845785,-2.2722323020553716,-1.8732123753355407,8.89339381233223,0.51,-0.22,-0.7177777777777777,0.06847883291749378,0.16580627893946132,-2.3936232567342652
1589986529.0945785,-2.2567608798860577,-1.9578151606266814,8.856760879886057,0.51,-0.22,-0.7177777777777777,0.06090985722337696,0.16978543767264895,-2.4257076688598973
1589986529.1045785,-2.2236781002638524,-2.072850659630607,8.862850659630606,0.51,-0.22,-0.7177777777777777,0.060351781650525294,0.17451036025659714,-2.4538552174039547
1589986529.1145785,-2.1799368104312937,-2.116645603477098,8.899936810431294,0.5140998179724359,-0.20509157100932426,-0.7196413314016122,0.06255015541335378,0.17781231045959003,-2.4773318503507933
1589986529.1245785,-2.146524854455889,-2.1324585759068517,8.87101656963726,0.5222222222222223,-0.17555555555555555,-0.7233333333333334,0.06397993659397372,0.1785171687561016,-2.5040394318228816
1589986529.1345785,-2.116811229463162,-2.1679132623221027,8.82834695071159,0.5222222222222223,-0.17555555555555555,-0.7233333333333334,0.06045094857611419,0.17613911808903127,-2.5223614085415633
1589986529.1445785,-2.0793924317804917,-2.1918227046585255,8.742885949042666,0.5222222222222223,-0.17555555555555555,-0.7233333333333334,0.055764920730580536,0.1747648891401402,-2.541851118304542
1589986529.1545784,-2.033461236303494,-2.316538763696506,8.864612363034938,0.5222222222222223,-0.17555555555555555,-0.7233333333333334,0.07006516394298623,0.19515406969409765,-2.560096134220968
1589986529.1645784,-2.0288339920948615,-2.3594466403162055,8.756501976284586,0.5320377689942908,-0.1605050505050505,-0.7341304347826088,0.07506683533065038,0.2016700356541076,-2.574045901050837
1589986529.1745784,-2.0245920616519992,-2.4776398844025014,8.8231759922935,0.5555555555555556,-0.12444444444444445,-0.76,0.05682618015957577,0.1908953869368798,-2.5887849144102018
1589986529.1845784,-1.9702637487970915,-2.580263748797092,8.829419752646398,0.5555555555555556,-0.12444444444444445,-0.76,0.05239440219663556,0.19098745263502825,-2.593943813821363
1589986529.1945784,-2.008690010879639,-2.644137486400451,8.728482491840271,0.5555555555555556,-0.12444444444444445,-0.76,0.05736270171953489,0.20588122260038513,-2.5823275310917757
1589986529.2045784,-1.9729988962472407,-2.6905016556291392,8.762251931567329,0.5555555555555556,-0.12444444444444445,-0.76,0.05135052798396195,0.1986674057612313,-2.5759148096550093
1589986529.2145784,-1.9074702949729954,-2.7224840049854593,8.807488574989614,0.556945713890043,-0.12305428610995707,-0.7672288233393344,0.04227044058691885,0.19662449184052974,-2.563448350785705
1589986529.2245784,-1.8013950494685351,-2.68720990106293,8.78075618816433,0.5611111111111111,-0.11888888888888888,-0.7888888888888889,0.04308141672107798,0.20375069270379775,-2.545199769769844
1589986529.2345784,-1.784448444330162,-2.788529184880432,8.728493185908974,0.5611111111111111,-0.11888888888888888,-0.7888888888888889,0.03551216582142679,0.20236916528318988,-2.514806166516472
1589986529.2445784,-1.711295461499235,-2.76548760836308,8.56548760836308,0.5611111111111111,-0.11888888888888888,-0.7888888888888889,0.023699764501449873,0.1916877050059041,-2.4909303483662417
1589986529.2545784,-1.6128662420382165,-2.730254777070064,8.549426751592357,0.5611111111111111,-0.11888888888888888,-0.7888888888888889,0.010817984256987146,0.1779096370484347,-2.4608586615778645
1589986529.2645783,-1.7191581615855667,-2.933790083624152,8.8174744847567,0.5747955122436587,-0.11159054161819684,-0.7992282141890359,0.020840671536070516,0.1831677411337694,-2.4095875576771646
1589986529.2745783,-1.7514117427075542,-3.0360588070306656,8.87241164921466,0.6111111111111112,-0.09222222222222222,-0.8266666666666667,0.04032866469273021,0.18465839672237405,-2.3396523310129798
1589986529.2845783,-1.7253164432419137,-3.076202681097036,8.79746845406469,0.6111111111111112,-0.09222222222222222,-0.8266666666666667,0.041423933387405694,0.16925824655700647,-2.281700339975232
1589986529.2945783,-1.7051847443216324,-3.14,8.84,0.6111111111111112,-0.09222222222222222,-0.8266666666666667,0.03595711086379743,0.15438614318873653,-2.2180620304011507
1589986529.3045783,-1.69,-3.14,8.84,0.6111111111111112,-0.09222222222222222,-0.8266666666666667,0.03926990816987242,0.15162547876700738,-2.184934057340401
1589986529.3145783,-1.571220399113082,-2.995767627494457,8.653346341463413,0.6111111111111112,-0.09222222222222222,-0.8266666666666667,0.05777968602417148,0.15995487880144196,-2.129404723777504
1589986529.3245783,-1.54,-3.071524489376413,8.740941453478595,0.5155555555555555,-0.13333333333333333,-0.76,0.01760003986737648,0.11491387485396323,-2.059914164160053
1589986529.3345783,-1.54,-3.196931026105806,8.921213350027095,0.5155555555555555,-0.13333333333333333,-0.76,0.018455023058568318,0.12346370676588161,-2.0051952399237756
1589986529.3445783,-1.4669320224846953,-3.2169320224846953,8.536699437882616,0.5155555555555555,-0.13333333333333333,-0.76,0.04642275528355368,0.14049471504340716,-1.8910556650515833
1589986529.3545783,-1.43998605664488,-3.21750522875817,8.69749128540305,0.5155555555555555,-0.13333333333333333,-0.76,0.03272644445899128,0.11780972450961726,-1.8241267563117347
1589986529.3645782,-1.3755489842386965,-3.255578555164562,8.668902031522608,0.5185228993964245,-0.10390717357804917,-0.7340357413923964,0.04266862167393714,0.11829525501019793,-1.7393605363926854
1589986529.3745782,-1.3525826935835468,-3.31,8.774173064164534,0.5288888888888889,-0.0011111111111111113,-0.6433333333333333,0.042000448573295206,0.10947305206365153,-1.6406525056516121
1589986529.3845782,-1.3546703205051829,-3.3320054807577746,8.852321458358155,0.5288888888888889,-0.0011111111111111113,-0.6433333333333333,0.027126919745889645,0.09202985665960586,-1.5590069843329266
1589986529.3945782,-1.2021912278897573,-3.1210677190456604,8.6317042883587,0.5288888888888889,-0.0011111111111111113,-0.6433333333333333,0.0480925518015143,0.10565123531324877,-1.46391538281878
1589986529.4045782,-0.9971175646903114,-2.8636376191663633,8.162127251453015,0.5288888888888889,-0.0011111111111111113,-0.6433333333333333,0.07791096650687221,0.13392293958408483,-1.374418120068412
1589986529.4145782,-1.1507179088221566,-3.151435817644313,8.189166018360044,0.5303110142973221,0.02448714624068599,-0.6359382812094808,0.0566915637117766,0.10755876655560473,-1.308587185817732
1589986529.4245782,-1.1765397247419456,-3.2524374413512667,9.164047935564591,0.5344444444444445,0.09888888888888887,-0.6144444444444445,-0.03983016595681617,0.01504728899702376,-1.2530856344107018
1589986529.4345782,-1.0847851485704656,-3.1645273268550245,8.366833960568442,0.5344444444444445,0.09888888888888887,-0.6144444444444445,0.04305500459119009,0.07061488750793556,-1.1608314458186286
1589986529.4445782,-1.1824516893309311,-3.3786453268836842,8.824516893309312,0.5344444444444445,0.09888888888888887,-0.6144444444444445,0.028009629130160238,0.06003082554726727,-1.0711112950159019
1589986529.4545782,-1.199089177149581,-3.4297954781049507,9.053624240047068,0.5344444444444445,0.09888888888888887,-0.6144444444444445,-0.0006487895856783464,0.04007486690072088,-1.0080249202065836
1589986529.4645782,-1.146209480850587,-3.353413694561959,8.683466365954109,0.5344444444444445,0.09888888888888887,-0.6144444444444445,0.039088250753259654,0.05866154705925639,-0.9503421197145769
1589986529.4745781,-1.1271270276093446,-3.427071624242051,9.004198651851395,0.5344444444444445,0.17888888888888888,-0.6222222222222222,0.01761603242584253,0.042373617041612764,-0.8490699585220437
1589986529.4845781,-1.107088933784118,-3.3761995959429374,8.837223344602952,0.5344444444444445,0.17888888888888888,-0.6222222222222222,0.030804973146123526,0.03185462904689427,-0.756127904698695
1589986529.4945781,-1.0980636067758387,-3.4206360677583865,8.683236718689937,0.5344444444444445,0.17888888888888888,-0.6222222222222222,0.04049950741048917,0.03634741201409663,-0.6848243535813554
1589986529.504578,-1.0943406934835744,-3.372555201126807,8.762637226065703,0.5344444444444445,0.17888888888888888,-0.6222222222222222,0.025038179363594655,0.020818694602252365,-0.6116532537407128
1589986529.514578,-1.1088444803927038,-3.4876889607854076,8.72773247057511,0.5368838747265143,0.1818418834408682,-0.6222222222222222,0.03247282820341029,0.025089107997418484,-0.5386476706755604
1589986529.524578,-1.0849684148670486,-3.4499578864893983,8.879873659468194,0.5555555555555556,0.20444444444444448,-0.6222222222222222,0.028630288403081166,0.023176134490598882,-0.45156489604686784
1589986529.534578,-1.0505977295255196,-3.4154345508612467,8.697880454094895,0.5555555555555556,0.20444444444444448,-0.6222222222222222,0.0208265871060441,0.01583484637720215,-0.38024952580244237
1589986529.544578,-1.0898195215919506,-3.509566851820681,8.69003609568161,0.5555555555555556,0.20444444444444448,-0.6222222222222222,0.013125406242511219,0.009845039038898797,-0.3220628259446383
1589986529.554578,-1.062627216771284,-3.485254433542568,8.745457980376623,0.5555555555555556,0.20444444444444448,-0.6222222222222222,0.014158596657227294,0.007073747449806989,-0.2168532905645284
1589986529.564578,-1.0965737104825293,-3.56,8.850876539101499,0.5589818450730265,0.21110667406174896,-0.6233643187280459,0.008757066100095842,0.00124728604614237,-0.13536734473900797
1589986529.574578,-1.088965958715516,-3.5480453883793124,8.718965958715517,0.5755555555555556,0.2433333333333333,-0.6288888888888889,0.012550742878874407,-0.004902549641068886,-0.028686215240247993
1589986529.584578,-1.109397719610127,-3.521204560779746,8.740602280389874,0.5755555555555556,0.2433333333333333,-0.6288888888888889,0.008595249062178137,-0.0093836322489392,0.0428040247088972
1589986529.594578,-1.0839750008877527,-3.4939281275522887,8.743990625332907,0.5755555555555556,0.2433333333333333,-0.6288888888888889,0.006763491723992709,-0.020290475171978132,0.14925257997417507
1589986529.604578,-1.0243989915130856,-3.3226471006001206,8.721649621817408,0.5755555555555556,0.2433333333333333,-0.6288888888888889,0.007575833535545013,-0.02272750060663504,0.2134275830868071
1589986529.614578,-1.0777848287592817,-3.538892414379641,8.772768964050897,0.576847738779308,0.24388712614351288,-0.6288888888888889,-0.0019400238672052702,-0.02854282861824858,0.3034787506619941
1589986529.624578,-1.0536303885156284,-3.506369611484372,8.82,0.5988888888888889,0.2533333333333333,-0.6288888888888889,0.0006948168279695636,-0.0328235684820159,0.40082238650765845
1589986529.634578,-1.0866962119798471,-3.47,8.801829165889158,0.5988888888888889,0.2533333333333333,-0.6288888888888889,-0.005074429183102332,-0.03635780318950563,0.4620551776000879
1589986529.644578,-1.063666984020791,-3.451000952062373,8.703666984020792,0.5988888888888889,0.2533333333333333,-0.6288888888888889,-0.013835387733645768,-0.03921531470380043,0.523334734089127
1589986529.654578,-1.0487998859749146,-3.3781998289623716,8.685039908779931,0.5988888888888889,0.2533333333333333,-0.6288888888888889,-0.012614363437326819,-0.04492913702564329,0.5779613600152178
1589986529.664578,-1.13,-3.502236089443578,8.755366614664586,0.6035598312821402,0.2535817877159531,-0.6295348702837003,-0.015369198762849184,-0.04620516409644635,0.6217383762317606
1589986529.674578,-1.13,-3.547676157046282,8.864422776911075,0.6984790836077888,0.25863068411625356,-0.6426620009244814,-0.017351895742839164,-0.05413595201640628,0.6653577097915402
1589986529.684578,-1.134088455924782,-3.5054512745663757,8.731362818641594,0.7033333333333334,0.2588888888888889,-0.6433333333333333,-0.015717612312513597,-0.05875620180228756,0.7132507465161095
1589986529.694578,-1.1554436373510741,-3.5339248498014326,8.738481212450358,0.7033333333333334,0.2588888888888889,-0.6433333333333333,-0.018047101239073226,-0.05797970549343434,0.7466400877967976
1589986529.704578,-1.1578908151973442,-3.5123998524529694,8.724654371080783,0.7033333333333334,0.2588888888888889,-0.6433333333333333,-0.019896737377851068,-0.05939672191859456,0.7983056167996004
1589986529.714578,-1.201210770933235,-3.580474068609369,8.805105717447436,0.7033333333333334,0.2588888888888889,-0.6433333333333333,-0.027322482425622924,-0.062096992845057056,0.8212579196745315
1589986529.724578,-1.1351753338701167,-3.3425876669350583,8.830517533387011,1.2188888888888891,0.3555555555555556,-0.92,-0.024224093754730832,-0.0644719244371953,0.87813882960779
1589986529.734578,-1.2189566203572442,-3.3918405632737927,8.823434930535866,1.2188888888888891,0.3555555555555556,-0.92,-0.029967794805856228,-0.06754454927037654,0.924703522398191
1589986529.744578,-1.182146470560682,-3.4104112604805845,8.729177479038832,1.2188888888888891,0.3555555555555556,-0.92,-0.03538470809235793,-0.07085913930308502,0.9592987092264391
1589986529.7545779,-1.2610907506091642,-3.470545375304582,8.648454406783019,1.2188888888888891,0.3555555555555556,-0.92,-0.027702140312232004,-0.06703153969912956,0.9979762513195622
1589986529.7645779,-1.3940347471225658,-3.537017373561283,8.764780403732244,1.2188888888888891,0.3555555555555556,-0.92,-0.030421254132449255,-0.07700162370659282,1.031511988435575
1589986529.7745779,-1.3349421893608575,-3.3466281262405717,8.841801558158,1.0355555555555556,-0.3977777777777778,-1.02,-0.032344496780799536,-0.07818461429554367,1.0743600875241142
1589986529.7845778,-1.32948571032507,-3.34948571032507,8.87466857657741,1.0355555555555556,-0.3977777777777778,-1.02,-0.024451439618176626,-0.08202486481364815,1.1105660921060994
1589986529.7945778,-1.4020207859986953,-3.409254043596608,8.762020785998695,1.0355555555555556,-0.3977777777777778,-1.02,-0.022687012875204113,-0.08325129835984066,1.1321432898948218
1589986529.8045778,-1.3646884588634784,-3.3,8.730314609499652,1.0355555555555556,-0.3977777777777778,-1.02,-0.02716848325739639,-0.08488022842469356,1.1499745359339633
1589986529.8145778,-1.4075872437916785,-3.3,8.824691936341694,1.0355555555555556,-0.3977777777777778,-1.02,-0.02623257695476887,-0.08300841581943852,1.1621413178681208
1589986529.8245778,-1.4359663700172742,-3.3432772833621236,8.873277283362125,0.7047247671873216,-0.014052531966948223,-0.7487956909306919,-0.029012430352368515,-0.08479146718469971,1.1675464334286447
1589986529.8345778,-1.47,-3.3547706917850526,8.806403798641137,0.6533333333333333,0.045555555555555564,-0.7066666666666667,-0.029794688549725893,-0.08617563181722003,1.1657058217744813
1589986529.8445778,-1.47,-3.322387276096356,8.722206917850524,0.6533333333333333,0.045555555555555564,-0.7066666666666667,-0.031914178150262436,-0.08617563181722003,1.1565213668388228
1589986529.8545778,-1.468593620378353,-3.4185936203783527,8.769296810189177,0.6533333333333333,0.045555555555555564,-0.7066666666666667,-0.029350156315193086,-0.08921800583723413,1.1284473484166702
1589986529.8645778,-1.4276583112383492,-3.377658311238349,8.748829155619175,0.6533333333333333,0.045555555555555564,-0.7066666666666667,-0.02637325662846479,-0.08251998154209547,1.1120744001396645
1589986529.8745778,-1.4724602491675707,-3.4670747128586927,8.855997605596917,0.6216074924863132,0.12189586009369766,-0.7136066943519523,-0.029955791031303122,-0.08060398372901821,1.066078118397833
1589986529.8845778,-1.4389465498034764,-3.455367929882086,8.771471719528343,0.6177777777777778,0.13111111111111112,-0.7144444444444444,-0.026960672533736522,-0.0771388885285735,1.0165959841669987
1589986529.8945777,-1.4364375068184296,-3.3981250227280992,8.756437506818429,0.6177777777777778,0.13111111111111112,-0.7144444444444444,-0.02500275072575425,-0.06745879397145181,0.9402870505361935
1589986529.9045777,-1.3678010109458527,-3.1693367031528417,8.687801010945853,0.6177777777777778,0.13111111111111112,-0.7144444444444444,-0.023338955114632073,-0.06413120274920744,0.8770628173135507
1589986529.9145777,-1.5307944129201223,-3.281754692274116,8.841754692274115,0.6177777777777778,0.13111111111111112,-0.7144444444444444,-0.019949204768675913,-0.05636562150271189,0.7778347208047132
1589986529.9245777,-1.534328094900132,-3.2686561898002635,8.844328094900131,0.6221310847499634,0.1189218515889914,-0.7423056090664324,-0.01536110495911135,-0.05306806043182434,0.6878325682693293
1589986529.9345777,-1.5184528511051063,-3.2808300422642556,8.763811404420425,0.6233333333333333,0.11555555555555555,-0.75,-0.00863610269470935,-0.03741346276625152,0.5344085284907909
1589986529.9445777,-1.51,-3.338751752172694,8.746227221754976,0.6233333333333333,0.11555555555555555,-0.75,-0.001500847987888136,-0.026045305123622804,0.42380840129811215
1589986529.9545777,-1.505582408484299,-3.321164816968598,8.845863707149755,0.6233333333333333,0.11555555555555555,-0.75,0.004043507517060874,-0.016489523557978912,0.3101027914723498
1589986529.9645777,-1.4642421494608606,-3.2384842989217213,8.713574878274754,0.6233333333333333,0.11555555555555555,-0.75,0.011258743852923806,-0.007470478138150244,0.21089329185423447
1589986529.9745777,-1.53,-3.31,8.94,0.5311111111111111,0.024444444444444446,-0.6933333333333334,0.001090830782496456,-0.011999138607461015,0.07417649320975901
1589986529.9845777,0.8276601485089417,-2.5814456939569754,6.8338452355370904,0.5311111111111111,0.024444444444444446,-0.6933333333333334,-0.21608802267491914,0.3540366144079712,-0.2410602940825451
1589986529.9945776,11.264034555998377,1.1096451328067203,-3.680044865522755,0.5311111111111111,0.024444444444444446,-0.6933333333333334,-1.176015026854787,1.655934572107988,-2.3076473789952283
1589986530.0045776,2.1804811095750987,0.624288665745059,-1.6304811095750984,0.5311111111111111,0.024444444444444446,-0.6933333333333334,-0.3520474357570238,-1.3413584400164666,-4.545066090874417
1589986530.0145776,0.9061407932915067,-0.14031552402509606,-0.3561407932915066,0.5311111111111111,0.024444444444444446,-0.6933333333333334,-0.3569127495123482,-1.2927053024632222,-4.502668356720875
1589986530.0245776,-0.5252780557779557,-0.7793426407792902,0.05879036562583401,0.5433333333333333,0.17333333333333334,-0.6344444444444445,-0.3669867016093919,-0.7563297028131956,-4.298113840044567
1589986530.0345776,0.027413597544702406,-0.45052608753669604,0.19871230317587407,0.5433333333333333,0.17333333333333334,-0.6344444444444445,-0.3570656764286934,-0.6929877728133513,-4.163035266430441
1589986530.0445776,0.26978189607003167,-0.25873943006146394,0.2091670702179177,0.5433333333333333,0.17333333333333334,-0.6344444444444445,-0.33796233486002114,-0.5582469257796763,-3.872120403251201
1589986530.0545776,6.19914248463401,-3.0085878189607005,9.958629539951575,0.5433333333333333,0.17333333333333334,-0.6344444444444445,-0.3311450183377267,-0.47303046925099523,-3.670157401278227
1589986530.0645776,0.31518102932375847,-0.34610143626570933,0.03721454219030562,0.5433333333333333,0.17333333333333334,-0.6344444444444445,1.4086298061504008,1.4739951479866071,-3.566086939313722
1589986530.0745776,4.4573866841051215,4.332386071034454,16.551121101892345,0.4998243893134971,0.23134525869311498,-0.639883062446924,2.2049448970805967,3.15359794475572,-3.414931298542958
1589986530.0845776,-0.038538433778419354,-0.20413929989173585,-0.2031577047997113,0.49,0.24444444444444444,-0.6411111111111111,-0.4863786530236841,1.7662554096038379,-2.4520356464421287
1589986530.0945776,-0.572758551931939,-0.8201395781637717,10.650917227933357,0.49,0.24444444444444444,-0.6411111111111111,-0.3413778328102113,-0.1907150479768703,-1.978200960721648
1589986530.1045775,3.2687096910171562,-1.9862154870800488,18.229755511528897,0.49,0.24444444444444444,-0.6411111111111111,0.24497843962523702,-0.3162630794124953,-1.7630514012181155
1589986530.1145775,0.5636222231589598,0.32990515533448583,1.8224276019053214,0.49,0.24444444444444444,-0.6411111111111111,1.503404729320359,0.3327184477636097,-1.504615963947393
1589986530.1245775,1.2741250488132945,-1.7073436889833817,10.25459452423309,0.4844444444444445,0.2933333333333333,-0.6355555555555555,0.022189770936482778,-0.09648596350186,-1.1052155780120156
1589986530.1345775,0.19536509315817724,-3.0118907659672347,15.120875610192451,0.4844444444444445,0.2933333333333333,-0.6355555555555555,-1.0887723192658065,-0.0534045682103195,-0.7770982645698807
1589986530.1445775,0.10485812205973136,-2.347021521169934,9.942978478830065,0.4844444444444445,0.2933333333333333,-0.6355555555555555,-0.535071086847834,0.15261576465970225,-0.5454500827182889
1589986530.1545775,0.06021606317985397,-2.6684443451050512,9.621555654894948,0.4844444444444445,0.2933333333333333,-0.6355555555555555,0.45445057180241666,0.1896254329950462,-0.38475020705166346
1589986530.1645775,-0.08868272943590327,-2.2298991208697263,7.7049664448655655,0.4844444444444445,0.2933333333333333,-0.6355555555555555,0.3839846675152643,0.2676546512396354,-0.27757730548890797
1589986530.1745775,-0.23140945515892797,-2.3492707334841456,8.68787239753077,0.4792682625495785,0.3140380609127973,-0.6355555555555555,0.052080362889402265,0.0903336373477551,-0.17458595895704215
1589986530.1845775,-0.17500808799741185,-2.0370598511808478,7.428788741507603,0.4744444444444445,0.3333333333333333,-0.6355555555555555,-0.1493398512529613,-0.11917370411956507,-0.006284187558691173
1589986530.1945775,-0.3281265168715259,-2.940852775385579,10.317654427307602,0.4744444444444445,0.3333333333333333,-0.6355555555555555,0.07892717527826426,0.03633978962705138,0.13821980212775892
1589986530.2045774,-0.2300602581328122,-2.420331419730467,8.420257725662637,0.4744444444444445,0.3333333333333333,-0.6355555555555555,0.08025074318450323,0.015694888043716763,0.2335115576561766
1589986530.2145774,-0.2914457831325301,-2.608647925033467,9.258862115127176,0.4744444444444445,0.3333333333333333,-0.6355555555555555,-0.05595655254950694,-0.049636451309018795,0.3418286919543513
1589986530.2245774,-0.2879757710123125,-2.5628748168969477,8.44615602359555,0.483004935534529,0.3434502773488878,-0.6410031407947002,-0.006063721848463016,-0.02496108361582338,0.45383846496972235
1589986530.2345774,-0.30775128832439747,-3.0116048097444175,9.668368122429857,0.4866666666666667,0.3477777777777778,-0.6433333333333333,-0.035948356544048904,-0.013029383452477708,0.6091626427572181
1589986530.2445774,-0.1985872677112071,-2.6040591327885068,8.13279423247098,0.4866666666666667,0.3477777777777778,-0.6433333333333333,-0.033566767063530005,-0.0630427625433749,0.6853735061338233
1589986530.2545774,-0.3486918146859549,-3.105524629188793,9.367675517304523,0.4866666666666667,0.3477777777777778,-0.6433333333333333,-0.0013086373903034784,-0.03413870888275917,0.8563940888753753
1589986530.2645774,-0.3114457720079038,-2.886385477645842,8.385300917803919,0.4866666666666667,0.3477777777777778,-0.6433333333333333,-0.003614199103846358,-0.06073168301845576,0.9583277278962105
1589986530.2745774,-0.40477588854265456,-3.152943255204805,9.214521970825995,0.4755555555555556,0.3555555555555556,-0.6522222222222223,-0.046235906845563356,-0.08312641173699208,1.1341749877293448
1589986530.2845774,-0.43792417468274397,-3.0345565189902,8.968277559499617,0.4755555555555556,0.3555555555555556,-0.6522222222222223,-0.0415868705858849,-0.08467609049021822,1.223023236247644
1589986530.2945774,-0.4694448989609752,-2.9216653031170745,8.726946944285364,0.4755555555555556,0.3555555555555556,-0.6522222222222223,-0.036634105629306496,-0.08672060098790764,1.3102988097923898
1589986530.3045774,-0.45228749079604025,-2.973137527611879,8.63258119937822,0.4755555555555556,0.3555555555555556,-0.6522222222222223,-0.022597233898681183,-0.103564847064658,1.350537842086849
1589986530.3145773,-0.4068963881708445,-3.324828894633244,9.016553228828231,0.4755555555555556,0.3555555555555556,-0.6522222222222223,-0.012262410475828848,-0.08700308725414775,1.392577285006711
1589986530.3245773,-2.4750799614454038,-21.657759112457462,4.268941322265279,0.4850308065210597,0.35160753431992886,-0.6719623284003559,-0.09928021370915203,0.016781010142021796,1.205422216097626
1589986530.3345773,-1.305883290277409,-1.9789869383616214,9.6931555566286,0.4888888888888889,0.35,-0.68,-0.6949456974598689,-0.3656682638314122,-3.311202105005846
1589986530.3445773,0.9962844204708154,-2.9097156461225984,13.288481836646357,0.4888888888888889,0.35,-0.68,0.297987434772664,0.4909373958404491,-4.596377130823235
1589986530.3545773,0.22817434155761984,-0.6333166849798557,4.818322511903572,0.4888888888888889,0.35,-0.68,0.9401067564378284,0.7049771697288373,-4.336634914111705
1589986530.3645773,-0.5726622938760498,-2.675973763256298,10.08777723288175,0.4888888888888889,0.35,-0.68,0.5511593545526884,0.3105410613002469,-4.032573647746556
1589986530.3745773,-0.9687193237019747,-2.5800853784198683,9.797341072066958,0.4977777777777778,0.3422222222222222,-0.6733333333333333,-0.4880868234028158,0.055954345405460695,-3.7181884447830376
1589986530.3845773,-0.04259163459718618,-2.6418272243601875,7.8745235842113015,0.4977777777777778,0.3422222222222222,-0.6733333333333333,-0.05031243362376442,0.28879259227695614,-3.390098187827748
1589986530.3945773,-0.22913385826771654,-2.7748425196850395,8.125314960629922,0.4977777777777778,0.3422222222222222,-0.6733333333333333,0.167811861519878,0.3565771222043238,-3.149529091723862
1589986530.4045773,-0.4537864390401031,-2.9565050732807214,8.966311805443711,0.4977777777777778,0.3422222222222222,-0.6733333333333333,0.07329701198940514,0.18628803675634034,-2.8563982923133753
1589986530.4145772,-0.26672757662683805,-2.9768073091952205,8.664299008425,0.4977777777777778,0.3422222222222222,-0.6733333333333333,0.032054478815112086,0.13443710194225983,-2.543704317619788
1589986530.4245772,-0.3808493525295584,-3.0433057186519745,9.187583849432961,0.4511111111111111,0.4155555555555556,-0.6733333333333333,0.12952310458264643,0.19462551407577117,-2.0721188340070404
1589986530.4345772,-0.4001266215486436,-1.7565480116280408,10.04060300352748,0.4511111111111111,0.4155555555555556,-0.6733333333333333,-0.050268334151886196,0.006948485923057329,-0.45241876751261056
1589986530.4445772,-0.41940389056772875,-0.469790304604107,10.893622157621996,0.4511111111111111,0.4155555555555556,-0.6733333333333333,-0.23005977288641882,-0.1807285422296565,1.1672812989818193
1589986530.4545772,-0.7478498114577241,-1.6266518118206932,7.1169421870904,0.4511111111111111,0.4155555555555556,-0.6733333333333333,0.1354202923435258,-0.15702769883106005,2.6040723071302407
1589986530.4645772,4.180416247062772,-5.901409869083585,6.786371265525344,0.4511111111111111,0.4155555555555556,-0.6733333333333333,0.05999642538425537,0.014311890276560602,2.959303808013033
1589986530.4745772,0.5759157852900261,-1.7203634436618165,8.20422464616132,0.4119728361804804,0.4498015461198574,-0.6839332827937125,-0.2528247520994334,-0.40247240910608617,2.2608710202607623
1589986530.4845772,-1.255280875045449,-2.1746055023633497,13.614671554963035,0.3977777777777778,0.4622222222222222,-0.6877777777777778,-0.2356660846462525,-0.2177300092745359,-0.31775410871306464
1589986530.4945772,-0.26158948596461984,-1.005585105116545,5.024126330325467,0.3977777777777778,0.4622222222222222,-0.6877777777777778,0.44597261217389994,0.4905318588436281,-0.6816153836388542
1589986530.5045772,-0.22958786914134668,-1.3032322428445555,5.299306199016571,0.3977777777777778,0.4622222222222222,-0.6877777777777778,0.41895234608477283,0.32003216584078187,-0.6062416014151335
1589986530.5145772,0.49013927683183456,-4.082739238568969,7.2900042089152475,0.3977777777777778,0.4622222222222222,-0.6877777777777778,0.05564618528857074,0.023204873643294877,-0.49091091574440604
1589986530.5245771,-4.782639740353408,-13.063636855391273,8.343166245943022,0.4344578675321553,0.4328781504187202,-0.701401811115118,-0.21906718351238463,-0.10623110451250196,-0.40254094803384083
1589986530.5345771,-0.675553839902479,-3.8087980495733422,9.464619260463227,0.43666666666666665,0.4311111111111111,-0.7022222222222222,0.04483717870799189,0.09319400427152676,-0.5222034341503919
1589986530.5445771,0.3599524492414522,-4.1243683800035225,8.779228872619317,0.43666666666666665,0.4311111111111111,-0.7022222222222222,0.13395839472076906,0.036456120773666056,0.02163732167800536
1589986530.554577,-0.28647970784813626,-5.371840648613887,8.784512506029078,0.43666666666666665,0.4311111111111111,-0.7022222222222222,-0.029911096671747628,0.003985281703285876,0.0797724533701783
1589986530.564577,-0.05329512578616358,-4.924915408805031,8.750540094339623,0.43666666666666665,0.4311111111111111,-0.7022222222222222,-0.0767473549652615,-0.017400328912139062,-0.027070818221808512
1589986530.574577,0.16362447944957448,-4.256697809161688,8.653853340575774,0.4221407447643189,0.4369214798720502,-0.6867279055263846,-0.043448285809231824,-0.017653525047065313,-0.06026114235319774
1589986530.584577,0.04898583639592022,-4.229743155634472,8.690757319238552,0.4033333333333333,0.4444444444444444,-0.6666666666666666,0.007042090385841802,0.002085042164222589,0.0013946976718188777
1589986530.594577,0.09707404770380919,-4.287555713777144,8.686333570665717,0.4033333333333333,0.4444444444444444,-0.6666666666666666,-0.002714922095617381,0.004177466379361828,-0.00031917188328011293
1589986530.604577,0.13647875389857397,-4.409835223277867,8.629601038417855,0.4033333333333333,0.4444444444444444,-0.6666666666666666,8.703991496744699e-05,0.004127748990493043,0.0006632024609946182
1589986530.614577,0.13739831030045319,-4.460447043025793,8.66085380182398,0.4033333333333333,0.4444444444444444,-0.6666666666666666,0.0037469576584683558,0.0026561268759719,0.001090830782496456
1589986530.624577,0.09044646606018195,-4.341339398180545,8.744330300909727,0.4189310318015707,0.44772817043775753,-0.676517844646606,0.012943863713421554,0.002181661564992912,0.001090830782496456
1589986530.634577,0.07182139632861873,-4.277285585314474,8.841786036713811,0.4244444444444445,0.4488888888888889,-0.68,0.003872400037833115,-0.001386927492039581,0.00019868351823833274
1589986530.644577,0.10150292955443521,-4.33300585910887,8.71823681700504,0.4244444444444445,0.4488888888888889,-0.68,-0.006641151409282484,-0.0004634433001531476,-0.0017182182648397644
1589986530.654577,0.10209676245907603,-4.38951618770462,8.624677337213532,0.4244444444444445,0.4488888888888889,-0.68,-0.01476141261368667,-0.0008621094791021463,-0.002181661564992912
1589986530.664577,0.1,-4.406436939375194,8.655058575626352,0.4244444444444445,0.4488888888888889,-0.68,-0.0100430112834749,-0.001090830782496456,-7.517808033559881e-05
1589986530.674577,0.1,-4.41,8.713098710512979,0.4244444444444445,0.4488888888888889,-0.6895618497037496,0.0006760337627206483,-0.001090830782496456,-0.00035337290904342085
1589986530.684577,0.1,-4.3502848423194305,8.771800610376399,0.4244444444444445,0.4488888888888889,-0.6944444444444444,0.006968888417169627,0.00021195186109544575,0.002166125826483298
1589986530.694577,0.08650553814650493,-4.357230616487232,8.685297074245293,0.4244444444444445,0.4488888888888889,-0.6944444444444444,0.0028385765067650004,0.002562848220798118,0.0006832795342316704
1589986530.704577,0.08,-4.348663213467477,8.673871501145532,0.4244444444444445,0.4488888888888889,-0.6944444444444444,0.0,0.000537841837553637,-0.0004071681550125232
1589986530.714577,0.09475583909117884,-4.369348904243144,8.709837226060786,0.4244444444444445,0.4488888888888889,-0.6944444444444444,-0.0010730749001481605,-1.7755882348295497e-05,0.0005365374500740802
1589986530.724577,0.09728199320498301,-4.333691959229898,8.783590033975086,0.4244444444444445,0.43334465836164593,-0.68525921731471,0.0054485947522090825,0.005252788773697544,-0.0009901482131040881
1589986530.734577,0.08460465988307682,-4.360139421520001,8.787627959298462,0.4244444444444445,0.4244444444444445,-0.68,0.006286235193521404,0.0035160333203707074,0.0007610399757960059
1589986530.744577,0.061797821315340215,-4.353258678156247,8.711460856840906,0.4244444444444445,0.4244444444444445,-0.68,0.0006250927717923356,0.0019855496817727746,-3.675712213192274e-05
1589986530.754577,0.06522458480120785,-4.320149723200805,8.705374308002012,0.4244444444444445,0.4244444444444445,-0.68,-0.006626646033124859,0.0005045847221751662,-0.0010744985148672312
1589986530.764577,0.0832822682768632,-4.339846804830589,8.723435463446274,0.4244444444444445,0.4244444444444445,-0.68,-0.010566978898335421,-0.002181661564992912,-0.00035803992728139847
1589986530.774577,0.095749715261959,-4.382998861047836,8.704250284738041,0.4161393001771704,0.43594387496836245,-0.6844720007593015,-0.0051270289181413724,-0.0009272682853260022,0.0001635624971704538
1589986530.784577,0.1073245851859885,-4.3633770740700575,8.714649170371978,0.41,0.4444444444444444,-0.6877777777777778,0.003918402343415043,0.000798988298989379,0.000291842483507077
1589986530.794577,0.09795056255752362,-4.356024718721239,8.683851687672572,0.41,0.4444444444444444,-0.6877777777777778,0.005230594967576875,0.0024052205098983167,0.0006571948637009303
1589986530.8045769,0.09,-4.3533089679600705,8.713528256319433,0.41,0.4444444444444444,-0.6877777777777778,0.0029035663868208677,0.0010828572327419334,0.00036095241091397786
1589986530.8145769,0.09591574817859144,-4.3559157481785915,8.716337007285635,0.41,0.4444444444444444,-0.6877777777777778,-0.0010448785423595327,-0.0006453080214704889,0.0
1589986530.8245769,0.08363754889178618,-4.387270751847023,8.7,0.41,0.4444444444444444,-0.6914138780240475,-0.0002977147898338868,-0.0004958752709653599,0.0
1589986530.8345768,0.0875768774841364,-4.374846245031727,8.7,0.41,0.4444444444444444,-0.6944444444444444,0.004099001466979396,-0.0006391133006621613,0.0
1589986530.8445768,0.09306854746035394,-4.343068547460354,8.693068547460353,0.41,0.4444444444444444,-0.6944444444444444,0.003941945552950448,-0.001090830782496456,0.0
1589986530.8545768,0.10467355080966909,-4.332663224595166,8.70467355080967,0.41,0.4444444444444444,-0.6944444444444444,-0.0015294159260244838,-0.001090830782496456,0.000800318045585642
1589986530.8645768,0.10441513635865796,-4.3579243182067104,8.715584863641343,0.41,0.4444444444444444,-0.6944444444444444,-0.005709348817897829,-0.0029184731353028015,0.0004816166648943409
1589986530.8745768,0.1,-4.388449202950274,8.703101594099452,0.4184492029502736,0.4444444444444444,-0.6916280434610199,-0.008096648010761109,-0.002980825530128074,0.0
1589986530.8845768,0.09652287710321755,-4.403477122896783,8.697385614483911,0.43,0.4444444444444444,-0.6877777777777778,-0.005692284107704816,-0.00033224024442974807,-0.00037929526903335395
1589986530.8945768,0.09,-4.403267516167298,8.703070064669193,0.43,0.4444444444444444,-0.6877777777777778,0.002203200182211301,0.0014580308128650061,0.0003779693389777449
1589986530.9045768,0.09653572377158035,-4.370392828685259,8.728428685258963,0.43,0.4444444444444444,-0.6877777777777778,0.007257921562572103,0.0014687246973995442,0.0004207448771158975
1589986530.9145768,0.1,-4.36,8.747870515716528,0.43,0.4444444444444444,-0.6877777777777778,0.002204422879609114,0.001090830782496456,0.0007196334167922371
1589986530.9245768,0.09495676452251227,-4.365043235477488,8.745129706432463,0.423836045527515,0.4506083989169294,-0.6771309473253037,-0.002181661564992912,0.002191094082940823,0.0010813982645485453
1589986530.9345767,0.09667466072285077,-4.376674660722851,8.699928053494343,0.4177777777777778,0.4566666666666666,-0.6666666666666666,-0.002181661564992912,0.0018163072716482337,-0.000728092537920567
1589986530.9445767,0.1,-4.355339261985076,8.67616518450373,0.4177777777777778,0.4566666666666666,-0.6666666666666666,0.0011809249532270232,-0.000254203824791518,0.0009267211284355048
1589986530.9545767,0.09424704101635195,-4.34,8.70876479491824,0.4177777777777778,0.4566666666666666,-0.6666666666666666,0.0013898409225485229,0.0007918206424443893,-0.00032854033492821493
1589986530.9645767,0.0950480876761351,-4.334951912323865,8.745144263028406,0.4177777777777778,0.4566666666666666,-0.6666666666666666,-0.0016519828289607479,0.000529678736032164,-0.000529678736032164
1589986530.9745767,0.1,-4.356430546372543,8.749427781450983,0.4277626508518496,0.4525552483420488,-0.6737148123660115,-0.005002367562371573,-0.001090830782496456,0.0005142057108690543
1589986530.9845767,0.09364136093958106,-4.38,8.720924082818744,0.43666666666666665,0.4488888888888889,-0.68,-0.0051577448506008716,0.00029640906188140785,0.0006936199221889319
1589986530.9945767,0.09591691773140106,-4.385916917731401,8.644913904954588,0.43666666666666665,0.4488888888888889,-0.68,0.00015472606925213093,-0.00020004041728581686,0.001090830782496456
1589986531.0045767,0.09428403755868545,-4.367136150234741,8.657159624413145,0.43666666666666665,0.4488888888888889,-0.68,0.0057665514605211715,-0.0004673160042385052,0.001090830782496456
