time,acc_x,acc_y,acc_z,mag_x,mag_y,mag_z,gyr_x,gyr_y,gyr_z
1589986592.5225394,-3.67,-0.61,8.95,0.3,-0.3377777777777778,-0.6377777777777778,0.001090830782496456,-0.002181661564992912,0.002181661564992912
1589986592.5325394,-3.699037014815157,-0.5906419901232288,9.008074029630313,0.3,-0.3377777777777778,-0.6377777777777778,0.0053140933947869295,0.0009857853942249442,0.0011258459119202935
1589986592.5425394,-3.7,-0.5668020380638393,9.13,0.30319796193616066,-0.3407980751619295,-0.6352904740496528,0.005847297630735535,-0.002879348629236112,-0.001090830782496456
1589986592.5525393,-3.7,-0.5510883410759778,9.13,0.3189116589240222,-0.35563878898379875,-0.6230687097257606,0.002419100754499297,-0.006307545505472351,-0.001090830782496456
1589986592.5625393,-3.7025968915605474,-0.5625968915605474,9.074031084394527,0.32,-0.3566666666666667,-0.6222222222222222,-0.007394815470893825,-0.006544984694978735,-0.001090830782496456
1589986592.5725393,-3.7055389745452145,-0.575948033939714,8.997025983030143,0.32,-0.3566666666666667,-0.6222222222222222,-0.01062851435706483,-0.006058362306220701,-0.000928623319577111
1589986592.5825393,-3.68,-0.6292694686270167,8.991011124929724,0.32,-0.3566666666666667,-0.6222222222222222,-0.014370785403206117,-0.003272492347489368,0.0
1589986592.5925393,-3.68,-0.679289231136174,9.019593846363527,0.32,-0.3566666666666667,-0.6222222222222222,-0.012032366974142509,-0.003272492347489368,0.0
1589986592.6025393,-3.707472976219073,-0.65,8.966263511890464,0.3,-0.35,-0.6144444444444445,-0.0036918713211587357,0.0008151752496628571,0.0017740739401614833
1589986592.6125393,-3.712232610504675,-0.6461163052523374,8.948348915757013,0.3,-0.35,-0.6144444444444445,0.002361766916667519,0.002181661564992912,0.001090830782496456
1589986592.6225393,-3.7080859486788134,-0.6238281026423733,8.974472717733473,0.3,-0.35,-0.6144444444444445,0.006568423561119853,0.000417581220085689,0.001090830782496456
1589986592.6325393,-3.7155389591605967,-0.5977694795802981,9.051152602098508,0.3,-0.35,-0.6144444444444445,0.010060789075947868,-0.003154909698911963,0.0015774548494559815
1589986592.6425393,-3.7045091645409842,-0.592254582270492,9.07872708864754,0.3,-0.35,-0.6144444444444445,0.010662371050732216,-0.005561237598049357,0.002780618799024679
1589986592.6525393,-3.7296910672946435,-0.59,9.159279157020835,0.2857043009322087,-0.35659801495436527,-0.6001487453766531,0.008749112480286494,-0.0011469963332835726,0.005431687692167433
1589986592.6625392,-3.710075594939022,-0.6239697620243914,9.090151189878043,0.2855555555555556,-0.3566666666666667,-0.6,0.003064221545368362,0.00044127999018772493,0.011549612488624721
1589986592.6725392,-3.6742896517163617,-0.64,9.007855174141818,0.2855555555555556,-0.3566666666666667,-0.6,-0.002649589978832534,-0.00030994790963442256,0.019246015923199182
1589986592.6825392,-3.7064533125182946,-0.6202560249780467,9.003290662503659,0.2855555555555556,-0.3566666666666667,-0.6,-0.004363323129985824,0.0076218514811181295,0.020739748863789726
1589986592.6925392,-3.72889415220784,-0.58277646194804,9.01555292389608,0.28833201750359566,-0.3577464018686823,-0.6052444281240756,-0.00451475563795343,0.008606016978727251,0.017786960762601715
1589986592.7025392,-3.6672868814835216,-0.5981782796291196,9.04635655925824,0.3037338351846752,-0.3637359976335466,-0.6343367504105593,-0.0053547944795994205,0.001885706245559329,0.013586766554371766
1589986592.7125392,-3.7149409134461835,-0.5866272756307889,9.043136378153944,0.3055555555555556,-0.3644444444444445,-0.6377777777777778,-0.004718339599919994,-0.0012747843606370273,0.015823491689372096
1589986592.7225392,-3.6913008435568413,-0.5708672290378942,8.964336145189472,0.3055555555555556,-0.3644444444444445,-0.6377777777777778,-0.0012800308084984337,-0.0021343615584924177,0.018402223282938265
1589986592.7325392,-3.6978483516941214,-0.6107582415293946,9.018606593223515,0.3055555555555556,-0.3644444444444445,-0.6377777777777778,-0.0036591978684381,-0.006158279174030003,0.013241966490390293
1589986592.7425392,-3.688709051201165,-0.6448362048046591,9.055163795195341,0.3021130254253283,-0.3644444444444445,-0.6377777777777778,-0.003343961483930533,-0.009712390941849057,0.009113373698269957
1589986592.7525392,-3.68,-0.61,9.083033260201843,0.2788888888888889,-0.3644444444444445,-0.6377777777777778,-0.01854412330243975,-0.016362461737446838,0.004363323129985824
1589986592.7625391,-3.68,-0.61,9.060948310662571,0.2788888888888889,-0.3644444444444445,-0.6377777777777778,-0.01854412330243975,-0.016362461737446838,0.004363323129985824
1589986592.7725391,-3.4468519450202253,-0.6497353645529371,8.936560745406613,0.2788888888888889,-0.3644444444444445,-0.6377777777777778,-0.014766618736413203,0.007930173609983994,-0.009286495275809669
1589986592.7825391,-3.7144165931156223,-0.4167502206531333,8.670309923086622,0.2788888888888889,-0.3644444444444445,-0.6377777777777778,-0.021595863738958644,0.027839553021992258,-0.021776343899441795
1589986592.7925391,-3.6555923752462247,-0.6155923752462246,9.031184750492448,0.2826171390530386,-0.362828869373313,-0.6360379277011746,-0.03126807258844605,0.022060629052563237,-0.007872599350752236
1589986592.802539,-3.6986231943532504,-0.6586231943532502,9.1172463887065,0.31130435179105564,-0.3503977438535055,-0.6226505617567666,-0.028451712063767228,0.023938202735682444,-0.0013010914598350094
1589986592.812539,-3.658728987094624,-0.6408838516119816,9.075690270965284,0.31222222222222223,-0.35,-0.6222222222222222,-0.024233336469686374,0.0342316922580306,-0.000759358273181256
1589986592.822539,-3.592146960566986,-0.592228605326423,9.010081644759437,0.31222222222222223,-0.35,-0.6222222222222222,-0.030732928669016654,0.05991553848216424,-0.0025966193299539414
1589986592.832539,-3.533218021168316,-0.5005613662618252,8.977343345093509,0.31222222222222223,-0.35,-0.6222222222222222,-0.04216075108251663,0.09205628902013294,-0.011167486140078925
1589986592.842539,-3.505567927241114,-0.44139198181027856,8.99974387267195,0.3095929232472517,-0.350927987873519,-0.6263981676530578,-0.07378899241619087,0.1419039650705368,-0.029188832837201282
1589986592.852539,-3.565968853773045,-0.5130672163059659,9.137906561319134,0.2933333333333333,-0.3566666666666667,-0.6522222222222223,-0.08798766250490118,0.13251734111494154,-0.06749131059078232
1589986592.862539,-3.575313977042539,-0.6105401755570561,9.194321404456447,0.2933333333333333,-0.3566666666666667,-0.6522222222222223,-0.0597982975952328,0.07070660542019735,-0.09357575124445966
1589986592.872539,-3.4876753777291296,-0.5858917925763765,8.993026133187389,0.2933333333333333,-0.3566666666666667,-0.6522222222222223,-0.006173371753321405,0.017753883446071303,-0.0964882587445988
1589986592.882539,-3.437047193067168,-0.5739370759104424,8.851640448296017,0.2933333333333333,-0.3566666666666667,-0.6522222222222223,0.01625509464754344,-0.0020027164151539168,-0.07158252316861499
1589986592.892539,-3.362330984574367,-0.69,8.928361264521044,0.29566251930849147,-0.3551595463297996,-0.6485229268499122,0.013358989741001637,0.002196410943312708,-0.020679770961829356
1589986592.902539,-3.5046293706293707,-0.6877237762237762,9.132276223776225,0.31222222222222223,-0.34444444444444444,-0.6222222222222222,0.017506308421610082,-0.012158186312461372,0.05100968840946714
1589986592.912539,-3.6646153846153844,-0.6810576923076923,9.138942307692309,0.31222222222222223,-0.34444444444444444,-0.6222222222222222,0.02405072100254205,-0.03179142405525729,0.12372538375315571
1589986592.922539,-3.416574749724761,-0.7887961184934839,8.93472232890391,0.31222222222222223,-0.34444444444444444,-0.6222222222222222,0.027078868026027825,-0.02067283110335418,0.3197294930285872
1589986592.932539,-2.88,-0.8911788668578793,8.879862410109324,0.31222222222222223,-0.34444444444444444,-0.6222222222222222,0.013900077997019103,0.02829304083444792,0.3874420817224057
1589986592.942539,-2.706999921832252,-0.7444691107115871,8.930777769092472,0.30961179580268144,-0.35013992026889706,-0.6222222222222222,-0.016573897423394657,0.006703895424933599,0.39419257538790464
1589986592.952539,-2.089597000714116,-0.5483987145917639,8.904793144489407,0.3,-0.3711111111111111,-0.6222222222222222,-0.05275084730731975,0.02464950397105179,0.3588428724458774
1589986592.962539,-2.0536528095695195,-0.6275647936203205,9.06317359521524,0.3,-0.3711111111111111,-0.6222222222222222,-0.07207932411252352,0.061106579705856444,0.2828269775061312
1589986592.972539,-1.829294267725608,-0.767323566931402,9.105765606353648,0.3,-0.3711111111111111,-0.6222222222222222,-0.030771294516586993,0.015271630954950384,0.22368131362289287
1589986592.982539,-1.8120006300535545,-0.7573331933214323,8.907332143232175,0.3,-0.3711111111111111,-0.6222222222222222,0.015489751292662212,0.014544372250963195,0.21474821241100442
1589986592.992539,-1.8925416729238624,-0.7392374981228412,8.768641687941132,0.3,-0.37074398057766433,-0.6220245365503663,0.00890254047122042,0.009013441873795897,0.2131096996032086
1589986593.002539,-1.99,-0.71,9.1,0.3,-0.3566666666666667,-0.6144444444444445,-0.02617993877991494,-0.02181661564992912,0.186532063806894
1589986593.012539,-2.0076185778549442,-0.6865085628600742,9.129364296424907,0.3,-0.3566666666666667,-0.6144444444444445,-0.021695531797385415,-0.02117598608099633,0.1724382132903726
1589986593.022539,-2.038867381794211,-0.6385543636763149,9.061952218293682,0.3,-0.3566666666666667,-0.6144444444444445,0.0006649228207163127,-0.011807299167395917,0.14538285255343975
1589986593.032539,-2.05,-0.611512223473428,8.950585564313995,0.3,-0.3566666666666667,-0.6144444444444445,0.017554375353542352,0.0017878704241432704,0.10748683329915384
1589986593.042539,-2.05,-0.6242916587857008,8.990020805749952,0.3,-0.3566666666666667,-0.6144444444444445,0.008410765433793838,0.0017135142138515352,0.07369699808236696
1589986593.0525389,-2.155671305405502,-0.6588194469287734,9.038819446928773,0.3053369346164395,-0.37587963128584884,-0.6368595698334903,0.003315418468504862,0.001090830782496456,0.022356977466021423
1589986593.0625389,-2.16,-0.6678692535933105,9.008522985626758,0.3055555555555556,-0.37666666666666665,-0.6377777777777778,-0.0001611172744521946,-0.0023427788394451065,-0.010176701730041406
1589986593.0725389,-2.1585950919107417,-0.6785950919107419,8.99,0.3055555555555556,-0.37666666666666665,-0.6377777777777778,-0.009434347794882818,0.002258287414509969,-0.06975896341200022
1589986593.0825388,-2.1430350021331455,-0.6630350021331454,8.99,0.3055555555555556,-0.37666666666666665,-0.6377777777777778,-0.005190991567930168,0.003106958659900499,-0.10540315571840247
1589986593.0925388,-2.1793473573801063,-0.6304894819649205,9.019510518035078,0.3055555555555556,-0.37666666666666665,-0.6377777777777778,-0.004363323129985824,0.009710688643505688,-0.16493417368126823
1589986593.1025388,-2.1319984410016564,-0.6480015589983436,8.984004676995031,0.2855555555555556,-0.3566666666666667,-0.6377777777777778,0.007198972983461703,0.013743957678440439,-0.2264483075500258
1589986593.1125388,-2.138057246608993,-0.64,8.952228986435973,0.2855555555555556,-0.3566666666666667,-0.6377777777777778,0.010665163123152096,0.016362461737446838,-0.27872852698250705
1589986593.1225388,-2.1278259974259974,-0.6421740025740026,8.926522007722008,0.2855555555555556,-0.3566666666666667,-0.6377777777777778,0.014417947065348779,0.017192475862578827,-0.3280794734981681
1589986593.1325388,-2.1172060358922837,-0.66,8.981441207178458,0.2855555555555556,-0.3566666666666667,-0.6377777777777778,0.016362461737446838,0.025570390369137518,-0.3877841007106872
1589986593.1425388,-2.1585186060713513,-0.66,8.989703721214271,0.2855555555555556,-0.3566666666666667,-0.6377777777777778,0.016362461737446838,0.03458339502021189,-0.43465172489627396
1589986593.1525388,-2.2444436790923827,-0.6737042139384117,9.041852106969205,0.2933333333333333,-0.3711111111111111,-0.6433333333333333,0.013978766643005331,0.03640148288128023,-0.5101062419147037
1589986593.1625388,-2.2221938749554866,-0.6908775499821946,9.045612250089027,0.2933333333333333,-0.3711111111111111,-0.6433333333333333,0.012898517683206046,0.03837052909412739,-0.5589561600410247
1589986593.1725388,-2.270878460172706,-0.709121539827294,8.957027681381648,0.2933333333333333,-0.3711111111111111,-0.6433333333333333,0.009014121679247103,0.04273405079687875,-0.6213981245176973
1589986593.1825387,-2.279340852231458,-0.7006591477685417,9.024726817851667,0.2933333333333333,-0.3711111111111111,-0.6433333333333333,0.01178343300461928,0.044580258347126867,-0.6703226245992724
1589986593.1925387,-2.28,-0.7648681286427104,9.03,0.2933333333333333,-0.3711111111111111,-0.6433333333333333,0.019075153760101868,0.047377567764595015,-0.7139360088164145
1589986593.2025387,-2.3177805192942187,-0.7516646105293359,9.001664610529335,0.33006439375826835,-0.35746814581042097,-0.6380860389869141,0.022786392538674427,0.054178377443569355,-0.7716450890693317
1589986593.2125387,-2.2902783916798217,-0.7797216083201783,8.962847989599776,0.3322222222222222,-0.3566666666666667,-0.6377777777777778,0.026149570958520902,0.053731007993298954,-0.8133953498856277
1589986593.2225387,-2.327689896879423,-0.8123101031205769,8.900770034373526,0.3322222222222222,-0.3566666666666667,-0.6377777777777778,0.02852959578455228,0.05789802919213438,-0.8800507274655579
1589986593.2325387,-2.285286109051695,-0.854713890948305,8.914904630316101,0.3322222222222222,-0.3566666666666667,-0.6377777777777778,0.03161328625501457,0.05943987442736552,-0.9155131678758741
1589986593.2425387,-2.279037703426665,-0.8609622965733347,8.947113110279995,0.3322222222222222,-0.3566666666666667,-0.6377777777777778,0.02878148143454158,0.06196741405748112,-0.9766041608987971
1589986593.2525387,-2.3084706196581197,-0.8907646901709402,9.038470619658119,0.3533333333333333,-0.3377777777777778,-0.6377777777777778,0.028611844618168056,0.06595033549630776,-1.037020659396307
1589986593.2625387,-2.2948477270109744,-0.9060596587637177,9.007880682472564,0.3533333333333333,-0.3377777777777778,-0.6377777777777778,0.031634092692397225,0.07239143538341934,-1.091590087156208
1589986593.2725387,-2.3224513401010216,-0.9405641751262771,8.938871649747446,0.3533333333333333,-0.3377777777777778,-0.6377777777777778,0.031634092692397225,0.0746497506984253,-1.1269703604246346
1589986593.2825387,-2.340878365291497,-0.9370269223319776,8.991756730582994,0.3533333333333333,-0.3377777777777778,-0.6377777777777778,0.03073489148954909,0.07792805950636918,-1.1925138320502002
1589986593.2925386,-2.349002130544257,-1.0020170443540577,9.008004261088514,0.3533333333333333,-0.3377777777777778,-0.6377777777777778,0.03250722213104624,0.08235888611011205,-1.2350497674461316
1589986593.3025386,-2.3679425898910154,-1.0541148202179698,8.987942589891015,0.3644444444444445,-0.3466666666666667,-0.6522222222222223,0.037007344647978044,0.08651227475908503,-1.2945238433527408
1589986593.3125386,-2.3501009157166886,-1.089932722855541,8.969697252849935,0.3644444444444445,-0.3466666666666667,-0.6522222222222223,0.045818562263857866,0.08945546296272282,-1.3396943156639298
1589986593.3225386,-2.38,-1.083310565429664,8.885546068929028,0.3644444444444445,-0.3466666666666667,-0.6522222222222223,0.04666373073896243,0.09211377154647266,-1.3903159483923953
1589986593.3325386,-2.38418432559704,-1.189163134880592,8.932510595358224,0.3644444444444445,-0.3466666666666667,-0.6522222222222223,0.04472406208235469,0.09617568450629768,-1.4338219566083497
1589986593.3425386,-2.4194542549613187,-1.1821091490077362,8.953672552976792,0.3644444444444445,-0.3466666666666667,-0.6522222222222223,0.04472406208235469,0.09771462549217891,-1.465370246818915
1589986593.3525386,-2.461066359432256,-1.2310663594322564,8.980266589858065,0.43,-0.2977777777777777,-0.68,0.04366231174220601,0.09938192297656856,-1.5140001108047563
1589986593.3625386,-2.4879128862432593,-1.2579128862432591,8.986978221560815,0.43,-0.2977777777777777,-0.68,0.04439443718841996,0.10231042476142439,-1.539624501422245
1589986593.3725386,-2.4749503910776363,-1.286699739281576,8.889801564310543,0.43,-0.2977777777777777,-0.68,0.04654572104915552,0.10636141278736455,-1.583040404628975
1589986593.3825386,-2.496566708118671,-1.3364917392076747,8.936416770296677,0.43,-0.2977777777777777,-0.68,0.04545673449707535,0.10690141668465268,-1.610350792776284
1589986593.3925385,-2.4700931892191504,-1.36,8.98596272431234,0.43,-0.2977777777777777,-0.68,0.04646532518759518,0.10690141668465268,-1.6436109631578597
1589986593.4025385,-2.431672059140734,-1.4166558817185324,8.975836029570367,0.4433770831835424,-0.27574493488723734,-0.6957377449218146,0.047678248394698274,0.11230908991610736,-1.6701943113131097
1589986593.4125385,-2.4084572639183137,-1.4546282082450595,8.966886743305665,0.4488888888888889,-0.26666666666666666,-0.7022222222222222,0.048501413631995546,0.11864812569103793,-1.708833038614125
1589986593.4225385,-2.393890181641371,-1.4983294550758866,8.843066543951656,0.4488888888888889,-0.26666666666666666,-0.7022222222222222,0.05326848015964972,0.11626459242721086,-1.7247232603729723
1589986593.4325385,-2.4191996206733046,-1.5916007586533902,8.892401137980086,0.4488888888888889,-0.26666666666666666,-0.7022222222222222,0.05240353148019152,0.12928501607273857,-1.7516128303936829
1589986593.4425385,-2.403289521100047,-1.623420957799905,8.940131436699858,0.4488888888888889,-0.26666666666666666,-0.7022222222222222,0.053271292798546165,0.11887188025248277,-1.7681002954424212
1589986593.4525385,-2.38,-1.6514624453570008,8.97036561133925,0.4633333333333333,-0.2466666666666667,-0.73,0.046985487668004394,0.12227275266542405,-1.7880910035684974
1589986593.4625385,-2.38,-1.714960732736597,8.98624018318415,0.4633333333333333,-0.2466666666666667,-0.73,0.050448781993477874,0.1266018705722659,-1.7976150629635497
1589986593.4725385,-2.300457997916469,-1.8106869968747041,8.862747987498816,0.4633333333333333,-0.2466666666666667,-0.73,0.05340074851976592,0.12557043954349345,-1.8168077908160438
1589986593.4825385,-2.3163470025570603,-1.8345205038355905,8.958082015342363,0.4633333333333333,-0.2466666666666667,-0.73,0.05166752698324737,0.12990349338478985,-1.8367398384860074
1589986593.4925385,-2.2871422395157803,-1.84,8.930713359273671,0.4633333333333333,-0.2466666666666667,-0.73,0.056645385264345795,0.1380681452155912,-1.8592434891440588
1589986593.5025384,-2.2647774726472254,-1.8476112636763873,8.859109890588902,0.4785558606861078,-0.20099908460834315,-0.7367655677123442,0.05532325125874206,0.13796582001716629,-1.8780836577853672
1589986593.5125384,-2.2784851739156373,-1.9978813913250997,8.932425869578188,0.4833333333333333,-0.18666666666666668,-0.7388888888888889,0.043451230924984936,0.13744467859455345,-1.9110038060066519
1589986593.5225384,-2.2703371833541772,-2.029325633291645,8.775732117021015,0.4833333333333333,-0.18666666666666668,-0.7388888888888889,0.05413694814453248,0.14482302708457115,-1.93334413840026
1589986593.5325384,-2.2675848375451264,-2.0772454873646207,8.799660649819494,0.4833333333333333,-0.18666666666666668,-0.7388888888888889,0.050002580424803246,0.1436383921494647,-1.9612397122040397
1589986593.5425384,-2.2423483754512636,-2.1529548736462094,8.900606498194946,0.4833333333333333,-0.18666666666666668,-0.7388888888888889,0.04816733311191721,0.13996789752369265,-1.983262679958672
1589986593.5525384,-2.2485731254639942,-2.1971343726800296,8.921438752783963,0.5077777777777778,-0.15444444444444444,-0.7888888888888889,0.055008482724813484,0.15489667539864524,-2.009307709926769
1589986593.5625384,-2.239483628483392,-2.2415491145498256,8.868709071208478,0.5077777777777778,-0.15444444444444444,-0.7888888888888889,0.05744790340772353,0.16138662841492338,-2.02268190772119
1589986593.5725384,-2.2252815494531544,-2.2841553516405377,8.833203873632884,0.5077777777777778,-0.15444444444444444,-0.7888888888888889,0.04737806116966382,0.15983742191676034,-2.030427940212005
1589986593.5825384,-2.2367104793199517,-2.4291227944853206,8.88868419172798,0.5077777777777778,-0.15444444444444444,-0.7888888888888889,0.049230917629038744,0.16272516314756957,-2.0431260556158617
1589986593.5925384,-2.146826201871562,-2.4051536538324165,8.852730480748626,0.5077777777777778,-0.15444444444444444,-0.7888888888888889,0.05315285909716494,0.1679544184384045,-2.0431260556158617
1589986593.6025383,-2.09,-2.402756667355799,8.804486665288401,0.5247866675855098,-0.15090092573450026,-0.7888888888888889,0.04728315064705529,0.16847735976518893,-2.0459091287026165
1589986593.6125383,-2.07953761924116,-2.54023119037942,8.81722571544696,0.5344444444444445,-0.14888888888888888,-0.7888888888888889,0.029528088002150822,0.16595759268895433,-2.048277582029358
1589986593.6225383,-2.060684879529501,-2.5518263454120027,8.699315120470498,0.5344444444444445,-0.14888888888888888,-0.7888888888888889,0.03274982639732973,0.17230145778956796,-2.0352910167588982
1589986593.6325383,-2.087209258205274,-2.6225580218807307,8.672790741794726,0.5344444444444445,-0.14888888888888888,-0.7888888888888889,0.03371428002220059,0.17037255053982625,-2.027575387759931
1589986593.6425383,-2.1060965881066243,-2.6621931762132487,8.839014175119557,0.5344444444444445,-0.14888888888888888,-0.7888888888888889,0.022402629287473216,0.1666578713094727,-2.0171063342884854
1589986593.6525383,-1.7482570947259297,-2.4075590687227333,8.504071098440672,0.5494185516344386,-0.14888888888888888,-0.8038629960788831,0.016540049799268323,0.15729529215387464,-2.0016111120568656
1589986593.6625383,-1.9650913374534775,-2.7932505889985317,9.559255300986786,0.5555555555555556,-0.14888888888888888,-0.81,-0.03635762425948903,0.10617947271438843,-1.985124005097897
1589986593.6725383,-1.9078058524259909,-2.7144830470857375,8.85034742377164,0.5555555555555556,-0.14888888888888888,-0.81,0.0612810795814832,0.17413601058770514,-1.932008550208408
1589986593.6825383,-1.928636637038027,-2.873524025930629,8.832842344449642,0.5555555555555556,-0.14888888888888888,-0.81,0.06950311839776038,0.16575648695760972,-1.8891575834305125
1589986593.6925383,-1.938497830014328,-2.896995660028656,9.137424050501485,0.5555555555555556,-0.14888888888888888,-0.81,-0.004508247758729558,0.10538940294703569,-1.8826662677629347
1589986593.7025383,-1.9250759464973928,-2.9383586488324642,8.89881432781682,0.4933333333333334,-0.2222222222222222,-0.7866666666666666,0.038610117526548776,0.12970277234272073,-1.8182126247865698
1589986593.7125382,-1.8716068268947215,-2.9256238941315247,8.560979983780596,0.4933333333333334,-0.2222222222222222,-0.7866666666666666,0.0544054265400856,0.13975314401064495,-1.7663279053994363
1589986593.7225382,-1.9179902683574166,-3.0879659392509584,8.877933500442348,0.4933333333333334,-0.2222222222222222,-0.7866666666666666,0.018987886518144224,0.11192507685054814,-1.7427162120514756
1589986593.7325382,-1.9156740563211503,-3.1228370281605753,8.78092570401438,0.4933333333333334,-0.2222222222222222,-0.7866666666666666,0.03325824757226762,0.11409606333157958,-1.6967532958336988
1589986593.7425382,-1.883644982834374,-3.125271003433125,8.746897024031876,0.4933333333333334,-0.2222222222222222,-0.7866666666666666,0.04311737779731153,0.11493483810986851,-1.652221371829551
1589986593.7525382,-1.8365239987771325,-3.1534760012228675,8.70370299602568,0.49072488875301473,-0.14983788511838037,-0.7149344407079045,0.03851156234309255,0.10403285854239072,-1.5976193088204087
1589986593.7625382,-1.8149662074763937,-3.190135170094425,8.801013775708187,0.4888888888888889,-0.09888888888888887,-0.6644444444444444,0.03600478820737663,0.09762566884093601,-1.5498862323026241
1589986593.7725382,-1.7656619758759333,-3.189846352670879,8.857293222286042,0.4888888888888889,-0.09888888888888887,-0.6644444444444444,0.033570771583090235,0.0948855177535663,-1.5021346066120407
1589986593.7825382,-1.7219953515650455,-3.187494189456307,8.703503486326216,0.4888888888888889,-0.09888888888888887,-0.6644444444444444,0.03855871313247573,0.09822791753342269,-1.438540066569117
1589986593.7925382,-1.6237004240099224,-3.1426686665320602,8.88587297008855,0.4888888888888889,-0.09888888888888887,-0.6644444444444444,0.04089641618770886,0.09361341190443208,-1.3808207944233715
1589986593.8025382,-1.5441383991936313,-3.1117232016127376,8.617272745973299,0.5032172464155679,-0.037016435932775184,-0.6507673758962509,0.05690969184718777,0.10516970346373686,-1.3236321304492482
1589986593.8125381,-1.4809702098064217,-3.069403036976933,8.921865074765272,0.5133333333333333,0.006666666666666667,-0.6411111111111111,0.02031066982640614,0.07089590845818017,-1.2638821655284485
1589986593.8225381,-1.5540718961500055,-3.2211378009541773,8.707724398091646,0.5133333333333333,0.006666666666666667,-0.6411111111111111,0.02542877476664919,0.06294158970449192,-1.2202803722109115
1589986593.8325381,-1.5593747584361528,-3.282343689609038,8.746095138992121,0.5133333333333333,0.006666666666666667,-0.6411111111111111,0.025787875354031202,0.062433011479313585,-1.1641888364130057
1589986593.842538,-1.599420641336567,-3.343540824575586,8.849420641336566,0.5133333333333333,0.006666666666666667,-0.6411111111111111,0.03323991553388958,0.0675683102883624,-1.1095597973543228
1589986593.852538,-1.5827594996143142,-3.3793101250964215,8.832759499614314,0.5071265832690524,0.0625274172451957,-0.6152496525099402,0.0482595947533558,0.07692220981062173,-1.035049295432164
1589986593.862538,-1.3022487871683572,-2.9078229381862073,8.385598059469372,0.5066666666666667,0.06666666666666668,-0.6133333333333333,0.04605758948401571,0.08451850892333959,-0.9793285620776292
1589986593.872538,-1.1797488004515946,-2.8608862545865086,8.267976291278577,0.5066666666666667,0.06666666666666668,-0.6133333333333333,0.07563955498746805,0.06619584835706618,-0.9344423479842551
1589986593.882538,-1.31366506376751,-3.1074231653773783,9.281618231235626,0.5066666666666667,0.06666666666666668,-0.6133333333333333,-0.02245382685760111,-0.007903676810120414,-0.9235135786282805
1589986593.892538,-1.3670295358649789,-3.192706047819972,9.188056258790436,0.5066666666666667,0.06666666666666668,-0.6133333333333333,-0.0009364881992065185,0.0066382653019770275,-0.8858377501387555
1589986593.902538,-1.4235353155187553,-3.3043265169573033,8.999814745117718,0.5219846480528955,0.11100819173206575,-0.6294575242662057,0.046779000613275126,0.0466724857520227,-0.8133686466458343
1589986593.912538,-1.3462099961442067,-3.2462099961442066,8.961789088104878,0.5277777777777778,0.12777777777777774,-0.6355555555555555,0.024296667908292893,0.025387498690789344,-0.7609633540836701
1589986593.922538,-1.2866998348306007,-3.165049752245901,8.769582645127501,0.5277777777777778,0.12777777777777774,-0.6355555555555555,0.03616655765382279,0.028597977043092943,-0.7052600907808877
1589986593.932538,-1.2903185955786736,-3.2009557867360208,8.76095578673602,0.5277777777777778,0.12777777777777774,-0.6355555555555555,0.028505105824963198,0.029417677740965865,-0.6432818731292645
1589986593.942538,-1.3198442605854135,-3.2763032746992975,8.816459014113883,0.5277777777777778,0.12777777777777774,-0.6355555555555555,0.026145961710419115,0.02764004266815952,-0.5737984547865896
1589986593.952538,-1.3081333866613338,-3.2726667333266675,8.862799920008,0.5472147674121477,0.14114070815140708,-0.6306963081469631,0.020013129116340234,0.024289172695065822,-0.5141013599345087
1589986593.962538,-1.2663876184253513,-3.257870793858216,8.905741587716433,0.5633333333333334,0.15222222222222226,-0.6266666666666667,0.021675673613183823,0.01580662269367067,-0.4373397545608553
1589986593.972538,-1.26,-3.283278246953876,8.892541314784593,0.5633333333333334,0.15222222222222226,-0.6266666666666667,0.02082419867244169,0.013545984463957859,-0.39259238896631793
1589986593.982538,-1.253892923028614,-3.293892923028614,8.751751383600896,0.5633333333333334,0.15222222222222226,-0.6266666666666667,0.017877944547293446,0.013756148145103772,-0.3344841612435445
1589986593.992538,-1.2697194228361488,-3.3425851275630634,8.794889677962274,0.5633333333333334,0.15222222222222226,-0.6266666666666667,0.01673627407185214,0.010595707931998169,-0.2825798474222492
1589986594.002538,-1.2881177454101154,-3.37,8.884353236230346,0.5750589655923889,0.18018334530150873,-0.6266666666666667,0.018133479053011485,0.007841137602189324,-0.23183319540033878
1589986594.012538,-1.2769705393891255,-3.461206224276121,8.883485269694564,0.5777777777777777,0.18666666666666668,-0.6266666666666667,0.012858948616972989,0.004793228134741811,-0.20087961166990642
1589986594.022538,-1.27,-3.360234404536862,8.723102709514809,0.5777777777777777,0.18666666666666668,-0.6266666666666667,0.012151318780898139,0.0024945451013460226,-0.15992967726458313
1589986594.032538,-1.2231250892134937,-3.3078124851310844,8.800624732359518,0.5777777777777777,0.18666666666666668,-0.6266666666666667,0.0037156601942965224,0.001329451638114644,-0.11767342905190037
1589986594.042538,-1.1961380215314716,-3.2684140645944155,8.886206594895095,0.5777777777777777,0.18666666666666668,-0.6266666666666667,0.0041150453464511875,0.0015948665431555777,-0.09194586238723544
1589986594.052538,-1.1814277167003215,-3.227138583501608,8.902879365791637,0.5863440779797073,0.18809438336698828,-0.6279357481780636,0.007480075744935686,0.002025921832453406,-0.06716689993604139
1589986594.062538,-1.2264966258355454,-3.324744938753318,8.825986503342182,0.6377777777777778,0.19666666666666666,-0.6355555555555555,0.0019002930211340857,-0.0015632787454147726,-0.01694620116408613
1589986594.072538,-1.255495715581219,-3.3874785779060943,8.832068550700498,0.6377777777777778,0.19666666666666666,-0.6355555555555555,0.0001081483630713362,-0.003871981920273264,0.017110153127163095
1589986594.082538,-1.2253467620234892,-3.3175913653959714,8.777326618988255,0.6377777777777778,0.19666666666666666,-0.6355555555555555,0.0004608171375305709,-0.010663459579644676,0.053346177251332574
1589986594.0925379,-1.1566908618744545,-3.2128778816066754,8.78381298026778,0.6377777777777778,0.19666666666666666,-0.6355555555555555,0.0006748991575819406,-0.017971227585278148,0.09327767650289402
1589986594.1025379,-1.139970747494865,-3.19,8.794956121242297,0.7762603818731285,0.22879463081678802,-0.7014732751049425,-0.0021720887050730763,-0.020722593914126054,0.13029205491884754
1589986594.1125379,-1.1674549026027172,-3.230728106073007,8.740180389589131,0.9155555555555556,0.2611111111111111,-0.7677777777777778,-0.009262222925386587,-0.022451293818746505,0.1795513181949723
1589986594.1225379,-1.1985068282392501,-3.26,8.74552048471775,0.9155555555555556,0.2611111111111111,-0.7677777777777778,-0.009980356814486148,-0.021393360087694425,0.22687558740201216
1589986594.1325378,-1.2142276451855296,-3.2542276451855296,8.78691058074212,0.9155555555555556,0.2611111111111111,-0.7677777777777778,-0.00826548170938677,-0.020894286548759362,0.27584271682922845
1589986594.1425378,-1.224371168185584,-3.2806186136426403,8.77061861364264,0.9155555555555556,0.2611111111111111,-0.7677777777777778,-0.014691360793877567,-0.02399827721492203,0.3437781679280869
1589986594.1525378,-1.2556425937584315,-3.3094981563090204,8.877931468657254,1.1615069300796435,0.07180601772741352,-1.0984564958879195,-0.019915338505871082,-0.02637487364499458,0.4025646302479306
1589986594.1625378,-1.264060893066418,-3.284060893066418,8.66581258520485,1.48,-0.17333333333333334,-1.5266666666666666,-0.012084973274759415,-0.028685528378092323,0.4646218800558274
1589986594.1725378,-1.3102220405939247,-3.3503330608908866,8.945516732506926,1.48,-0.17333333333333334,-1.5266666666666666,-0.02736765304833806,-0.049568063018667397,0.49788740418896993
1589986594.1825378,-1.3198203414996288,-3.339281365998515,8.987305122494432,1.48,-0.17333333333333334,-1.5266666666666666,-0.019896202793498456,-0.0477809797050478,0.5311105262829913
1589986594.1925378,-1.320246621565741,-3.282068412259953,8.865616553914352,1.48,-0.17333333333333334,-1.5266666666666666,-0.008275388707161612,-0.04018891465507138,0.5600101358739634
1589986594.2025378,-1.3479972542468202,-3.233504805068065,8.93499313561705,1.48,-0.17333333333333334,-1.5266666666666666,-0.018870324233957254,-0.05154063129092386,0.5759025391641568
1589986594.2125378,-1.3453807796917499,-3.170507706255666,8.842030825022665,0.68,-0.07444444444444444,-0.7655555555555555,-0.014850825426435208,-0.05132442893854811,0.6012415987197987
1589986594.2225378,-1.367206163312905,-3.19,8.747052080490286,0.68,-0.07444444444444444,-0.7655555555555555,-0.014918531225688324,-0.051878567389243714,0.6189024928280595
1589986594.2325377,-1.37,-3.133251878395561,8.779309212807767,0.68,-0.07444444444444444,-0.7655555555555555,-0.016958881758393347,-0.054364176672082126,0.6306022015423481
1589986594.2425377,-1.3931888520448446,-3.121594426022422,8.837391639033633,0.68,-0.07444444444444444,-0.7655555555555555,-0.02170601250509878,-0.05626474774785105,0.6375669516736318
1589986594.2525377,-1.421412833219727,-3.160434221919272,8.853804277739908,0.644916105287506,0.0029092029337050573,-0.7549881173891416,-0.022753330235764396,-0.05423330673150044,0.6419775986309632
1589986594.2625377,-1.4144049268668206,-3.1748067744418784,8.831205542725172,0.5877777777777777,0.1288888888888889,-0.7377777777777778,-0.018631792843388655,-0.05087621333618497,0.6464259858087754
1589986594.2725377,-1.3835943043203578,-3.182580065121252,8.777864768106785,0.5877777777777777,0.1288888888888889,-0.7377777777777778,-0.017183496074281376,-0.05321779067463773,0.6518509725975035
1589986594.2825377,-1.4152399306906185,-3.302066551151031,8.782066551151031,0.5877777777777777,0.1288888888888889,-0.7377777777777778,-0.020258886611082116,-0.0545415391248228,0.655190793515139
1589986594.2925377,-1.3968051363764176,-3.277012840941044,8.79784365919955,0.5877777777777777,0.1288888888888889,-0.7377777777777778,-0.013112626443233431,-0.053428051289050385,0.6614599309113284
1589986594.3025377,-1.4151264717052792,-3.3125632358526396,8.881804405620965,0.5877777777777777,0.13088251677427523,-0.7389169937122843,-0.015830842269121945,-0.05210786374859077,0.6662180024482488
1589986594.3125377,-1.4254281157998037,-3.2971405789990187,8.845718842001963,0.5877777777777777,0.13666666666666666,-0.7422222222222222,-0.017453292519943295,-0.0545415391248228,0.6614170557071715
1589986594.3225377,-1.441537708129285,-3.2807688540646427,8.81923359451518,0.5877777777777777,0.13666666666666666,-0.7422222222222222,-0.017453292519943295,-0.053954189249526587,0.6443457836816462
1589986594.3325377,-1.4224479132649728,-3.2274131887749546,8.768776043367513,0.5877777777777777,0.13666666666666666,-0.7422222222222222,-0.015405143912066073,-0.04867169492394616,0.6112430499437915
1589986594.3425376,-1.357644844890511,-3.1429387165450122,8.827061283454988,0.5877777777777777,0.13666666666666666,-0.7422222222222222,-0.012640723272759169,-0.044274815965156394,0.5736473973795067
1589986594.3525376,-1.3713041208711538,-3.179912710611026,8.87182611721718,0.5746087444054558,0.11486964591247861,-0.7458550590145869,-0.008679227086959954,-0.04120495207455902,0.5219863339126738
1589986594.3625376,-1.4069776404985788,-3.2982172534441285,8.812869013776513,0.5555555555555556,0.08333333333333333,-0.7511111111111111,-0.0028835573833825515,-0.035414013376222825,0.44473833539554875
1589986594.3725376,-1.37,-3.359376917326184,8.766124616534762,0.5555555555555556,0.08333333333333333,-0.7511111111111111,-0.0003340460123553247,-0.028940999624188023,0.3641451637615528
1589986594.3825376,-13.371097210963345,-12.749801941151985,0.9678496154941607,0.5555555555555556,0.08333333333333333,-0.7511111111111111,-0.0043110316997095,-0.0143376744632829,0.29257167565801634
1589986594.3925376,-4.016478118601581,-9.134703687403128,-2.0257113607225548,0.5555555555555556,0.08333333333333333,-0.7511111111111111,-0.8705320590187586,1.083079077076494,-1.596647235826357
1589986594.4025376,4.857025480203841,-0.983562524500196,-0.20105997647981178,0.5310910753952699,0.12597142732697417,-0.6777176706302539,-1.0933102310300615,-0.44846845755771403,-5.645962415864845
1589986594.4125376,0.5698952021456244,-1.241324128340121,0.3506620641700606,0.5166666666666667,0.1511111111111111,-0.6344444444444445,-0.7952891607226147,-1.6974605047471572,-6.8379012038140505
1589986594.4225376,-0.277052246828639,-1.3599010965383789,0.15368952913351963,0.5166666666666667,0.1511111111111111,-0.6344444444444445,-0.8278003108922486,-1.1328942588130315,-6.582945887653805
1589986594.4325376,1.1032316411431329,-2.349397684794405,4.418191848546967,0.5166666666666667,0.1511111111111111,-0.6344444444444445,-0.782970463127685,-0.7653613658251702,-6.247278256815732
1589986594.4425375,1.803596512472754,-2.590682974085735,5.984995882780334,0.5166666666666667,0.1511111111111111,-0.6344444444444445,-0.7526556978629861,-0.6679982995988907,-6.018403452228642
1589986594.4525375,0.3848305798747207,-1.4745536466537235,1.9879995604234588,0.5162461384421896,0.15238295257050524,-0.6344547012304074,-0.6995273360495817,-0.5286829525074062,-5.834941045315563
1589986594.4625375,0.02949416000702554,-1.171254061649249,2.12262228857469,0.4711111111111111,0.2888888888888889,-0.6355555555555555,1.4000057740683718,1.9791685211214824,-5.545571892919974
1589986594.4725375,-0.08395388775211926,-0.8299864805612394,4.047474057293189,0.4711111111111111,0.2888888888888889,-0.6355555555555555,2.0562618615813775,2.9184336982754835,-5.270491138589532
1589986594.4825375,-0.9445566040949818,-0.08837699724048653,2.8491132081899635,0.4711111111111111,0.2888888888888889,-0.6355555555555555,1.272997739373495,3.163677582470043,-4.702246034191092
1589986594.4925375,-0.9326521889437129,-0.5982956723969955,2.994095666111443,0.4711111111111111,0.2888888888888889,-0.6355555555555555,0.03066657560060882,2.1441825679163364,-4.107119242317336
1589986594.5025375,-1.068147318598656,0.41752060178337486,4.576019735451971,0.4363526978358149,0.319584630482657,-0.6337499236970986,0.18995027377697862,0.3845685362226118,-3.65894809057456
1589986594.5125375,-1.34995485987075,-0.15580651446757376,7.204200305264184,0.3855555555555555,0.3644444444444445,-0.6311111111111111,0.26759113848223515,-0.9000680608172793,-3.321945385783153
1589986594.5225375,0.0490293969184914,-0.88290868446987,3.5516347378794797,0.3855555555555555,0.3644444444444445,-0.6311111111111111,0.04220400515936117,-1.1679891717610715,-2.8652747519802655
1589986594.5325375,1.5530279898218828,-1.6761577608142495,8.634198473282442,0.3855555555555555,0.3644444444444445,-0.6311111111111111,0.15109810510625846,0.12972836924254283,-2.3593892643161447
1589986594.5425375,1.1535823113384998,-1.8271706417876759,8.931465465352494,0.3855555555555555,0.3644444444444445,-0.6311111111111111,0.05151741986103894,1.0670395751832897,-1.9448634261623146
1589986594.5525374,0.51,-2.0689247311827956,8.003333333333334,0.36686977299880524,0.40126642771804066,-0.638805256869773,-0.031247023705059773,0.8873497887894827,-1.6296894596864524
1589986594.5625374,0.5895963615690734,-2.335923820352473,9.469880613985218,0.3477777777777778,0.4388888888888889,-0.6466666666666666,-0.05834301308542728,-0.24913607649808195,-1.4460180602142658
1589986594.5725374,0.3660447408248203,-2.0347015701853954,8.565224177071508,0.3477777777777778,0.4388888888888889,-0.6466666666666666,-0.2199327720159875,-0.2712584136366996,-1.2201428801195566
1589986594.5825374,0.33055711642568353,-1.6228136777907214,5.777086502661093,0.3477777777777778,0.4388888888888889,-0.6466666666666666,0.01850036947402739,0.2747341008651677,-0.924435172378402
1589986594.5925374,0.4046340296603413,-2.0605986551852444,6.67259820337001,0.3477777777777778,0.4388888888888889,-0.6466666666666666,0.2251201375070342,0.33695276105546157,-0.7642633822172514
1589986594.6025374,0.538402168713124,-3.136317440068038,10.596463615584968,0.3477777777777778,0.4388888888888889,-0.6466666666666666,0.29990331945250553,0.07125966747683582,-0.68948020027178
1589986594.6125374,0.23229357798165137,-2.5992201834862385,9.401261467889908,0.3033333333333333,0.4755555555555556,-0.6255555555555555,-0.18700492393967338,-0.026647795101765487,-0.35490154489467546
1589986594.6225374,0.304034673823644,-2.5201541058828623,7.976581749707805,0.3033333333333333,0.4755555555555556,-0.6255555555555555,0.015596174479823671,0.04797133891372558,-0.048326929633070614
1589986594.6325374,0.26593180416129214,-2.492424055483895,8.049805955919465,0.3033333333333333,0.4755555555555556,-0.6255555555555555,0.10088250554185538,0.05077076756004704,0.19228655151566004
1589986594.6425374,0.30480219349784565,-3.0141611176393788,10.485382556469514,0.3033333333333333,0.4755555555555556,-0.6255555555555555,-0.13789858611561576,-0.05424166391754426,0.3955116846877227
1589986594.6525373,0.2777830845771144,-2.708963184079602,8.692062354892206,0.30436233646581906,0.48224407591671276,-0.6255555555555555,-0.010150949258795464,-0.06071596697488184,0.7363530727517658
1589986594.6625373,0.2826353146184415,-2.90277195741335,8.9410878296534,0.3055555555555556,0.49,-0.6255555555555555,-0.0035522181067257214,-0.06331948505374199,0.9803318519286999
1589986594.6725373,0.2638905225062203,-2.853401945261253,8.59965844831486,0.3055555555555556,0.49,-0.6255555555555555,-0.046723383916909944,-0.0965369204508716,1.1514055707263686
1589986594.6825373,0.2567348643006263,-3.0867860125260957,9.214288100208769,0.3055555555555556,0.49,-0.6255555555555555,-0.03712730244604821,-0.093071208159308,1.339222174770417
1589986594.6925373,0.21826854272739785,-3.0595524287876703,8.953404086968488,0.3055555555555556,0.49,-0.6255555555555555,-0.03887932860525761,-0.10286701648739636,1.5317191941076747
1589986594.7025373,0.18923956405511003,-3.0604088011515524,8.960523133867984,0.3055555555555556,0.4905978019969383,-0.642592912468298,-0.05517925903324093,-0.11369525346067225,1.718621371752419
1589986594.7125373,0.15090382190775484,-3.0982503151991874,8.913876103197154,0.3055555555555556,0.4922222222222222,-0.6888888888888889,-0.0272707695624114,-0.12326387842209953,1.9394971312786988
1589986594.7225373,-3.193216752437703,-14.188233680931745,8.975232597508125,0.3055555555555556,0.4922222222222222,-0.6888888888888889,-0.03828887695117478,-0.13428198581086292,1.9926714756331654
1589986594.7325373,-2.64953133822699,-14.252223320158103,5.33910220214568,0.3055555555555556,0.4922222222222222,-0.6888888888888889,-0.15396358924151698,-0.16789216174291938,2.41814625655405
1589986594.7425373,8.92551044264339,-15.139173550498754,7.872573644014962,0.3055555555555556,0.4922222222222222,-0.6888888888888889,-0.23307777589221906,-0.451641709038876,2.815032817604755
1589986594.7525373,12.277989012246765,-18.239441455877305,9.367526610964862,0.31798494270853206,0.4912409548154083,-0.6911785128381214,-0.11268730201399346,-0.45905273133072416,1.7747964156423168
1589986594.7625372,-1.425516004601746,0.9248501048927387,2.5544724910333625,0.3477777777777778,0.4888888888888889,-0.6966666666666667,0.3520707470512514,0.3254900791041996,-1.0897714357316042
1589986594.7725372,-2.022676034348166,1.5679807442102525,6.06015612802498,0.3477777777777778,0.4888888888888889,-0.6966666666666667,0.7518828346670408,0.37074235830113955,-0.9032828807493073
1589986594.7825372,-0.6435623755645122,0.18870222891273725,4.483969795561599,0.3477777777777778,0.4888888888888889,-0.6966666666666667,-0.11531169394309665,-0.08814077462227246,-0.8040227760590879
1589986594.7925372,-1.045799963870657,-1.2022893960378154,8.399689287649787,0.3477777777777778,0.4888888888888889,-0.6966666666666667,-0.42856112073765895,0.017776791141235218,-0.6628956398016218
1589986594.8025372,-1.0685241905023521,-2.2998303746179993,9.362620952511762,0.37554895519768644,0.4668815407448103,-0.688806899472353,-0.07403588342513887,0.03884152401784784,-0.3735119514243681
1589986594.8125372,-0.8472047926848495,-2.105341321141416,8.261256897367177,0.4066666666666667,0.44222222222222224,-0.68,0.053013464567378016,0.04645665666314551,-0.11270424778640052
1589986594.8225372,-0.799402325027143,-2.226253475624288,8.70868018960358,0.4066666666666667,0.44222222222222224,-0.68,-0.04957394490570095,-0.05187724639403398,0.027917907819972186
1589986594.8325372,-3.305752141860929,-8.704524805738195,8.510334728033472,0.4066666666666667,0.44222222222222224,-0.68,-0.06003329290289024,-0.04018990950525945,0.29455191348750737
1589986594.8425372,-0.46014486694399714,-14.512328741350837,7.633327967890963,0.4066666666666667,0.44222222222222224,-0.68,-0.07381896376939356,-0.09122149664049105,0.947416874091788
1589986594.8525372,5.648068189026324,-10.10889692356486,8.401005708848716,0.3980889805123868,0.44447950805229586,-0.68,-0.06734968461518573,-0.14250730279040041,0.9849903743255235
1589986594.8625371,0.9765336480233535,-3.7951333809509022,8.266658178317444,0.3855555555555555,0.4477777777777778,-0.68,0.13165454568449966,0.10438682493331851,-0.11365958103598525
1589986594.8725371,-0.9872524578651686,-0.8289483848314607,6.866178019662922,0.3855555555555555,0.4477777777777778,-0.68,0.3189052218989771,0.25184632294172216,-0.38100635623241375
1589986594.8825371,-1.714164267894838,-4.293851041600034,7.796864538689524,0.3855555555555555,0.4477777777777778,-0.68,-0.09207205842910252,-0.0421387147445093,-0.18102690258282694
1589986594.892537,-1.4576757501855582,-8.353753578623687,9.49865125649454,0.3855555555555555,0.4477777777777778,-0.68,-0.18520412104219866,-0.12792920125233964,0.14952027135822593
1589986594.902537,1.525959223300971,-5.68509708737864,9.26846990291262,0.3874960086299892,0.4426032362459547,-0.6848511326860842,0.032555262221150044,-0.0034987073524808676,0.1258032901213908
1589986594.912537,-0.7126732796032238,-4.256136391816491,8.32555858648481,0.3922222222222223,0.43,-0.6966666666666667,0.037285312996708043,0.026357257956090126,-0.0967297070545394
1589986594.922537,0.23124472204871954,-4.5299577763897565,8.8265559025609,0.3922222222222223,0.43,-0.6966666666666667,-0.020580794992032764,-0.020381733704453647,0.008966560897780923
1589986594.932537,0.1048576753642833,-4.390040664181633,8.704871230091495,0.3922222222222223,0.43,-0.6966666666666667,0.005442325181530098,-0.0038127326689460163,0.007080789242328315
1589986594.942537,0.015895590565861845,-4.344495944812157,8.661660669339051,0.3922222222222223,0.43,-0.6966666666666667,-0.00630688725914978,-0.0021674249369002946,-0.00043348498738005894
1589986594.952537,0.07280701754385965,-4.301578947368421,8.742982456140352,0.390233918128655,0.4372904483430799,-0.6916959064327486,-0.013510991797236806,-0.00577948940901631,-0.0007654952859624253
1589986594.962537,0.13089833158509312,-4.44325766421913,8.734718665268074,0.3855555555555555,0.4544444444444444,-0.68,-0.011300278923327925,-0.004461315904576664,0.0004167337580804142
1589986594.972537,0.08346445760829323,-4.386771566086635,8.653779155868197,0.3855555555555555,0.4544444444444444,-0.68,0.004346159002530771,-0.001090830782496456,0.0007300812095734795
1589986594.982537,0.06667181228774313,-4.343328187712257,8.656702686014201,0.3855555555555555,0.4544444444444444,-0.68,0.010090605713232113,-0.0006361776314096341,0.0013639594532604653
1589986594.992537,0.0796528913051743,-4.322586777173707,8.799305782610348,0.3855555555555555,0.4544444444444444,-0.68,0.007202187120946167,-0.00028217361685381465,0.0029903187306355534
1589986595.002537,0.053944284470635505,-4.330986071117659,8.745916426705953,0.3862129363006614,0.45258186566664427,-0.6816434518627649,-0.005576911638993047,-0.001090830782496456,0.0019665342192183143
1589986595.012537,0.07729876893939394,-4.342540246212121,8.746654829545456,0.3922222222222223,0.4355555555555555,-0.6966666666666667,0.002718296594829,-0.00025953715350590385,0.000277097876330184
1589986595.022537,0.041835599296536796,-4.3496328801406925,8.597709517045454,0.3922222222222223,0.4355555555555555,-0.6966666666666667,0.0011709239111761028,0.0020615218719734416,0.0010507842181566324
1589986595.032537,0.08120208958111638,-4.347595820837768,8.777007835929187,0.3922222222222223,0.4355555555555555,-0.6966666666666667,0.010210859937988107,0.00037105341950411513,0.0008509049948323424
1589986595.042537,0.052188071913015395,-4.409562385617397,8.669627516417268,0.3922222222222223,0.4355555555555555,-0.6966666666666667,-0.00019094529576264802,-0.002229397888933574,4.7736323940662006e-05
1589986595.052537,0.09144914331429588,-4.397149714438099,8.847221716038135,0.39507250778412367,0.43729739673227297,-0.6976167618539671,-0.006228830667882161,-0.0031170333859980065,0.001090830782496456
1589986595.062537,0.04534571164686774,-4.377861715341253,8.660691423293736,0.4122222222222222,0.4477777777777778,-0.7033333333333334,-0.01652028982894279,-0.002414912237743038,0.00085758010974633
1589986595.072537,0.09,-4.4021458556835675,8.711096133215168,0.4122222222222222,0.4477777777777778,-0.7033333333333334,-0.005543831101443986,-0.0029487386150846406,-0.0003835385250458643
1589986595.082537,0.09,-4.436366080661841,8.680281799379525,0.4122222222222222,0.4477777777777778,-0.7033333333333334,0.005113085983746185,-0.0007313191274999507,0.001090830782496456
1589986595.092537,0.08700737599114881,-4.344963120044256,8.771022127973445,0.4122222222222222,0.4477777777777778,-0.7033333333333334,0.010478412278523213,-0.0015287722871343472,0.001090830782496456
1589986595.102537,0.0752571737953438,-4.369328641039523,8.75592853275582,0.4122222222222222,0.4463285808819106,-0.702542862299224,0.004104642088982333,0.00012934052050174547,0.000832149741492965
1589986595.112537,0.04755845709159773,-4.32275331406359,8.759688228844812,0.4122222222222222,0.4355555555555555,-0.6966666666666667,0.0005326620322542246,0.0008159975270400082,-0.001090830782496456
1589986595.122537,0.06866277133601768,-4.407964942024159,8.64,0.4122222222222222,0.4355555555555555,-0.6966666666666667,-0.0029046329400772997,-0.00014586901899085242,-0.001090830782496456
1589986595.132537,0.06255997080684503,-4.342799854034225,8.660479766454761,0.4122222222222222,0.4355555555555555,-0.6966666666666667,0.007103483686658504,-0.0013700802783363404,-0.001090830782496456
1589986595.1425369,0.06862449303663012,-4.3744979721465205,8.724814274371795,0.4122222222222222,0.4355555555555555,-0.6966666666666667,0.008426557192535229,-0.0023317060987111215,-0.001090830782496456
1589986595.1525369,0.05062359176841699,-4.302494367073668,8.78781742881054,0.4122222222222222,0.4355555555555555,-0.6966666666666667,0.004499369749325954,-0.004295299820315759,-0.001090830782496456
1589986595.1625369,0.08146440734280255,-4.361464407342803,8.773598305507102,0.3855555555555555,0.4222222222222222,-0.6755555555555556,-0.011141080005397602,-0.0017161172041268275,-0.00046554436086608444
1589986595.1725368,0.053592989450951076,-4.333592989450951,8.752694742088213,0.3855555555555555,0.4222222222222222,-0.6755555555555556,-0.011901155020103953,-0.00019596717471412383,-0.001985694390278788
1589986595.1825368,0.07963694256493675,-4.397564331077924,8.636943949331163,0.3855555555555555,0.4222222222222222,-0.6755555555555556,-0.0036058557617328377,-0.0013169176235153712,-0.0006386571004586255
1589986595.1925368,0.04334590824926021,-4.354015089899112,8.731300638551923,0.3855555555555555,0.4222222222222222,-0.6755555555555556,0.0066868623519127065,-0.002108665170718875,0.0009448379939483813
1589986595.2025368,0.07910189631317653,-4.331347155530235,8.799101896313177,0.38530608230921565,0.42336979915538553,-0.6761542913467712,0.007635815477475192,0.001090830782496456,0.0009438789103773659
1589986595.2125368,0.06203385692195003,-4.356949214617075,8.782033856921949,0.3805649602560972,0.4451789605997305,-0.6875329842742556,0.007635815477475192,0.001090830782496456,-0.0018488725043444246
1589986595.2225368,0.04865879418725982,-4.330203853103606,8.73804723487644,0.38,0.4477777777777778,-0.6888888888888889,-0.001090830782496456,-0.002181661564992912,0.0014056734237886024
1589986595.2325368,0.06456797313299556,-4.371851959699494,8.63444412090152,0.38,0.4477777777777778,-0.6888888888888889,9.425364107879019e-05,-0.002181661564992912,0.0015891193532052887
1589986595.2425368,0.0509684980722047,-4.350968498072205,8.70871648264984,0.38,0.4477777777777778,-0.6888888888888889,0.0036950793514691116,-0.002076014813997976,0.00021129350198987172
1589986595.2525368,0.059567685062190553,-4.359567685062191,8.790216157468905,0.3808406123790739,0.4477777777777778,-0.688744783909619,0.007470761622811738,-0.0011379890266860141,0.002181661564992912
1589986595.2625368,0.046524714308523986,-4.348699619078032,8.784775666613445,0.4188888888888889,0.4477777777777778,-0.6822222222222222,-0.001897962457262144,-0.002323511118858296,0.00123268033636184
1589986595.2725368,0.07208889496717724,-4.38,8.702844365426696,0.4188888888888889,0.4477777777777778,-0.6822222222222222,-0.008954509353131534,0.00040724150301679773,-0.0014980722855132537
1589986595.2825367,0.08308194858684846,-4.376918051413152,8.61849169152109,0.4188888888888889,0.4477777777777778,-0.6822222222222222,-0.008472723287025804,-0.002181661564992912,0.0007546423436358808
1589986595.2925367,0.08290715401204729,-4.3605428720160635,8.683642819959843,0.4188888888888889,0.4477777777777778,-0.6822222222222222,-0.002617219174788338,-0.0024395647229650884,0.000515806315944353
1589986595.3025367,0.06018804450961787,-4.33,8.76094022254809,0.4185336937040552,0.4476733086057679,-0.6822222222222222,0.006586009642892861,-0.0031494175037469923,0.002181661564992912
1589986595.3125367,0.06923294229276288,-4.33,8.806164711463815,0.4014488867803368,0.4426483653929095,-0.6822222222222222,0.008559300228170565,0.0027704542520861214,0.002181661564992912
1589986595.3225367,0.06217809475292919,-4.345643810494141,8.81,0.4,0.44222222222222224,-0.6822222222222222,0.0027539837450788777,-0.0018469326652758647,0.0004751865607378347
1589986595.3325367,0.06899078212747843,-4.333027653617565,8.681009217872521,0.4,0.44222222222222224,-0.6822222222222222,-0.002181661564992912,-0.001090830782496456,0.001090830782496456
1589986595.3425367,0.06212354896278468,-4.353629353111646,8.687876451037216,0.4,0.44222222222222224,-0.6822222222222222,-0.002181661564992912,-0.001090830782496456,0.001090830782496456
1589986595.3525367,0.06,-4.350503146715615,8.746981119706307,0.4,0.44222222222222224,-0.6822222222222222,0.004034014374682548,-0.001090830782496456,-0.002017007187341274
1589986595.3625367,0.06263987391646966,-4.34736012608353,8.79472025216706,0.3855555555555555,0.44222222222222224,-0.6966666666666667,0.0024085956284909927,-0.003128509560989639,0.0020376787784931825
1589986595.3725367,0.0823583522763485,-4.344150113658091,8.734058124960166,0.3855555555555555,0.44222222222222224,-0.6966666666666667,-0.004558773976995131,-0.0019244052390917593,0.001090830782496456
1589986595.3825366,0.08689181453921008,-4.38689181453921,8.651554092730395,0.3855555555555555,0.44222222222222224,-0.6966666666666667,-0.00821807060322101,-0.001090830782496456,0.0009213055635795769
1589986595.3925366,0.07363009896441493,-4.373630098964415,8.670890296893244,0.3855555555555555,0.44222222222222224,-0.6966666666666667,-0.0040682156196199725,-0.0006948484131072255,-0.00019799118469461524
1589986595.4025366,0.0896876016921575,-4.389687601692157,8.719062805076472,0.3855555555555555,0.44222222222222224,-0.6966666666666667,0.002062390773284871,0.0010567534134370159,-0.001073792097966736
1589986595.4125366,0.06175920456782831,-4.335277613703485,8.795277613703485,0.4066666666666667,0.44222222222222224,-0.6822222222222222,0.008150947911382999,-0.0016665291310851054,0.0007070318834373564
1589986595.4225366,0.07,-4.36,8.790449940613428,0.4066666666666667,0.44222222222222224,-0.6822222222222222,0.004594577528389728,-0.003503746745893272,-0.000875936686473318
1589986595.4325366,0.07142988523365203,-4.36,8.675719540934608,0.4066666666666667,0.44222222222222224,-0.6822222222222222,0.0009348544996659796,-0.00015597628283047632,-0.00015597628283047632
1589986595.4425366,0.07946602034755619,-4.36,8.707864081390225,0.4066666666666667,0.44222222222222224,-0.6822222222222222,5.824814421124722e-05,-0.0010325826382852087,-0.0010325826382852087
1589986595.4525366,0.06220181818181818,-4.36,8.727798181818182,0.4066666666666667,0.44222222222222224,-0.6822222222222222,0.0,-0.0020615710124835293,0.0008506496774776907
1589986595.4625366,0.08575143090760425,-4.3363728536385935,8.774248569092395,0.3922222222222223,0.4477777777777778,-0.6888888888888889,-0.0006273837877416248,0.0006273837877416248,0.0003956602903642092
1589986595.4725366,0.07364413158011246,-4.356355868419888,8.768135210519324,0.3922222222222223,0.4477777777777778,-0.6888888888888889,0.0004945611470383388,-0.0014883438728018675,-0.0015853919295347949
1589986595.4825366,0.08878226984900146,-4.344870920603994,8.677306380905991,0.3922222222222223,0.4477777777777778,-0.6888888888888889,-0.0028458303317345436,-0.0030068248407927154,0.0012236645358447823
1589986595.4925365,0.07761406497140771,-4.378807032485704,8.728807032485705,0.3922222222222223,0.4477777777777778,-0.6888888888888889,-0.006985152633918935,-0.001090830782496456,0.002181661564992912
1589986595.5025365,0.060603479742061074,-4.370301739871031,8.720301739871031,0.3922222222222223,0.4477777777777778,-0.6888888888888889,-0.002346235134806223,-0.001090830782496456,0.002181661564992912
1589986595.5125365,0.0854556436391091,-4.363940858185479,8.76,0.3922222222222223,0.44222222222222224,-0.6966666666666667,0.0057846288328218375,0.0,0.000330474920339558
1589986595.5225365,0.06260512982900569,-4.331302564914503,8.75088204559848,0.3922222222222223,0.44222222222222224,-0.6966666666666667,0.007493727686981234,0.0,0.0016133104030170828
1589986595.5325365,0.07588663711209627,-4.337943318556048,8.704396770107662,0.3922222222222223,0.44222222222222224,-0.6966666666666667,0.006769333837863932,0.0,-0.001284264993452129
1589986595.5425365,0.08863153611393693,-4.341368463886063,8.720456154628689,0.3922222222222223,0.44222222222222224,-0.6966666666666667,0.0009913132803863012,-0.0021319028139378344,0.003123216094324136
1589986595.5525365,0.06303051881993896,-4.366969481180061,8.72898982706002,0.3922222222222223,0.44222222222222224,-0.6966666666666667,-0.0008704452347815057,-0.001201023556353931,0.0003305783215724256
1589986595.5625365,0.061502860114404576,-4.358497139885595,8.76300572022881,0.4,0.4222222222222222,-0.6755555555555556,-0.0007629575675807245,-0.0027806825251157708,-0.0007629575675807245
1589986595.5725365,0.06857003148554527,-4.35,8.769990220398816,0.4,0.4222222222222222,-0.6755555555555556,0.001090830782496456,-0.0001559853673567945,0.001090830782496456
1589986595.5825365,0.06,-4.3543414023774,8.714341402377402,0.4,0.4222222222222222,-0.6755555555555556,0.0007751150923316893,-0.0007751150923316893,0.001090830782496456
1589986595.5925364,0.0576500615119076,-4.382349938488092,8.74,0.4,0.4222222222222222,-0.6755555555555556,-0.0017316770924425478,0.0009626615205072376,0.0009626615205072376
1589986595.6025364,0.04224711261269533,-4.397752887387305,8.74,0.4,0.4222222222222222,-0.6755555555555556,-0.005932179792562712,0.0001225609804832048,0.0001225609804832048
1589986595.6125364,0.06780718776682451,-4.372192812233176,8.74,0.4113288542753729,0.44590982661618384,-0.7013029516359487,-0.0025005931762172636,0.0,-0.0020221957593807363
1589986595.6225364,0.0606616111660622,-4.349338388833938,8.718676777667877,0.4122222222222222,0.4477777777777778,-0.7033333333333334,0.00545415391248228,-0.001090830782496456,0.001090830782496456
1589986595.6325364,0.07910012089240576,-4.330899879107594,8.681799758215188,0.4122222222222222,0.4477777777777778,-0.7033333333333334,0.00545415391248228,-0.001090830782496456,0.001090830782496456
1589986595.6425364,0.08,-4.359674220260822,8.71956562701443,0.4122222222222222,0.4477777777777778,-0.7033333333333334,0.004375168815579453,-0.001090830782496456,1.1845685593629305e-05
1589986595.6525364,0.07097010704029241,-4.3329103211208775,8.738059785919415,0.4122222222222222,0.4477777777777778,-0.7033333333333334,0.0014082975690567004,-0.001090830782496456,0.0009850085203097078
1589986595.6625364,0.07055890824303937,-4.36055890824304,8.768323275270882,0.38,0.4622222222222222,-0.6822222222222222,-0.0009079284876669514,-0.0009688959192767863,0.001090830782496456
1589986595.6725364,0.07977954810795962,-4.369779548107959,8.739559096215919,0.38,0.4622222222222222,-0.6822222222222222,0.0021455902085083267,0.0010788069970015942,0.001090830782496456
1589986595.6825364,0.06537703454433075,-4.355377034544331,8.710754069088662,0.38,0.4622222222222222,-0.6822222222222222,-0.00021101556257103853,0.0002932717399751392,0.001090830782496456
1589986595.6925364,0.06961725000772297,-4.3407654999845535,8.749808625003862,0.38,0.4622222222222222,-0.6822222222222222,-0.0011534581035328672,-0.0042798200352706095,6.26273210364111e-05
1589986595.7025363,0.05666028235148744,-4.366679435297025,8.743330141175743,0.38,0.4622222222222222,-0.6822222222222222,-0.0032735369786177663,-0.0014530482018240763,0.0021827061961213106
1589986595.7125363,0.07184829212519651,-4.38,8.754565528083464,0.38890115605100606,0.44765669413875786,-0.6773670461944008,-0.002774470490309873,-0.0007944263198379756,0.0016836397078134166
1589986595.7225363,0.07262309873678784,-4.372623098736788,8.752623098736787,0.3922222222222223,0.44222222222222224,-0.6755555555555556,-0.0005722713695231472,-0.0018955258802313382,-0.0013232545107081915
1589986595.7325363,0.06,-4.339092273622047,8.694538631889763,0.3922222222222223,0.44222222222222224,-0.6755555555555556,0.003470527522520344,-0.0018846088024464483,-0.00019803517503097569
1589986595.7425363,0.061749185325344264,-4.333498370650688,8.74349837065069,0.3922222222222223,0.44222222222222224,-0.6755555555555556,0.005263347392764619,0.0008046210029199654,-0.0018000485255575912
1589986595.7525363,0.07644591611479029,-4.362891832229581,8.77289183222958,0.3922222222222223,0.44222222222222224,-0.6755555555555556,0.0036601827580455036,-0.0016001259491587089,0.0014062807438806409
1589986595.7625363,0.09447131902887439,-4.3410573619422514,8.772764340485562,0.3833786383712435,0.44222222222222224,-0.6755555555555556,-0.0006739477175163548,-0.0013923735519917675,-0.0001862024740105217
