time,acc_x,acc_y,acc_z,mag_x,mag_y,mag_z,gyr_x,gyr_y,gyr_z
1589986621.2230828,-3.74,-0.66,9.09,0.3022222222222222,-0.37333333333333335,-0.6533333333333333,-0.006544984694978735,0.001090830782496456,0.002181661564992912
1589986621.2330828,-3.7505455101563485,-0.66,9.06345387812382,0.3022222222222222,-0.37333333333333335,-0.6533333333333333,-0.00642597284083688,-0.002122155637921984,0.003331998274560296
1589986621.2430828,-3.758091793958367,-0.66,8.972898472499594,0.3022222222222222,-0.37333333333333335,-0.6533333333333333,-0.004779629107897607,-0.0012989837714523474,0.004155170141029932
1589986621.2530828,-3.740014223883933,-0.6700142238839332,9.050028447767867,0.3022222222222222,-0.37333333333333335,-0.6533333333333333,-0.004364874715029913,-0.0032693891774011902,0.004364874715029913
1589986621.2630827,-3.748536971938309,-0.678536971938309,9.067073943876618,0.3022222222222222,-0.37333333333333335,-0.6533333333333333,-0.0052945623079474115,-0.0014100139915661928,0.0052945623079474115
1589986621.2730827,-3.749152307765739,-0.6683046155314782,9.061695384468523,0.3022222222222222,-0.3588888888888889,-0.64,-0.004455792008307322,0.0008134241475319618,0.00227413044331441
1589986621.2830827,-3.741478053395862,-0.6507390266979308,9.068914599531038,0.3022222222222222,-0.3588888888888889,-0.64,-0.00545415391248228,-0.002020430950754985,0.003272492347489368
1589986621.2930827,-3.7587321568143484,-0.6593660784071743,8.939508823892385,0.3022222222222222,-0.3588888888888889,-0.64,-0.00545415391248228,-0.0001383002374286922,0.003272492347489368
1589986621.3030827,-3.7400886406722345,-0.6799113593277656,8.979778398319414,0.3022222222222222,-0.3588888888888889,-0.64,-0.0065401500962860085,0.004343984735214918,0.0021864961636856384
1589986621.3130827,-3.7529286863934628,-0.6735356568032685,9.012321715983656,0.3022222222222222,-0.3588888888888889,-0.64,-0.00442953333069387,0.0022478717657009577,0.002886812019754534
1589986621.3230827,-3.7669014491706116,-0.6630985508293882,9.03,0.3022222222222222,-0.36348985500263015,-0.630031240086894,-0.005530986307230774,-0.0004148318573311484,0.00402532366740317
1589986621.3330827,-3.7604034855630966,-0.66,9.049193028873807,0.3022222222222222,-0.3655555555555556,-0.6255555555555555,-0.007591802030223307,-0.0021376481177410277,0.004363323129985824
1589986621.3430827,-3.7598825704577252,-0.6601174295422747,8.97,0.3022222222222222,-0.3655555555555556,-0.6255555555555555,-0.009855905770314397,-0.007571767597731371,0.00545415391248228
1589986621.3530827,-3.75,-0.67,8.972627151261891,0.3022222222222222,-0.3655555555555556,-0.6255555555555555,-0.013185495305515618,-0.002133898607213838,0.005358627996924132
1589986621.3630826,-3.75,-0.67,9.018751305877824,0.3022222222222222,-0.3655555555555556,-0.6255555555555555,-0.014862616894571863,-0.0012953378126857166,0.003681506407867889
1589986621.3730826,-3.75,-0.6769522327202578,9.016095534559485,0.3168991579649887,-0.3655555555555556,-0.6155134416262943,-0.012238147171615872,0.00042591110917079996,0.004030863293322996
1589986621.3830826,-3.7598718790511305,-0.6698718790511305,9.048718790511305,0.3233333333333333,-0.3655555555555556,-0.6111111111111112,-0.01197118695247912,0.0053423472925547,0.0032864681749803157
1589986621.3930826,-3.752810411300234,-0.6628104113002341,8.97810411300234,0.3233333333333333,-0.3655555555555556,-0.6111111111111112,-0.010430613674022336,-0.0008199458212724432,0.004056754814208708
1589986621.4030826,-3.7410004633424814,-0.6689995366575187,9.039995366575187,0.3233333333333333,-0.3655555555555556,-0.6111111111111112,-0.008835779881045447,0.001635993459623922,0.0033816259685631664
1589986621.4130826,-3.7560452625968592,-0.6780226312984298,9.082090525193719,0.3233333333333333,-0.3655555555555556,-0.6111111111111112,-0.008726646259971648,0.001306528247298244,0.005022758982878704
1589986621.4230826,-3.750908679389131,-0.6613630190836967,9.10591094274891,0.31555555555555553,-0.3655555555555556,-0.6411111111111111,-0.005305471595119637,-4.956077245421441e-05,0.005503714684936494
1589986621.4330826,-3.77,-0.69,9.02,0.31555555555555553,-0.3655555555555556,-0.6411111111111111,-0.002181661564992912,-0.001090830782496456,0.006544984694978735
1589986621.4430826,-3.749771289537713,-0.6748284671532847,8.984599756690997,0.31555555555555553,-0.3655555555555556,-0.6411111111111111,-0.002181661564992912,1.2474220627088379e-05,0.005441679691855191
1589986621.4530826,-3.741539267015707,-0.6657696335078535,8.961539267015707,0.31555555555555553,-0.3655555555555556,-0.6411111111111111,-0.003440400331810812,0.001720200165905406,0.004363323129985824
1589986621.4630826,-3.742170310433362,-0.6739148447833191,8.977829689566638,0.31555555555555553,-0.3655555555555556,-0.6411111111111111,-0.004790366449819835,0.0030357482046609336,0.005217409769653845
1589986621.4730825,-3.734037274139172,-0.6719254517216562,8.994037274139172,0.31017252336999296,-0.3686956576638004,-0.6375224229874027,-0.005894552203320843,0.004803721420824387,0.006544984694978735
1589986621.4830825,-3.748978207236842,-0.6689782072368421,8.991021792763158,0.3022222222222222,-0.37333333333333335,-0.6322222222222222,-0.007034669936257726,0.003985098188645307,0.007034669936257726
1589986621.4930825,-3.7638797619047617,-0.6761202380952381,8.96060119047619,0.3022222222222222,-0.37333333333333335,-0.6322222222222222,-0.007635815477475192,0.001758445193545775,0.0072125991060280545
1589986621.5030825,-3.754741081703107,-0.6928883774453395,9.036812428078251,0.3022222222222222,-0.37333333333333335,-0.6322222222222222,-0.010132550145352581,0.002755320561081382,0.007377229584271199
1589986621.5130825,-3.7572546656047527,-0.6927453343952472,9.084509331209505,0.3022222222222222,-0.37333333333333335,-0.6322222222222222,-0.009325585313288039,0.0016897698358128474,0.0060530929657986714
1589986621.5230825,-3.754547577240632,-0.6954524227593678,9.100904845518736,0.29131737670348645,-0.365457611569802,-0.6322222222222222,-0.006347578025930549,0.001090830782496456,0.006048920970992555
1589986621.5330825,-3.7575240497669844,-0.684951900466031,9.147620248834922,0.2822222222222222,-0.3588888888888889,-0.6322222222222222,-0.0027218301110134326,0.0019115772919826518,0.006544984694978735
1589986621.5430825,-3.76,-0.6735780012079441,9.025138025366823,0.2822222222222222,-0.3588888888888889,-0.6322222222222222,-0.002181661564992912,0.0028821929617458856,0.0072455160917317095
1589986621.5530825,-3.7509007053716767,-0.6790992946283234,8.95,0.2822222222222222,-0.3588888888888889,-0.6322222222222222,0.0007960756388810273,0.004265071415447347,0.005650657341559232
1589986621.5630825,-3.7621925805611314,-0.68,8.956096290280566,0.2822222222222222,-0.3588888888888889,-0.6322222222222222,-0.0009041755466260599,0.0036983210202783186,0.00545415391248228
1589986621.5730824,-3.77,-0.68,8.972468860031046,0.30300365560729775,-0.36304517556590404,-0.6280659355452071,-0.0028617323822181092,0.001912350713038973,0.00545415391248228
1589986621.5830824,-3.7608059881615996,-0.68,8.9983880236768,0.31555555555555553,-0.3655555555555556,-0.6255555555555555,-0.001266670121896637,-0.0009149914430962747,0.0024454205740931842
1589986621.5930824,-3.7681829015869033,-0.6636341968261934,8.950902590478579,0.31555555555555553,-0.3655555555555556,-0.6255555555555555,-0.0019834468766097824,-0.001090830782496456,0.002181661564992912
1589986621.6030824,-3.77,-0.6532213479023118,8.994229216781505,0.31555555555555553,-0.3655555555555556,-0.6255555555555555,-0.000702789090594406,-0.0025697032568949623,0.005878842750989177
1589986621.6130824,-3.77,-0.6282827947162914,9.052575807925562,0.31555555555555553,-0.3655555555555556,-0.6255555555555555,-0.001184489801663199,-0.005641471950815767,0.020665203295770384
1589986621.6230824,-3.7132931555555557,-0.6029116444444445,9.087088355555556,0.3108299851851852,-0.3568920098765432,-0.6153168197530865,-0.002181661564992912,-0.011501913696115074,0.057150340935420464
1589986621.6330824,-3.622917970884881,-0.5832294927212203,9.03968847816366,0.3088888888888889,-0.3533333333333333,-0.6111111111111112,-0.0058404186805476755,-0.01217528011106878,0.0941574976025523
1589986621.6430824,-3.5391933035000798,-0.5375159821000479,9.008757991050024,0.3088888888888889,-0.3533333333333333,-0.6111111111111112,-0.009634509660938612,-0.013543901090440952,0.10544465113909726
1589986621.6530824,-3.3808574848790323,-0.5113904989919354,9.051657006048387,0.3088888888888889,-0.3533333333333333,-0.6111111111111112,-0.016543213057883185,-0.01793740366106634,0.10799224746714917
1589986621.6630824,-3.3209609703324596,-0.6115014771356052,9.083423417800525,0.3088888888888889,-0.3533333333333333,-0.6111111111111112,-0.020008391036752025,-0.021099221819248483,0.11395414400636951
1589986621.6730824,-3.191646829758503,-0.6695882925603743,9.09,0.3088888888888889,-0.3390871183968568,-0.6319325021721153,-0.013194760124613649,-0.029347640392748134,0.1285383910751712
1589986621.6830823,-2.1883550743542917,-0.4534281241847117,8.963666405774415,0.3088888888888889,-0.3388888888888889,-0.6322222222222222,-0.00029345899866534304,-0.029452431127404314,0.1287180323345818
1589986621.6930823,-2.097702415276268,-0.5244128814734288,9.162428983315214,0.3088888888888889,-0.3388888888888889,-0.6322222222222222,-0.014357440823814368,0.008524569904776468,0.09910884508915271
1589986621.7030823,-2.213644646924829,-0.49283314350797264,9.044410592255126,0.3088888888888889,-0.3388888888888889,-0.6322222222222222,0.008828523394555598,0.03349335039855434,0.04956850619243363
1589986621.7130823,-2.361729364751275,-0.39413531762436266,8.675772663941329,0.3088888888888889,-0.3388888888888889,-0.6322222222222222,0.06395988162990783,0.0338367147496663,0.05327210156591096
1589986621.7230823,-2.7509503794512553,-0.44260011675423233,8.799533761432185,0.30417314220233077,-0.3500351992389354,-0.6322222222222222,0.051285348743493324,0.016808770514110987,0.09388056083872727
1589986621.7330823,-3.2473212394067796,-0.5495837747175141,9.161013859463276,0.2966666666666667,-0.36777777777777776,-0.6322222222222222,-0.001785840596467865,-0.012628956645324546,0.1961085623859795
1589986621.7430823,-2.144187805963507,-0.8477210639827462,8.858336585532847,0.2966666666666667,-0.36777777777777776,-0.6322222222222222,0.042508829024654776,0.010742578921033875,0.35438571834052013
1589986621.7530823,-1.9044810958138234,-0.8324161949355884,9.025167610128824,0.2966666666666667,-0.36777777777777776,-0.6322222222222222,0.017679707183722353,-0.005115116376664085,0.44193565664069956
1589986621.7630823,-1.9791898896861948,-0.7952025275784513,9.180981043161616,0.2966666666666667,-0.36777777777777776,-0.6322222222222222,-0.008461538279716645,-0.032415630831262844,0.46589175933395144
1589986621.7730823,-1.9620602037104402,-0.7683201164059659,9.122440523826846,0.29967776161028253,-0.36777777777777776,-0.6286089082898831,-0.014680403845317573,-0.036222149184939205,0.4766515654619335
1589986621.7830822,-1.9481728163058798,-0.7318271836941201,9.02182718369412,0.3022222222222222,-0.36777777777777776,-0.6255555555555555,-0.011537671181639631,-0.028760229988672236,0.4887550283404693
1589986621.7930822,-1.9721392528848034,-0.7078607471151965,8.912885976921572,0.3022222222222222,-0.36777777777777776,-0.6255555555555555,-0.01445213179560648,-0.030814593533053318,0.4923934201522355
1589986621.8030822,-1.98,-0.7,8.91870557896723,0.3022222222222222,-0.36777777777777776,-0.6255555555555555,-0.01595436931060937,-0.03231683104805621,0.4919646829059016
1589986621.8130822,-1.9608686985468535,-0.7,8.962754200968764,0.3022222222222222,-0.36777777777777776,-0.6255555555555555,-0.007619659692369548,-0.033720993945828365,0.48639961289675193
1589986621.8230822,-2.0024002393625397,-0.7,9.029885987842903,0.3022222222222222,-0.38524452423195765,-0.6255555555555555,-0.004089060834729951,-0.03490658503988659,0.4718060778245618
1589986621.8330822,-1.9331406535896276,-0.6732740472583469,9.063362976370827,0.3022222222222222,-0.3911111111111111,-0.6255555555555555,-0.0029056485328787882,-0.03490658503988659,0.45411849701846274
1589986621.8430822,-1.8681163821691626,-0.6556232764338326,9.013102593639823,0.3022222222222222,-0.3911111111111111,-0.6255555555555555,0.0006828973104789837,-0.03108717320592406,0.4362598118009047
1589986621.8530822,-1.8541008446007177,-0.65,8.93294957769964,0.3022222222222222,-0.3911111111111111,-0.6255555555555555,0.0059014866649520084,-0.025026316128690305,0.4133070725000729
1589986621.8630822,-1.88,-0.64608515411627,8.96697815060476,0.3022222222222222,-0.3911111111111111,-0.6255555555555555,0.00616438562075031,-0.0177829251539829,0.3804077106737713
1589986621.8730822,-1.8694311926605505,-0.6364770642201835,9.047045871559632,0.29869928644240573,-0.3911111111111111,-0.6280998980632008,0.0016052225459856104,-0.013276111156511915,0.34625771170557684
1589986621.8830822,-1.8327508565834558,-0.62,9.041747430249632,0.2822222222222222,-0.3911111111111111,-0.64,-0.00804534421471199,-0.026670625754518097,0.2728417135029229
1589986621.8930821,-1.9570926245653284,-0.62,9.02,0.2822222222222222,-0.3911111111111111,-0.64,-0.019183852066913816,-0.00034176163708105403,0.20836785779147146
1589986621.9030821,-2.0142979372860976,-0.591404125427805,8.984255156784757,0.2822222222222222,-0.3911111111111111,-0.64,-0.017137626614565422,-0.005310320846119435,0.15065514790699694
1589986621.9130821,-2.0321076086512124,-0.5436771740463633,8.982107608651212,0.2822222222222222,-0.3911111111111111,-0.64,-0.008007587234410899,-0.005625366937299479,0.09785196764436666
1589986621.923082,-2.04,-0.5155107180392234,8.985510718039224,0.27124842187365733,-0.3911111111111111,-0.64,0.004073078083692273,0.0022256806937160727,0.044794211485032445
1589986621.933082,-2.0810544254686536,-0.51,9.031318031835818,0.2577777777777778,-0.3911111111111111,-0.64,0.01029100494877535,0.008195608365711616,-0.028779477251868767
1589986621.943082,-2.12,-0.5243905331415739,9.000852067721343,0.2577777777777778,-0.3911111111111111,-0.64,0.00371140634563412,0.005587118954498791,-0.12008562583943412
1589986621.953082,-2.127342034439231,-0.5520261033176936,9.021394241074617,0.2577777777777778,-0.3911111111111111,-0.64,0.010991470454701648,0.011571348585202059,-0.19867131364902296
1589986621.963082,-2.1005002395783423,-0.5305002395783421,9.00460028749401,0.2577777777777778,-0.3911111111111111,-0.64,0.01611155497710683,0.019973064586412632,-0.26752585739811025
1589986621.973082,-2.0896061887956625,-0.5436216607848178,9.056849510365298,0.2663166122628109,-0.3943131740429985,-0.64,0.017453292519943295,0.024522213536961074,-0.3419363290880674
1589986621.983082,-2.0775970261237298,-0.5755194052247459,9.113116431348477,0.27555555555555555,-0.3977777777777778,-0.64,0.015987021308521313,0.028999164561210433,-0.42329963435976886
1589986621.993082,-2.055720067344428,-0.5814401346888558,8.994198989833581,0.27555555555555555,-0.3977777777777778,-0.64,0.016052687833630338,0.03568764191856654,-0.5139825403417099
1589986622.003082,-2.053301774595994,-0.5833017745959937,8.956792901616025,0.27555555555555555,-0.3977777777777778,-0.64,0.017453292519943295,0.04439487706366928,-0.606780759529418
1589986622.013082,-2.058069706651176,-0.5719302933488237,8.965965146674412,0.27555555555555555,-0.3977777777777778,-0.64,0.01877369518306622,0.04843668865088504,-0.6680841443314249
1589986622.023082,-2.071047818555372,-0.5613970914071628,8.962794182814326,0.2762929093537803,-0.39754492920991735,-0.6410478185553721,0.02076388462525502,0.0492016844858076,-0.7184043753965297
1589986622.033082,-2.1,-0.6070698058328747,9.04,0.2966666666666667,-0.3911111111111111,-0.67,0.023359008015683677,0.05467346610846172,-0.8256119261717495
1589986622.043082,-2.1248175582990396,-0.6306360964138742,9.018727807172251,0.2966666666666667,-0.3911111111111111,-0.67,0.02888711443381424,0.06045181977132251,-0.9062813672311365
1589986622.053082,-2.1654802079452105,-0.6680791682191586,8.993559376164368,0.2966666666666667,-0.3911111111111111,-0.67,0.03480181991815962,0.06524031670633344,-0.9920521949153667
1589986622.063082,-2.169641299924423,-0.6996412999244229,9.003572466717051,0.2966666666666667,-0.3911111111111111,-0.67,0.036347983380411085,0.06973491386294856,-1.059777269759512
1589986622.073082,-2.1861936632690653,-0.7352253469237382,9.020450693847476,0.3068168979491588,-0.38688184807673937,-0.6746521893378089,0.0370882466048795,0.07583732091961914,-1.1359481491566576
1589986622.083082,-2.2309730342961864,-0.7905838205777118,9.080194606859237,0.3233333333333333,-0.38,-0.6822222222222222,0.03542015795825367,0.07965187543749538,-1.2108817601645596
1589986622.093082,-2.26696093418259,-0.8134804670912952,8.953089808917198,0.3233333333333333,-0.38,-0.6822222222222222,0.0387939492864099,0.08712201437062028,-1.2776351371209678
1589986622.103082,-2.2728304918773694,-0.8356609837547393,8.89283049187737,0.3233333333333333,-0.38,-0.6822222222222222,0.043550954059026155,0.0947377235955275,-1.3340869234484607
1589986622.113082,-2.28,-0.8933585393566588,8.948778356776241,0.3233333333333333,-0.38,-0.6822222222222222,0.04235922061163832,0.0953103085391473,-1.3820075087738366
1589986622.123082,-2.3099104121684766,-0.9539283297347814,9.00196416486739,0.3426089322863517,-0.3760119450442031,-0.6915276837857484,0.04036073895236887,0.0970741671257483,-1.4369647021997556
1589986622.133082,-2.3199991517516327,-0.9900016964967342,8.989998303503265,0.3555555555555556,-0.37333333333333335,-0.6977777777777778,0.044178970544506986,0.09981106286319721,-1.4857138389987483
1589986622.143082,-2.341837441656943,-1.0190964119019836,8.951807176196033,0.3555555555555556,-0.37333333333333335,-0.6977777777777778,0.04799655442984406,0.10085256429532148,-1.535308249076724
1589986622.153082,-2.3748421615837345,-1.071262707330123,8.976420545746388,0.3555555555555556,-0.37333333333333335,-0.6977777777777778,0.049121820212965066,0.1031351614468519,-1.587950793546708
1589986622.163082,-2.3647416427813583,-1.11,9.02,0.3555555555555556,-0.37333333333333335,-0.6977777777777778,0.04989141709886413,0.10701414628744245,-1.6257274446404848
1589986622.1730819,-2.351457821976595,-1.11,9.02,0.3555555555555556,-0.37333333333333335,-0.6977777777777778,0.049166897066714,0.11281030654464352,-1.6597798861515412
1589986622.1830819,-2.315766015229778,-1.1849094733478884,8.986441503807445,0.38666666666666666,-0.32,-0.72,0.0545415391248228,0.12217304763960307,-1.7638733752967692
1589986622.1930819,-2.277054819496779,-1.2472602406709614,8.954109638993557,0.38666666666666666,-0.32,-0.72,0.05312943898703414,0.12358514777739174,-1.809060579706006
1589986622.2030818,-2.2796536934074663,-1.273275615567911,8.929826846703733,0.38666666666666666,-0.32,-0.72,0.052340989465264026,0.12937599650950463,-1.8846722707353878
1589986622.2130818,-2.321410185898141,-1.287050929490705,8.952820371796282,0.38666666666666666,-0.32,-0.72,0.05500302138084319,0.13775233343190038,-1.9239874397943815
1589986622.2230818,-2.2861128229438257,-1.3536315568764017,8.963248126606743,0.40317124607240745,-0.3113726062197264,-0.727502081548064,0.05597274363809111,0.1410993704269232,-1.9767666228180483
1589986622.2330818,-2.208699089323775,-1.4043495446618872,8.963048633985661,0.4355555555555555,-0.29444444444444445,-0.7422222222222222,0.052834339280532855,0.1447013558705866,-2.0144362126425452
1589986622.2430818,-2.2443487823409445,-1.4373951293637781,8.949117047226776,0.4355555555555555,-0.29444444444444445,-0.7422222222222222,0.059759703333090025,0.15342907697406463,-2.066132216410698
1589986622.2530818,-2.2412814302559037,-1.4992335638484338,8.86564071512795,0.4355555555555555,-0.29444444444444445,-0.7422222222222222,0.0646385808810433,0.16096743159666535,-2.1041577232906374
1589986622.2630818,-2.2560358270507117,-1.5968644886912817,8.943314646562278,0.4355555555555555,-0.29444444444444445,-0.7422222222222222,0.05933728644283092,0.15808007049940534,-2.1442960242687628
1589986622.2730818,-2.304777051973871,-1.689554103947742,9.013805737006532,0.45207359020480287,-0.2614083751459497,-0.7642462684212187,0.05739888996463103,0.1634213839199618,-2.1820367413853017
1589986622.2830818,-2.2958860825158216,-1.7578932989037086,8.95488247432188,0.4622222222222222,-0.2411111111111111,-0.7777777777777778,0.057438257136907575,0.16911526351066797,-2.2150798407184342
1589986622.2930818,-2.2620404163832757,-1.8110793456834242,8.877520951733201,0.4622222222222222,-0.2411111111111111,-0.7777777777777778,0.056910830073029293,0.1706975447023028,-2.245143183359496
1589986622.3030818,-2.2606591455958345,-1.872636582383338,8.865988718393751,0.4622222222222222,-0.2411111111111111,-0.7777777777777778,0.05556046827671093,0.17823682733057225,-2.2744417768123473
1589986622.3130817,-2.2564825323201423,-1.9235174676798579,8.870988354880096,0.4622222222222222,-0.2411111111111111,-0.7777777777777778,0.05552455711459545,0.18582492922656005,-2.3025408591198295
1589986622.3230817,-2.24,-1.9591511729777085,8.863830234595541,0.47413850763057425,-0.23387622354175455,-0.7913963896730372,0.054634131789315823,0.18887633592969036,-2.330294622985672
1589986622.3330817,-2.232510775074878,-2.031190737088173,8.858766162612316,0.4933333333333334,-0.2222222222222222,-0.8133333333333334,0.05004362521452895,0.19252928235395245,-2.363268434981867
1589986622.3430817,-2.185130787064141,-2.09418846451069,8.81094232255345,0.4933333333333334,-0.2222222222222222,-0.8133333333333334,0.04736261424931308,0.1996962913305825,-2.399490813846596
1589986622.3530817,-2.156191704923223,-2.1128497704606617,8.797616590153554,0.4933333333333334,-0.2222222222222222,-0.8133333333333334,0.04856740584677881,0.2070487310429188,-2.4213815327463935
1589986622.3630817,-2.1529743553811658,-2.1628888733183858,8.816940162556055,0.4933333333333334,-0.2222222222222222,-0.8133333333333334,0.0502956912549755,0.21304577907413805,-2.4391871309825843
1589986622.3730817,-2.191137494424047,-2.3245499776961878,8.902274988848093,0.5044708277573803,-0.2259347203635712,-0.8059083370506354,0.03902174538333872,0.20616701789183015,-2.468327799759851
1589986622.3830817,-2.195148086244359,-2.40851913755641,8.905444258733077,0.5133333333333333,-0.2288888888888889,-0.8,0.03920529335634797,0.20299144776462746,-2.477741353923794
1589986622.3930817,-2.186568947465665,-2.46,8.848827369587978,0.5133333333333333,-0.2288888888888889,-0.8,0.04032876041862075,0.19475652615979158,-2.4831690878015116
1589986622.4030817,-2.188055105031754,-2.5163857352222765,8.802220420127014,0.5133333333333333,-0.2288888888888889,-0.8,0.03949709086610783,0.18368388171942168,-2.487745677048172
1589986622.4130816,-2.1796398445887224,-2.6087257808905475,8.847091406369817,0.5133333333333333,-0.2288888888888889,-0.8,0.044624353200441516,0.17853968312195073,-2.483286843933228
1589986622.4230816,-2.1207944637126834,-2.648411072574633,8.807780622994391,0.5036163783633881,-0.23809442517620535,-0.8020456747305148,0.05135570932467059,0.173857515987179,-2.4674771211734265
1589986622.4330816,-2.134865555719412,-2.7404524078716674,8.790721296432844,0.4922222222222222,-0.2488888888888889,-0.8044444444444444,0.0483699417546626,0.1720072075015807,-2.4507820433286365
1589986622.4430816,-2.17,-2.8610738001811047,8.805950799879264,0.4922222222222222,-0.2488888888888889,-0.8044444444444444,0.04811368785902399,0.16766337472001538,-2.4313658355630796
1589986622.4530816,-2.1484866616308196,-2.917091996978492,8.777210670695345,0.4922222222222222,-0.2488888888888889,-0.8044444444444444,0.057979111080055684,0.16641481619306886,-2.394626055029158
1589986622.4630816,-2.113106168738484,-2.9206814937845484,8.813787662523033,0.4922222222222222,-0.2488888888888889,-0.8044444444444444,0.06033452348486172,0.15993895513959586,-2.360826607298398
1589986622.4730816,-2.0845138545274615,-3.001296387926769,8.86581024245423,0.4836188080708121,-0.20013620869756446,-0.7218516685909065,0.06115723081263035,0.15651654054003422,-2.307349451848555
1589986622.4830816,-2.07,-3.04,8.89,0.4755555555555556,-0.15444444444444444,-0.6444444444444445,0.06326818538479445,0.15598880189699318,-2.2820179969825856
1589986622.4930816,-2.0022490879610864,-3.0879927036886907,8.801245439805431,0.4755555555555556,-0.15444444444444444,-0.6444444444444445,0.05936916175345491,0.15170858441985302,-2.2204184024297198
1589986622.5030816,-2.0002323125659975,-3.1480464625131996,8.832185850052799,0.4755555555555556,-0.15444444444444444,-0.6444444444444445,0.053770355166130726,0.14061062200077468,-2.171118403269374
1589986622.5130816,-1.8553348355749595,-3.1136004506724877,9.049725371452714,0.4755555555555556,-0.15444444444444444,-0.6444444444444445,0.05890965030626806,0.14340293495160042,-2.1017064313672185
1589986622.5230815,-1.5898167223129929,-2.9088086950344536,9.779822405342047,0.4867684876038929,-0.12837437743206018,-0.648649293962571,0.10504963127516787,0.18897362779743868,-2.0188778722225247
1589986622.5330815,-1.4311770270802948,-2.5817643580748157,7.628826126374709,0.52,-0.05111111111111112,-0.6611111111111111,0.11748942814402077,0.163753570093011,-1.9427054267576371
1589986622.5430815,-1.4602185935403647,-2.875845741025557,7.83692725547302,0.52,-0.05111111111111112,-0.6611111111111111,-0.05049830106393759,0.005249545055999094,-1.9348601634359077
1589986622.5530815,-1.7339267709218877,-3.2549915976354757,9.048585832624898,0.52,-0.05111111111111112,-0.6611111111111111,0.000999951580475139,0.08277598622456747,-1.8498621375635587
1589986622.5630815,-1.6432832959323733,-3.194178740277566,8.502834702281096,0.52,-0.05111111111111112,-0.6611111111111111,0.09767000659563371,0.15618955240614912,-1.7622126621348424
1589986622.5730815,-1.4790503192722073,-3.0415211656517345,8.145348240921082,0.525368210842928,-0.028445331996526498,-0.6566376020753378,0.044638459794918824,0.09994950512470628,-1.7136095570144965
1589986622.5830815,-1.6054530607647688,-3.3332092508118865,9.326596459612173,0.54,0.03333333333333333,-0.6444444444444445,0.018273478665540584,0.05981094945600037,-1.6560917543511564
1589986622.5930815,-1.495462593425731,-3.122973659386111,8.588535302227704,0.54,0.03333333333333333,-0.6444444444444445,0.05118375759888919,0.08884144304342326,-1.5806089754012764
1589986622.6030815,-1.592943930205341,-3.4383778416143564,8.732189594637727,0.54,0.03333333333333333,-0.6444444444444445,0.07251767372106639,0.09453599847834511,-1.4650723976630633
1589986622.6130815,-1.4393747981193696,-3.3003126009403148,8.476564619746618,0.54,0.03333333333333333,-0.6444444444444445,0.053484807815159637,0.07318796084576247,-1.4012735576647743
1589986622.6230814,-1.4438345245370248,-3.381503573611074,8.815062305709807,0.54,0.06731959980279453,-0.6391478834362168,0.04934165251459206,0.07289156370126476,-1.2878392793909557
1589986622.6330814,-1.4577370575042197,-3.4588318805059077,8.913137876020254,0.54,0.11888888888888888,-0.6311111111111111,0.04290867591386606,0.06617440233577954,-1.201299008261955
1589986622.6430814,-1.4342255543524316,-3.4284511087048632,8.72929334777082,0.54,0.11888888888888888,-0.6311111111111111,0.04426312560628026,0.06620276207158861,-1.1195287321756682
1589986622.6530814,-1.4211313394018206,-3.4135838751625487,8.74302210663199,0.54,0.11888888888888888,-0.6311111111111111,0.039105077822764366,0.06048933297528787,-1.0447060880153534
1589986622.6630814,-1.3840710664453317,-3.3937157342186732,8.882964466777334,0.54,0.11888888888888888,-0.6311111111111111,0.031634092692397225,0.04852258945454967,-0.9739778901744015
1589986622.6730814,-1.3764484671176938,-3.4467757664411534,8.838412263058451,0.5468067152908989,0.12927808591183979,-0.6354100891895735,0.0312823833708024,0.05130474959504542,-0.8905516711851771
1589986622.6830814,-1.3858395254580764,-3.4524814236257706,8.834011863548088,0.5611111111111111,0.1511111111111111,-0.6444444444444445,0.029635587169876167,0.04817971047231592,-0.8074465679238574
1589986622.6930814,-1.36227936066713,-3.47,8.916205698401669,0.5611111111111111,0.1511111111111111,-0.6444444444444445,0.027974995967511608,0.044199493005573916,-0.7324735402275004
1589986622.7030814,-1.3205268478325505,-3.46684228261085,8.784211413054251,0.5611111111111111,0.1511111111111111,-0.6444444444444445,0.02554850189715689,0.037892094037668814,-0.6542129564162129
1589986622.7130814,-1.2932472140095521,-3.446494428019104,8.777011143961792,0.5611111111111111,0.1511111111111111,-0.6444444444444445,0.022553230332528273,0.03288089466273892,-0.5790338681259862
1589986622.7230814,-1.2616383288802526,-3.3996599465630313,8.93457493320379,0.5669362804631204,0.15711831700537068,-0.6495414676274526,0.024571513162925693,0.023443588304755326,-0.4860738787312006
1589986622.7330813,-1.2579193786485943,-3.485503254378313,8.977851774810441,0.5966666666666667,0.18777777777777774,-0.6755555555555556,0.015044670373267104,0.02301723950588358,-0.3768782108938001
1589986622.7430813,-1.2227393813326175,-3.443287257599141,8.7386277930618,0.5966666666666667,0.18777777777777774,-0.6755555555555556,0.011207127973226103,0.013807137745785174,-0.30856995617307026
1589986622.7530813,-1.2024807268722466,-3.402480726872247,8.903605451541852,0.5966666666666667,0.18777777777777774,-0.6755555555555556,-0.005773489217958422,0.002395127418148021,-0.20196670368453157
1589986622.7630813,-1.1736102698237885,-3.373610269823789,8.687077023678414,0.5966666666666667,0.18777777777777774,-0.6755555555555556,0.0265066136165715,0.01577956030075799,-0.1397684567594617
1589986622.7730813,-1.2613327154772938,-3.452221192462156,9.004274637009576,0.6136546871245666,0.19547547454776368,-0.6734320529983181,-0.005957041393705468,-0.007211547341805425,-0.06415874408386871
1589986622.7830813,-1.2181000579038794,-3.3601250723798493,8.712358540822235,0.6677777777777778,0.22,-0.6666666666666666,0.002384365337267819,-0.006779522787715611,-0.0038896991844460764
1589986622.7930813,-1.2682822914790128,-3.4789569446946498,8.854172221221402,0.6677777777777778,0.22,-0.6666666666666666,-0.0024092209319774007,-0.015780249721442267,0.045413274163405085
1589986622.8030813,-1.216161980781941,-3.5230809903909703,8.726109105699324,0.6677777777777778,0.22,-0.6666666666666666,0.0030660447605330883,-0.013549921858035887,0.10848195389906962
1589986622.8130813,-1.1869327683402064,-3.4639915251030984,8.80865536680413,0.6677777777777778,0.22,-0.6666666666666666,-0.007635815477475192,-0.01854412330243975,0.1771408737438215
1589986622.8230813,-1.2006091271771917,-3.3703045635885958,8.73010995426681,0.7395280723946678,0.23011373833695523,-0.6968170564258916,-0.009134553499159532,-0.020792230334966258,0.2462102833723253
1589986622.8330812,-1.3,-3.399182016198955,8.943667392729504,1.0855555555555556,0.2788888888888889,-0.8422222222222222,-0.016362461737446838,-0.03352650082237157,0.34031911164811346
1589986622.8430812,-1.2973477656309935,-3.391826812428078,8.794695531261988,1.0855555555555556,0.2788888888888889,-0.8422222222222222,-0.016073147848236102,-0.03650961882645803,0.41446404816387594
1589986622.8530812,-1.294477836809135,-3.493433510427405,8.766566489572595,1.0855555555555556,0.2788888888888889,-0.8422222222222222,-0.015027402843430382,-0.0366161818205266,0.49732213165504785
1589986622.8630812,-1.3118798797451314,-3.5418798797451316,8.726266265817106,1.0855555555555556,0.2788888888888889,-0.8422222222222222,-0.013702319677331692,-0.04336265279471418,0.5708604656310771
1589986622.8730812,-1.3402688010489798,-3.56977599912585,8.82067200262245,1.086048357478685,0.27592709955290884,-0.8434268491454275,-0.006662271278416495,-0.055573726615600366,0.658147256300559
1589986622.8830812,-1.3948584676363907,-3.5128018546909474,8.95868862880006,1.1955555555555557,-0.38222222222222224,-1.1111111111111112,-0.03104236094346569,-0.04422496304878977,0.7483830113878734
1589986622.8930812,-1.3556491418315073,-3.4579087985641106,8.872428112029315,1.1955555555555557,-0.38222222222222224,-1.1111111111111112,-0.01821113907879581,-0.05705618491345965,0.798852484055575
1589986622.9030812,-1.3347263337369346,-3.4320895006054015,8.813184165657665,1.1955555555555557,-0.38222222222222224,-1.1111111111111112,-0.019059686335299714,-0.06544984694978735,0.8724584762572519
1589986622.9130812,-1.339188308482275,-3.4123985385602844,8.852398538560283,1.1955555555555557,-0.38222222222222224,-1.1111111111111112,-0.018761492367224766,-0.06728132673598142,0.9153318683113976
1589986622.9230812,-1.4038395463264113,-3.42671920607122,8.862879659744808,1.140628712274947,-0.3428668723765046,-1.075595307591805,-0.022698031666242034,-0.07360919934272141,0.9508199997644109
1589986622.9330812,-1.4301667057994834,-3.467875088048838,8.89,0.6233333333333333,0.027777777777777776,-0.7411111111111112,-0.021530269367977712,-0.07800349333938146,0.9966056954474213
1589986622.9430811,-1.406291428019821,-3.4125828560396423,8.860640002574169,0.6233333333333333,0.027777777777777776,-0.7411111111111112,-0.025370853884898344,-0.07635815477475191,1.027369987100755
1589986622.9530811,-1.4265354913443593,-3.4530709826887187,8.766167707059656,0.6233333333333333,0.027777777777777776,-0.7411111111111112,-0.029787423372341124,-0.07635815477475191,1.0443001701359522
1589986622.9630811,-1.433587939028051,-3.427175878056102,8.776145725626229,0.6233333333333333,0.027777777777777776,-0.7411111111111112,-0.029564803325521128,-0.08111286133848959,1.0583015507384383
1589986622.973081,-1.4475777992728727,-3.4551555985457454,8.839100096727927,0.6233333333333333,0.027777777777777776,-0.7411111111111112,-0.02574966077605239,-0.0826389183582771,1.059064579248332
1589986622.983081,-1.4877549057329742,-3.4355098114659484,8.915509811465949,0.5911111111111111,0.14222222222222222,-0.7411111111111112,-0.027025867768803596,-0.07758266374279094,1.0404739791611217
1589986622.993081,-1.4848563628622236,-3.407859092844441,8.856292734239988,0.5911111111111111,0.14222222222222222,-0.7411111111111112,-0.02617993877991494,-0.07969332064679978,1.013336280770108
1589986623.003081,-1.5048683253310053,-3.379736650662011,8.741907463989525,0.5911111111111111,0.14222222222222222,-0.7411111111111112,-0.02564888686688815,-0.07282013647074916,0.9787624814637498
1589986623.013081,-1.5224207882956655,-3.4075792117043346,8.820893547330495,0.5911111111111111,0.14222222222222222,-0.7411111111111112,-0.024394377773544883,-0.07212686516430702,0.9394126794864616
1589986623.023081,-1.542253264635338,-3.3922532646353383,8.898122279470552,0.5901931144078253,0.1412207712731831,-0.742154289183027,-0.026820148984432884,-0.07283986938472882,0.8914240665243275
1589986623.033081,-1.5981424891178824,-3.4481424891178825,8.851547925735098,0.5674234303593813,0.1163811159476079,-0.7680289301471677,-0.015643106463940362,-0.06674330073718743,0.8426515173439965
1589986623.043081,-1.6,-3.466912681695898,8.875369022543847,0.5666666666666667,0.11555555555555555,-0.7688888888888888,-0.018961405716640345,-0.059161128208903895,0.7893736866411081
1589986623.053081,-1.641237076478594,-3.5442267376614693,8.80577326233853,0.5666666666666667,0.11555555555555555,-0.7688888888888888,-0.016036340292695326,-0.05511507112813151,0.7313627232897141
1589986623.063081,-1.5937840911398575,-3.5389190341774466,8.768919034177447,0.5666666666666667,0.11555555555555555,-0.7688888888888888,-0.011439003214284212,-0.051475436932289856,0.6765806654384298
1589986623.073081,-1.5796130554186325,-3.56845222167453,8.827291387930428,0.5666666666666667,0.11555555555555555,-0.7688888888888888,-0.007720233689570369,-0.047032350965490376,0.5927564179055331
1589986623.083081,-2.550362506686417,-4.577413076574908,7.663177385507962,0.5222222222222223,0.03,-0.7322222222222222,0.0003217329156455827,-0.03778687562720421,0.4841267071254036
1589986623.093081,-4.486274083002033,-6.854111964597312,3.119092446347299,0.5222222222222223,0.03,-0.7322222222222222,-0.14857411959492958,0.28742026329328263,0.24369115332672273
1589986623.103081,-2.3887090971235314,-6.657936822033136,-6.342585583478746,0.5222222222222223,0.03,-0.7322222222222222,-0.9666892002257623,2.0314704200908023,-0.7258657530949284
1589986623.113081,-0.5394465060695641,-1.4032442291968048,-0.23938926976539404,0.5222222222222223,0.03,-0.7322222222222222,-0.7055676552732941,-1.9093618245755857,-5.088020941087421
1589986623.123081,0.10688565318573506,-0.9020070444682056,0.23546701050380525,0.5222222222222223,0.03,-0.7322222222222222,-0.5501713009394721,-1.189934258215298,-5.188021372811501
1589986623.133081,-0.20721546590623166,-0.6450465486874108,0.119892644468674,0.4955555555555556,0.15555555555555556,-0.6677777777777778,-0.46730347187818344,-1.1191283401048253,-5.001574689140889
1589986623.143081,-0.26877736307976186,-0.9440614778159859,0.37493478990187035,0.4955555555555556,0.15555555555555556,-0.6677777777777778,-0.43372666564529927,-0.9138301534237625,-4.816422586199558
1589986623.153081,1.0772807533843436,-0.4409110895682582,1.393648166741682,0.4955555555555556,0.15555555555555556,-0.6677777777777778,-0.3452973610750747,-0.7685396102656351,-4.492040803531761
1589986623.163081,4.780311948204826,-1.3630384655333587,6.839282276771804,0.4955555555555556,0.15555555555555556,-0.6677777777777778,-0.2692619650119253,-0.6489422685413063,-4.326505410019279
1589986623.173081,-0.06430971913024919,-0.13081851727608187,-0.3614324052331432,0.48889102362098,0.16586671817131396,-0.6694124742900321,1.8993365548348926,2.0239813449892425,-4.278700063306901
1589986623.183081,3.82,1.43,2.37,0.43666666666666665,0.2466666666666667,-0.6822222222222222,2.0376719017033795,3.1219576995048572,-4.060072172451808
1589986623.193081,-0.24239505081749835,1.3579717189571365,11.740879363676537,0.43666666666666665,0.2466666666666667,-0.6822222222222222,0.6249713239333119,3.7033806291766314,-3.489649136044095
1589986623.203081,-0.9389062832046471,0.7477119784656797,3.596329248423885,0.43666666666666665,0.2466666666666667,-0.6822222222222222,0.6730908870015643,1.112660843252014,-2.8828436048123787
1589986623.213081,2.6788179419525067,0.8783693931398417,11.231645558487248,0.43666666666666665,0.2466666666666667,-0.6822222222222222,-0.10854207607000646,-0.5103730519816719,-2.4096186233256343
1589986623.2230809,2.513648898950401,-1.5785376179696,16.120864669391118,0.437606176723279,0.2530083595488,-0.6782293044816198,-1.3143953535174089,-0.18975776457141028,-2.0870420248153025
1589986623.2330809,0.493357438016529,-1.967634297520661,9.730532024793389,0.4455555555555555,0.30666666666666664,-0.6444444444444445,-0.3907427983945776,0.3592444961043403,-1.7578912728082543
1589986623.2430809,1.154131600324939,-2.237679935012185,10.536620633631195,0.4455555555555555,0.30666666666666664,-0.6444444444444445,0.6829226308933454,0.3058140111126441,-1.468262486682761
1589986623.2530808,0.5217092348571118,-0.8722200531424543,3.9240203893498182,0.4455555555555555,0.30666666666666664,-0.6444444444444445,0.6646079823070129,0.4158972033909072,-1.2626193877933272
1589986623.2630808,0.5725223057055647,-2.1592317738905846,6.8435473409251,0.4455555555555555,0.30666666666666664,-0.6444444444444445,-0.1601776407652801,-0.07133700997043071,-1.1682420218253478
1589986623.2730808,0.3509403615872271,-2.202317151913595,8.166883951631839,0.4455555555555555,0.30666666666666664,-0.6444444444444445,-0.3884578015055451,-0.13444976029273922,-1.091701026753612
1589986623.2830808,0.10995676905574517,-2.201244596131968,7.547164960182025,0.41533851599039306,0.34834534192895966,-0.6361087093919858,0.17970053437052902,0.18233565391950857,-0.8618354933757534
1589986623.2930808,0.13006321914104024,-2.2901896574231206,7.605284486134681,0.4133333333333333,0.3511111111111111,-0.6355555555555555,0.11867987885982677,0.10259529692188579,-0.7527442355667915
1589986623.3030808,-0.022697184298264825,-2.6679667080382568,8.61008322990436,0.4133333333333333,0.3511111111111111,-0.6355555555555555,-0.13862175963166357,-0.04563395050244829,-0.6042208095344977
1589986623.3130808,0.06367198011447858,-2.8110232377824906,8.44429613919865,0.4133333333333333,0.3511111111111111,-0.6355555555555555,0.1415622034767947,0.07642464791473991,-0.4357967857566589
1589986623.3230808,-0.11614101898332467,-3.157748927740273,9.708775604408286,0.41294028897052376,0.3524331694223795,-0.6361987190583348,0.026783039614135758,0.037940279165185,-0.2765968001443492
1589986623.3330808,-0.019336449137383874,-3.1012795953301406,9.176350470255612,0.40308056426399275,0.38559769798071114,-0.6523328140326582,-0.012815987138719395,-0.022778228522526256,-0.12788045522807087
1589986623.3430808,-0.1296209481975159,-2.835743146016359,8.322506248106635,0.4011111111111111,0.3922222222222223,-0.6555555555555556,-0.021434961188596342,0.02405240981642391,0.1443552700471767
1589986623.3530807,-0.1772690093910936,-3.1613382308391396,9.474001060284762,0.4011111111111111,0.3922222222222223,-0.6555555555555556,-0.04655668092877388,-0.0513127494041087,0.2812253293212474
1589986623.3630807,-0.2042359083644113,-2.958820458177944,8.42637421417155,0.4011111111111111,0.3922222222222223,-0.6555555555555556,-0.003253476906251603,-0.02621796966239047,0.4879582131236432
1589986623.3730807,-0.17106062863101446,-3.1358334574705795,8.890075971994637,0.40093433967260866,0.3926936127248954,-0.6563804889352335,0.007792785913329741,-0.052475574195780646,0.6346984202133222
1589986623.3830807,-0.19395637779941577,-3.241978188899708,9.081869133398248,0.3977777777777778,0.4011111111111111,-0.6711111111111111,-0.026635304868592526,-0.05562047379751988,0.8184373566015777
1589986623.3930807,-0.20949141064132373,-3.2442359872683357,9.111182193728979,0.3977777777777778,0.4011111111111111,-0.6711111111111111,-0.020023303534602153,-0.06023609983947923,0.9461391303596043
1589986623.4030807,-0.18108693198492065,-2.9223185624957675,8.060216483442064,0.3977777777777778,0.4011111111111111,-0.6711111111111111,-0.04171243931001979,-0.07366270770045207,1.089700552873083
1589986623.4130807,-0.2524834249217851,-3.0984436447340693,8.66483424921785,0.3977777777777778,0.4011111111111111,-0.6711111111111111,-0.014343339953496046,-0.09321546809754078,1.2282934798069454
1589986623.4230807,-0.2864789508664429,-3.2140284329459057,9.00478950866443,0.3977777777777778,0.4011111111111111,-0.6711111111111111,-0.01656834192355143,-0.08505712754067103,1.3032018794654765
1589986623.4330807,-0.29025123494905836,-3.2697487650509416,9.08150740969435,0.3999441700113204,0.4086934839285102,-0.6646119344104833,-0.0270241202279468,-0.10201738940413049,1.4265766426889255
1589986623.4430807,0.9610046713882849,-8.142507480679397,8.533740770240888,0.4,0.4088888888888889,-0.6644444444444444,-0.06524578435964476,-0.10617942492440821,1.4990997458932145
1589986623.4530807,4.289748327492832,-21.969796113411917,8.066986301369862,0.4,0.4088888888888889,-0.6644444444444444,-0.1730650471410497,-0.13800555813674817,0.7779593855286623
1589986623.4630806,-1.1956196242089383,-0.1894030055447794,4.434795548502127,0.4,0.4088888888888889,-0.6644444444444444,-0.5055150585874506,-0.18910039655503946,-3.450474558316582
1589986623.4730806,-2.189977468210584,-3.6080217088892805,13.58946198005447,0.4,0.4088888888888889,-0.6644444444444444,0.028755174844010023,0.46349814360956326,-5.2460169703354005
1589986623.4830806,-1.1160839367810422,-1.4850105562242262,3.1095023776168578,0.4375511971394057,0.3835636629111501,-0.7037422088926597,0.9464130174673396,0.800685205154085,-4.879379717183931
1589986623.4930806,-16.709132953208435,-24.989100190062448,9.427631640872479,0.4477777777777778,0.37666666666666665,-0.7144444444444444,0.5065424037117114,0.3529786640685668,-4.012572094611614
1589986623.5030806,-2.2839904063716183,-4.239671463480857,6.451496968051408,0.4477777777777778,0.37666666666666665,-0.7144444444444444,-0.22556729872398396,0.3463532368972031,-1.5172705861967377
1589986623.5130806,-0.8563612814631025,0.8874742131298472,10.168495232745034,0.4477777777777778,0.37666666666666665,-0.7144444444444444,0.018276228621246157,-0.40329595216906183,1.2501890008936083
1589986623.5230806,0.17776539799946955,-1.5931207964670817,11.359704445796858,0.4477777777777778,0.37666666666666665,-0.7144444444444444,-0.21090501568363784,-0.34617913115849885,1.3679924442278943
1589986623.5330806,-0.23023181221752442,-2.51,9.072736550517568,0.35890346827363895,0.4398423806515365,-0.7144444444444444,-0.16316007200113816,-0.03492789591973128,1.5492462561794427
1589986623.5430806,-0.14666758926100193,-2.4402569780067704,8.664874278779621,0.3555555555555556,0.44222222222222224,-0.7144444444444444,0.0006420176318706616,-0.06869400542696555,1.6618938073544904
1589986623.5530806,10.818588536985143,-17.34619864643367,6.6354687252154605,0.3555555555555556,0.44222222222222224,-0.7144444444444444,-0.10058304194813789,-0.16309488992129653,1.749804726578689
1589986623.5630805,-0.6912405866032502,-3.2216052318668256,9.380110978993262,0.3555555555555556,0.44222222222222224,-0.7144444444444444,-0.16650236992631,-0.18166720928265687,0.7265693955610777
1589986623.5730805,-0.8383013201622,-1.9172404646483128,11.042536662703132,0.3555555555555556,0.44222222222222224,-0.7144444444444444,-0.03537778509252265,0.040826102217227045,-0.6474488604099922
1589986623.5830805,0.14984533143264434,-1.5348517462580187,6.664301496792587,0.3950814128454898,0.4248694068266413,-0.7076961273461629,0.42471523728956667,0.28749696633853633,-1.198358007945778
1589986623.5930805,-1.645747583340862,-4.731198843617309,8.00566988887885,0.4011111111111111,0.4222222222222222,-0.7066666666666667,-0.0412449140161107,0.09772637580363495,-0.7377503712893366
1589986623.6030805,-0.2649412421635067,-1.7108464681844717,9.693166070204828,0.4011111111111111,0.4222222222222222,-0.7066666666666667,-0.17089726557932233,-0.11805810246209764,0.44138204636130646
1589986623.6130805,4.668012518306016,-7.070552290007423,8.191297971793688,0.4011111111111111,0.4222222222222222,-0.7066666666666667,-0.08774908305986807,-0.18217486807914093,0.8556796639600228
1589986623.6230805,-0.4142536160651593,-3.3177531245611567,8.208126667602865,0.4011111111111111,0.4222222222222222,-0.7066666666666667,-0.06572037175836604,-0.04082397056116949,0.1828861062933146
1589986623.6330805,-1.9375693300836572,-5.003378784884614,8.30821223898294,0.4011111111111111,0.4331346932203265,-0.6957541956685623,0.10457341043263754,0.0998993144198181,-0.3687493066100246
1589986623.6430805,0.9098386175378463,-4.360658383319052,10.067130819765781,0.4011111111111111,0.4355555555555555,-0.6933333333333334,-0.04351670153331906,-0.004596382663064187,-0.024160920365011475
1589986623.6530805,0.5038398552794441,-4.367314100733124,8.62284014091212,0.4011111111111111,0.4355555555555555,-0.6933333333333334,-0.02028386494174263,-0.05106205584621704,0.10652378546260591
1589986623.6630805,0.18626070925062357,-4.469478364602538,8.718261576835484,0.4011111111111111,0.4355555555555555,-0.6933333333333334,-0.005975850447653017,0.0022007076289753402,-0.03606401789705449
1589986623.6730804,0.06467435004020369,-4.367652640042884,8.656587510050924,0.4011111111111111,0.4355555555555555,-0.6933333333333334,-0.013113651323321773,0.0013920298905446618,-0.019957613117786134
1589986623.6830804,0.10825994342982853,-4.470041903830709,9.014821734120193,0.4030724431873295,0.4130002366790438,-0.691372001257115,-0.008660328685074615,-0.002181661564992912,-0.0014750232353462397
1589986623.6930804,-0.04841644667096262,-4.353662876504459,8.484552352048558,0.4033333333333333,0.41,-0.6911111111111111,0.011610396783295732,0.0004428219251122146,0.0015336527076086706
1589986623.7030804,0.02428521064692403,-4.3866663728773725,8.65428432927904,0.4033333333333333,0.41,-0.6911111111111111,0.008051406686929745,-0.002025814861447455,-0.0009349840789509992
1589986623.7130804,0.03,-4.325844073190136,8.688330264802818,0.4033333333333333,0.41,-0.6911111111111111,0.004636532912741329,0.0018173818546522382,0.0009086909273261191
1589986623.7230804,0.053263494893823954,-4.358772491489707,8.744281488085589,0.4033333333333333,0.41,-0.6911111111111111,-0.002403753226982789,-0.0012018766134913946,-0.0006009383067456973
1589986623.7330804,0.10875738738344351,-4.301242612616556,8.916804710414569,0.4088888888888889,0.4155555555555556,-0.6911111111111111,0.002375301578258382,1.9364001326546992e-05,-0.001052102779843362
1589986623.7430804,0.044492404675392894,-4.365507595324607,8.751551897736725,0.4088888888888889,0.4155555555555556,-0.6911111111111111,0.012389904631764674,0.0010208243066771763,0.0009508178308578967
1589986623.7530804,0.05551657617882783,-4.261383966748205,8.755516576178827,0.4088888888888889,0.4155555555555556,-0.6911111111111111,0.00801218170951248,-0.0014480630577260397,0.0019371287292372877
1589986623.7630804,0.0800305029308539,-4.42,8.740137263188842,0.4088888888888889,0.4155555555555556,-0.6911111111111111,-1.4973091169306934e-05,-0.0010924944592930457,0.001085839752106687
1589986623.7730803,0.09544477315742085,-4.42,8.809501479208395,0.4088888888888889,0.4155555555555556,-0.6911111111111111,-0.00758143529495534,-0.0019332124819359381,-0.001436314315821991
1589986623.7830803,0.057183016954064636,-4.398591508477033,8.71760541950442,0.4017527250478997,0.42209703907646234,-0.7065727994332545,-0.010401303081469793,-0.002181661564992912,-0.002765487603994602
1589986623.7930803,0.05637033727942818,-4.349691385600477,8.735172734718189,0.3955555555555556,0.42777777777777776,-0.72,-0.0036347625213651357,-0.0008591987825202895,-0.0006275667825441232
1589986623.8030803,0.03935199585277346,-4.30096571132341,8.728703991705547,0.3955555555555556,0.42777777777777776,-0.72,0.004891410282854026,-0.0025337196669050466,0.001090830782496456
1589986623.8130803,0.05847467968273338,-4.328474679682733,8.773874313605857,0.3955555555555556,0.42777777777777776,-0.72,0.009902001453314381,-0.0013417418288669035,0.001090830782496456
1589986623.8230803,0.05112839322479627,-4.367322964065122,8.773805429159674,0.3955555555555556,0.42777777777777776,-0.72,0.004609500342859468,0.0,0.0004609500342859468
1589986623.8330803,0.03625767966852408,-4.361226960994427,8.746257679668524,0.3913837691098729,0.4201295026273595,-0.7060940451810577,-0.000682606960942828,0.0,-0.000682606960942828
1589986623.8430803,0.033763428073096284,-4.356236571926904,8.737526856146193,0.3888888888888889,0.4155555555555556,-0.6977777777777778,0.0009500826080394871,-0.002040913390535943,-0.00041052631898447515
1589986623.8530803,0.046667876851582926,-4.309996369445251,8.704998184722625,0.3888888888888889,0.4155555555555556,-0.6977777777777778,0.009454394824419617,-0.0014543090326326915,-0.0018181833148566764
1589986623.8630803,0.04322216577151981,-4.32711133691392,8.74066700537088,0.3888888888888889,0.4155555555555556,-0.6977777777777778,0.007950919738930837,-0.001090830782496456,-0.0014423145434844815
1589986623.8730803,0.06608728480821505,-4.34,8.770434913923285,0.3888888888888889,0.4155555555555556,-0.6977777777777778,0.002561030832901299,-0.001090830782496456,-0.002229103314518581
1589986623.8830802,0.06803539691943128,-4.376607671800947,8.750713862559241,0.393769911795682,0.4155555555555556,-0.6880157319641916,-0.009077385837696737,-0.0026881417935365128,-0.0008765258309292837
1589986623.8930802,0.042908705928698054,-4.381454352964349,8.731454352964349,0.3955555555555556,0.4155555555555556,-0.6844444444444444,-0.007338211186042179,-0.003272492347489368,-0.0018643709685675345
1589986623.9030802,0.04874384296217213,-4.353768471113483,8.69502462815131,0.3955555555555556,0.4155555555555556,-0.6844444444444444,-0.0008221528587073227,0.0005427288766915736,0.0006797543531427948
1589986623.9130802,0.032021955453411896,-4.314043910906824,8.761912178186352,0.3955555555555556,0.4155555555555556,-0.6844444444444444,0.006863851540178796,0.00011028056247091374,0.001090830782496456
1589986623.9230802,0.044252648245184156,-4.31,8.791378972367777,0.3955555555555556,0.4155555555555556,-0.6844444444444444,0.00841317684937224,0.0,0.001090830782496456
1589986623.9330802,0.05,-4.351503303536727,8.784436261173727,0.39959059895495963,0.4190141641836162,-0.6953967050999698,0.00589707869289937,0.0,0.0005249172690820003
1589986623.9430802,0.05,-4.356127760252366,8.79032334384858,0.4033333333333333,0.4222222222222222,-0.7055555555555556,0.00031658180438382975,0.0,0.0
1589986623.9530802,0.05,-4.345963929908853,8.722468911184908,0.4033333333333333,0.4222222222222222,-0.7055555555555556,0.0008608607162720655,0.0,-0.001301127665845681
1589986623.9630802,0.04209292695047209,-4.3104646347523605,8.741163657445751,0.4033333333333333,0.4222222222222222,-0.7055555555555556,0.005631773037742179,0.001725055736374634,0.0012684499077563562
1589986623.9730802,0.04967402706388335,-4.319348054127767,8.779348054127768,0.4033333333333333,0.4222222222222222,-0.7055555555555556,0.00496207571818057,-0.0009841563886034193,0.0011263889137941348
1589986623.9830801,0.06,-4.341082448153768,8.79458775923116,0.40537795762378465,0.42366548642724666,-0.7072393637947508,0.002445954910878498,-0.004363323129985824,0.0001180767766586958
1589986623.9930801,0.0643837783120334,-4.380686448184234,8.745616221687966,0.4222222222222222,0.4355555555555555,-0.7211111111111111,-0.0057979112279077415,-0.0029287350320639062,-0.0003437573154254619
1589986624.0030801,0.06377383808400765,-4.376416866588054,8.671512218924084,0.4222222222222222,0.4355555555555555,-0.7211111111111111,-0.003560802032612247,-0.001090830782496456,-0.00014415484256143953
1589986624.0130801,0.05205072040498442,-4.3341014408099685,8.669746397975079,0.4222222222222222,0.4355555555555555,-0.7211111111111111,0.0032448286579605202,0.0006434329936863344,0.001090830782496456
1589986624.02308,0.04364594589470891,-4.3109378376841265,8.762602703368785,0.4222222222222222,0.4355555555555555,-0.7211111111111111,0.006442682473495675,0.001090830782496456,0.001090830782496456
1589986624.03308,0.04659800703059179,-4.319794021091775,8.803401992969409,0.40022886545358294,0.4267582128480998,-0.6954521948810319,0.006916084560265436,0.0003710998652867,-0.000348631051923056
1589986624.04308,0.057723730935288556,-4.3454474618705765,8.8,0.3888888888888889,0.4222222222222222,-0.6822222222222222,0.0006472862730257049,-0.0016850566919865803,-0.0027758874744830365
1589986624.05308,0.051605550049554014,-4.358394449950446,8.707661050545093,0.3888888888888889,0.4222222222222222,-0.6822222222222222,-0.00017513834168922284,-0.0012659691241856787,-0.0014411074658749017
1589986624.06308,0.05844834945930563,-4.351551650540694,8.715345048377918,0.3888888888888889,0.4222222222222222,-0.6822222222222222,0.0027647158954493627,-0.002933974712796031,-0.001090830782496456
1589986624.07308,0.0533956456036268,-4.330186936810881,8.77943918956736,0.3888888888888889,0.4222222222222222,-0.6822222222222222,0.003992915654897337,-0.002552069040081399,-0.000370407475088487
1589986624.08308,0.05,-4.32,8.816169317118803,0.3930017669680907,0.425649620621557,-0.7007301735786301,0.002344418823934151,-0.002181661564992912,-0.0006729681020172242
1589986624.09308,0.06469966764840986,-4.3567491691210245,8.746501661757952,0.3955555555555556,0.42777777777777776,-0.7122222222222222,-0.0029178817083417314,-0.002181661564992912,-0.001090830782496456
1589986624.10308,0.04551929913661758,-4.386320467242255,8.65471813103098,0.3955555555555556,0.42777777777777776,-0.7122222222222222,-0.007033753337872336,-0.002181661564992912,0.0024697428280188935
1589986624.11308,0.03179890803375168,-4.365396724101255,8.672804367864993,0.3955555555555556,0.42777777777777776,-0.7122222222222222,-0.003162813694041167,0.0013967398617543074,-0.0012005094359446569
1589986624.12308,0.03887590486039297,-4.36,8.737693381592555,0.3955555555555556,0.42777777777777776,-0.7122222222222222,0.0007229715082750555,0.001697556052781584,-0.002181661564992912
1589986624.13308,0.04971949327817994,-4.36,8.80817670630817,0.3955555555555556,0.42777777777777776,-0.7122222222222222,0.0042715275199282764,0.0011061300508393808,-0.002181661564992912
1589986624.14308,0.06306024096385543,-4.339590361445783,8.8,0.4222222222222222,0.4222222222222222,-0.6911111111111111,0.00545415391248228,0.0,0.001090830782496456
1589986624.15308,0.05439449801474759,-4.365605501985252,8.706366988088485,0.4222222222222222,0.4222222222222222,-0.6911111111111111,0.0011984134270265588,0.0,0.00023968268540531178
1589986624.16308,0.06167325192641196,-4.37,8.715019755779236,0.4222222222222222,0.4222222222222222,-0.6911111111111111,0.0012733542533166218,0.0006366771266583109,-0.0019100313799749326
1589986624.17308,0.056662218197416715,-4.352216290929889,8.766675563605167,0.4222222222222222,0.4222222222222222,-0.6911111111111111,0.0016966861329769478,0.001090830782496456,-0.00230254148345744
1589986624.18308,0.04,-4.33,8.804433475271786,0.4192665720410327,0.41680353022337463,-0.6881554609299215,0.0006072136525065317,0.00012359652251660736,-0.00012359652251660736
1589986624.19308,0.033134256516587676,-4.33,8.803134256516588,0.4155555555555556,0.41,-0.6844444444444444,-0.0029957457345722426,-0.001090830782496456,-0.0019049149520757867
1589986624.20308,0.04191727182115905,-4.353834543642318,8.722537733162467,0.4155555555555556,0.41,-0.6844444444444444,-0.004363323129985824,0.00020914191209333308,-0.001972519652899579
1589986624.21308,0.056551665417887066,-4.383103330835774,8.68965499625366,0.4155555555555556,0.41,-0.6844444444444444,-7.52681413165937e-05,-0.0003385208803932875,-0.0018055066139413276
1589986624.22308,0.06548453821491365,-4.362577308925432,8.721938152859654,0.4155555555555556,0.41,-0.6844444444444444,0.004574742810035297,0.0007039801512853331,-0.0015833912537323155
1589986624.23308,0.07,-4.34,8.790552166934189,0.40783230782949886,0.4177232477260567,-0.6977845996076333,0.007234282942650152,0.0008030650696500795,0.0002877657128463765
1589986624.24308,0.05046303656597774,-4.333487678855326,8.806975357710652,0.4033333333333333,0.4222222222222222,-0.7055555555555556,0.003373511255407363,0.0,0.00038044674548515104
1589986624.25308,0.05448601460894352,-4.344486014608943,8.713083912346338,0.4033333333333333,0.4222222222222222,-0.7055555555555556,-0.0012794378151728878,0.0007900895325564478,-0.0007900895325564478
1589986624.26308,0.0532763732191386,-4.356723626780862,8.693447253561722,0.4033333333333333,0.4222222222222222,-0.7055555555555556,-0.0007147937524766778,-0.0018429048425360123,-0.001824264688754573
1589986624.2730799,0.05,-4.36,8.738458112586276,0.4033333333333333,0.4222222222222222,-0.7055555555555556,0.0017979125591067557,-0.0020738839747515307,-0.000983053192255075
1589986624.2830799,0.05,-4.346752219220378,8.787663707706162,0.4033333333333333,0.41927827093786185,-0.7055555555555556,0.0023090865425442796,-0.001090830782496456,-0.0009634058049450881
1589986624.2930799,0.05521516662293361,-4.335215166622934,8.81,0.4033333333333333,0.4155555555555556,-0.7055555555555556,0.001090830782496456,4.694207513235857e-05,-0.0016127751361785046
1589986624.3030798,0.05296189569557723,-4.368152417217691,8.711466539738081,0.4033333333333333,0.4155555555555556,-0.7055555555555556,-0.0027478596303461295,-0.0012123834652090955,-0.0018585688650649731
1589986624.3130798,0.057259303435114504,-4.38,8.68451860687023,0.4033333333333333,0.4155555555555556,-0.7055555555555556,-0.00515519029463634,0.0009858070936091539,-0.002181661564992912
1589986624.3230798,0.06583320563898254,-4.38,8.719166028194913,0.4033333333333333,0.4155555555555556,-0.7055555555555556,-0.00036372169517503647,0.0015453575378295064,-0.0009090535106661011
1589986624.3330798,0.051295512800716474,-4.355060683734289,8.77117414533214,0.4033333333333333,0.424561419762618,-0.700706244059445,0.003952606694415681,-0.0009495122582824837,-0.0006801143469263133
1589986624.3430798,0.04604977936840393,-4.333950220631596,8.783950220631596,0.4033333333333333,0.43,-0.6977777777777778,0.004363323129985824,-0.0015217330087562147,0.00022902632997693858
1589986624.3530798,0.05,-4.325624793549014,8.74499834839211,0.4033333333333333,0.43,-0.6977777777777778,0.0034088011546832804,-0.001090830782496456,0.0006135697948451843
1589986624.3630798,0.05,-4.3400385505011565,8.7,0.4033333333333333,0.43,-0.6977777777777778,-0.0005506719004160021,-0.0005443640894146732,0.0005464666930817827
1589986624.3730798,0.05,-4.3488591351787464,8.75013389169564,0.4033333333333333,0.43,-0.6977777777777778,-0.0008419326893583014,-0.0012152798290655333,0.0004831908679636893
1589986624.3830798,0.05,-4.351320324910829,8.79,0.4102513096677291,0.42559765142356637,-0.6977777777777778,0.0017082587265261618,-0.0009468056769335004,0.0
1589986624.3930798,0.05,-4.345950001705263,8.79,0.4155555555555556,0.4222222222222222,-0.6977777777777778,0.0016707892105288305,-0.0005108723544640815,-0.001021744708928163
1589986624.4030797,0.04597735510631142,-4.338045289787377,8.749773551063113,0.4155555555555556,0.4222222222222222,-0.6977777777777778,0.00021322580707891937,-0.001968435757913993,-0.0017428590772841437
1589986624.4130797,0.04575257731958763,-4.361505154639175,8.718762886597938,0.4155555555555556,0.4222222222222222,-0.6977777777777778,-0.0017183396243861699,-0.0020174746637099403,-0.0017183396243861699
1589986624.4230797,0.054750635920103416,-4.365249364079896,8.749501271840208,0.4155555555555556,0.4222222222222222,-0.6977777777777778,-0.001145233585376476,-0.000572616792688238,-0.001145233585376476
1589986624.4330797,0.056008570408284726,-4.367982859183431,8.76798285918343,0.40757269637212507,0.4222222222222222,-0.7066476213149229,0.000870794852962056,0.000435397426481028,0.0
1589986624.4430797,0.05469094891740852,-4.361236204330366,8.794072846752226,0.3955555555555556,0.4222222222222222,-0.72,0.004228474156283968,6.742448685092802e-05,-0.000511703147822764
1589986624.4530797,0.06,-4.3337579928470795,8.747579928470794,0.3955555555555556,0.4222222222222222,-0.72,0.0038213952761911177,-0.0017717281371933606,-0.001090830782496456
1589986624.4630797,0.050650124895920065,-4.33,8.728699750208161,0.3955555555555556,0.4222222222222222,-0.72,0.0016717049861915295,-0.002181661564992912,-0.001090830782496456
1589986624.4730797,0.04,-4.332861737257717,8.752861737257717,0.3955555555555556,0.4222222222222222,-0.72,0.00046649656406948226,-0.002181661564992912,-0.0007786636732829691
1589986624.4830797,0.04534392692921268,-4.356031780787638,8.765343926929212,0.3919929376027471,0.4222222222222222,-0.7081246068239718,-0.0005078987831167616,-0.002181661564992912,0.0
1589986624.4930797,0.05,-4.364592509692634,8.775407490307366,0.3888888888888889,0.4222222222222222,-0.6977777777777778,0.0005898656883326493,-0.0033613929416582105,-0.0011797313766652986
1589986624.5030797,0.04432585278276481,-4.354325852782765,8.723258527827648,0.3888888888888889,0.4222222222222222,-0.6977777777777778,0.0017097842273941307,-0.002506462795292799,-0.001562708120095237
1589986624.5130796,0.05204786534584027,-4.35,8.70409573069168,0.3888888888888889,0.4222222222222222,-0.6977777777777778,-0.00044677491153006415,-0.0017479399016272,-0.001090830782496456
1589986624.5230796,0.05530644843226188,-4.35,8.74346775783869,0.3888888888888889,0.4222222222222222,-0.6977777777777778,-0.002693648617925236,-0.001157687459128264,-0.000578843729564132
1589986624.5330796,0.039919538688480624,-4.36008046131152,8.77,0.3989693502004083,0.4250223503643109,-0.6944176240072714,-0.001623080722433878,0.0005498038750184968,-0.0016494116250554902
1589986624.5430796,0.0435985240591712,-4.360934317293886,8.77,0.4088888888888889,0.42777777777777776,-0.6911111111111111,0.0024722814400437673,0.0005963744944877024,-0.0008002109074456004
1589986624.5530796,0.06,-4.342798026856673,8.741192107426691,0.4088888888888889,0.42777777777777776,-0.6911111111111111,0.005846960612454969,-0.0007856133999453786,0.0013960481650475334
1589986624.5630796,0.05521112004938918,-4.33,8.733099919555496,0.4088888888888889,0.42777777777777776,-0.6911111111111111,0.00497782739583682,-0.002181661564992912,-0.0010447715327612773
1589986624.5730796,0.05,-4.33,8.78345607536246,0.4088888888888889,0.42777777777777776,-0.6911111111111111,0.0021414943298893336,-0.0018046622257929003,-0.002181661564992912
1589986624.5830796,0.05342839179054206,-4.333428391790542,8.793428391790542,0.4069842267830322,0.42358752114489306,-0.7010153540615659,-0.00037397952995814186,-0.00034287172258017226,-0.0010597229751184863
1589986624.5930796,0.055385483401281306,-4.349229033197437,8.776927417006407,0.4033333333333333,0.4155555555555556,-0.72,-0.001594196457718776,0.000587465107274136,0.001090830782496456
1589986624.6030796,0.05,-4.347382119867072,8.69952847946829,0.4033333333333333,0.4155555555555556,-0.72,-0.00011706575616575541,0.001376397205884771,-0.0009737650263307006
1589986624.6130795,0.05,-4.34,8.707761731108267,0.4033333333333333,0.4155555555555556,-0.72,0.00040430313760893353,0.0014951339201053895,-0.00012207863033034463
1589986624.6230795,0.04517059795536671,-4.344829402044633,8.754147010223166,0.4033333333333333,0.4155555555555556,-0.72,0.0005268060411337318,3.72187002289923e-05,0.0005640247413627241
1589986624.6330795,0.04895657378466449,-4.354478286892332,8.771043426215336,0.3938791721161875,0.42102901731285053,-0.7100482513503727,-0.0003746851760054663,-0.0025563467409983782,0.0
1589986624.6430795,0.05504991696786168,-4.355049916967862,8.755049916967861,0.38222222222222224,0.42777777777777776,-0.6977777777777778,0.0005181899086920258,-0.002743412245774861,0.0
