time,acc_x,acc_y,acc_z,mag_x,mag_y,mag_z,gyr_x,gyr_y,gyr_z
1589986665.517498,-3.72,-0.51,9.16,0.2766666666666667,-0.38333333333333336,-0.6255555555555555,0.003272492347489368,-0.001090830782496456,0.002181661564992912
1589986665.527498,-3.725447919010124,-0.45727604049493814,8.999104161979753,0.2766666666666667,-0.38333333333333336,-0.6255555555555555,0.0036713265854451025,-0.006744401813956603,0.0005942757756790591
1589986665.537498,-3.7376015488383714,-0.4523984511616288,8.981992255808144,0.2766666666666667,-0.38333333333333336,-0.6255555555555555,-0.001090830782496456,-0.0033168013870182025,0.0019200311292510066
1589986665.547498,-3.73,-0.4642876294034408,9.030719073508601,0.2766666666666667,-0.38333333333333336,-0.6255555555555555,-0.001090830782496456,-0.0014031234411630512,0.001090830782496456
1589986665.557498,-3.73,-0.4799065316154018,9.069766329038504,0.2766666666666667,-0.38333333333333336,-0.6255555555555555,-0.001090830782496456,-0.006514397237645755,0.001090830782496456
1589986665.567498,-3.73,-0.5027220487195503,9.0748519675203,0.2766666666666667,-0.38333333333333336,-0.6255555555555555,0.001090830782496456,-0.01308996938995747,-0.0008261970061556542
1589986665.577498,-3.7319253249441178,-0.4819253249441179,9.07074675055882,0.2766666666666667,-0.38333333333333336,-0.6255555555555555,0.0015108715255668689,-0.012879949018422264,0.0002100203715352064
1589986665.587498,-3.7388701051411544,-0.48887010514115403,9.00129894858846,0.2766666666666667,-0.38333333333333336,-0.6255555555555555,0.0030259875288866428,-0.012122391016762378,0.0009675783731950931
1589986665.597498,-3.7285614688072886,-0.4557541247708461,9.08006971834898,0.2766666666666667,-0.38333333333333336,-0.6255555555555555,0.003115572936830262,-0.012776130568639257,0.0012477501931555622
1589986665.607498,-3.7227363757569027,-0.47905449697239044,9.120845369701684,0.2766666666666667,-0.38333333333333336,-0.6255555555555555,0.0024801538558035293,-0.011505292406585793,0.0018831692741822948
1589986665.617498,-3.7285584545524513,-0.46432463634264604,9.148558454552452,0.2709610302983658,-0.3728729999914484,-0.6055858282665024,0.005915991835557243,-0.013709055527887806,0.001248078997351829
1589986665.627498,-3.7133810476853464,-0.4683094761573268,9.15,0.27,-0.3711111111111111,-0.6022222222222222,0.011983524122278221,-0.01871291636187017,-0.0007220156932700394
1589986665.637498,-3.721693572325608,-0.47169357232560793,8.996774289302431,0.27,-0.3711111111111111,-0.6022222222222222,0.013626579924906748,-0.016177721654931112,0.0012755708650121819
1589986665.647498,-3.7289245753377007,-0.48,9.032150849324598,0.27,-0.3711111111111111,-0.6022222222222222,0.010790997192375371,-0.015388941587539572,0.0017124190346361548
1589986665.657498,-3.720819177923358,-0.48,9.048361644153285,0.27,-0.3711111111111111,-0.6022222222222222,0.009906835491982135,-0.01627310328793281,-0.0018242277669367943
1589986665.6674979,-3.7112923787528866,-0.48,9.093538106235565,0.2758050808314088,-0.3711111111111111,-0.6147998973569413,0.009817477042468105,-0.020161878256915323,-0.0002819533052586683
1589986665.6774979,-3.701796502976191,-0.47640699404761905,9.033831473214287,0.2766666666666667,-0.3711111111111111,-0.6166666666666667,0.01032040360078204,-0.021032743351019092,0.00019596807472750693
1589986665.6874979,-3.7095984002976192,-0.46080319940476194,8.963614397321429,0.2766666666666667,-0.3711111111111111,-0.6166666666666667,0.007767238672754759,-0.01762852344698272,0.0010470230507366003
1589986665.6974978,-3.718453574121412,-0.43309285175717677,9.005464258785883,0.2766666666666667,-0.3711111111111111,-0.6166666666666667,0.0030138119690151636,-0.007714512889243652,0.0031038034523680354
1589986665.7074978,-3.7107402026592124,-0.44851959468157493,9.082597973407875,0.2766666666666667,-0.3711111111111111,-0.6166666666666667,-0.003717374453222012,-0.0026661230725657714,0.002262405149588389
1589986665.7174978,-3.713322506496102,-0.46332250649610235,9.13833874675195,0.27,-0.3711111111111111,-0.6166666666666667,-0.002910063111390081,-0.007632272403276597,0.001090830782496456
1589986665.7274978,-3.724443219404631,-0.4781477398015435,9.107772877618523,0.27,-0.3711111111111111,-0.6166666666666667,-0.0006867302941625979,-0.012281768413289755,0.001090830782496456
1589986665.7374978,-3.700805437746138,-0.47080543774613753,9.014832626476824,0.27,-0.3711111111111111,-0.6166666666666667,0.00047581338168648435,-0.008287348116535954,0.0011786904111835948
1589986665.7474978,-3.7087467812784003,-0.4787467812784005,9.062480687670403,0.27,-0.3711111111111111,-0.6166666666666667,-0.0055880500038736096,-0.003956017126850172,0.002044956609120751
1589986665.7574978,-3.715894996829211,-0.4741050031707887,9.087684990487634,0.27,-0.3711111111111111,-0.6166666666666667,-0.007831073495783275,-0.0013433591462825587,0.0028247059653951816
1589986665.7674978,-3.727509958434361,-0.47,9.122529875303083,0.27500663895624067,-0.3711111111111111,-0.6124944675364662,-0.007088227492877689,0.0,0.003272492347489368
1589986665.7774978,-3.718863517120241,-0.47545406848096355,9.08636220544289,0.2766666666666667,-0.3711111111111111,-0.6111111111111112,-0.00143783525958004,-0.0052311204863008404,0.004115381028181533
1589986665.7874978,-3.7094640284648093,-0.4405359715351905,8.98,0.2766666666666667,-0.3711111111111111,-0.6111111111111112,0.004246392280160291,-0.012233000307112081,0.0021231961400801453
1589986665.7974977,-3.702184153432266,-0.4478158465677341,8.98,0.2766666666666667,-0.3711111111111111,-0.6111111111111112,0.002658169924515099,-0.015409445018402464,0.0013290849622575496
1589986665.8074977,-3.682077406751725,-0.4679225932482754,9.024806483120688,0.2766666666666667,-0.3711111111111111,-0.6111111111111112,-0.0017284417184834874,-0.006587203528755841,0.002068356603365556
1589986665.8174977,-3.7010612601781516,-0.48404084011876786,9.079142940415688,0.2766666666666667,-0.3711111111111111,-0.6111111111111112,-0.003713279626359231,-0.0008592997283833224,0.002181661564992912
1589986665.8274977,-3.719960468180761,-0.4698814045422835,9.089644213626851,0.2766666666666667,-0.3711111111111111,-0.6111111111111112,-0.003272492347489368,0.007627190972412434,0.0010951430350278348
1589986665.8374977,-3.7118326098752035,-0.4454978296256104,9.016493488876831,0.2766666666666667,-0.3711111111111111,-0.6111111111111112,-0.003272492347489368,0.005853967365318067,0.001981754838575018
1589986665.8474977,-3.7073013853294863,-0.4586506926647431,9.085397229341028,0.2766666666666667,-0.3711111111111111,-0.6111111111111112,-0.005748527107751579,0.0038612387380279668,0.0013852039777657553
1589986665.8574977,-3.6922677825767485,-0.45113389128837433,9.115464434846501,0.2766666666666667,-0.3711111111111111,-0.6111111111111112,-0.007388438773202532,0.007141062068929872,0.0030251156432167083
1589986665.8674977,-3.7110021594260107,-0.47899784057398936,9.132004318852022,0.27,-0.37777777777777777,-0.6255555555555555,-0.006654303330064873,0.008073090017819744,0.002072342929906774
1589986665.8774977,-3.7183569259278326,-0.47,9.136033870386576,0.27,-0.37777777777777777,-0.6255555555555555,-0.007725431266267303,0.012536833340213683,0.0012700623600806784
1589986665.8874977,-3.705878196579397,-0.47,8.988817294869095,0.27,-0.37777777777777777,-0.6255555555555555,-0.00984876687048665,0.01966624391295475,0.00359309823620794
1589986665.8974977,-3.7407124387676878,-0.4707124387676875,9.04,0.27,-0.37777777777777777,-0.6255555555555555,-0.016751036806665537,0.0261022237660712,0.00545415391248228
1589986665.9074976,-3.746162341965411,-0.476162341965411,9.04,0.27,-0.37777777777777777,-0.6255555555555555,-0.01972349789151688,0.02550773154910093,0.00545415391248228
1589986665.9174976,-3.7347148195294215,-0.46980987968628096,9.050190120313719,0.27339670677123973,-0.37777777777777777,-0.6210266131939026,-0.02014926111259704,0.023421753460086406,0.006565723604036998
1589986665.9274976,-3.7085108632090322,-0.43652534748774235,8.983547073905807,0.2766666666666667,-0.37777777777777777,-0.6166666666666667,-0.02132139682610898,0.01674148752933177,0.010034063209259493
1589986665.9374976,-3.680210516845846,-0.3704912059736404,8.860912239665332,0.2766666666666667,-0.37777777777777777,-0.6166666666666667,-0.032640722781143335,0.02394469495526272,0.01415018173836289
1589986665.9474976,-3.6675445787458116,-0.38245542125418863,8.878683131881283,0.2766666666666667,-0.37777777777777777,-0.6166666666666667,-0.05106704530748357,0.036905696282300095,0.016898151555059835
1589986665.9574976,-3.66,-0.35257467835166884,9.102076822673878,0.2766666666666667,-0.37777777777777777,-0.6166666666666667,-0.07714640866520256,0.056971469952003875,0.015822477109184375
1589986665.9674976,-3.791302555647156,-0.486312566246614,9.311282534448239,0.2766666666666667,-0.3812513903610359,-0.6256980593831377,-0.08071929393072969,0.05003612921525376,0.013498757936642633
1589986665.9774976,-3.8131890183264665,-0.4501463276033527,9.238262182128144,0.2766666666666667,-0.38333333333333336,-0.6311111111111111,-0.03672507542448734,0.0033835667846756623,0.014860574178338387
1589986665.9874976,-3.762574670614654,-0.5100995608195386,9.162508296734961,0.2766666666666667,-0.38333333333333336,-0.6311111111111111,-0.009536624046342746,-0.020318985907469063,0.017734145516068653
1589986665.9974976,-3.9126062677609745,-0.710141690347966,9.179178474195664,0.2766666666666667,-0.38333333333333336,-0.6311111111111111,0.006829284405088648,-0.024865071588422223,0.034100053967500044
1589986666.0074975,-3.8159686935580974,-0.6879903672486454,9.155992775436484,0.2766666666666667,-0.38333333333333336,-0.6311111111111111,0.024221434529727744,-0.04429350900528986,0.06109440459607485
1589986666.0174975,-3.5729225045898154,-0.5956924984700614,9.119538924855865,0.2966666666666667,-0.3644444444444445,-0.6166666666666667,0.055414165102517045,-0.03995798850112537,0.07340465146563294
1589986666.0274975,-3.7147724417818146,-0.5484091860727285,9.004708023319484,0.2966666666666667,-0.3644444444444445,-0.6166666666666667,0.06499295373963553,-0.03553700913014761,0.040984136078462685
1589986666.0374975,-3.6473028832429346,-0.4295504805404891,8.88,0.2966666666666667,-0.3644444444444445,-0.6166666666666667,0.06619743296764785,-0.03354606194231902,-0.010209756773480629
1589986666.0474975,-3.5515152726234653,-0.41358587877057756,8.88,0.2966666666666667,-0.3644444444444445,-0.6166666666666667,0.05400715763900605,-0.023967988469814745,-0.024141500006214123
1589986666.0574975,-3.441368827886926,-0.3616557243019597,8.839713103584966,0.2966666666666667,-0.3644444444444445,-0.6166666666666667,0.035448419550658125,0.0010354014552685434,-0.037817854380194936
1589986666.0674975,-3.3029269573295097,-0.43952644439508065,8.94707304267049,0.2882496505269582,-0.37745256029672114,-0.622788132950091,0.003087849208110841,0.03884731284825016,-0.05538507762830907
1589986666.0774975,-3.17017454107734,-0.5154779817434045,9.07095596348681,0.28444444444444444,-0.38333333333333336,-0.6255555555555555,-0.03207024992973606,0.09408620665820694,-0.07669003257225535
1589986666.0874975,-3.1192950785558216,-0.6397650261852739,9.170563937155343,0.28444444444444444,-0.38333333333333336,-0.6255555555555555,-0.04790940676198152,0.10451470178351262,-0.08834704071540557
1589986666.0974975,-3.0101935282488816,-0.6033978427496272,9.257845177400894,0.28444444444444444,-0.38333333333333336,-0.6255555555555555,-0.03442145608612,0.07277834725207374,-0.08676022298883364
1589986666.1074975,-2.758898312320346,-0.42413438825170047,9.267381962034323,0.28444444444444444,-0.38333333333333336,-0.6255555555555555,0.00508900174628359,0.04463822245137873,-0.08453080168037774
1589986666.1174974,-2.095474588635811,-0.5343087865769636,8.945907838210262,0.27,-0.37777777777777777,-0.6111111111111112,0.04493887714161343,0.08836416799462593,-0.11956863056850564
1589986666.1274974,-1.2795290589284267,-0.9167832536273,8.996904433816974,0.27,-0.37777777777777777,-0.6111111111111112,0.04679316568462426,0.1449199685564558,-0.1724158540443139
1589986666.1374974,-1.504472963651945,-0.679440879543507,8.531246577346739,0.27,-0.37777777777777777,-0.6111111111111112,0.04094964575756714,0.0717768615701331,-0.2335807676151227
1589986666.1474974,-1.5746073615784963,-0.670674079802688,8.864384967497859,0.27,-0.37777777777777777,-0.6111111111111112,-0.0011279723360087118,-0.017159922127652202,-0.2871340997342193
1589986666.1574974,-1.7182727616486702,-0.7025347674467459,9.109609680265535,0.27,-0.37777777777777777,-0.6111111111111112,-0.028319023066770834,0.019476881929613735,-0.33472697807108953
1589986666.1674974,-1.9234842180894614,-0.5905360335522248,8.961876117432787,0.2766666666666667,-0.3566666666666667,-0.6088888888888889,0.01335309424460547,0.034848112849964814,-0.3908006858143966
1589986666.1774974,-2.014593045599612,-0.6045527762460942,9.01093471686133,0.2766666666666667,-0.3566666666666667,-0.6088888888888889,0.020233546724967723,0.03331912340988431,-0.4267319376562883
1589986666.1874974,-2.079856788015214,-0.6299045253434759,9.12952262671738,0.2766666666666667,-0.3566666666666667,-0.6088888888888889,0.002280600924563437,0.02729680623598259,-0.49823367886102565
1589986666.1974974,-2.119256547451422,-0.63,9.20066178541256,0.2766666666666667,-0.3566666666666667,-0.6088888888888889,0.006463886602447318,0.0272707695624114,-0.5430448079904062
1589986666.2074974,-2.158333333333333,-0.6654166666666667,9.163333333333334,0.2766666666666667,-0.3566666666666667,-0.6088888888888889,0.01768054893296339,0.03808817482216792,-0.588457755874234
1589986666.2174973,-2.1548409811963167,-0.6875795094018416,9.0490458871779,0.2674028218421935,-0.38277386571745464,-0.6038358826209944,0.02347020808427916,0.04998356647193696,-0.6426516065796197
1589986666.2274973,-2.1795677311941883,-0.7195677311941879,8.990432268805812,0.2644444444444444,-0.3911111111111111,-0.6022222222222222,0.016472485898708478,0.05235987755982988,-0.7007440481776513
1589986666.2374973,-2.116483807439825,-0.7472212253829321,8.844820131291028,0.2644444444444444,-0.3911111111111111,-0.6022222222222222,0.016362461737446838,0.05334966924599575,-0.7489141940811833
1589986666.2474973,-2.0947679444197598,-0.7804641111604799,8.868080138950601,0.2644444444444444,-0.3911111111111111,-0.6022222222222222,0.01719324149282797,0.0551122678530886,-0.7853337014095341
1589986666.2574973,-2.134608829872711,-0.7772546200363682,8.937354209836343,0.2644444444444444,-0.3911111111111111,-0.6022222222222222,0.018843597799837606,0.05424206462742494,-0.8230217460378025
1589986666.2674973,-2.1949422046800113,-0.8049422046800113,9.022413307020017,0.2984160323277887,-0.37946370955110736,-0.5963985214422203,0.01963495408493621,0.05440360915415754,-0.8750591025893603
1589986666.2774973,-2.1260713597327223,-0.8182142933630309,9.021785706636969,0.3033333333333333,-0.37777777777777777,-0.5955555555555555,0.023219115707676367,0.05633361993619287,-0.9116618556736165
1589986666.2874973,-2.08407421694183,-0.84592578305817,8.99407421694183,0.3033333333333333,-0.37777777777777777,-0.5955555555555555,0.027769029510945623,0.05766588876382161,-0.9533589776002341
1589986666.2974973,-2.145298133818844,-0.8645106964041875,9.084319526627219,0.3033333333333333,-0.37777777777777777,-0.5955555555555555,0.029153036060565275,0.06097977433494184,-0.9873319435780519
1589986666.3074973,-2.181270625075274,-0.87,9.142541250150547,0.3033333333333333,-0.37777777777777777,-0.5955555555555555,0.030681865604412845,0.06709509251033212,-1.0177811176163936
1589986666.3174973,-2.2290318840579713,-0.9246446376811593,9.120968115942029,0.3146092109500805,-0.3673692753623189,-0.6120356843800322,0.030782549079811875,0.07260708808744035,-1.063672321077216
1589986666.3274972,-2.2696920028818446,-0.9518768011527378,9.032800792507205,0.31777777777777777,-0.3644444444444445,-0.6166666666666667,0.02795214585090162,0.07502899947151191,-1.0936633666807591
1589986666.3374972,-2.3039685385932023,-0.96,8.875235960550983,0.31777777777777777,-0.3644444444444445,-0.6166666666666667,0.022370610808926217,0.07559628918055418,-1.132663774030727
1589986666.3474972,-2.3577492483671425,-0.9838746241835712,8.865811936275357,0.31777777777777777,-0.3644444444444445,-0.6166666666666667,0.021376864241932008,0.07787164149025284,-1.1633741206657655
1589986666.3574972,-2.3851634530429813,-1.0241827347850943,8.923855828699132,0.31777777777777777,-0.3644444444444445,-0.6166666666666667,0.02339937194044084,0.08068581798258244,-1.1912512209282815
1589986666.3674972,-2.4014829353750327,-1.0428390215416559,8.995804892291721,0.33687372033336216,-0.34534850188886007,-0.6270103022176082,0.028213674291480813,0.0779066008196563,-1.2267685263524855
1589986666.3774972,-2.401340238461739,-1.048659761538261,9.070618330767825,0.34444444444444444,-0.3377777777777778,-0.6311111111111111,0.030397064572905693,0.07635815477475191,-1.2556023815870185
1589986666.3874972,-2.4269374611190395,-1.1173436527975995,9.005921981922642,0.34444444444444444,-0.3377777777777778,-0.6311111111111111,0.03348168308899577,0.08003118124862067,-1.2742454341911589
1589986666.3974972,-2.416668710864373,-1.1811083855141695,9.016662578271253,0.34444444444444444,-0.3377777777777778,-0.6311111111111111,0.03829998349114889,0.08266065830004977,-1.2978448120768316
1589986666.4074972,-2.4162932643975297,-1.221466321987649,9.04887979319259,0.34444444444444444,-0.3377777777777778,-0.6311111111111111,0.042702351433479675,0.08496260542789502,-1.314122261397033
1589986666.4174972,-2.3957671736903996,-1.288465652619201,9.068077608769867,0.3749598553528304,-0.32162256023804403,-0.6266235506834072,0.042080670793814466,0.08617563181722003,-1.3394998166229897
1589986666.4274971,-2.372684135145923,-1.3259737972811159,9.000736540583691,0.38222222222222224,-0.31777777777777777,-0.6255555555555555,0.03672940013277135,0.08806449965805761,-1.3609033346031723
1589986666.4374971,-2.3534523238552016,-1.3134523238552016,8.87416626698641,0.38222222222222224,-0.31777777777777777,-0.6255555555555555,0.03058220146712452,0.08925982910808936,-1.3815891926380983
1589986666.4474971,-2.35,-1.3586362243334356,8.85,0.38222222222222224,-0.31777777777777777,-0.6255555555555555,0.02768396810582716,0.09210081869707512,-1.3986185664323278
1589986666.4574971,-2.3695193414690308,-1.4220515772507483,8.90855802440709,0.38222222222222224,-0.31777777777777777,-0.6255555555555555,0.02939999941525922,0.08988164337506833,-1.4144929346250326
1589986666.467497,-2.3915887120398396,-1.4615887120398399,8.95738306805976,0.401536742288622,-0.302326161724658,-0.641650988944222,0.03180739429215523,0.08835729338221293,-1.427041105313027
1589986666.477497,-2.39567753331701,-1.47864493336598,8.99593480009794,0.4155555555555556,-0.2911111111111111,-0.6533333333333333,0.03555397130336616,0.09212935715350958,-1.4368280822922952
1589986666.487497,-2.3862923853103366,-1.49,9.000339082482693,0.4155555555555556,-0.2911111111111111,-0.6533333333333333,0.04169653630974486,0.09667950161887251,-1.4495176503283647
1589986666.497497,-2.3982401185247895,-1.5401603259431715,8.959120059262395,0.4155555555555556,-0.2911111111111111,-0.6533333333333333,0.04680973700301237,0.09748537506692995,-1.462917554819487
1589986666.507497,-2.428004326663061,-1.6200108166576528,8.982006489994593,0.4155555555555556,-0.2911111111111111,-0.6533333333333333,0.04886969102156648,0.10188501098234475,-1.4726239161988417
1589986666.517497,-2.4071591240875914,-1.658210218978102,8.991789781021899,0.43744947283049473,-0.25918248175182484,-0.6597190592051906,0.04838702407636688,0.10581058590215622,-1.4863313087390746
1589986666.527497,-2.365382751247327,-1.7551974340698504,9.007308624376336,0.44222222222222224,-0.25222222222222224,-0.6611111111111111,0.04044424232089355,0.10392250787491861,-1.4992216554885918
1589986666.537497,-2.374980798612545,-1.7475288020811826,8.89015361109964,0.44222222222222224,-0.25222222222222224,-0.6611111111111111,0.041721135610814045,0.10036062108257447,-1.5099709906652428
1589986666.547497,-2.3097618486206084,-1.7712169561686186,8.857804239042155,0.44222222222222224,-0.25222222222222224,-0.6611111111111111,0.038285848426790316,0.10011691162529177,-1.5223467099218415
1589986666.557497,-2.3007013152650457,-1.8014026305300916,8.886753288162614,0.44222222222222224,-0.25222222222222224,-0.6611111111111111,0.0370882466048795,0.0980217671688117,-1.5337364270082785
1589986666.567497,-2.31,-1.8407695120464795,8.94115426806972,0.452606978245462,-0.23549122640700262,-0.6720727980245308,0.036521846027936226,0.09655950943663139,-1.549839904321641
1589986666.577497,-2.31,-1.8720809677613497,8.963959516119326,0.4622222222222222,-0.22,-0.6822222222222222,0.039950903277311316,0.09840176879382732,-1.5682489906180812
1589986666.587497,-2.2606259032795997,-1.88,8.89211061700945,0.4622222222222222,-0.22,-0.6822222222222222,0.044562104938383154,0.1026317752422131,-1.5866046416440036
1589986666.597497,-2.291880217278428,-1.9475056915764668,8.934382114470584,0.4622222222222222,-0.22,-0.6822222222222222,0.0464285369178955,0.10287882296052672,-1.6029084340229873
1589986666.607497,-2.292756660466822,-1.9842522201556074,8.947507400518692,0.4622222222222222,-0.22,-0.6822222222222222,0.053204383417769216,0.11060894971096544,-1.613501867566817
1589986666.617497,-2.2375627530364373,-2.001093117408907,8.887562753036438,0.4829509671614935,-0.20341700404858298,-0.7057147998200629,0.059583208846676866,0.11686551551650896,-1.6247513787621666
1589986666.627497,-2.22480784135806,-2.071921586419403,8.989035331480746,0.4955555555555556,-0.19333333333333333,-0.72,0.045269900204298046,0.11222980306008425,-1.6387632154084788
1589986666.637497,-2.22,-2.176002170889726,8.927593704419795,0.4955555555555556,-0.19333333333333333,-0.72,0.035299426205985605,0.10969396716857699,-1.650819815083237
1589986666.647497,-2.2154787059723153,-2.2245212940276846,8.818085176110738,0.4955555555555556,-0.19333333333333333,-0.72,0.04163145407885697,0.11263989238319991,-1.6536994662646272
1589986666.657497,-2.1996818987962716,-2.2454771518055923,8.842579525300932,0.4955555555555556,-0.19333333333333333,-0.72,0.04356383238286307,0.11422115014338177,-1.6545436139453726
1589986666.667497,-2.1443982532249257,-2.2964004366937685,8.920404803631454,0.5083564289430925,-0.15208607464015858,-0.733512033020178,0.03289917058468999,0.11296662637893505,-1.6611610346323058
1589986666.677497,-2.1365434240968146,-2.3261736963872575,8.874935486741414,0.5155555555555555,-0.1288888888888889,-0.7411111111111112,0.0391085840231818,0.1231025542754089,-1.659948059093228
1589986666.687497,-2.1286195155590035,-2.345690242220498,8.801548788897508,0.5155555555555555,-0.1288888888888889,-0.7411111111111112,0.04425394043725628,0.12638578327728928,-1.6593042076694091
1589986666.697497,-2.106895583888209,-2.336895583888209,8.83896987250306,0.5155555555555555,-0.1288888888888889,-0.7411111111111112,0.0411503869620086,0.12187186486674635,-1.663818126079952
1589986666.707497,-2.1177813310453755,-2.37148977243921,8.893708441393834,0.5155555555555555,-0.1288888888888889,-0.7411111111111112,0.040563003053742795,0.12581031305202686,-1.6663451523140234
1589986666.7174969,-2.1165409568858062,-2.426918086228387,8.95037712934258,0.5297623232872042,-0.1042139765128675,-0.7455974588158423,0.03998341588167441,0.1305429400436737,-1.6697257433609665
1589986666.7274969,-2.098774625201338,-2.4680634369966548,8.936323875604014,0.5366666666666666,-0.09222222222222222,-0.7477777777777778,0.03926990816987242,0.12845069702448664,-1.6705405095657986
1589986666.7374969,-2.0789962157655055,-2.5065056763517415,8.87148675517927,0.5366666666666666,-0.09222222222222222,-0.7477777777777778,0.033868438214751426,0.128937024082976,-1.6694617646737275
1589986666.7474968,-2.0366471529951493,-2.5466822776038804,8.84,0.5366666666666666,-0.09222222222222222,-0.7477777777777778,0.030180077371340028,0.130172047655639,-1.6616946347802206
1589986666.7574968,-1.946639601885804,-2.526141354716525,8.834356892452755,0.5366666666666666,-0.09222222222222222,-0.7477777777777778,0.029927694367753385,0.1359645385385521,-1.64944484380455
1589986666.7674968,-1.9249416721602797,-2.5757069563472728,8.835823612026713,0.5560787067557109,-0.09610463024003107,-0.7768958379113442,0.02754665854818768,0.13817614083642063,-1.6358033256492017
1589986666.7774968,-1.95,-2.6737432080726906,8.7775097027533,0.57,-0.09888888888888887,-0.7977777777777778,0.022089958389271643,0.13430885761673533,-1.6198854054571528
1589986666.7874968,-1.9143224723814851,-2.7178387638092576,8.734053745396915,0.57,-0.09888888888888887,-0.7977777777777778,0.024824040134222007,0.13827044151385343,-1.597771469164401
1589986666.7974968,-1.9327179397946754,-2.7666153769668647,8.778820502622487,0.57,-0.09888888888888887,-0.7977777777777778,0.023036109637152156,0.1411423153860698,-1.577839179793771
1589986666.8074968,-1.9491453132749215,-2.8062820300876177,8.858846090262853,0.57,-0.09888888888888887,-0.7977777777777778,0.019042922764232643,0.14130920226274638,-1.557086374559804
1589986666.8174968,-1.8083680248007086,-2.6664293622674933,8.695239149689991,0.5586243972049995,-0.10945194862710363,-0.8083408375159925,0.0257235338278496,0.14420113856634256,-1.5238758687193532
1589986666.8274968,-1.6814992639565167,-2.6571004416260897,9.373607066017438,0.5544444444444444,-0.11333333333333333,-0.8122222222222222,-0.023873321443257055,0.10140867421634978,-1.5076916857375877
1589986666.8374968,-1.7475226635899126,-2.742935552991594,9.477890225811768,0.5544444444444444,-0.11333333333333333,-0.8122222222222222,-0.06310798590775402,0.0745968595142714,-1.4952688359751691
1589986666.8474967,-1.8344581976112921,-2.822770901194354,9.095680781758958,0.5544444444444444,-0.11333333333333333,-0.8122222222222222,-0.03050772996258818,0.08761941327635486,-1.4601377620014109
1589986666.8574967,-1.787816752392734,-2.8228481671983854,8.594554984048441,0.5544444444444444,-0.11333333333333333,-0.8122222222222222,0.09283826487414976,0.1496614116293778,-1.388071890255631
1589986666.8674967,-1.7360624362375026,-2.8261664966333404,9.007280963068762,0.5535463057425922,-0.11849763086898366,-0.8128958262486113,0.029471839502069424,0.11793935108536219,-1.37214355495116
1589986666.8774967,-1.8065656649682853,-2.97,9.121616096495789,0.5455555555555556,-0.16444444444444445,-0.8188888888888889,-0.025408632829933043,0.05771487328680126,-1.3369618612276732
1589986666.8874967,-1.773247852410689,-2.921978952039814,8.75664690778838,0.5455555555555556,-0.16444444444444445,-0.8188888888888889,0.028926742460136625,0.09881736716167391,-1.2772129508634626
1589986666.8974967,-1.7773641248428034,-2.9594681605121758,8.768670401280438,0.5455555555555556,-0.16444444444444445,-0.8188888888888889,0.029482710504789716,0.09263613854580308,-1.228965277186848
1589986666.9074967,-1.8112107046361026,-3.030403568212034,8.974798215893983,0.5455555555555556,-0.16444444444444445,-0.8188888888888889,-0.0002592693827076966,0.06610531849816656,-1.1979571768897772
1589986666.9174967,-1.7943217708192738,-3.0629653124578216,8.951356458361452,0.5015293711851951,-0.13261828706828033,-0.7494017786175973,0.009549075839000557,0.07107949961955615,-1.1515387766979828
1589986666.9274967,-1.7807352788720714,-3.1275588326767574,8.849764669292972,0.4533333333333333,-0.09777777777777777,-0.6733333333333333,0.03155388620965975,0.07516144691158862,-1.0943727595790365
1589986666.9374967,-1.748361858190709,-3.1341809290953546,8.858190709046456,0.4533333333333333,-0.09777777777777777,-0.6733333333333333,0.02175527308758824,0.06310816130912258,-1.0516168827530685
1589986666.9474967,-1.765489745693191,-3.1682346185397865,8.849020508613618,0.4533333333333333,-0.09777777777777777,-0.6733333333333333,0.01656559429497489,0.05880857563282616,-1.0018324135009695
1589986666.9574966,-1.81492013881842,-3.288940393318856,9.244861688957442,0.4533333333333333,-0.09777777777777777,-0.6733333333333333,0.01917898934164278,0.057456228880492954,-0.9529998311867645
1589986666.9674966,-1.67368673916572,-3.0620220743385813,8.988692744684304,0.4825921477393641,-0.02694064816317697,-0.6486943317282547,0.01963495408493621,0.05260870949972934,-0.893017818055202
1589986666.9774966,-1.6,-2.93,8.74,0.4955555555555556,0.004444444444444445,-0.6377777777777778,0.01963495408493621,0.05126904677733343,-0.8759371183446542
1589986666.9874966,-1.4070095845296404,-2.795899552440466,8.055904408039183,0.4955555555555556,0.004444444444444445,-0.6377777777777778,0.08670642388582668,0.10306888562327353,-0.7835521013298654
1589986666.9974966,-1.6002183160767318,-3.193231398988683,9.312401476844048,0.4955555555555556,0.004444444444444445,-0.6377777777777778,-0.04320929658207609,-0.02349335538149583,-0.7697883127368407
1589986667.0074966,-1.5265512435853295,-3.0832756217926645,8.596204974341319,0.4955555555555556,0.004444444444444445,-0.6377777777777778,-0.021363350269449563,0.0032267973882435796,-0.7022211760936778
1589986667.0174966,-1.503098132331573,-3.0746471984973596,8.513235992486798,0.4963587750489264,0.006681984461691732,-0.637031931105362,0.07963625262472071,0.07410512936440022,-0.6375933951204182
1589986667.0274966,-1.5512094719777676,-3.1717207040296436,8.86674559981473,0.5111111111111111,0.04777777777777778,-0.6233333333333333,0.007808547192975877,0.021857414439038242,-0.6005608282390902
1589986667.0374966,-1.5395311602527284,-3.2038124641010914,8.701437392303273,0.5111111111111111,0.04777777777777778,-0.6233333333333333,-0.011368590170508189,0.003122432627553756,-0.5759007752181327
1589986667.0474966,-1.538209221247258,-3.166811736132874,8.8221840723911,0.5111111111111111,0.04777777777777778,-0.6233333333333333,0.02380293355610886,0.02661809996934297,-0.534116396105637
1589986667.0574965,-1.4674584816132858,-3.074916963226572,8.934916963226572,0.5111111111111111,0.04777777777777778,-0.6233333333333333,0.01553075179029429,0.010317602899448981,-0.5139679561363468
1589986667.0674965,-1.3992407024793387,-3.0220254390495866,8.961772017045455,0.5187060233011938,0.06465536042240588,-0.6178481189738292,0.02013201879616224,0.010466425572292635,-0.4860825215899307
1589986667.0774965,-1.3440631966656973,-2.993047397499273,8.82620771542115,0.5311111111111111,0.09222222222222222,-0.6088888888888889,0.03223491133362395,0.02099418400878841,-0.45196591537777203
1589986667.0874965,-1.4242037470725994,-3.095146370023419,8.76608899297424,0.5311111111111111,0.09222222222222222,-0.6088888888888889,0.03320711155497847,0.01854412330243975,-0.43056968644678756
1589986667.0974965,-1.4959881378332205,-3.221976275666441,8.828053379750509,0.5311111111111111,0.09222222222222222,-0.6088888888888889,0.02335154251542626,0.0115679821411305,-0.41037603971225156
1589986667.1074965,-1.4881252806904497,-3.233571749360514,8.806517095268779,0.5311111111111111,0.09222222222222222,-0.6088888888888889,0.015086513693109118,0.009038242212505975,-0.3808656774618059
1589986667.1174965,-1.4630705780203423,-3.2117842967005705,8.879501984619202,0.5403089252735742,0.10384051379585986,-0.6151821301579427,0.01734464241843689,0.012841007762595343,-0.3441502789634026
1589986667.1274965,-1.5075074720233543,-3.295014944046709,8.878510460832697,0.5522222222222222,0.11888888888888888,-0.6233333333333333,0.011127126038510453,0.006654393801751682,-0.304663495066364
1589986667.1374965,-1.497881497474336,-3.3308232849926673,8.877881497474336,0.5522222222222222,0.11888888888888888,-0.6233333333333333,0.011087920747518359,0.00563376683503608,-0.26996088879711233
1589986667.1474965,-1.46,-3.32,8.819238913196132,0.5522222222222222,0.11888888888888888,-0.6233333333333333,0.010538392865070823,0.001460745742390193,-0.23376250891712375
1589986667.1574965,-1.4660644370722375,-3.3260644370722376,8.826386622433425,0.5522222222222222,0.11888888888888888,-0.6233333333333333,0.011766914462575566,-0.001090830782496456,-0.2014660357040627
1589986667.1674964,-1.4786000777070445,-3.3386000777070444,8.901600466242266,0.5522222222222222,0.11888888888888888,-0.6233333333333333,0.009032061926023436,-0.001090830782496456,-0.1782197891433696
1589986667.1774964,-1.4535318493332625,-3.320010359666366,8.864117037666684,0.5666666666666667,0.13666666666666666,-0.6233333333333333,0.009817477042468105,-0.002181661564992912,-0.10362892433716332
1589986667.1874964,-1.411812669392255,-3.2654683265193625,8.788157012265147,0.5666666666666667,0.13666666666666666,-0.6233333333333333,0.008329529536590491,-0.005157556576748139,-0.08874944927838718
1589986667.1974964,-1.3711417914313837,-3.291712687147075,8.784291042843082,0.5666666666666667,0.13666666666666666,-0.6233333333333333,0.006544984694978735,-0.00821236839973702,-0.05701849863593472
1589986667.2074964,-1.3542873636436024,-3.26,8.915724181861613,0.5666666666666667,0.13666666666666666,-0.6233333333333333,0.0023358752806010383,-0.00857117312511468,-0.017599949720058374
1589986667.2174964,-1.3652836285303973,-3.2679254427955957,8.920940043082814,0.5789951332375938,0.13607959682995585,-0.6271492872719536,-0.0026961378830659775,-0.010393831506891495,0.01936799035226444
1589986667.2274964,-1.38,-3.2919472710453284,8.847789084181313,0.6133333333333333,0.13444444444444445,-0.6377777777777778,-0.001303245102307283,-0.012211552927271841,0.03700196905455254
1589986667.2374964,-1.397595874151593,-3.282404125848407,8.837769902036177,0.6133333333333333,0.13444444444444445,-0.6377777777777778,-0.003717191258552234,-0.014625499083516794,0.055168687498904766
1589986667.2474964,-1.4275807434491163,-3.25,8.768467397928092,0.6133333333333333,0.13444444444444445,-0.6377777777777778,-0.006149134767509729,-0.017981092423235305,0.06712996565957394
1589986667.2574964,-1.4062129334056093,-3.265148266377562,8.845148266377562,0.6133333333333333,0.13444444444444445,-0.6377777777777778,-0.0049249118740994705,-0.02181661564992912,0.0988333992859872
1589986667.2674963,-1.41005271497349,-3.306754524955817,8.88005271497349,0.6971059581124179,0.15417755161462882,-0.6716591504662076,-0.007635815477475192,-0.02108556158721271,0.12841000841900516
1589986667.2774963,-1.4261030308899,-3.324412123559601,8.880515154449501,0.8633333333333333,0.19333333333333333,-0.7388888888888889,-0.009336189022969038,-0.021335327630430057,0.165597365884206
1589986667.2874963,-1.42,-3.303219831445065,8.824241348439477,0.8633333333333333,0.19333333333333333,-0.7388888888888889,-0.011647909481988288,-0.02399827721492203,0.20810561408504338
1589986667.2974963,-1.4154210019709401,-3.3283159921162397,8.756263005912821,0.8633333333333333,0.19333333333333333,-0.7388888888888889,-0.011907290225582389,-0.024497768415230943,0.26682319929310727
1589986667.3074963,-1.4154517542552238,-3.369081139893284,8.775436402658956,0.8633333333333333,0.19333333333333333,-0.7388888888888889,-0.015171398866029008,-0.025386455065428703,0.3044353220079248
1589986667.3174963,-1.4279545115807672,-3.4128407905326856,8.856704325274986,0.8633333333333333,0.19333333333333333,-0.7388888888888889,-0.019944836260903986,-0.026068374693267986,0.32966634823797825
1589986667.3274963,-1.4524447262502067,-3.338933671500248,8.886488945250042,1.5711111111111111,-0.042222222222222223,-1.6244444444444444,-0.013797803512425396,-0.03021842444746137,0.3635374465592655
1589986667.3374963,-1.4328427883608958,-3.3085618589072636,8.828628846556416,1.5711111111111111,-0.042222222222222223,-1.6244444444444444,-0.014023923315100972,-0.033035023580112476,0.37648984320914314
1589986667.3474963,-1.4668417477376938,-3.2947373783934593,8.781052184672117,1.5711111111111111,-0.042222222222222223,-1.6244444444444444,-0.0115973315822871,-0.03352872277513786,0.37960911230876665
1589986667.3574963,-1.4755532692730287,-3.2166598078190862,8.838893461453942,1.5711111111111111,-0.042222222222222223,-1.6244444444444444,-0.006938958159564176,-0.03281601308615355,0.37763924498583945
1589986667.3674963,-1.453986398639864,-3.145979597959796,8.893986398639864,1.394602238001578,-0.06990554611016658,-1.457901567934571,-0.007200966842708628,-0.034254312087736744,0.3719807152224516
1589986667.3774962,-1.47,-3.1684831906121156,8.906966381224231,0.6855555555555556,-0.1811111111111111,-0.7888888888888889,-0.005702341268204891,-0.03171682181097143,0.36283300497844884
1589986667.3874962,-1.4559652294434904,-3.1135095965530746,8.833509596553075,0.6855555555555556,-0.1811111111111111,-0.7888888888888889,-0.008420455065005335,-0.03364349705979262,0.35871107024373655
1589986667.3974962,-1.424371177197264,-3.031365060712887,8.751365060712887,0.6855555555555556,-0.1811111111111111,-0.7888888888888889,-0.007731179770325639,-0.0357113229438317,0.36077889612777553
1589986667.4074962,-1.48,-3.153149268507315,8.841436585634144,0.6855555555555556,-0.1811111111111111,-0.7888888888888889,-0.011625489167719077,-0.03490658503988659,0.374962492349227
1589986667.4174962,-1.4907756322501622,-3.1353937603573745,8.823090640536062,0.6717011712339186,-0.13954795814620008,-0.7798236744562128,-0.010824996301839966,-0.0355782645461345,0.39211330737622646
1589986667.4274962,-1.5325456264775414,-3.22,8.901127754137116,0.5955555555555555,0.08888888888888889,-0.73,-0.014077689586148162,-0.036604340660023965,0.41487658440072345
1589986667.4374962,-1.4953269171064887,-3.2106538342129776,8.802990375659734,0.5955555555555555,0.08888888888888889,-0.73,-0.012111371243698002,-0.03418286402709711,0.4318263453713636
1589986667.4474962,-1.48,-3.195120572968001,8.795120572968,0.5955555555555555,0.08888888888888889,-0.73,-0.016748506457502425,-0.041305351534175874,0.4389263242246373
1589986667.4574962,-1.4738704860168341,-3.1913956014118927,8.83021585663861,0.5955555555555555,0.08888888888888889,-0.73,-0.013559266532196308,-0.03926990816987242,0.4373760511678785
1589986667.4674962,-1.454890035297312,-3.1028201647207894,8.861849941171146,0.5955555555555555,0.08888888888888889,-0.73,-0.018390307177982384,-0.03926990816987242,0.43047456453104127
1589986667.4774961,-1.4954279979929754,-3.1627626693426993,8.930097340692424,0.5777777777777777,0.11555555555555555,-0.73,-0.011500410554771216,-0.03758697465756931,0.4145369337933903
1589986667.4874961,-1.52,-3.1418970923907246,8.843965697463574,0.5777777777777777,0.11555555555555555,-0.73,-0.013099323955620024,-0.03447399455315303,0.3901222479096479
1589986667.4974961,-1.522910729184048,-3.19727682296012,8.858544635407975,0.5777777777777777,0.11555555555555555,-0.73,-0.00904415755931869,-0.03224865652587312,0.36596104090891585
1589986667.507496,-1.5276630927212322,-3.233831546360616,8.862336907278769,0.5777777777777777,0.11555555555555555,-0.73,-0.007207501314331339,-0.027433809394331647,0.32764647703706573
1589986667.517496,-1.5,-3.2130901175770203,8.875193109093615,0.5751454416166426,0.11215545468075606,-0.7323032941409932,0.000444758286746397,-0.022907446432425576,0.3030777299041704
1589986667.527496,-1.5,-3.1584687081410925,8.758147231730913,0.5543372856410511,0.08527825321228356,-0.7505104306196358,-0.004662331552915256,-0.022907446432425576,0.27583991742597497
1589986667.537496,-1.5621302747837782,-3.213617955279921,8.797658453664095,0.5511111111111111,0.0811111111111111,-0.7533333333333333,-0.0005338923156219461,-0.023302104131328893,0.22584902198847476
1589986667.547496,-1.4524405506883604,-3.1744430538172717,8.844668335419273,0.5511111111111111,0.0811111111111111,-0.7533333333333333,0.002884762757715909,-0.019028785289656572,0.19935444517010636
1589986667.557496,-4.646834493560737,-5.973514792899408,6.466508875739645,0.5511111111111111,0.0811111111111111,-0.7533333333333333,-0.26072662995269436,0.3293312863397605,-0.29517531665506236
1589986667.567496,-18.289623738252697,-17.389952662721893,-3.4608284023668645,0.5511111111111111,0.0811111111111111,-0.7533333333333333,-1.3977763645269263,1.8000111601202966,-2.2284783667574675
1589986667.577496,1.0915721576141604,-0.4628030202424541,-0.6365654227770294,0.4844444444444445,0.10111111111111112,-0.6355555555555555,-0.620847174883224,-1.600446928998038,-6.306524276510014
1589986667.587496,1.0468423064891732,-1.2549483855270933,0.6425987974001599,0.4844444444444445,0.10111111111111112,-0.6355555555555555,-0.5833140927836502,-1.4464012389179097,-6.1729919860533
1589986667.597496,-0.0003722139126596871,-0.7107444278253193,0.05643920260893019,0.4844444444444445,0.10111111111111112,-0.6355555555555555,-0.47374807898486265,-0.767425172912571,-5.703131311020688
1589986667.607496,0.06659514326095337,-0.4291609919054349,0.04832198381086984,0.4844444444444445,0.10111111111111112,-0.6355555555555555,-0.5001549538087341,-0.6780391387846381,-5.4180054089580425
1589986667.617496,1.2539874725558569,-1.1424538292651427,2.576147488053726,0.4844444444444445,0.1335981603455451,-0.6341327650781351,-0.3963681501346453,-0.46621407472261045,-5.199304467803045
1589986667.627496,4.878225750776665,-3.397273041076976,10.00005177770107,0.4844444444444445,0.2533333333333333,-0.6288888888888889,0.49775772107942867,0.5882834971942604,-5.015738590892475
1589986667.637496,0.6428918632222638,0.8250478909272432,5.470683108698364,0.4844444444444445,0.2533333333333333,-0.6288888888888889,2.089175351856928,2.8213781066473205,-4.788265072491943
1589986667.647496,2.7497254461500065,3.4618613503057536,20.539123299638085,0.4844444444444445,0.2533333333333333,-0.6288888888888889,1.805825981184758,3.405206280979399,-4.550594189787074
1589986667.657496,-0.3766456664566646,-0.26296462964629647,-0.7203357033570336,0.4844444444444445,0.2533333333333333,-0.6288888888888889,0.17308306569120618,2.25847123005195,-3.5027645559902463
1589986667.667496,-0.48554818744473927,-0.22876878868258177,1.3578050397877983,0.4603841241772277,0.2777102367619609,-0.6333210531486394,0.1574051458440277,0.3568094469019325,-3.109078710869693
1589986667.677496,-0.7557877754217757,-0.10337328293537384,3.6792809071632706,0.4,0.3388888888888889,-0.6444444444444445,-0.034587189947675956,-0.8430085503289145,-2.7670823480403834
1589986667.687496,0.8332264653265906,-0.48435322787395585,3.727353608203857,0.4,0.3388888888888889,-0.6444444444444445,0.06802490274353426,-1.2386508843033193,-2.4947805375593317
1589986667.697496,1.122728937470947,-1.222879942527926,6.657827611950811,0.4,0.3388888888888889,-0.6444444444444445,0.0074432056556866105,-0.5915868005139678,-2.2975677789542113
1589986667.707496,1.2172208436724565,-1.7875930521091812,8.802803970223325,0.4,0.3388888888888889,-0.6444444444444445,-0.05843929675954959,1.053295917829264,-1.858805427911448
1589986667.717496,0.40510545905707196,-0.9991315136476427,5.167996277915632,0.4,0.3388888888888889,-0.6444444444444445,0.04046968669181175,1.024913339969308,-1.7220530073134792
1589986667.727496,0.7923810291982577,-2.6280948540087112,9.854457170511372,0.3655555555555556,0.38333333333333336,-0.6311111111111111,0.012809123135906118,-0.10561930778301223,-1.538227311704144
1589986667.737496,0.5165966888547533,-3.3039443591056497,12.882753029527223,0.3655555555555556,0.38333333333333336,-0.6311111111111111,-0.213015290408056,-0.10564078940554643,-1.3048970610880233
1589986667.747496,0.1141838658716812,-2.152167354634867,7.734444274575753,0.3655555555555556,0.38333333333333336,-0.6311111111111111,0.13082487056811468,0.17142497747387647,-0.9889674886599119
1589986667.7574959,0.2923039290628344,-2.1592921571625134,7.157335269836416,0.3655555555555556,0.38333333333333336,-0.6311111111111111,0.1090633996022928,-0.007329962602517476,-0.8226476748497018
1589986667.7674959,0.027772803581421375,-2.949844112239188,10.706236309856902,0.36315763761203046,0.38714179124363796,-0.6304058411277214,-0.1327121351005825,0.05178895509336538,-0.48506504086082197
1589986667.7774959,0.1451287073307219,-2.882783595811016,9.624885482452633,0.3473239045664899,0.41228948490420225,-0.6257488608202094,0.1434354403270127,0.040816203751871546,-0.27383957753706534
1589986667.7874959,0.05976738830032244,-3.0538760939659144,9.88538807001382,0.3466666666666667,0.4133333333333333,-0.6255555555555555,-0.024860741995279084,5.928974312969376e-05,0.054025517377414276
1589986667.7974958,0.07650936658792507,-2.8965752897873975,9.20113113223095,0.3466666666666667,0.4133333333333333,-0.6255555555555555,-0.04975316173233917,-0.05335494678706461,0.26920281071635865
1589986667.8074958,0.0002582805213440153,-2.69032285065168,8.130548846107857,0.3466666666666667,0.4133333333333333,-0.6255555555555555,-0.002297879456563442,0.01059487169315313,0.4752509587868617
1589986667.8174958,0.06712902068635658,-2.773911275857946,8.272649168958509,0.3466666666666667,0.4133333333333333,-0.6255555555555555,-0.03238755245744455,-0.07055606458195048,0.666730696065196
1589986667.8274958,-0.008954628306813144,-3.145364796295384,9.332050839942855,0.3288888888888889,0.4566666666666666,-0.64,-0.03752497658021566,-0.06629756632482463,0.9550752015498374
1589986667.8374958,-0.0015386944910937975,-3.004613055089062,8.711532637722655,0.3288888888888889,0.4566666666666666,-0.64,-0.005455805639846133,-0.08525297691177063,1.1654310188535604
1589986667.8474958,-0.018512464164340908,-2.951921740616278,8.580868409561239,0.3288888888888889,0.4566666666666666,-0.64,-0.057557037696230474,-0.09863905332194908,1.3553304999344309
1589986667.8574958,-0.05012855806494722,-3.069485767740211,8.876657490311374,0.3288888888888889,0.4566666666666666,-0.64,-0.028656094043531307,-0.10045459655588175,1.4964014633443008
1589986667.8674958,-0.05901070469268447,-3.033957181229262,8.647700268604835,0.3309774012043328,0.45732619687154363,-0.640659530204877,-0.05029780838055427,-0.11069013190264684,1.660428072992297
1589986667.8774958,-0.05072681308263549,-3.067092747669458,8.879649233686207,0.3484656168255473,0.46284879127824297,-0.6461821246115763,-0.04216511681015926,-0.1332809418204107,1.7715748577876957
1589986667.8874958,-0.08035782291336083,-3.1307156458267213,8.91517891145668,0.35,0.4633333333333333,-0.6466666666666666,-0.02986123303165074,-0.11953327436091217,1.872393599056256
1589986667.8974957,-0.1125314488407811,-3.188312367439479,8.743375265121042,0.35,0.4633333333333333,-0.6466666666666666,-0.056382460671382126,-0.14835298641951802,2.006764464424913
1589986667.9074957,-0.13553828713523003,-3.17297447524318,8.77405104951364,0.35,0.4633333333333333,-0.6466666666666666,-0.07311350561771755,-0.14835298641951802,2.0728520919629383
1589986667.9174957,12.076868281946982,-19.327905244748372,3.67237359743756,0.3522100388427099,0.4615442542701872,-0.6494029052338314,-0.24872251549516547,-0.17011742808047906,1.062326143109484
1589986667.9274957,2.738618561968206,-10.607809742773489,9.697316708915482,0.371441503402831,0.4459759258167558,-0.6732132899273146,-0.6380193343742504,-0.41646229730188616,-3.7135276718690364
1589986667.9374957,-5.092869363864411,-8.35461503827105,10.977059239724706,0.37333333333333335,0.4444444444444444,-0.6755555555555556,0.0594490497861036,0.5446891997901436,-3.206732097543391
1589986667.9474957,2.662184526921066,1.9615321484579193,14.234741244119185,0.37333333333333335,0.4444444444444444,-0.6755555555555556,0.7329091310167949,0.07479968660348113,-0.0658125638660163
1589986667.9574957,-0.32039794934267296,1.7447395225284672,8.436470906722164,0.37333333333333335,0.4444444444444444,-0.6755555555555556,1.0139396427406213,0.31330176085014616,0.42819758312230444
1589986667.9674957,0.5311933404395717,0.16219904234979587,7.428754547146507,0.37333333333333335,0.4444444444444444,-0.6755555555555556,0.28704253321786144,-0.18600456038753227,0.5621200537798523
1589986667.9774957,0.6348609987095081,-2.923589536079092,13.24678558148691,0.3655555555555556,0.4577777777777778,-0.6611111111111111,-0.6451867176301861,-0.06338268694705959,0.8557480520942572
1589986667.9874957,0.17209325899645211,-2.3562392295995944,9.318727825646224,0.3655555555555556,0.4577777777777778,-0.6611111111111111,-0.28022243054336987,-0.030637251384317592,1.0428751411319463
1589986667.9974957,0.36115456323041234,-3.3231803919785365,9.9200684370879,0.3655555555555556,0.4577777777777778,-0.6611111111111111,0.2688078924908104,0.07657693105442091,1.2273677664664402
1589986668.0074956,5.236884336320956,-8.608723858301323,8.004824224453579,0.3655555555555556,0.4577777777777778,-0.6611111111111111,0.03584171937401541,-0.017616658623384764,1.3119503687914276
1589986668.0174956,3.4467434912505333,-13.621118224498506,10.171836826380932,0.3655555555555556,0.4577777777777778,-0.6611111111111111,-0.383483660327706,-0.34238827623550233,0.5678533714775885
1589986668.0274956,-0.26051046807833167,-2.9958350581117656,8.81621636682057,0.3997425436501619,0.44299421535848854,-0.6666549470183446,-0.1936634720794793,-0.05605845125917519,-0.9806617362667197
1589986668.0374956,-4.413003361477991,-7.232464466266113,4.44940049231095,0.4066666666666667,0.44,-0.6677777777777778,0.49676031352659233,0.34693009606089636,-1.033795499280291
1589986668.0474956,-0.7259423641647521,-2.9223990079576403,10.065112365534135,0.4066666666666667,0.44,-0.6677777777777778,-0.0012350621702890696,0.09231228732894514,-0.036222708901542625
1589986668.0574956,0.6461412290978803,-3.1202343167536477,9.529042496538501,0.4066666666666667,0.44,-0.6677777777777778,-0.14951387481857054,-0.15899593504678083,0.542969648485172
1589986668.0674956,3.4150304062271952,-6.92460471904646,8.36048406713695,0.40481796805319065,0.440924349306738,-0.6697805346090435,-0.1020480024684905,-0.13323764330959084,0.34720392882241785
1589986668.0774956,-1.9259750262329485,-4.541634417628542,7.978131374606506,0.38,0.4533333333333333,-0.6966666666666667,0.08407256043221263,0.1294906106608712,-0.33634967083087286
1589986668.0874956,0.06613612118625986,-4.395492395379317,8.759015209241367,0.38,0.4533333333333333,-0.6966666666666667,0.02204595975482901,0.04984563711961029,-0.08602488577900369
1589986668.0974956,0.6353558797992418,-4.455261218525656,8.609370619004256,0.38,0.4533333333333333,-0.6966666666666667,-0.03595075272374806,-0.06680363122325514,0.10366124199804963
1589986668.1074955,-0.09182497139071252,-4.343407817864241,8.758175028609287,0.38,0.4533333333333333,-0.6966666666666667,0.006892344951984022,0.0009669190282479277,-0.020800946610200592
1589986668.1174955,0.04290730590857074,-4.368670119857857,8.89290730590857,0.38,0.4533333333333333,-0.6966666666666667,0.0013809656217125222,4.835580653601108e-05,-0.005185371841098008
1589986668.1274955,0.0,-4.399863849141305,8.694178738611026,0.4066666666666667,0.44,-0.6911111111111111,-0.015264205077563963,-0.00545415391248228,0.00015689380855469633
1589986668.1374955,0.0,-4.31315229108522,8.626048228709816,0.4066666666666667,0.44,-0.6911111111111111,-0.010534823241273677,-0.00545415391248228,0.0008325197851675945
1589986668.1474955,0.009515399104674771,-4.441761784779471,8.587753614325203,0.4066666666666667,0.44,-0.6911111111111111,-0.006069228878517244,-0.005295568640328449,0.0021287998076083016
1589986668.1574955,0.0047295460723022565,-4.287685512367491,8.746503125849415,0.4066666666666667,0.44,-0.6911111111111111,0.0031435139864168056,-0.0020526832039203494,0.0012198091435690187
1589986668.1674955,0.06987613093620161,-4.393548712771328,8.836079680037276,0.4066666666666667,0.44,-0.6911111111111111,0.0013669164828153274,-0.0002760857003188716,0.002996406647170497
1589986668.1774955,0.015316002099833387,-4.345316002099834,8.785316002099833,0.41115861096528933,0.4444919442986226,-0.6668546118985487,0.002854813183607403,-0.0008819912005554733,0.0015085099463784213
1589986668.1874955,0.052648309329296795,-4.430045411036663,8.74159806780491,0.4122222222222222,0.4455555555555555,-0.6611111111111111,-0.002355983720404217,-0.0025253523001498436,0.002067097986607268
1589986668.1974955,-0.0069915180889735164,-4.265587180691906,8.67257869878088,0.4122222222222222,0.4455555555555555,-0.6611111111111111,0.0052666256452176255,-0.005313507712033789,0.0012314769829449468
1589986668.2074955,0.05804738004416784,-4.384793013451114,8.735857859867497,0.4122222222222222,0.4455555555555555,-0.6611111111111111,0.0009488322522072164,-0.002181661564992912,0.004221324599696584
1589986668.2174954,0.032785585223850625,-4.317428227263601,8.81164324432845,0.4122222222222222,0.4455555555555555,-0.6611111111111111,-0.0008882573085335526,-0.002181661564992912,0.0023842350389558153
1589986668.2274954,0.049968964041095895,-4.3699068921232875,8.810015517979453,0.4000189664193303,0.4400086210996956,-0.6677674324581431,-0.008714797017203733,-0.002181661564992912,0.002181661564992912
1589986668.2374954,0.05,-4.361509912028216,8.835470263915353,0.4,0.44,-0.6677777777777778,-0.005948271468254126,-0.004033911426137926,0.003107786495565419
1589986668.2474954,0.04,-4.398049793397053,8.627150757544138,0.4,0.44,-0.6677777777777778,-0.010270104206547928,-0.0033434038606467717,0.002039838538678105
1589986668.2574954,0.04,-4.371790558871405,8.723434617471515,0.4,0.44,-0.6677777777777778,-0.0016767898029367654,-0.004298216572159123,0.00013021311565340234
1589986668.2674954,0.026613347947457656,-4.3432266958949155,8.743386652052543,0.4,0.44,-0.6677777777777778,0.001099555037525927,-0.0029030659166375686,0.0
1589986668.2774954,0.04450913159604418,-4.338169710532014,8.823527394788133,0.4,0.44,-0.6868404356858121,0.0057463702579557754,-0.00039930721851147975,0.0017823543464814322
1589986668.2874954,0.020623431462375018,-4.34,8.788591005059155,0.4,0.44,-0.6911111111111111,-0.0006651099851368667,-0.0024033648933718676,0.0029827831961168677
1589986668.2974954,0.02,-4.377967650243638,8.727290200324852,0.4,0.44,-0.6911111111111111,0.0012386274274990214,-0.001312525750000304,0.00022169496750384796
1589986668.3074954,0.02,-4.356678228207905,8.698904304277207,0.4,0.44,-0.6911111111111111,0.0027868378873747946,-0.0036348414398139645,0.0025440106573175083
1589986668.3174953,0.03573865500273374,-4.334261344997266,8.792301257517769,0.4,0.44,-0.6911111111111111,0.002414081879885678,-0.004363323129985824,-0.00016114952292539154
1589986668.3274953,0.04,-4.33,8.82,0.4,0.43478083447959653,-0.672844031789699,-0.00208825824145728,-0.003509339168695786,0.0014711211013736594
1589986668.3374953,0.04106341583548824,-4.371063415835488,8.810429257480607,0.4,0.43333333333333335,-0.6677777777777778,-0.006892986713362163,-0.0033884930202838443,0.002007660555801198
1589986668.3474953,0.05863219447323646,-4.386580486183091,8.643419513816909,0.4,0.43333333333333335,-0.6677777777777778,-0.012567753859385614,-0.00545415391248228,-0.0008670241265370888
1589986668.3574953,0.04222674202569769,-4.345566855064244,8.684433144935756,0.4,0.43333333333333335,-0.6677777777777778,-0.006304303473690624,-0.00545415391248228,0.001817311753046479
1589986668.3674953,0.04,-4.34,8.756082641280129,0.4,0.43333333333333335,-0.6677777777777778,-0.0046532096980707646,-0.0030513212692477327,0.0013807173505813964
1589986668.3774953,0.020239264281817472,-4.330299080352272,8.800239264281819,0.4,0.44,-0.6822222222222222,0.003259442505301448,0.0010777809403085356,0.004343748366703943
1589986668.3874953,0.05292806484295845,-4.371160081053698,8.832928064842958,0.4,0.44,-0.6822222222222222,0.0014765450105524468,-0.0007051165544404651,0.0016694021245804423
1589986668.3974953,0.020237099686401215,-4.340711299059204,8.720711299059204,0.4,0.44,-0.6822222222222222,0.0031431745292660163,-0.0022075251286375825,0.0022075251286375825
1589986668.4074953,0.03015945159169875,-4.369362193633205,8.750637806366795,0.4,0.44,-0.6822222222222222,-0.002146874624084301,-0.003307279288397979,0.0032898858179436735
1589986668.4174953,0.038036810968166024,-4.337852756127336,8.782147243872663,0.4,0.44,-0.6822222222222222,-0.0004283014055567829,-0.005025852506925497,0.004149172427207432
1589986668.4274952,0.04948411102172164,-4.340171962992759,8.819312148028962,0.4122222222222222,0.43333333333333335,-0.6755555555555556,-0.0011283472876869012,-0.002181661564992912,0.002162903312397689
1589986668.4374952,0.028394509251810137,-4.347201830249396,8.791192679002414,0.4122222222222222,0.43333333333333335,-0.6755555555555556,-0.0026620264077676487,-0.002181661564992912,0.0013960637523573157
1589986668.4474952,0.04924478764478765,-4.38899305019305,8.682517374517374,0.4122222222222222,0.43333333333333335,-0.6755555555555556,-0.007525974292890221,-0.002181661564992912,0.0021542012688466694
1589986668.4574952,0.0427975370231471,-4.368392611069441,8.708809851907413,0.4122222222222222,0.43333333333333335,-0.6755555555555556,-0.007635815477475192,-0.004538662062475573,0.000610327900004471
1589986668.4674952,0.04,-4.36709395623956,8.762563737437358,0.4122222222222222,0.43333333333333335,-0.6755555555555556,-0.006088154310316296,-0.003906492745323385,-0.0007738305835794478
1589986668.4774952,0.033359825364530346,-4.356719650729061,8.78,0.4041064532233149,0.42964434742473906,-0.6755555555555556,-0.0018325004657210407,-0.003272492347489368,0.0003578305962080397
1589986668.4874952,0.03,-4.331615755910228,8.816768488179545,0.4,0.42777777777777776,-0.6755555555555556,0.0010027049683025942,-0.004275197315791963,0.00209353575079905
1589986668.4974952,0.04425438596491228,-4.3585087719298246,8.741600877192983,0.4,0.42777777777777776,-0.6755555555555556,0.004200655381718809,-0.004363323129985824,0.002181661564992912
1589986668.5074952,0.030046116598132278,-4.350046116598132,8.75988470850467,0.4,0.42777777777777776,-0.6755555555555556,-0.002164054673303565,-0.0021866921054755828,5.0305404826708235e-06
1589986668.5174952,0.03,-4.357340940161952,8.774681880323904,0.4,0.42777777777777776,-0.6755555555555556,-0.000580116864768596,-0.0029824339151050703,0.000800772350112158
1589986668.5274951,0.01074926296109873,-4.331123894441649,8.808876105558353,0.4,0.43954211707932855,-0.6680691578182051,-0.0020999296547778183,-0.0011725626927115494,0.0021407956098853653
1589986668.5374951,0.03571042430591933,-4.347140282870613,8.767149292823468,0.4,0.44,-0.6677777777777778,-0.0003119467473967864,-0.0020256881912945187,0.0012468041561948492
1589986668.5474951,0.031308899227875664,-4.35,8.690471193823004,0.4,0.44,-0.6677777777777778,-0.005688312153607163,-0.005973869667397686,0.0029869348336988436
1589986668.557495,0.0372970874559535,-4.364594174911907,8.731079612191674,0.4,0.44,-0.6677777777777778,-0.006544984694978735,-0.004953007171074171,0.0016805148235848031
1589986668.567495,0.03348417328984242,-4.37,8.763031653420315,0.4,0.44,-0.6677777777777778,-0.005834218260093485,-0.004363323129985824,0.0018015972173817058
1589986668.577495,0.021544825843938485,-4.386910348312123,8.795365522468185,0.4,0.42966589825370255,-0.6743540243436035,-0.0026872046402421617,-0.0034410067059057847,0.004026294413152991
1589986668.587495,0.026031221513217864,-4.353812670920693,8.781906335460347,0.4,0.42777777777777776,-0.6755555555555556,-0.0008658531484583309,-0.004588300764023949,0.0023896105051839523
1589986668.597495,0.03732604705489738,-4.33,8.733369764725513,0.4,0.42777777777777776,-0.6755555555555556,0.0023974432924498703,-0.0030567106200324098,0.001090830782496456
1589986668.607495,0.04,-4.341757718143013,8.731757718143013,0.4,0.42777777777777776,-0.6755555555555556,0.000707356171026209,-0.002181661564992912,0.0023733988707280358
1589986668.617495,0.04,-4.355651438240271,8.773908629441625,0.4,0.42777777777777776,-0.6755555555555556,-0.0023237833420694386,-0.0015651852852064207,0.0014230635081298945
1589986668.627495,0.03410125805461798,-4.371797483890764,8.8,0.4,0.4428523405270874,-0.683420544816065,-0.003272492347489368,-0.0017342837116990294,0.0006434529292025735
1589986668.637495,0.03,-4.342106684205061,8.815157326317976,0.4,0.4533333333333333,-0.6888888888888889,-0.003272492347489368,-0.0038350693777920676,0.00026412687609687804
1589986668.647495,0.04670714217420403,-4.346707142174203,8.72811071804188,0.4,0.4533333333333333,-0.6888888888888889,-0.0005387926018143884,-0.004363323129985824,0.0027336997456749797
1589986668.657495,0.04096101284100872,-4.340961012841008,8.746155948635964,0.4,0.4533333333333333,-0.6888888888888889,-0.0029580016306853646,-0.003377322586424036,-0.0006715098267577845
1589986668.667495,0.03299380339529938,-4.354012393209401,8.75,0.4,0.4533333333333333,-0.6888888888888889,-0.004036749839952327,-0.004036749839952327,-0.001090830782496456
1589986668.677495,0.038492937197426885,-4.36,8.766985874394853,0.3933943821797792,0.4420094170700975,-0.6832269307572709,-0.004363323129985824,-0.0034368873971095813,0.0007620406832560293
1589986668.687495,0.049117016089712334,-4.350882983910287,8.779117016089712,0.3922222222222223,0.44,-0.6822222222222222,-0.0033688109504684555,-0.003272492347489368,0.0020853429620138245
1589986668.697495,0.005021244630155637,-4.35,8.69903824033428,0.3922222222222223,0.44,-0.6822222222222222,-0.0003286396925411281,-0.003272492347489368,0.002181661564992912
1589986668.707495,0.008585593799863232,-4.332828812400273,8.724342375199454,0.3922222222222223,0.44,-0.6822222222222222,-0.0009365430002901531,-0.004209035347779521,0.0003085755644126058
1589986668.717495,0.01682387535324219,-4.3504716260597265,8.770943252119453,0.3922222222222223,0.44,-0.6822222222222222,-0.001090830782496456,-0.005852061788232915,0.000744369329123546
1589986668.727495,0.025512862401707727,-4.371025724803416,8.795512862401708,0.40018524569135566,0.44306270133428205,-0.6785469806210838,0.00011188921899357024,-0.004740904692743696,0.001090830782496456
1589986668.737495,0.02270474432595023,-4.358114232977851,8.77811423297785,0.4066666666666667,0.4455555555555555,-0.6755555555555556,-0.0005007471085906278,-0.0040682812930329095,0.001090830782496456
1589986668.747495,0.006004811745594375,-4.343002405872797,8.728014435236783,0.4066666666666667,0.4455555555555555,-0.6755555555555556,-0.001854149890233381,-0.005889961345459674,0.00032751167475953097
1589986668.757495,0.016479522647138596,-4.348239761323569,8.767678329264985,0.4066666666666667,0.4455555555555555,-0.6755555555555556,-0.002181661564992912,-0.0029497105781094842,0.001797637058434626
1589986668.767495,0.05496697208608567,-4.336013211165565,8.78,0.4066666666666667,0.4455555555555555,-0.6755555555555556,-0.002944522555436843,-0.003707383545880774,0.002944522555436843
1589986668.777495,0.04386375626483778,-4.373560406225271,8.797424162490108,0.4115067118028078,0.44071551041941437,-0.6813636097189248,-0.004222832987660872,-0.004363323129985824,0.0004214704269748571
1589986668.787495,0.04,-4.364349811763254,8.768699623526507,0.4122222222222222,0.44,-0.6822222222222222,-0.004363323129985824,-0.005216908484011162,0.0008535853540253389
1589986668.797495,0.03416277468693597,-4.36,8.719139422808551,0.4122222222222222,0.44,-0.6822222222222222,-0.0030898381188142737,-0.00545415391248228,0.001090830782496456
