time,acc_x,acc_y,acc_z,mag_x,mag_y,mag_z,gyr_x,gyr_y,gyr_z
1589986676.1601613,-3.83,-0.61,9.22,0.3244444444444444,-0.3511111111111111,-0.6344444444444445,-0.001090830782496456,0.0,0.0
1589986676.1701612,-3.817166526428517,-0.5843330528570335,9.200749789642774,0.3244444444444444,-0.3511111111111111,-0.6344444444444445,0.00030908401931640595,0.001399914801812862,0.001399914801812862
1589986676.1801612,-3.817202971259674,-0.5627970287403259,9.117970287403258,0.3244444444444444,-0.3511111111111111,-0.6344444444444445,0.004233719892692367,0.0029673838425418896,0.0006102170098949567
1589986676.1901612,-3.8261855431551592,-0.5414433705345224,9.059072284224204,0.3244444444444444,-0.3511111111111111,-0.6344444444444445,0.004104677736460695,0.0012482780834569903,0.0006747380880107926
1589986676.2001612,-3.8361317032342916,-0.53,9.04,0.3244444444444444,-0.3511111111111111,-0.6344444444444445,0.0026036272837795037,-0.0013377301274197285,0.0030974259736260487
1589986676.2101612,-3.833139193792581,-0.5162783875851628,9.053721612414837,0.3160590146353772,-0.34653724030616534,-0.630632885440323,-6.353201614558773e-05,0.0008119298765250872,0.002118129548847324
1589986676.2201612,-3.83,-0.5399853592219472,9.040009760518702,0.31222222222222223,-0.34444444444444444,-0.6288888888888889,-0.004361726068847858,0.002181661564992912,0.001090830782496456
1589986676.2301612,-3.820700423625435,-0.54,8.984202541752612,0.31222222222222223,-0.34444444444444444,-0.6288888888888889,-0.0053777495473410234,-0.001876044104427888,0.001090830782496456
1589986676.2401612,-3.8498384986354632,-0.57,9.050323002729074,0.31222222222222223,-0.34444444444444444,-0.6288888888888889,-0.004333961353343802,-0.0021757892096645076,-1.1744710656808828e-05
1589986676.2501612,-3.826318180118883,-0.57,9.097363639762234,0.31222222222222223,-0.34444444444444444,-0.6288888888888889,-5.784677800931698e-05,-0.0013205662945976106,-0.0017221905407906028
1589986676.2601612,-3.838783332823072,-0.5793916664115359,9.185133331292288,0.2986564818500035,-0.34444444444444444,-0.6205407409675235,0.003139774546624754,-0.003139774546624754,0.0008917540811995339
1589986676.2701612,-3.84,-0.5421655658925739,9.152165565892574,0.2977777777777777,-0.34444444444444444,-0.62,0.002240718213421513,-0.004304266481557223,0.001090830782496456
1589986676.2801611,-3.830435348882082,-0.5591293022358361,9.073482791056655,0.2977777777777777,-0.34444444444444444,-0.62,0.0032250031513193266,-0.0022766399573329954,0.001090830782496456
1589986676.2901611,-3.820505948861083,-0.5220237954443314,9.032023795444331,0.2977777777777777,-0.34444444444444444,-0.62,0.003272492347489368,-0.0011460212417002764,5.519045920382047e-05
1589986676.3001611,-3.82,-0.5341903743315508,9.065475935828877,0.2977777777777777,-0.34444444444444444,-0.62,0.002498527490689209,-0.0003168659256962967,0.0
1589986676.310161,-3.8275654867256637,-0.5173035398230089,9.095130973451328,0.30366204523107176,-0.3494881022615536,-0.6090720747295968,0.0030069281454851425,0.0,0.0
1589986676.320161,-3.8237747145127314,-0.5224505709745372,9.1,0.3055555555555556,-0.3511111111111111,-0.6055555555555555,-0.00012287417218113028,-0.0006790733039340997,0.0
1589986676.330161,-3.8456385302879843,-0.5556385302879842,9.014538232373386,0.3055555555555556,-0.3511111111111111,-0.6055555555555555,-0.004046148102066298,0.0017058990231136235,0.0009322432685366931
1589986676.340161,-3.824871127253632,-0.5516237090845441,9.050257745492736,0.3055555555555556,-0.3511111111111111,-0.6055555555555555,-0.0007084767404959042,0.0012679499676204321,0.00017711918512397604
1589986676.350161,-3.8271150041220117,-0.5428849958779884,9.067115004122012,0.3055555555555556,-0.3511111111111111,-0.6055555555555555,0.000776126551387936,0.001090830782496456,-0.001552253102775872
1589986676.360161,-3.824345063439707,-0.5456549365602931,9.092619746241171,0.3206353863830036,-0.3473411534042491,-0.6174937549606186,0.0029414044444061307,-0.0007597428794132188,-0.001564803677689687
1589986676.370161,-3.828015270164448,-0.55,9.101984729835552,0.3322222222222222,-0.34444444444444444,-0.6266666666666667,0.004363323129985824,-0.002181661564992912,0.0015321602451251121
1589986676.380161,-3.817169351751975,-0.530754027627962,9.061508055255924,0.3322222222222222,-0.34444444444444444,-0.6266666666666667,0.005063126433402336,-0.002181661564992912,0.0007820549581598866
1589986676.390161,-3.8255981141040167,-0.52,9.071196228208033,0.3322222222222222,-0.34444444444444444,-0.6266666666666667,0.0037526636111269293,-0.002181661564992912,0.0
1589986676.400161,-3.83,-0.5314805759304537,9.08,0.3322222222222222,-0.34444444444444444,-0.6266666666666667,0.001393987503630353,-0.0003031567211338969,0.0
1589986676.410161,-3.8363371056667908,-0.533662894333209,9.099011317000373,0.3230686251479685,-0.35711865577802654,-0.6182171924442786,0.0,-0.0002917112041572207,0.0
1589986676.420161,-3.8484562335572527,-0.5469124671145054,9.135368700671759,0.31777777777777777,-0.3644444444444445,-0.6133333333333333,-0.002767295960469222,0.001676465177972766,0.0
1589986676.430161,-3.832193397981201,-0.5678066020187991,9.086580193943602,0.31777777777777777,-0.3644444444444445,-0.6133333333333333,-0.005214891308866331,0.003152861045681394,0.0009711994806884817
1589986676.440161,-3.8387001182553853,-0.5612998817446148,9.071299881744615,0.31777777777777777,-0.3644444444444445,-0.6133333333333333,-0.0007089755103154788,0.0013744209866226474,0.001090830782496456
1589986676.450161,-3.8331944262356488,-0.553194426235649,9.090416721293053,0.31777777777777777,-0.3644444444444445,-0.6133333333333333,-0.0014847458709408995,-0.001878660959385343,-0.0003939150884444435
1589986676.460161,-3.8351828480986296,-0.5551828480986297,9.105182848098629,0.3148984177229835,-0.3540787482471851,-0.6093022292566214,-0.0004855784908963669,-0.0027071313227905198,-0.001090830782496456
1589986676.470161,-3.836081568039326,-0.556081568039326,9.11,0.31222222222222223,-0.34444444444444444,-0.6055555555555555,0.001090830782496456,-0.0013267923246286749,-0.0015182654026785745
1589986676.480161,-3.820684450940983,-0.5453422254704915,9.068080029234423,0.31222222222222223,-0.34444444444444444,-0.6055555555555555,0.0026150839329112004,-0.0015242531504147446,-0.001165492798049749
1589986676.490161,-3.7948469387755104,-0.547576530612245,9.05030612244898,0.31222222222222223,-0.34444444444444444,-0.6055555555555555,0.0035368518483494785,0.0008598640606923592,0.001652942563272691
1589986676.500161,-3.802826624430194,-0.556413312215097,9.092066561075484,0.31222222222222223,-0.34444444444444444,-0.6055555555555555,0.002572908509290538,0.002181661564992912,-0.0006166737878024078
1589986676.510161,-3.81,-0.5474505382405842,9.141373654398539,0.31222222222222223,-0.3486275983642497,-0.6188022096349389,0.0008127276458996173,0.0035505954840862066,-0.0028661285245395593
1589986676.520161,-3.776018706298998,-0.5484953234252505,9.1430093531495,0.31222222222222223,-0.3511111111111111,-0.6266666666666667,-0.0009266960299526449,0.003436627100033179,-0.006052580437347303
1589986676.530161,-3.7341854082242207,-0.55,9.092247210965628,0.31222222222222223,-0.3511111111111111,-0.6266666666666667,-0.0043464690467935035,0.0026213646946299583,-0.007196112347838146
1589986676.540161,-3.682476186615865,-0.5431190466539663,9.053119046653967,0.31222222222222223,-0.3511111111111111,-0.6266666666666667,-0.005043793550423604,0.0014310659927153457,-0.009137006622030326
1589986676.550161,-3.664924417570692,-0.5196976702827673,9.065226747287925,0.31222222222222223,-0.3511111111111111,-0.6266666666666667,-0.00823894421707709,-0.0016774699939973066,-0.01756871921665064
1589986676.5601609,-3.6710751048417842,-0.4889248951582158,9.065233193544287,0.31222222222222223,-0.3511111111111111,-0.6295379901441663,-0.013207245135540393,-0.0047660253060122825,-0.03998908851039746
1589986676.5701609,-3.6499382929357753,-0.5300925605963371,9.106769511773708,0.31222222222222223,-0.3511111111111111,-0.6344444444444445,-0.016728315730450784,-0.00618249630023248,-0.104051993500548
1589986676.5801609,-3.538336015448986,-0.5218066731037443,8.895562707863963,0.31222222222222223,-0.3511111111111111,-0.6344444444444445,-0.002454808120764474,0.0017875066378983872,-0.1424286084877169
1589986676.5901608,-3.4319319966495656,-0.5620453355669563,8.97613600670087,0.31222222222222223,-0.3511111111111111,-0.6344444444444445,0.007858926977172274,0.013825432150284762,-0.1341598228890696
1589986676.6001608,-3.2862251869168295,-0.6220235384212329,9.1560706152637,0.31222222222222223,-0.3511111111111111,-0.6344444444444445,-0.011540809855838342,-0.010670712873286407,-0.12226214574648235
1589986676.6101608,-3.0898298916053486,-0.6457757733997943,9.215775773399795,0.31543098522210794,-0.34726059551124827,-0.6222511450448787,-0.019174162444161733,-0.0234151889352681,-0.11701043786694774
1589986676.6201608,-2.751710385438972,-0.65,9.125535331905782,0.31777777777777777,-0.34444444444444444,-0.6133333333333333,-0.00933045730338778,-0.01329931780297941,-0.1345196403774631
1589986676.6301608,-2.586030676161669,-0.6413358896801391,9.00469478648153,0.31777777777777777,-0.34444444444444444,-0.6133333333333333,-0.0018194455750539882,0.00246892466933624,-0.16892468270307978
1589986676.6401608,-2.5437262274929497,-0.5524207583098321,9.060063393352134,0.31777777777777777,-0.34444444444444444,-0.6133333333333333,-0.006822878747096388,0.00245264047511918,-0.20210233423993612
1589986676.6501608,-2.468909586288188,-0.4120372553187378,9.098436165484724,0.31777777777777777,-0.34444444444444444,-0.6133333333333333,-0.016941528871545555,0.009936422726718215,-0.2092689223565203
1589986676.6601608,-2.3782300421885734,-0.3070543218759198,8.898217287503678,0.3069925470487985,-0.33856159131954666,-0.6192161864582312,-0.004361931809695494,0.02656608367279984,-0.1604762022569729
1589986676.6701608,-2.37,-0.3,8.87,0.3055555555555556,-0.3377777777777778,-0.62,-0.002181661564992912,0.02836160034490785,-0.1538071403320003
1589986676.6801608,-2.19794348241069,-0.5966491682574311,9.059855467684756,0.3055555555555556,-0.3377777777777778,-0.62,-0.01706698760450303,-0.0007618636454380275,-0.07420300542505488
1589986676.6901608,-2.1638928198584853,-0.7580535900707575,8.938321540424544,0.3055555555555556,-0.3377777777777778,-0.62,0.004758735053811528,0.0006272182100492928,0.023071052070027697
1589986676.7001607,-2.2302814425221977,-0.74,8.941031955914726,0.3055555555555556,-0.3377777777777778,-0.62,0.02074625194521378,0.012019605685242133,0.05961913103775107
1589986676.7101607,-2.272404391717633,-0.7431010979294083,9.112021958588166,0.31141318497777126,-0.34191257501698885,-0.615520636324188,0.011406017957247964,0.005047312853930527,0.08319969979483717
1589986676.7201607,-2.295091435699034,-0.7401828713980677,9.25,0.3244444444444444,-0.3511111111111111,-0.6055555555555555,-0.01096815235003968,-0.015807072258686092,0.10563105232693086
1589986676.7301607,-2.3138746115028574,-0.7240313471242856,9.082877719479999,0.3244444444444444,-0.3511111111111111,-0.6055555555555555,0.0027814489815091107,-0.008549513393208613,0.12799856448966818
1589986676.7401607,-2.350430769230769,-0.7063794871794872,9.038102564102564,0.3244444444444444,-0.3511111111111111,-0.6055555555555555,0.0038744071792669,-0.00698691101199012,0.14229691767525818
1589986676.7501607,-2.348144817493478,-0.7059275912532609,9.123348321279348,0.3244444444444444,-0.3511111111111111,-0.6055555555555555,-0.004728568322105944,-0.012606245663039915,0.14766689367407415
1589986676.7601607,-2.35291865485117,-0.6970813451488298,9.09540672574415,0.3294683657754551,-0.34249867454366434,-0.6055555555555555,-0.003089819707930202,-0.011044011040919299,0.15155762715903
1589986676.7701607,-2.345613958028306,-0.6828069790141532,9.06,0.3322222222222222,-0.3377777777777778,-0.6055555555555555,0.0,-0.004803461904719326,0.1535009464205543
1589986676.7801607,-2.3060615070147725,-0.68,9.020405091517235,0.3322222222222222,-0.3377777777777778,-0.6055555555555555,-0.005553172928973876,-0.008825665276463243,0.1482539674030264
1589986676.7901607,-2.255328195588626,-0.6738320488971565,9.014671804411373,0.3322222222222222,-0.3377777777777778,-0.6055555555555555,-0.007126200671302253,-0.012417150297166009,0.13457019599045167
1589986676.8001606,-2.2221635414426215,-0.6283815966994506,9.035945486185792,0.3322222222222222,-0.3377777777777778,-0.6055555555555555,0.001031365435887925,-0.007459275063601872,0.11639554557267842
1589986676.8101606,-2.268926520531028,-0.6392843470206854,9.170947823402285,0.31476251243525094,-0.3465076326712634,-0.6208328016191554,-0.004544780254286253,-0.00936279021337009,0.08656595996693087
1589986676.8201606,-2.2857374692817727,-0.66,9.211474938563546,0.3055555555555556,-0.3511111111111111,-0.6288888888888889,-0.014484879305591065,-0.011221238230273855,0.05193031267664064
1589986676.8301606,-2.28,-0.6479031235297728,9.060885920592387,0.3055555555555556,-0.3511111111111111,-0.6288888888888889,-0.0011874697277987276,-0.00035179164433978526,0.024728279462557474
1589986676.8401606,-2.3233251265216794,-0.6585679113664342,9.038082341676926,0.3055555555555556,-0.3511111111111111,-0.6288888888888889,0.007376349640960168,0.005194688075967256,-0.009865073133237675
1589986676.8501606,-2.376036806394646,-0.6752073612789293,9.121658890231434,0.3055555555555556,-0.3511111111111111,-0.6288888888888889,0.0020007047120698075,0.0026592181363949757,-0.046719677129466675
1589986676.8601606,-2.389040046115764,-0.6854799769421179,9.121640161405175,0.3159066231128894,-0.3511111111111111,-0.6319333205233989,0.0031982932172568254,0.007068558318329498,-0.09154241865811244
1589986676.8701606,-2.3671272072882688,-0.7093091890675964,9.064254414576538,0.3244444444444444,-0.3511111111111111,-0.6344444444444445,0.0083379174048078,0.01340334246212623,-0.14145512268994068
1589986676.8801606,-2.3654226829825693,-0.7145773170174309,9.006618536139447,0.3244444444444444,-0.3511111111111111,-0.6344444444444445,0.006952077403639817,0.013589277220343315,-0.1859720422111848
1589986676.8901606,-2.37,-0.71,8.98105583164441,0.3244444444444444,-0.3511111111111111,-0.6344444444444445,0.00545415391248228,0.01610497976091265,-0.24079561809725342
1589986676.9001606,-2.359522882575988,-0.6995228825759879,9.047624145832065,0.3244444444444444,-0.3511111111111111,-0.6344444444444445,0.009454220681762073,0.019686999522233975,-0.2964489307536822
1589986676.9101605,-2.372269894245848,-0.6825767019180505,9.122269894245848,0.3273312825874248,-0.3560599764990774,-0.637743688036422,0.01308996938995747,0.02072578486743266,-0.3482694285677594
1589986676.9201605,-2.41392652039464,-0.6778530407892799,9.17177956118392,0.3322222222222222,-0.3644444444444445,-0.6433333333333333,0.012661652458500131,0.022439052593262024,-0.4155539221701326
1589986676.9301605,-2.415535494964382,-0.6855354949643822,9.114103414394497,0.3322222222222222,-0.3644444444444445,-0.6433333333333333,0.012973142511753476,0.027524117758149644,-0.48713539202087736
1589986676.9401605,-2.4017455527318936,-0.6965088945362135,9.04476334180432,0.3322222222222222,-0.3644444444444445,-0.6433333333333333,0.015981641206962844,0.03369473372029138,-0.5563947347499434
1589986676.9501605,-2.4118232232916075,-0.7145441941770981,9.096367417468706,0.3322222222222222,-0.3644444444444445,-0.6433333333333333,0.01794898720894528,0.041749893948342776,-0.6422115930111582
1589986676.9601605,-2.4533997215327807,-0.7275497911495853,9.11,0.33612217581101894,-0.35664453726685097,-0.6335834493613415,0.019367677761178446,0.047276575737334896,-0.724627418547433
1589986676.9701605,-2.4578089645047068,-0.74,9.11,0.3388888888888889,-0.3511111111111111,-0.6266666666666667,0.02338545622518721,0.052411974409533706,-0.8040067247563029
1589986676.9801605,-2.4648561643835616,-0.74,9.035719178082191,0.3388888888888889,-0.3511111111111111,-0.6266666666666667,0.025089107997418484,0.056162095266764446,-0.872288065233892
1589986676.9901605,-2.505755627009646,-0.7503022508038585,9.001209003215434,0.3388888888888889,-0.3511111111111111,-0.6266666666666667,0.026212909228003258,0.06118543516406648,-0.9512675772375042
1589986677.0001605,-2.5264712677271652,-0.7741149290913393,9.04705746454567,0.3388888888888889,-0.3511111111111111,-0.6266666666666667,0.0272707695624114,0.06666856603912903,-1.0144675874892881
1589986677.0101604,-2.520633933169109,-0.7974642673235635,9.058732133661783,0.3388888888888889,-0.3511111111111111,-0.6266666666666667,0.0272707695624114,0.07048909257332377,-1.0577668882101616
1589986677.0201604,-2.499664757412399,-0.9122011455525607,9.12186590296496,0.3655555555555556,-0.3377777777777778,-0.6644444444444444,0.034703046600753656,0.07441660094230784,-1.156922999406367
1589986677.0301604,-2.488619278076401,-0.9672385561528014,9.068106624328099,0.3655555555555556,-0.3377777777777778,-0.6644444444444444,0.03802846398974297,0.07788144090027187,-1.2218788570929784
1589986677.0401604,-2.4968049010367577,-1.0056016336789193,9.02879673264216,0.3655555555555556,-0.3377777777777778,-0.6644444444444444,0.04084052628994193,0.08202958381010657,-1.279273085317373
1589986677.0501604,-2.5233098507224394,-1.0433098507224396,9.059248822543307,0.3655555555555556,-0.3377777777777778,-0.6644444444444444,0.04145156973486533,0.0871845218504286,-1.3400907321513285
1589986677.0601604,-2.57,-1.0992645521087487,9.086176368072499,0.3717319236280547,-0.3316014097052786,-0.6661601022423609,0.04077783249311429,0.09146933588996249,-1.3872637624802
1589986677.0701604,-2.5756370935005184,-1.1256370935005187,9.09436290649948,0.3855555555555555,-0.31777777777777777,-0.67,0.04111464270412537,0.09630056461539695,-1.441396076264018
1589986677.0801604,-2.5816177560158486,-1.1693378539445285,9.03389765808717,0.3855555555555555,-0.31777777777777777,-0.67,0.044900531888420386,0.09799830061861534,-1.50283568557631
1589986677.0901604,-2.572156905915162,-1.21,8.991569059151622,0.3855555555555555,-0.31777777777777777,-0.67,0.042456821616254435,0.09950088314389824,-1.5432049365599545
1589986677.1001604,-2.58,-1.2337225126864524,9.054184991542366,0.3855555555555555,-0.31777777777777777,-0.67,0.03990422719247896,0.10251286924605268,-1.598956132670891
1589986677.1101604,-2.5551782896812876,-1.278273903439571,9.021726096560428,0.4039420076434907,-0.30674590652501665,-0.679652887346166,0.045701300514512294,0.10761567161481365,-1.6406810944773078
1589986677.1201603,-2.490937171313886,-1.388813617532788,9.027437697211669,0.43,-0.2911111111111111,-0.6933333333333334,0.04637390061596885,0.10953985646899736,-1.6839838996715184
1589986677.1301603,-2.4427220776694307,-1.4490888310677723,9.001810908737204,0.43,-0.2911111111111111,-0.6933333333333334,0.04898923882479007,0.11027330214407488,-1.7203432772819909
1589986677.1401603,-2.4140857070193285,-1.4518285859613427,8.96408570701933,0.43,-0.2911111111111111,-0.6933333333333334,0.0579667533303397,0.12029682979066525,-1.7557576164689077
1589986677.1501603,-2.4205710784313728,-1.5392830882352941,9.033997549019608,0.43,-0.2911111111111111,-0.6933333333333334,0.05762714649266388,0.12826605943315772,-1.7889929623895813
1589986677.1601603,-2.419052759881595,-1.61,9.092701839921062,0.454732653600841,-0.27692024429095646,-0.7042805734517383,0.054143486241338246,0.12941081023359371,-1.838554731508422
1589986677.1701603,-2.3934938985228,-1.6197591522157997,9.063734746307,0.4977777777777778,-0.25222222222222224,-0.7233333333333334,0.05345070834232633,0.1287180323345818,-1.8925914076313508
1589986677.1801603,-2.368688584968203,-1.6569671225476956,8.99606575490461,0.4977777777777778,-0.25222222222222224,-0.7233333333333334,0.05345070834232633,0.12933497432009566,-1.9203537969794753
1589986677.1901603,-2.3498842423610387,-1.6902315152779226,8.959884242361039,0.4977777777777778,-0.25222222222222224,-0.7233333333333334,0.05234725036024107,0.13311923706333406,-1.9670583264316528
1589986677.2001603,-2.34,-1.7508232662192393,8.986740939597315,0.4977777777777778,-0.25222222222222224,-0.7233333333333334,0.05126904677733343,0.14169760086413627,-2.0341617205008227
1589986677.2101603,-2.3460670504836876,-1.8160670504836878,9.04,0.4954183692563437,-0.23873988781402716,-0.727040975295587,0.053585390676631754,0.1517601611013128,-2.1087221840288253
1589986677.2201602,-2.362479461122143,-1.8448767667328583,9.042479461122143,0.49,-0.20777777777777776,-0.7355555555555555,0.06025719851282705,0.1581615016859044,-2.1488559855332827
1589986677.2301602,-2.352441219833941,-1.9286293163653294,9.004347171568247,0.49,-0.20777777777777776,-0.7355555555555555,0.06244365037646838,0.1622091021258045,-2.191030486864851
1589986677.2401602,-2.3199040022587702,-2.000479988706148,8.920287993223688,0.49,-0.20777777777777776,-0.7355555555555555,0.05891533398392697,0.16363508910358673,-2.214548800269139
1589986677.2501602,-2.297332570009121,-2.105334859981758,8.990669719963515,0.49,-0.20777777777777776,-0.7355555555555555,0.062250409717483524,0.1681340507348253,-2.254312643688026
1589986677.2601602,-2.2882631754781593,-2.146052367827612,9.01826317547816,0.49559643457037594,-0.19639192813459913,-0.7405730486186513,0.06450255612367803,0.17453292519943295,-2.2752777687925017
1589986677.2701602,-2.272363554896858,-2.2852728902062833,8.979454219587433,0.5222222222222223,-0.14222222222222222,-0.7644444444444445,0.05832967915983483,0.1761989390769032,-2.3026050288211595
1589986677.2801602,-2.2512711590296495,-2.3296398921832884,8.908177897574124,0.5222222222222223,-0.14222222222222222,-0.7644444444444445,0.05491824327537116,0.17889624832941878,-2.317599426985272
1589986677.2901602,-2.2008411303638193,-2.396168226072764,8.872149513199597,0.5222222222222223,-0.14222222222222222,-0.7644444444444445,0.05361382264524884,0.18182212019539637,-2.330340780018275
1589986677.3001602,-2.180707643456566,-2.4167691086414154,8.92393853481515,0.5222222222222223,-0.14222222222222222,-0.7644444444444445,0.05504835855279829,0.1862400581296335,-2.3370059256377607
1589986677.3101602,-2.1895926035378057,-2.4729938362815047,8.907209861949593,0.5271351139631208,-0.15355966470121915,-0.7689794214360433,0.05122460671716923,0.1854412330243975,-2.3490185717727243
1589986677.3201602,-2.139626776292364,-2.453830964943515,8.946169035056485,0.5366666666666666,-0.17555555555555555,-0.7777777777777778,0.04388827518494457,0.18770431937119977,-2.362525143393142
1589986677.3301601,-2.125252320185615,-2.511513921113689,8.904243039443156,0.5366666666666666,-0.17555555555555555,-0.7777777777777778,0.03588732037217749,0.1937050354807751,-2.3732399866337968
1589986677.3401601,-2.1098499977409295,-2.570225003388605,8.874887498305698,0.5366666666666666,-0.17555555555555555,-0.7777777777777778,0.039310814940281845,0.19525871006686565,-2.373081913935835
1589986677.3501601,-2.0737126724963817,-2.6203591593795226,8.855928168124095,0.5366666666666666,-0.17555555555555555,-0.7777777777777778,0.04028238253096775,0.19392620620144954,-2.3694869544545214
1589986677.36016,-2.01376035619681,-2.6427520712393617,8.875367750662233,0.5483438852254723,-0.16589165054137156,-0.7777777777777778,0.03144387511695654,0.1844752671080032,-2.3646358100891556
1589986677.37016,-1.9618310808051937,-2.7128175656363562,8.904225225593075,0.5688888888888889,-0.14888888888888888,-0.7777777777777778,0.029421720751162783,0.1747019547539458,-2.349342156764582
1589986677.38016,-1.9763102536362542,-2.880587210001202,8.839412789998798,0.5688888888888889,-0.14888888888888888,-0.7777777777777778,0.03674981238807179,0.17636467909005493,-2.324601505259331
1589986677.39016,-1.9458085008085007,-2.941936166936167,8.826446831446832,0.5688888888888889,-0.14888888888888888,-0.7777777777777778,0.04143416196712279,0.1626927663381466,-2.2954607414003783
1589986677.40016,-1.9126763871220276,-2.938029161366083,8.893941677267835,0.5688888888888889,-0.14888888888888888,-0.7777777777777778,0.0390549230249514,0.15162547876700738,-2.2690342392208294
1589986677.41016,-1.9091786583350856,-2.9672142277766094,8.868035569441524,0.5436390916707556,-0.15850785925770153,-0.7753730351855747,0.04145156973486533,0.15241242894007404,-2.222556167744291
1589986677.42016,-1.8863750394722991,-2.9908748815831023,8.910874881583103,0.4988888888888889,-0.17555555555555555,-0.7711111111111111,0.04026530417618015,0.15143460921462992,-2.175566733143389
1589986677.43016,-1.8738780860825868,-3.007959362027529,8.917756172165173,0.4988888888888889,-0.17555555555555555,-0.7711111111111111,0.038401676459006225,0.14614916027887026,-2.135201992803907
1589986677.44016,-1.843313469605167,-3.0401191823689993,8.87,0.4988888888888889,-0.17555555555555555,-0.7711111111111111,0.04182276378384621,0.14071392074712194,-2.076889806754518
1589986677.45016,-1.8238598974552547,-3.1150879179642037,8.873070051272371,0.4988888888888889,-0.17555555555555555,-0.7711111111111111,0.04703967990461747,0.13813364060524033,-2.0384184058870787
1589986677.46016,-1.7249332328686844,-3.0526669178282893,8.947867219222235,0.4974814535746345,-0.1513476681503807,-0.7454957883916818,0.049640083767798555,0.13281957251525822,-1.9668257551925445
1589986677.47016,-1.7040728017648912,-3.0939514654900724,8.972703750393949,0.4933333333333334,-0.08,-0.67,0.051053527767706254,0.1328923079236616,-1.9075643579106527
1589986677.48016,-1.6680976337770501,-3.1417396432611993,8.886795850083047,0.4933333333333334,-0.08,-0.67,0.03156857930139684,0.11114597545892921,-1.8404090332872176
1589986677.49016,-1.5909941330670327,-3.118350018724254,9.013061790038696,0.4933333333333334,-0.08,-0.67,0.020283352289915815,0.09961691108345272,-1.7757836515688594
1589986677.50016,-1.5780267048164043,-3.0987677634716264,8.994571292322366,0.4933333333333334,-0.08,-0.67,0.04597656678340141,0.11767530835597056,-1.704119256801854
1589986677.51016,-1.6218797549316637,-3.086549518615768,9.027019457348683,0.49581334111328057,-0.0443498881632592,-0.6594599669352245,0.0730039217243124,0.17660236772210078,-1.624178220187839
1589986677.52016,-1.233810171764381,-2.5969050858821907,7.8919071565205385,0.5022222222222222,0.04777777777777778,-0.6322222222222222,0.12183544488071413,0.12393972928732017,-1.5465643047362072
1589986677.53016,-1.1848564438570344,-2.817124940243525,8.239058800371193,0.5022222222222222,0.04777777777777778,-0.6322222222222222,-0.013935216773655626,-0.07597649743677432,-1.5291060141680943
1589986677.54016,-1.4694858539336404,-3.2910493467431152,10.232917191465363,0.5022222222222222,0.04777777777777778,-0.6322222222222222,-0.14878566861729364,0.03174054071555614,-1.454930186110169
1589986677.55016,-1.1184651453579242,-2.7579574346149838,8.543884026258205,0.5022222222222222,0.04777777777777778,-0.6322222222222222,0.07246878096802488,0.08608936104886376,-1.3546469626254194
1589986677.56016,-1.096993070328791,-2.691584556732734,7.910363965709712,0.5071106711319867,0.06268754695255949,-0.6275781957579459,0.09174092056330457,0.12557868581316753,-1.263772023442709
1589986677.57016,-1.3806122529178293,-3.3192950053051438,9.374378512201831,0.5244444444444445,0.11555555555555555,-0.6111111111111112,0.011224021610993812,0.03940348103576069,-1.2197127373724874
1589986677.58016,-1.4712659645537784,-3.4841199355523242,9.753475851770345,0.5244444444444445,0.11555555555555555,-0.6111111111111112,0.013920963225540643,0.0591810528757708,-1.1558851191615456
1589986677.59016,-1.30658882487301,-3.31976647461903,8.951768145092558,0.5244444444444445,0.11555555555555555,-0.6111111111111112,0.06052245872898552,0.07072477408845715,-1.0534350296787627
1589986677.60016,-1.2636920874100843,-3.191076262230253,8.701537176558825,0.5244444444444445,0.11555555555555555,-0.6111111111111112,0.016848915815305773,0.03874950159808447,-1.0175603337139545
1589986677.6101599,-1.3351882362632836,-3.388678639097125,9.139526320125217,0.5338784999679637,0.1312789814280876,-0.6160901959707463,0.045238609990796465,0.04876837629250672,-0.9222252227508699
1589986677.6201599,-1.2077519351406873,-3.216627902711031,8.56100774056275,0.5644444444444444,0.18222222222222226,-0.6322222222222222,0.041677347176255146,0.04778346246327179,-0.8552045705584701
1589986677.6301599,-1.29,-3.3732943935195054,8.82341121296099,0.5644444444444444,0.18222222222222226,-0.6322222222222222,0.028802839187326745,0.03889780255952263,-0.7664382873011425
1589986677.6401598,-1.2735677677180466,-3.4002813212616556,8.831879840148112,0.5644444444444444,0.18222222222222226,-0.6322222222222222,0.03827113955497144,0.04586092394864889,-0.6973630876018195
1589986677.6501598,-1.233079365079365,-3.350772486772487,8.938497354497354,0.5644444444444444,0.18222222222222226,-0.6322222222222222,0.02408254244997202,0.03750841846184111,-0.6348692870043792
1589986677.6601598,-1.2095170844611824,-3.323863324310541,8.599034168922364,0.5632639842384458,0.18334902514613005,-0.6322222222222222,0.02072578486743266,0.03137070312485316,-0.5765818444289889
1589986677.6701598,-1.2258000708672905,-3.455285866144194,8.81588636221523,0.54,0.20555555555555555,-0.6322222222222222,0.0211278350316131,0.022561487302291006,-0.4731212785815138
1589986677.6801598,-1.2523401889938854,-3.5117370761534183,9.064005002779322,0.54,0.20555555555555555,-0.6322222222222222,0.02117448680131114,0.014757139615901887,-0.3971084877300272
1589986677.6901598,-1.2370651570383604,-3.4572145909277454,8.801643772783235,0.54,0.20555555555555555,-0.6322222222222222,0.017420691102645405,0.01127735165534636,-0.30828129302162444
1589986677.7001598,-1.2627127649587895,-3.5163563824793944,8.949053188892853,0.54,0.20555555555555555,-0.6322222222222222,0.01487591474708758,0.010510850809852592,-0.2302529089115984
1589986677.7101598,-1.1914194859111384,-3.4835487147778466,8.772775373200247,0.5429178321506738,0.20736934310867708,-0.6328531048493949,0.01893816556770071,0.006003038070462234,-0.16700921833563454
1589986677.7201598,-1.2099439095486264,-3.529859773871566,8.939495185937638,0.5809958140721766,0.23103943997880044,-0.6410861820216117,0.009845010378401181,-0.0010694159656596189,-0.09729502855100483
1589986677.7301598,-1.127236392621271,-3.517105442951492,8.943687087223868,0.5811111111111111,0.2311111111111111,-0.6411111111111111,0.007320068284454697,-0.006688573898413705,-0.016090312996334365
1589986677.7401597,-1.1724325073451964,-3.5056758504721253,8.694325073451965,0.5811111111111111,0.2311111111111111,-0.6411111111111111,0.004569669282219248,-0.002771351579996216,0.041510669756194656
1589986677.7501597,-1.1956837962193025,-3.559928857845039,8.926837962193026,0.5811111111111111,0.2311111111111111,-0.6411111111111111,-0.0038847379299781866,-0.01883472528317134,0.08378270581718184
1589986677.7601597,-1.1818017693374894,-3.47,8.758107962018702,0.5872171071992697,0.23381376511734522,-0.6418117991868014,0.001090830782496456,-0.015468173500579553,0.1439601229449241
1589986677.7701597,-1.196916091601953,-3.47,8.82612241220879,0.6384378659843967,0.2564852485140408,-0.6476895911785373,0.001090830782496456,-0.017116890298844407,0.17116395011629423
1589986677.7801597,-1.2537525637552727,-3.562190704694091,8.901561859061182,0.6488888888888888,0.2611111111111111,-0.6488888888888888,-0.007534039500670929,-0.024918735603232666,0.20933549696397916
1589986677.7901597,-1.221290197747765,-3.5216127471847063,8.90967745056306,0.6488888888888888,0.2611111111111111,-0.6488888888888888,-0.001337123580781181,-0.024033461900391278,0.231467339535014
1589986677.8001597,-1.1625964617667732,-3.387403538233227,8.70557877060064,0.6488888888888888,0.2611111111111111,-0.6488888888888888,-0.009817477042468105,-0.0256555680815728,0.2590205724227981
1589986677.8101597,-1.1775757005830354,-3.3875757005830356,8.779040185568302,0.6897134975863581,0.2705105914641367,-0.6643208715580353,-0.010368397535464874,-0.027546229808909785,0.2796989012993315
1589986677.8201597,-1.2351637885155347,-3.452909471288837,8.985163788515536,0.9722222222222222,0.33555555555555555,-0.7711111111111111,-0.01333587725239689,-0.02973407210075666,0.3158533351130444
1589986677.8301597,-1.249149090909091,-3.4878727272727277,8.99064,0.9722222222222222,0.33555555555555555,-0.7711111111111111,-0.011093947390858502,-0.030543261909900768,0.3480674427335773
1589986677.8401597,-1.2412923609925097,-3.4795232634737845,8.795056481323346,0.9722222222222222,0.33555555555555555,-0.7711111111111111,-0.016092834620129847,-0.0309538637424905,0.41115151953880513
1589986677.8501596,-1.29,-3.651854783501626,8.856290432996747,0.9722222222222222,0.33555555555555555,-0.7711111111111111,-0.019432628591092203,-0.03434352742564574,0.47505643239682577
1589986677.8601596,-1.295553892215569,-3.6671407185628744,8.846347305389221,1.0072205588822356,0.2883915502328676,-0.8216250831669993,-0.018371027399828037,-0.04136502178355947,0.5360290209820758
1589986677.8701596,-1.3557624477073251,-3.7445517184808463,8.915157083094085,1.3866300276160006,-0.22290332576855426,-1.3692362307348773,-0.01649453180839793,-0.04042677398784442,0.5998298710906995
1589986677.8801596,-1.3774807081252836,-3.744121652292329,8.879922832501135,1.413333333333333,-0.2588888888888889,-1.4077777777777778,-0.016087649624743464,-0.05045302810754034,0.6744419063687813
1589986677.8901596,-1.3517222433770333,-3.6794259188743226,8.774305608442582,1.413333333333333,-0.2588888888888889,-1.4077777777777778,-0.01318390319448839,-0.05370119848774211,0.7266236098190452
1589986677.9001596,-1.3973546211173367,-3.6642151262942213,8.888386552793342,1.413333333333333,-0.2588888888888889,-1.4077777777777778,-0.015672763310369847,-0.06033815879675934,0.7589787913255042
1589986677.9101596,-1.3570789407630524,-3.465409764056225,8.871669176706826,1.382453564257028,-0.2484565344712182,-1.3792626757028112,-0.015271630954950384,-0.05804163013896633,0.7925349046257277
1589986677.9201596,-1.308656139417865,-3.383320174272331,8.91,0.6733333333333333,-0.008888888888888889,-0.7244444444444444,-0.016034781873433605,-0.06403133630327768,0.8094309355783083
1589986677.9301596,-1.3748112749068526,-3.462405637453426,8.901179329337438,0.6733333333333333,-0.008888888888888889,-0.7244444444444444,-0.0189814805333937,-0.06636573483990223,0.821091991453052
1589986677.9401596,-1.4201085371780333,-3.4850542685890167,8.81813434850694,0.6733333333333333,-0.008888888888888889,-0.7244444444444444,-0.023099117870745325,-0.06471867990496158,0.8285037386602849
1589986677.9501595,-1.4817064733981222,-3.4134129467962446,8.865119420194366,0.6733333333333333,-0.008888888888888889,-0.7244444444444444,-0.023905203529312878,-0.06763150851478028,0.8416820491040315
1589986677.9601595,-1.4989783396475045,-3.447956679295009,8.916935018942514,0.6733333333333333,-0.008888888888888889,-0.7244444444444444,-0.02296316936051349,-0.06763150851478028,0.8482762882856273
1589986677.9701595,-1.498197801848734,-3.3818021981512656,8.916395603697469,0.5755555555555556,0.15777777777777774,-0.7177777777777777,-0.02092237418938856,-0.06575432044446021,0.8544057971659198
1589986677.9801595,-1.4915361646707537,-3.3884638353292464,8.903072329341509,0.5755555555555556,0.15777777777777774,-0.7177777777777777,-0.021649046078944943,-0.0628476328862347,0.8594925003928146
1589986677.9901595,-1.5550853615658085,-3.3424573192170954,8.807371957651288,0.5755555555555556,0.15777777777777774,-0.7177777777777777,-0.023730225270479216,-0.0684542873528339,0.8667897711632931
1589986678.0001595,-1.5223135523694182,-3.3588432238152905,8.856529671445871,0.5755555555555556,0.15777777777777774,-0.7177777777777777,-0.02194280035700307,-0.06666686243935777,0.8712583334469834
1589986678.0101595,-1.590389696717906,-3.3511690901537183,8.951558786871624,0.5759669020911231,0.15816747449568386,-0.7179076766837464,-0.02502534402105901,-0.07188855835083362,0.8869516994635511
1589986678.0201595,-1.6078151225592023,-3.403445367677607,9.02126049023681,0.5943604071458247,0.1755929003369801,-0.7237161519641786,-0.022174115385189746,-0.06713651062438485,0.8917037471899999
1589986678.0301595,-1.575704069050555,-3.391901356350185,8.85619728729963,0.5966666666666667,0.17777777777777778,-0.7244444444444444,-0.024466890586835426,-0.06898354686566244,0.8954184683909207
1589986678.0401595,-1.5991012433392542,-3.403595026642984,8.841797513321492,0.5966666666666667,0.17777777777777778,-0.7244444444444444,-0.021914654793080666,-0.06554788609293889,0.8891375270855926
1589986678.0501595,-1.5926230596957296,-3.4295077612170823,8.854753880608541,0.5966666666666667,0.17777777777777778,-0.7244444444444444,-0.022621315006382835,-0.06625454630624107,0.8820709249525709
1589986678.0601594,-1.5430597660510776,-3.505716327528491,8.925716327528491,0.5966666666666667,0.17777777777777778,-0.7244444444444444,-0.018811138262099996,-0.06346844660453964,0.8515595305424458
1589986678.0701594,-1.5307900650267465,-3.4637381430588423,8.899422117048145,0.57,0.09777777777777777,-0.7322222222222222,-0.0128545666884312,-0.05469075910121417,0.7909089553908082
1589986678.0801594,-1.570662755668305,-3.542046931980339,8.96072142064373,0.57,0.09777777777777777,-0.7322222222222222,-0.011926843179034897,-0.05105216049205508,0.7343779996859167
1589986678.0901594,-4.2680532724146865,-5.271324274039707,7.289077741927887,0.57,0.09777777777777777,-0.7322222222222222,-0.021435065079249263,-0.03203663214108983,0.6444043862747894
1589986678.1001594,-14.989736376722188,-13.521503598601686,-1.2303224347110837,0.57,0.09777777777777777,-0.7322222222222222,-0.27145944245972237,0.33039474389552714,0.0536713643655099
1589986678.1101594,11.592275961340736,-1.550110631297553,-2.3343125642607445,0.57,0.09777777777777777,-0.7322222222222222,-1.59991583358601,2.2299368499040075,-3.392600420829669
1589986678.1201594,1.584413210986688,0.1599852938923697,-1.4796534873389606,0.5166666666666667,0.13444444444444445,-0.6311111111111111,-0.4500851961582424,-1.9501488693670792,-6.445324162864015
1589986678.1301594,0.5435323764150799,-1.0158245377533357,0.010990670812971892,0.5166666666666667,0.13444444444444445,-0.6311111111111111,-0.5510118499592478,-1.4532252753051844,-6.324072002394751
1589986678.1401594,-0.8197204493711044,-1.0971294741163735,-0.06383570335535402,0.5166666666666667,0.13444444444444445,-0.6311111111111111,-0.47684637814536324,-0.7341050957877454,-5.9451487237463105
1589986678.1501594,-0.03699735005411864,-0.6196683835330123,0.1161906094875527,0.5166666666666667,0.13444444444444445,-0.6311111111111111,-0.4785540150471753,-0.6973909023987875,-5.703518102139913
1589986678.1601593,-0.11262456672443676,-0.4108416377816291,-0.0955296793760832,0.5157626853456577,0.13868380512228,-0.6313604852686308,-0.4861783880348408,-0.5638573082435989,-5.398395113963903
1589986678.1701593,-0.5215142980935876,-0.43810095320623915,-0.9223955805892547,0.48648416137107653,0.27598998652031587,-0.6394373194685153,0.9024601394750952,1.0646459756242275,-5.1823185979059705
1589986678.1801593,0.608874739039666,-0.4108246346555323,5.563909185803758,0.4844444444444445,0.2855555555555556,-0.64,2.1089070232248868,2.8174807529275085,-4.840018800841575
1589986678.1901593,0.15646242171189972,3.0187526096033404,19.391672755741126,0.4844444444444445,0.2855555555555556,-0.64,1.1951262750382887,3.7463850500823517,-4.423723216084093
1589986678.2001593,-0.8051913536498937,0.2886830262225372,-0.028728029766123264,0.4844444444444445,0.2855555555555556,-0.64,0.2905151022758238,1.4445585622547474,-3.485504927686548
1589986678.2101593,-0.6565627214741319,0.34070304748405383,1.8960127569099932,0.4844444444444445,0.2855555555555556,-0.64,0.2272849142921347,0.5771700860682436,-3.2520396182083124
1589986678.2201593,2.3020651745217906,-1.3410959376848748,23.99474339380793,0.4122222222222222,0.3466666666666667,-0.6044444444444445,-0.21956196171323794,-0.9637243122827117,-2.838739652464301
1589986678.2301593,0.4060882256014312,-1.2805475260110164,5.330547996798645,0.4122222222222222,0.3466666666666667,-0.6044444444444445,0.051496241136439136,-1.178194716817145,-2.433244396327213
1589986678.2401593,1.6316509401941484,-2.7731484624261764,12.777514764781753,0.4122222222222222,0.3466666666666667,-0.6044444444444445,0.043276014023722,0.3838769109183927,-1.979382098879663
1589986678.2501593,0.7366733934002218,-1.8119817809737657,10.784337606230281,0.4122222222222222,0.3466666666666667,-0.6044444444444445,0.07818465996838658,1.307115276823968,-1.6704490654993214
1589986678.2601593,0.15252565159309894,-1.0311312281499587,6.278055026575335,0.4122222222222222,0.3466666666666667,-0.6044444444444445,-0.011544395831493207,1.0314260039315837,-1.5605634826719323
1589986678.2701592,0.39057241406038057,-2.5219625624927335,10.626071387048018,0.3806748569287809,0.4032901428343819,-0.6206225804923631,-0.06585137819701255,-0.06105498641082796,-1.4403316462174895
1589986678.2801592,0.2848215675141421,-2.334499610960402,8.438250583559398,0.3688888888888889,0.4244444444444445,-0.6266666666666667,-0.09586109340002696,-0.07352318299409441,-1.1938292441240923
1589986678.2901592,0.24072024898534267,-2.4579833028410407,8.25302504573844,0.3688888888888889,0.4244444444444445,-0.6266666666666667,0.04461156793566862,0.3036362912770883,-0.9840823936365468
1589986678.3001592,0.27681314516308836,-2.2986975230196416,8.02287405524714,0.3688888888888889,0.4244444444444445,-0.6266666666666667,0.001883691334525684,-0.03995481166566234,-0.8176092025293962
1589986678.3101592,0.2113546474037411,-3.0935507100974293,9.930521704233831,0.3688888888888889,0.4244444444444445,-0.6266666666666667,-0.00423666389392042,0.08041217449377772,-0.5829955854389621
1589986678.3201592,0.13099903154136838,-2.0361396479368032,6.779679838970015,0.34444444444444444,0.44,-0.62,0.06708450848680161,0.008617668824170697,-0.33347787209558777
1589986678.3301592,0.06728128975902471,-2.9998704923947512,10.387696967395227,0.34444444444444444,0.44,-0.62,-0.037173402704210004,0.015568196236904804,-0.15363297529109277
1589986678.3401592,0.12912771104265303,-2.994787148262245,9.432807492711973,0.34444444444444444,0.44,-0.62,0.00202155637498852,0.003794689215972485,0.046218865841799794
1589986678.3501592,0.08938933643567398,-2.9214507100994362,8.950917531883135,0.34444444444444444,0.44,-0.62,-0.059879203984978424,-0.029885416026319594,0.33110433996820665
1589986678.3601592,0.07097592027569859,-2.66366288385978,7.772458897644709,0.34444444444444444,0.44,-0.62,0.00941722401087667,-0.04294126477916185,0.5460236963611487
1589986678.3701591,0.05,-3.45,10.65,0.3388888888888889,0.4755555555555556,-0.6133333333333333,-0.030543261909900768,-0.0567232006898157,0.7788531787024696
1589986678.3801591,0.04760655288856439,-3.430852423108515,10.514770238203889,0.3388888888888889,0.4755555555555556,-0.6133333333333333,-0.03445953058804756,-0.061161638525048724,0.8272843680222182
1589986678.3901591,0.029138461538461537,-3.2676,9.417476923076922,0.3388888888888889,0.4755555555555556,-0.6133333333333333,-0.05913309761853096,-0.09315359242278966,1.1999977708062934
1589986678.4001591,0.01571239073500901,-3.06322897180368,8.46291588721472,0.3388888888888889,0.4755555555555556,-0.6133333333333333,-0.0205333191457157,-0.08956649754015768,1.3923365257941365
1589986678.410159,-0.01281929186082106,-3.284349511921363,9.347398047685452,0.3388888888888889,0.4755555555555556,-0.6133333333333333,-0.05554696150415926,-0.1121308448378213,1.5113829098128444
1589986678.420159,-0.0273751116123878,-3.295749330325673,9.142243526481508,0.35118074157620194,0.47719446924719733,-0.646111607166168,-0.024938522188706458,-0.10815572598424962,1.6571918779719037
1589986678.430159,-0.06056972393568611,-3.4623385579937302,9.540493679846293,0.3555555555555556,0.4777777777777778,-0.6577777777777778,-0.044599767601040397,-0.12896662129721037,1.839494058306989
1589986678.440159,-0.06905248255637578,-3.199373040752351,8.505597128122156,0.3555555555555556,0.4777777777777778,-0.6577777777777778,-0.042749116756253314,-0.13266792298678456,1.9422051801926723
1589986678.450159,-8.551760546595695,-23.445372805275284,8.138886549614682,0.3555555555555556,0.4777777777777778,-0.6577777777777778,-0.21899255592998879,-0.14564751028734432,1.6293148007885023
1589986678.460159,-0.8875911654882032,0.038641852705168844,4.090205767855724,0.3555555555555556,0.4777777777777778,-0.6577777777777778,-0.9468849274980615,0.02064999782371349,-0.6734058852957627
1589986678.470159,0.588588993821165,-0.1081969787770456,8.962256204666156,0.39113786080515434,0.45434552797926153,-0.674267138747104,-0.7427812615113165,-0.12820375874089962,-0.8345686159453161
1589986678.480159,0.07453650453260552,-0.6859040842187347,7.898626571790623,0.4011111111111111,0.4477777777777778,-0.6788888888888889,0.7018380160902046,0.02899627906025256,-0.6072893887764971
1589986678.490159,-0.08899990252461254,0.09770786626376837,0.798420898723073,0.4011111111111111,0.4477777777777778,-0.6788888888888889,1.4562813705903601,0.3010418630475008,-0.5002550606503666
1589986678.500159,0.49631633714880335,-0.6709565356599696,3.4595877691507244,0.4011111111111111,0.4477777777777778,-0.6788888888888889,0.818138279744843,-0.19870504729452393,-0.22868032279282302
1589986678.510159,0.16897762747138395,-1.644579364444089,7.866070399423677,0.4011111111111111,0.4477777777777778,-0.6788888888888889,-0.34371627845786645,-0.11721958182561838,0.00021143414230492819
1589986678.520159,-0.08,-2.65,10.39,0.4011111111111111,0.4666666666666667,-0.6711111111111111,-1.076649982324002,0.186532063806894,0.2945243112740431
1589986678.530159,-0.10691823005495546,-2.246226549175668,8.340369054386962,0.4011111111111111,0.4666666666666667,-0.6711111111111111,-0.44701835139036916,0.15758830462340254,0.4451157539823537
1589986678.540159,-0.1335551966778175,-1.7014096204867921,5.258708040143038,0.4011111111111111,0.4666666666666667,-0.6711111111111111,0.5219697647192818,0.10483677814742787,0.6940553986638094
1589986678.550159,0.0814186682882335,-3.08985264011351,7.960317827100436,0.4011111111111111,0.4666666666666667,-0.6711111111111111,-0.019548589738398636,0.010172685241937155,0.792885218167421
1589986678.560159,-0.14812648221343877,-3.353404479578393,7.9688194993412385,0.4011111111111111,0.4666666666666667,-0.6711111111111111,-0.425744787032186,-0.18457891620028963,0.5554737421235635
1589986678.570159,0.16361232083210014,-0.343304088622046,11.566475624709314,0.40705008949586347,0.4463044550618015,-0.6770500894958634,-0.23559703374037552,-0.13082601404776978,-0.038060520855880076
1589986678.580159,-0.2203944693783082,-1.0207551270956186,5.510755127095618,0.4088888888888889,0.44,-0.6788888888888889,0.626750682380728,0.27030842553544077,-0.1809561966523532
1589986678.590159,-0.5158449896351158,-1.5863318373015074,6.076331837301507,0.4088888888888889,0.44,-0.6788888888888889,0.26947305205536,0.10732352716536314,-0.08979515180129283
1589986678.600159,2.0381224027200604,-7.503524744994333,9.7437703060068,0.4088888888888889,0.44,-0.6788888888888889,-0.43668713177596413,-0.0984644772777581,0.15060676562219014
1589986678.610159,0.33570527604857636,-4.306102459434636,10.237614450454128,0.4088888888888889,0.44,-0.6788888888888889,-0.22562408162158426,-0.17741508291525118,0.20000372934819585
1589986678.620159,-1.1421120971753187,-3.240782481216786,7.601142176496767,0.41495100220773673,0.44,-0.6849510022077367,0.20507493062213686,0.10568599377398452,-0.07335403666988413
1589986678.630159,0.2966748681066502,-4.673847973692304,9.141568998556862,0.4155555555555556,0.44,-0.6855555555555556,-0.012846791210595176,0.0041840169652602455,-0.01406126272930354
1589986678.640159,0.09426721458664272,-4.457679570412321,8.753462601008358,0.4155555555555556,0.44,-0.6855555555555556,-0.05901849203087743,-0.048249674032129604,0.005324853661742617
1589986678.650159,0.04843160290770246,-4.098996255231661,8.92415302151406,0.4155555555555556,0.44,-0.6855555555555556,0.012795695779935307,0.002339050689569286,0.0038021688262799584
1589986678.6601589,0.017355638586956518,-4.459357804008152,9.116135996942935,0.4155555555555556,0.44,-0.6855555555555556,0.0017377936640055325,0.0014605238576444989,-0.0003808783517263762
1589986678.6701589,0.059913013620235774,-4.359982602724047,8.839652054480943,0.3944444444444444,0.44,-0.6844444444444444,-0.00765099746478795,-0.004369016375228108,0.0
1589986678.6801589,0.011906833009042009,-4.350381366601808,8.64762733203617,0.3944444444444444,0.44,-0.6844444444444444,-0.0160296565945119,-0.00751101354887459,0.0
1589986678.6901588,0.06686432302696597,-4.283658289801873,8.84850251776554,0.3944444444444444,0.44,-0.6844444444444444,-0.003956590940719535,-0.00246670264550548,0.0010338225663939424
1589986678.7001588,-0.03351868085005569,-4.298821578336374,8.76589210831813,0.3944444444444444,0.44,-0.6844444444444444,0.001860296908631866,-0.00012854586254441858,6.427293127220929e-05
1589986678.7101588,0.0033415719228867963,-4.3,8.933366287691547,0.3944444444444444,0.44,-0.6844444444444444,0.010061381700871085,0.0007879720135878172,0.0023639160407634523
1589986678.7201588,0.007810174120860363,-4.342664390576989,8.872006828269033,0.391058381700239,0.44474048784188763,-0.6797039566025568,0.007771154469062495,0.0024205345127202003,0.0019427886172656238
1589986678.7301588,0.016834884194797256,-4.302660463220811,8.874174420973986,0.3888888888888889,0.4477777777777778,-0.6766666666666666,-0.0029822808297933403,-0.0031549111173174004,0.00017263028752406045
1589986678.7401588,0.00529241207913371,-4.297353793960433,8.742924120791336,0.3888888888888889,0.4477777777777778,-0.6766666666666666,-0.001956799683932724,-0.001956799683932724,-0.0008021744820177
1589986678.7501588,0.0,-4.282455180048587,8.830358559611303,0.3888888888888889,0.4477777777777778,-0.6766666666666666,0.008478384055683194,-0.0001339092986784911,-0.001090830782496456
1589986678.7601588,0.0,-4.308730080623794,8.828452439532155,0.3888888888888889,0.4477777777777778,-0.6766666666666666,0.005116528593262267,-0.0007834914082009728,-0.0003073393742954832
1589986678.7701588,0.0,-4.3733348352576735,8.827619262179669,0.4041274132482243,0.4528572858975562,-0.66566106574048,-0.0017143030878061741,-0.001090830782496456,0.000831132572549257
1589986678.7801588,0.007653404026784286,-4.351732979866078,8.807039787919647,0.4088888888888889,0.4544444444444444,-0.6622222222222223,-0.01245591792111786,-0.002760544523156182,-0.001413739828493133
1589986678.7901587,0.004200098877556626,-4.3747994067346605,8.73040118653068,0.4088888888888889,0.4544444444444444,-0.6622222222222223,-0.010842933479092497,-0.004537834483448764,-0.000283648361053818
1589986678.8001587,-0.007615097968505831,-4.34669431422046,8.71807548984253,0.4088888888888889,0.4544444444444444,-0.6622222222222223,-0.00015971052928004468,-0.0021314406021733247,-0.0005705258726580215
1589986678.8101587,-0.004054415700267619,-4.318108831400535,8.80729259589652,0.4088888888888889,0.4544444444444444,-0.6622222222222223,0.0067216000268459156,-0.00044226814508888427,0.00020629449231868743
1589986678.8201587,-0.012229836584080127,-4.29777016341592,8.89668950975224,0.4129655010835823,0.4537650090786622,-0.6758109295378668,0.007816374710845718,-0.0006670341105407954,0.00042379667195566054
1589986678.8301587,-0.0031769287328776465,-4.348880749434929,8.886353857465757,0.4155555555555556,0.4533333333333333,-0.6844444444444444,0.002874759896116991,-0.0001732745827810198,0.0009175561997154362
1589986678.8401587,0.008924643483848645,-4.36,8.728281060774574,0.4155555555555556,0.4533333333333333,-0.6844444444444444,-0.0017124487690024933,-0.0009735275834988513,0.0030378859494941592
1589986678.8501587,0.01,-4.36,8.78706086005831,0.4155555555555556,0.4533333333333333,-0.6844444444444444,0.00155435435844065,0.002645185140937106,0.001404484385772587
1589986678.8601587,0.002872374474894979,-4.324361872374475,8.82851050210042,0.4155555555555556,0.4533333333333333,-0.6844444444444444,0.0037366682307713164,0.0017174856817109632,0.0018683341153856582
1589986678.8701587,0.011027645071661303,-4.31,8.856541467607492,0.41187967386500185,0.4502700985912052,-0.680155915805465,0.0037618583948551497,-0.001315028158026241,0.0009787320947315635
1589986678.8801587,0.005264112446157333,-4.3173679437769215,8.855264112446157,0.4088888888888889,0.4477777777777778,-0.6766666666666666,-0.003960969540522724,-0.0024687743599324688,0.0016074359751137982
1589986678.8901587,0.0,-4.364755419880817,8.74130826600373,0.4088888888888889,0.4477777777777778,-0.6766666666666666,-0.008637295681673717,-0.002181661564992912,0.0014842245694279184
1589986678.9001586,0.0,-4.36805446702012,8.731206243619718,0.4088888888888889,0.4477777777777778,-0.6766666666666666,-0.007423590751193733,-0.002979623662084369,0.000292868685404999
1589986678.9101586,0.0,-4.353423255089727,8.79603721437191,0.4088888888888889,0.4477777777777778,-0.6766666666666666,0.0020639542611243225,-0.00040284602878834855,-0.0007174115796752549
1589986678.9201586,0.015825725332207025,-4.302522824003379,8.891215763994932,0.4238354072581955,0.4574490543696821,-0.6828211154069693,0.007408144112364005,-0.0006354880522740814,0.0023618068870446185
1589986678.9301586,0.005317570220945374,-4.3120236446685825,8.88063514044189,0.42777777777777776,0.46,-0.6844444444444444,0.0060342108409916495,-0.0002900284642546847,0.0008700853927640544
1589986678.9401586,0.007658817951959544,-4.335317635903919,8.785753002528445,0.42777777777777776,0.46,-0.6844444444444444,0.0021123641606687056,0.0008354474379533935,-0.0008354474379533935
1589986678.9501586,0.002662819089900111,-4.3326628190899,8.782011542730299,0.42777777777777776,0.46,-0.6844444444444444,-0.0005098937762000083,-0.0005098937762000083,-0.0002904685031482238
1589986678.9601586,0.0,-4.339291797887029,8.813229494717572,0.42777777777777776,0.46,-0.6844444444444444,0.00042953609148955216,-0.002611197656482464,0.000506788957995336
1589986678.9701586,-0.0029765671940717004,-4.3380937312237124,8.860835970358503,0.42215537307786455,0.45636197342946794,-0.6821293366268331,0.0028310477892854145,-0.004038630017839572,0.001090830782496456
1589986678.9801586,-0.000525376031052887,-4.324211935953421,8.89578806404658,0.4088888888888889,0.4477777777777778,-0.6766666666666666,0.0007459991127186337,-0.002755731773594055,-0.0004594509391894826
1589986678.9901586,0.004106915739268681,-4.345893084260731,8.79160373608903,0.4088888888888889,0.4477777777777778,-0.6766666666666666,-0.005200999662124696,-0.0008959900219026931,-0.0015388257934478024
1589986679.0001585,0.0,-4.360988285187889,8.751976570375778,0.4088888888888889,0.4477777777777778,-0.6766666666666666,-0.005346348721998829,0.00179795395946986,0.0007071231769734041
1589986679.0101585,0.004241533614001642,-4.37,8.774241533614001,0.4088888888888889,0.4477777777777778,-0.6766666666666666,-0.0039006435868711806,0.0023471332612600817,0.00033094339253433944
1589986679.0201585,-0.0032322107194338867,-4.3435355785611325,8.828518105971257,0.41182938015987425,0.4477777777777778,-0.6702956022461986,0.0010577384844820499,-0.0008337162539352853,-0.00025711452856117065
1589986679.0301585,-0.007159291687934352,-4.322840708312065,8.86431858337587,0.4155555555555556,0.4477777777777778,-0.6622222222222223,0.007245336689771701,-0.0011714363631104702,0.0007809575754069802
1589986679.0401585,0.0,-4.3179652441707,8.795843598768148,0.4155555555555556,0.4477777777777778,-0.6622222222222223,0.006323027265632228,-0.0006563941059214817,-0.0006563941059214817
1589986679.0501585,0.0,-4.316754986802098,8.780264960406294,0.4155555555555556,0.4477777777777778,-0.6622222222222223,0.001033025389030608,-0.003301395044222292,-0.000353976028587844
1589986679.0601585,0.006197911658942754,-4.332395823317886,8.81479164663577,0.4155555555555556,0.4477777777777778,-0.6622222222222223,-0.0024430053474501423,-0.003687235847508981,0.0020282618474305298
1589986679.0701585,-0.0037061078140454996,-4.326293892185955,8.864265269535114,0.4193628077261238,0.45158502994834593,-0.6721210778656995,0.00046526873045464297,-0.0017773879163117637,0.0017773879163117637
1589986679.0801585,-0.01,-4.312352034673729,8.88,0.4211111111111111,0.4533333333333333,-0.6766666666666666,0.002181661564992912,0.0005776964177757538,0.0019250943826325609
1589986679.0901585,-0.0025299498514115898,-4.3174700501485885,8.805299498514115,0.4211111111111111,0.4533333333333333,-0.6766666666666666,0.0013668055001056657,0.0002759747176092097,0.0013668055001056657
1589986679.1001585,0.014185972127027645,-4.348371944254056,8.794185972127028,0.4211111111111111,0.4533333333333333,-0.6766666666666666,-0.005098967247822935,-0.0007737247537899239,-0.00045661872508339176
