time,acc_x,acc_y,acc_z,mag_x,mag_y,mag_z,gyr_x,gyr_y,gyr_z
1589986685.8859684,-3.78,-0.75,9.05,0.3088888888888889,-0.3322222222222222,-0.6177777777777778,-0.002181661564992912,0.003272492347489368,0.0
1589986685.8959684,-3.7515250322668297,-0.7430500645336594,9.077625161334149,0.3078722007110024,-0.33323891040010867,-0.6211667383707327,0.002939781919297731,-0.002181661564992912,0.00033271042819163694
1589986685.9059684,-3.76,-0.7584327814224722,9.121567218577527,0.3022222222222222,-0.3388888888888889,-0.64,0.0007489167290429173,-0.001326876431359065,0.0020107045382661425
1589986685.9159684,-3.763019813838888,-0.7590594415166655,9.08772260625556,0.3022222222222222,-0.3388888888888889,-0.64,-0.0024084731396438073,0.004260724115349881,0.0007614201932096181
1589986685.9259684,-3.77,-0.7795299705207992,8.993760235833607,0.3022222222222222,-0.3388888888888889,-0.64,-0.005351609387563681,0.006237351120222938,0.00030763357475579713
1589986685.9359684,-3.77,-0.77,9.080245709685682,0.3022222222222222,-0.3388888888888889,-0.64,-0.0025274033132451092,-0.0003725445171221293,0.006544984694978735
1589986685.9459684,-3.77,-0.7681955434288313,9.103608913142336,0.30342519326966805,-0.34109433580920623,-0.6335841544136224,-0.0005003237504438042,-0.00128766645984734,0.007332327404382271
1589986685.9559684,-3.77,-0.7568349996815895,9.107339998726358,0.3088888888888889,-0.3511111111111111,-0.6044444444444445,0.002181661564992912,-0.002181661564992912,0.012289299734537861
1589986685.9659684,-3.775321972800262,-0.7526609864001311,9.061373095199082,0.3088888888888889,-0.3511111111111111,-0.6044444444444445,0.003052467328113137,-0.0024719301526996535,0.01585216813036387
1589986685.9759684,-3.786158807035432,-0.756158807035432,9.021523578893703,0.3088888888888889,-0.3511111111111111,-0.6044444444444445,0.005873163065208232,-0.00369150150021532,0.019129329130847104
1589986685.9859684,-3.7673489947210403,-0.7525302010557919,9.045060402111583,0.3088888888888889,-0.3511111111111111,-0.6044444444444445,0.007372991054247592,-0.003811318890473253,0.022644622009197975
1589986685.9959683,-3.737508644118442,-0.7584982711763115,9.056996542352623,0.3088888888888889,-0.3511111111111111,-0.6044444444444445,0.009326037434115642,-0.0025092879705612206,0.024597668389066022
1589986686.0059683,-3.721129405811487,-0.76,9.072258811622973,0.3233333333333333,-0.3322222222222222,-0.6177777777777778,0.008357049072441612,-0.0025332979724292954,0.019740192367352565
1589986686.0159683,-3.729292540043985,-0.76,9.08858508008797,0.3233333333333333,-0.3322222222222222,-0.6177777777777778,0.005685669641703662,0.0028094608890466026,0.0126165138853847
1589986686.0259683,-3.772335221987315,-0.76,9.006346553911206,0.3233333333333333,-0.3322222222222222,-0.6177777777777778,-0.002691127970538064,0.004435221101391975,0.0019269283622203358
1589986686.0359683,-3.779429175475687,-0.76,9.05600422832981,0.3233333333333333,-0.3322222222222222,-0.6177777777777778,-0.004238788537480943,0.0013398999675062178,0.0011530980787488965
1589986686.0459683,-3.7957934598405756,-0.76,9.092804360106282,0.3233333333333333,-0.33487078454482266,-0.6168429910756835,-0.0009378766660395393,-0.0029464321472774955,0.0038843088133170348
1589986686.0559683,-3.769387769836113,-0.76,9.108163309508338,0.3233333333333333,-0.3511111111111111,-0.6111111111111112,0.0,-0.007635815477475192,0.0078695593055345
1589986686.0659683,-3.7393056605556607,-0.7564352201852201,9.014352201852201,0.3233333333333333,-0.3511111111111111,-0.6111111111111112,0.00038885715547838363,-0.007635815477475192,0.016438202421385533
1589986686.0759683,-3.72,-0.75,8.976685333540743,0.3233333333333333,-0.3511111111111111,-0.6111111111111112,-0.0005725511184994101,-0.005972433576479326,0.015217359500448018
1589986686.0859683,-3.7340805134916186,-0.75,9.039712718888266,0.3233333333333333,-0.3511111111111111,-0.6111111111111112,-0.003886870649489927,-0.0005077899884868529,0.0073599638344658685
1589986686.0959682,-3.766752508256995,-0.75,9.085453511559793,0.3233333333333333,-0.3511111111111111,-0.6111111111111112,-0.005312455354115366,0.005907341182327624,0.0016576250159641096
1589986686.1059682,-3.773679022240032,-0.75,9.122641955519937,0.31555555555555553,-0.3388888888888889,-0.6177777777777778,-0.005253494377036478,0.0024698542057061614,0.002094128459725464
1589986686.1159682,-3.7892221937467965,-0.7503889031266018,9.086888774987186,0.31555555555555553,-0.3388888888888889,-0.6177777777777778,-0.004320900379795194,-0.0011756762828777155,0.006799521196122513
1589986686.1259682,-3.77,-0.76,9.01308936148194,0.31555555555555553,-0.3388888888888889,-0.6177777777777778,-0.0022615011666611952,-0.00293549528721331,0.015785945872165932
1589986686.1359682,-3.764382859460855,-0.76,9.03123428107829,0.31555555555555553,-0.3388888888888889,-0.6177777777777778,0.0006127349809708308,-0.0027943965459637427,0.022429350630899948
1589986686.1459682,-3.748780148903959,-0.7587801489039591,9.061219851096041,0.3160299420929048,-0.33922773641556697,-0.6169645437137504,0.0018489987835870266,-0.004296790573704647,0.023732146989797323
1589986686.1559682,-3.73138327215413,-0.7413832721541301,9.07861672784587,0.3227953941622827,-0.3440602021794083,-0.6053666258805311,-0.0028952633859155408,-0.0033479381398041335,0.019936737254195272
1589986686.1659682,-3.741690185010975,-0.7519483641684959,9.06661962997805,0.3233333333333333,-0.34444444444444444,-0.6044444444444445,-0.0030599587864385274,-0.0015722238590826416,0.012905598806148881
1589986686.1759682,-3.795611209323643,-0.7588777581352714,8.982344660512016,0.3233333333333333,-0.34444444444444444,-0.6044444444444445,-0.002793749550719006,0.00545415391248228,0.007635815477475192
1589986686.1859682,-3.8429853000402736,-0.7559706000805477,9.082985300040274,0.3233333333333333,-0.34444444444444444,-0.6044444444444445,-0.006333232605907737,0.0035002796051310965,0.010240981220610103
1589986686.1959682,-3.85,-0.7683473226533981,9.091652677346602,0.3253532723125134,-0.34444444444444444,-0.6044444444444445,-0.0029119340828477904,-0.0027133429733835557,0.02050888178082498
1589986686.2059681,-3.830178249220843,-0.7566963748701405,9.085133686915633,0.33555555555555555,-0.34444444444444444,-0.6044444444444445,0.000530832410969351,-0.011629047022060473,0.04523545051961888
1589986686.2159681,-3.7260465801375915,-0.74,9.002093160275184,0.33555555555555555,-0.34444444444444444,-0.6044444444444445,0.008079769447664455,-0.013331000518028803,0.06522151858370048
1589986686.2259681,-3.711510042109276,-0.74,8.973020084218552,0.33555555555555555,-0.34444444444444444,-0.6044444444444445,0.005701233974831929,-0.006195394099531227,0.06839289921414386
1589986686.235968,-3.719002063621851,-0.74,9.02260288907059,0.33555555555555555,-0.34444444444444444,-0.6044444444444445,-0.000981972810470664,0.002967239813369443,0.06348590132884603
1589986686.245968,-3.7598296538566363,-0.74,9.07976151539929,0.33555555555555555,-0.34444444444444444,-0.6044444444444445,-0.005435572030796253,0.006530119189629913,0.05457870288819485
1589986686.255968,-3.78,-0.75,9.12,0.3022222222222222,-0.3388888888888889,-0.6044444444444445,-0.007635815477475192,0.00545415391248228,0.04581489286485115
1589986686.265968,-3.7780264750988777,-0.748026475098878,9.10026475098878,0.3022222222222222,-0.3388888888888889,-0.6044444444444445,-0.0065594246213916355,0.0022249813442316124,0.04839823091945169
1589986686.275968,-3.7557805382050438,-0.74,9.025687784717983,0.3022222222222222,-0.3388888888888889,-0.6044444444444445,-0.0015612204995340954,-0.010598087292235152,0.060766185451185076
1589986686.285968,-3.724684831896728,-0.7329727521549083,9.044684831896728,0.3022222222222222,-0.3388888888888889,-0.6044444444444445,-0.00102207176875439,-0.00930644115809091,0.06596088283416456
1589986686.295968,-3.7474023383387824,-0.7075325538870726,9.067402338338782,0.3030447042598647,-0.3395742905869243,-0.6070489708969788,-0.004901636364812301,-0.007097502242648715,0.06763150851478028
1589986686.305968,-3.825808768267223,-0.6534375782881001,9.145808768267223,0.3088888888888889,-0.34444444444444444,-0.6255555555555555,-0.009430471232076772,-0.006791617208014992,0.07326210829162128
1589986686.315968,-3.9188451827242523,-0.5107614617940199,9.251548172757476,0.3088888888888889,-0.34444444444444444,-0.6255555555555555,-0.011369283491188976,-0.024295881945349308,0.10136970868995969
1589986686.325968,-3.91,-0.4125659092708416,9.34914469690972,0.3088888888888889,-0.34444444444444444,-0.6255555555555555,0.002682183424314315,-0.0811932414194648,0.1797106938602131
1589986686.335968,-3.856256064418722,-0.30208535480624055,9.362085354806242,0.3088888888888889,-0.34444444444444444,-0.6255555555555555,0.05112424681397597,-0.17839987914959898,0.27578883418320527
1589986686.345968,-3.558063279944974,-0.26794602207592283,9.104436474403066,0.30997652659045993,-0.3424504419915641,-0.6231990072021515,0.10678619185501882,-0.25769981341097975,0.3648419338715218
1589986686.355968,-2.83,-0.36,8.05,0.31555555555555553,-0.3322222222222222,-0.6111111111111112,0.1341721862470641,-0.2814343418840856,0.4177881896961426
1589986686.365968,-3.087697397441553,-0.6586947106708907,8.916800336848858,0.31555555555555553,-0.3322222222222222,-0.6111111111111112,0.06581274273402726,-0.17729799335488,0.3915943842378761
1589986686.375968,-3.1813958703167335,-0.8773836774736056,9.153432448846118,0.31555555555555553,-0.3322222222222222,-0.6111111111111112,0.01262068691420255,-0.021474629039570634,0.3215163344858867
1589986686.385968,-2.8420677162688333,-0.8510338581344168,8.599625190452006,0.31555555555555553,-0.3322222222222222,-0.6111111111111112,0.01994030175699612,0.052657321463904214,0.23284092370409656
1589986686.395968,-2.856268833587269,-0.8581344167936347,8.940452006094464,0.31555555555555553,-0.3322222222222222,-0.6111111111111112,-0.03040549997258193,0.092159412051727,0.1762987156078012
1589986686.405968,-2.930460243084461,-0.7362954594106034,8.98397164807459,0.2888888888888889,-0.3388888888888889,-0.6266666666666667,-0.05841895309288883,0.1788751805037311,0.058896793173787855
1589986686.415968,-3.085379362061116,-0.764763919762179,9.366037119365812,0.2888888888888889,-0.3388888888888889,-0.6266666666666667,-0.0989206978027437,0.21684906137092483,-0.03566352618920723
1589986686.425968,-3.1583165759933887,-0.7936099442187177,9.3,0.2888888888888889,-0.3388888888888889,-0.6266666666666667,-0.07324925699627169,0.21329460283015655,-0.10601814498569301
1589986686.435968,-2.623955650437298,-0.9958005646994008,9.3,0.2888888888888889,-0.3388888888888889,-0.6266666666666667,-0.040953593200386364,0.14555247877049465,-0.14382770260038805
1589986686.445968,-2.336206269125796,-0.8077007691671492,8.937988173021255,0.28893359615508324,-0.3388888888888889,-0.6264111965741277,0.033828294616232824,0.04270542518231679,-0.17365528051726226
1589986686.455968,-1.7638305351087586,-0.4608063849143991,8.6344555868001,0.2956787647377756,-0.3388888888888889,-0.5878673761015999,0.03572030997932309,0.06730162490249028,-0.20581954168979685
1589986686.465968,-1.883620109918141,-0.5926405862300861,9.197240219836281,0.2966666666666667,-0.3388888888888889,-0.5822222222222222,-0.06311441221672182,0.07101085032138113,-0.33208179496853396
1589986686.475968,-1.93,-0.84,9.244180955686682,0.2966666666666667,-0.3388888888888889,-0.5822222222222222,-0.059195119414774525,0.04734892177020015,-0.4147072584919685
1589986686.4859679,-1.9315641922142157,-0.8290506545004903,9.028716155715687,0.2966666666666667,-0.3388888888888889,-0.5822222222222222,0.023565279765996486,0.044285157691486665,-0.433255121826026
1589986686.4959679,-1.951648675171737,-0.77,8.877861301929997,0.2970980990804347,-0.33932032130265694,-0.5835165194635263,0.07061860784302179,0.0633320580410152,-0.3844494464266626
1589986686.5059679,-2.09,-0.77,9.09,0.3022222222222222,-0.34444444444444444,-0.5988888888888889,0.02836160034490785,0.03817907738737596,-0.35124751196385884
1589986686.5159678,-2.112647427854454,-0.7730196570472606,9.105098285236302,0.3022222222222222,-0.34444444444444444,-0.5988888888888889,0.02457357525621355,0.034885142527641785,-0.3400481334407626
1589986686.5259678,-2.217899623588457,-0.7870532831451276,9.175266415725638,0.3022222222222222,-0.34444444444444444,-0.5988888888888889,0.006969017217974764,0.019576831190042835,-0.2879998748929262
1589986686.5359678,-2.15020941735723,-0.76041883471446,8.99188475621507,0.3022222222222222,-0.34444444444444444,-0.5988888888888889,0.025860124320397127,0.028201693115148942,-0.23607065088269527
1589986686.5459678,-2.1591905954904607,-0.7783811909809212,9.072715359414145,0.3022222222222222,-0.34444444444444444,-0.5988888888888889,0.012144400521260408,0.021343831215580585,-0.20863920328442184
1589986686.5559678,-2.1756759088108444,-0.78,9.103513863216266,0.318769014855891,-0.334864722393373,-0.6154356815225577,-0.001061526887168764,0.012175902930194576,-0.19248720679224923
1589986686.5659678,-2.1860973526900085,-0.78,9.012442356959863,0.3233333333333333,-0.3322222222222222,-0.62,-0.0030330871287860468,0.010482595043067993,-0.17674160136108888
1589986686.5759678,-2.222410568502301,-0.78,8.90138414724655,0.3233333333333333,-0.3322222222222222,-0.62,0.004889227595111026,0.012676030114990543,-0.15140154838669082
1589986686.5859678,-2.2224928658785164,-0.78,8.935042804728903,0.3233333333333333,-0.3322222222222222,-0.62,0.003269379499761086,0.00981436419473982,-0.14071094524658626
1589986686.5959678,-2.2466811338262147,-0.7888937112754049,9.012255978927833,0.3233333333333333,-0.3322222222222222,-0.62,-0.0007287986439613097,0.004846032648032686,-0.12495336173526354
1589986686.6059678,-2.2954329835676104,-0.7748556721441299,9.057860819639675,0.33258820035636505,-0.3372703315075123,-0.6090624298818715,0.004691133869394133,0.006841307980796077,-0.11830790872047901
1589986686.6159678,-2.290982290436836,-0.8009822904368359,9.08508854781582,0.33555555555555555,-0.3388888888888889,-0.6055555555555555,0.011122610354135056,0.009388871984127113,-0.11278417565547595
1589986686.6259677,-2.2992355371900826,-0.8092355371900827,9.043822314049587,0.33555555555555555,-0.3388888888888889,-0.6055555555555555,0.012923189476931152,0.005787713738534915,-0.11638533390106813
1589986686.6359677,-2.3716930338080093,-0.7911286892053396,9.060564344602671,0.33555555555555555,-0.3388888888888889,-0.6055555555555555,0.007758936370380782,0.006008197930557434,-0.12260397076477264
1589986686.6459677,-2.397181518018109,-0.8081210120120729,9.069060506006037,0.33555555555555555,-0.3388888888888889,-0.6055555555555555,0.009612511248750902,0.01434928488322297,-0.12909148283906804
1589986686.6559677,-2.38,-0.7950666855558479,9.083040011333509,0.3555555555555556,-0.34444444444444444,-0.6266666666666667,0.00381063347303092,0.01362811051549902,-0.1448885152720734
1589986686.6659677,-2.38,-0.8375096638400356,9.108505798304021,0.3555555555555556,-0.34444444444444444,-0.6266666666666667,-0.0008191772482911393,0.008998299794176965,-0.1615558338688328
1589986686.6759677,-2.3721099120703437,-0.8163297362110312,8.936418065547562,0.3555555555555556,-0.34444444444444444,-0.6266666666666667,0.0014911944545853834,0.014751371813162604,-0.17974728817251753
1589986686.6859677,-2.3427593223154224,-0.8127593223154224,8.992207457852338,0.3555555555555556,-0.34444444444444444,-0.6266666666666667,0.007455218254245669,0.018423725153620066,-0.21263730862616045
1589986686.6959677,-2.371787226974504,-0.8417872269745038,9.015429781579602,0.3555555555555556,-0.34444444444444444,-0.6266666666666667,0.005555346337035767,0.017157143875480133,-0.23480248099360929
1589986686.7059677,-2.366040476829315,-0.8540101192073287,9.03,0.35222784400407153,-0.34444444444444444,-0.6140213627710274,0.008937085576476867,0.017015856372659843,-0.27027144137122117
1589986686.7159677,-2.363115033499197,-0.9115299925557341,9.05235003722133,0.35,-0.34444444444444444,-0.6055555555555555,0.013507210134153751,0.019044812195475287,-0.3263072857213605
1589986686.7259676,-2.28916467499902,-0.9279634055557733,8.970182972221135,0.35,-0.34444444444444444,-0.6055555555555555,0.017988728324633795,0.024422634024051336,-0.36305573488329684
1589986686.7359676,-2.288510317993376,-0.938510317993376,9.062123815920513,0.35,-0.34444444444444444,-0.6055555555555555,0.017615791618838937,0.025089107997418484,-0.4093848994633422
1589986686.7459676,-2.306175184476633,-0.9319124077616836,9.071912407761683,0.35,-0.34444444444444444,-0.6055555555555555,0.019217731433910305,0.03126464419630301,-0.4581616733918708
1589986686.7559676,-2.3165739089537323,-0.9365739089537322,9.083147817907465,0.3580347776101171,-0.34882705041359924,-0.6150512018220576,0.01676654518571215,0.03487623014931172,-0.5059728236056983
1589986686.7659676,-2.3376485443197805,-0.94,9.09,0.3622222222222222,-0.3511111111111111,-0.62,0.010458737102382955,0.036959994592896526,-0.5767971120005065
1589986686.7759676,-2.353598143982002,-0.9332009280089989,9.015210208098988,0.3622222222222222,-0.3511111111111111,-0.62,0.012042468148526152,0.0400549014129569,-0.6251276359486875
1589986686.7859676,-2.3982727199419402,-0.920431820014515,8.989568179985485,0.3622222222222222,-0.3511111111111111,-0.62,0.014133695916020827,0.04562647583911876,-0.7083483105452703
1589986686.7959676,-2.3850570342205324,-0.92,9.012414448669201,0.3622222222222222,-0.3511111111111111,-0.62,0.017440849583260823,0.04907494227565805,-0.7601224113497927
1589986686.8059676,-2.4400945544094412,-0.9399054455905584,9.010189108818883,0.3922222222222223,-0.3322222222222222,-0.6577777777777778,0.024018905787009943,0.05568394133753903,-0.8427505355359455
1589986686.8159676,-2.4498387696310755,-0.9301612303689248,9.029677539262149,0.3922222222222223,-0.3322222222222222,-0.6577777777777778,0.02614476377001565,0.06099858629505331,-0.9075892040176197
1589986686.8259676,-2.4304039646648077,-1.0308079293296155,8.972827752653656,0.3922222222222223,-0.3322222222222222,-0.6577777777777778,0.03176628981982117,0.06553797836806999,-0.9678969879304186
1589986686.8359675,-2.440774193548387,-1.0507741935483872,9.040967741935484,0.3922222222222223,-0.3322222222222222,-0.6577777777777778,0.03490658503988659,0.06763150851478028,-1.0285549012428357
1589986686.8459675,-2.4735741935483873,-1.0835741935483871,9.081967741935484,0.3922222222222223,-0.3322222222222222,-0.6577777777777778,0.03490658503988659,0.06763150851478028,-1.070595519600249
1589986686.8559675,-2.5051905888211126,-1.1739686294037097,9.073206274119258,0.41461385672987816,-0.3154284963414803,-0.6615097168623871,0.03673849635423866,0.0758751094293646,-1.1218815597762686
1589986686.8659675,-2.5000601920546486,-1.2198194238360536,9.020300960273243,0.4188888888888889,-0.31222222222222223,-0.6622222222222223,0.042509570844325474,0.07961751525302677,-1.1767240791255638
1589986686.8759675,-2.5167733896090847,-1.2703201688272536,8.969679831172748,0.4188888888888889,-0.31222222222222223,-0.6622222222222223,0.03613847511802333,0.08146034009348084,-1.2108557342816078
1589986686.8859675,-2.495126235309217,-1.2924368823453916,8.972436882345391,0.4188888888888889,-0.31222222222222223,-0.6622222222222223,0.03151495151472664,0.08520394221239415,-1.2465352015824205
1589986686.8959675,-2.4870182716049385,-1.3140365432098766,8.98,0.4188888888888889,-0.31222222222222223,-0.6622222222222223,0.03634260316333304,0.08573531325839899,-1.2887712663744724
1589986686.9059675,-2.5272030408615773,-1.3572030408615776,9.009762432689262,0.4337701052335199,-0.30312814556716994,-0.6837173124978003,0.03358839706547292,0.09563617880003691,-1.3283986619187624
1589986686.9159675,-2.509726654356643,-1.3801366728216782,9.048223253318183,0.4388888888888889,-0.3,-0.6911111111111111,0.031738453537109336,0.08953757631731978,-1.3726974764514916
1589986686.9259675,-2.496487697867841,-1.3867561510660795,8.962170036140966,0.4388888888888889,-0.3,-0.6911111111111111,0.03679296498025032,0.09387001469715489,-1.3936375952873616
1589986686.9359674,-2.515434834311083,-1.4239131124147772,8.962391390518473,0.4388888888888889,-0.3,-0.6911111111111111,0.03926990816987242,0.09414343551207305,-1.4325691539609726
1589986686.9459674,-2.52,-1.490232897163432,9.030232897163433,0.4388888888888889,-0.3,-0.6911111111111111,0.03780982153998763,0.09746166386940715,-1.4625364440383701
1589986686.9559674,-2.49,-1.492132752080146,9.048755894619916,0.4533333333333333,-0.2533333333333333,-0.75,0.04361384403635443,0.1015054245626818,-1.5103108081437127
1589986686.9659674,-2.49,-1.5976209837989648,8.987221092783937,0.4533333333333333,-0.2533333333333333,-0.75,0.04265492895010438,0.10438216982143197,-1.5400371758174645
1589986686.9759674,-2.4721941658850977,-1.6723204194021595,8.926582497655291,0.4533333333333333,-0.2533333333333333,-0.75,0.04060008532130564,0.11443133109994048,-1.5746026003693836
1589986686.9859674,-2.4633502330380335,-1.6866497669619667,8.933299533923933,0.4533333333333333,-0.2533333333333333,-0.75,0.03890998485266062,0.1170788170443326,-1.6030949619674122
1589986686.9959674,-2.4342779230897658,-1.7543051922755857,8.952861038455117,0.4533333333333333,-0.2533333333333333,-0.75,0.041686381547804074,0.12201848950213096,-1.637967135503991
1589986687.0059674,-2.3838614783094396,-1.8442077825358407,8.969034630422641,0.47039874635387574,-0.21217557251908395,-0.7429730652268355,0.04363323129985824,0.1273112850966444,-1.6839348340270202
1589986687.0159674,-2.426062964105241,-1.85,8.997637778463144,0.4722222222222222,-0.20777777777777776,-0.7422222222222222,0.04564310726701928,0.12662226356850484,-1.7226880499473356
1589986687.0259674,-2.3553930847981457,-1.9059551864013906,8.897415491597451,0.4722222222222222,-0.20777777777777776,-0.7422222222222222,0.047849480857083286,0.13365742874240139,-1.7582477057851076
1589986687.0359674,-2.314961628817541,-1.9187595927956147,8.933797963978073,0.4722222222222222,-0.20777777777777776,-0.7422222222222222,0.05277417116163941,0.13512770959342316,-1.7949997234182067
1589986687.0459673,-2.272988082648662,-1.9496095338810704,8.969609533881071,0.4722222222222222,-0.20777777777777776,-0.7422222222222222,0.045375960589115465,0.14010786568148706,-1.8289398830307115
1589986687.0559673,-2.2821458803879513,-2.0153647009698785,8.991072940193975,0.48144967238386865,-0.20347163436900942,-0.7545254891044175,0.04012665971409558,0.14422374252780548,-1.8584666257151545
1589986687.0659673,-2.2405037132709076,-2.0823111075234095,9.022311107523409,0.4888888888888889,-0.2,-0.7644444444444445,0.040612841675188326,0.1502275986675457,-1.900007436732243
1589986687.0759673,-2.1964273059920196,-2.119465867509976,8.864991141944136,0.4888888888888889,-0.2,-0.7644444444444445,0.04338010625363594,0.15741108832331924,-1.928882080062761
1589986687.0859673,-2.2136917633182622,-2.16695341065461,8.837598584627482,0.4888888888888889,-0.2,-0.7644444444444445,0.046929182835003413,0.1629130363112413,-1.9655558714035584
1589986687.0959673,-2.192671681199938,-2.232259646320087,8.872534336239987,0.4888888888888889,-0.2,-0.7644444444444445,0.03333775791570244,0.16932526046330124,-1.9977591950706715
1589986687.1059673,-2.198574123661149,-2.3521576801363193,8.888574123661149,0.49198457616574703,-0.2,-0.7572211741317755,0.027348539052534,0.17227349414431745,-2.0292604492454585
1589986687.1159673,-2.1784977375565613,-2.3815022624434388,8.825493212669684,0.4922222222222222,-0.2,-0.7566666666666667,0.034307368492397586,0.18407892851775037,-2.038945360263941
1589986687.1259673,-2.2285047283515667,-2.487507880585945,8.809750788058595,0.4922222222222222,-0.2,-0.7566666666666667,0.03815189258167088,0.1876500793950955,-2.054798976554862
1589986687.1359673,-2.1332956475894793,-2.46582391189737,8.80194130396579,0.4922222222222222,-0.2,-0.7566666666666667,0.027630268946297817,0.178832220888492,-2.066553070034491
1589986687.1459672,-2.1387507299761914,-2.517501459952383,8.915002919904767,0.4922222222222222,-0.2,-0.7566666666666667,0.026657217061282153,0.16652187784931202,-2.0755784306512317
1589986687.1559672,-2.170883452420385,-2.5956892064543604,8.987844603227181,0.5053710626350573,-0.1914919267916949,-0.7667216622764818,0.032586175869567864,0.15645903652665027,-2.0856260782374005
1589986687.1659672,-2.189165039370079,-2.647495118110236,8.954174803149606,0.5111111111111111,-0.18777777777777774,-0.7711111111111111,0.03490658503988659,0.1538071403320003,-2.088940948480713
1589986687.1759672,-2.1025625619550485,-2.6261534259877406,8.862562561955048,0.5111111111111111,-0.18777777777777774,-0.7711111111111111,0.04357744403643749,0.1538071403320003,-2.087206776681403
1589986687.1859672,-2.0710733131245087,-2.709266868754912,8.857853373750983,0.5111111111111111,-0.18777777777777774,-0.7711111111111111,0.04289364141600328,0.14893838791725386,-2.072153029671481
1589986687.1959672,-2.1002501735938894,-2.7880628905862515,8.92806289058625,0.5111111111111111,-0.18777777777777774,-0.7711111111111111,0.04501723705726749,0.14835298641951802,-2.056372751452141
1589986687.2059672,-2.0750178408186133,-2.853727698976733,8.880035681637226,0.4634965055586682,-0.1926364109974148,-0.7011467927483379,0.05249282567766945,0.14549101521402444,-2.0318189034373786
1589986687.2159672,-2.0288889131288452,-2.909333304245386,8.853555565251538,0.4566666666666666,-0.19333333333333333,-0.6911111111111111,0.048966184436232164,0.13431763669740263,-2.0128009693814692
1589986687.2259672,-2.0033883058470763,-2.953223388305847,8.816776611694154,0.4566666666666666,-0.19333333333333333,-0.6911111111111111,0.04437244496355899,0.13380257941521373,-1.9884716719273325
1589986687.2359672,-2.0,-2.988445057620516,8.81711126440513,0.4566666666666666,-0.19333333333333333,-0.6911111111111111,0.048287542969209896,0.13339646763550547,-1.960949635014295
1589986687.2459671,-1.9926944070880468,-3.0438335574717192,8.893055929119532,0.4566666666666666,-0.19333333333333333,-0.6911111111111111,0.0469905497417384,0.12829985608491978,-1.925994939861371
1589986687.2559671,-1.9584353484299757,-2.9084896724638836,9.368218052294345,0.4720982741009007,-0.12809972008861648,-0.6504277824208576,0.07542614933621866,0.07420019654112539,-1.8952420348320314
1589986687.2659671,-1.670138307863058,-2.720051225134466,8.58553530265517,0.4811111111111111,-0.09,-0.6266666666666667,0.1112552405625413,0.053990815327990826,-1.8538817225104078
1589986687.2759671,-1.4152467660871715,-2.528519403476971,8.470052731317459,0.4811111111111111,-0.09,-0.6266666666666667,-0.0805814054177541,0.22319119517975322,-1.7833807946630469
1589986687.285967,-1.4551778797063162,-2.6641634386294752,8.689644240587368,0.4811111111111111,-0.09,-0.6266666666666667,-0.06878554486053425,0.09427271530739123,-1.758906425777766
1589986687.295967,-1.6771017972529219,-2.982898908936831,9.40521874227605,0.4811111111111111,-0.09,-0.6266666666666667,0.025658307436129436,0.06764749293534225,-1.6982969625494717
1589986687.305967,-1.5228889502254117,-2.777612475848744,8.522811666206643,0.5202652804612506,-0.038562169677267666,-0.6174539209372221,0.09825706697833336,0.15846924009640437,-1.6127603431187238
1589986687.315967,-1.7732593891568027,-3.144898728627795,9.146422329387695,0.5377777777777778,-0.015555555555555557,-0.6133333333333333,0.03964859845292057,0.08510058245332172,-1.5733451056026324
1589986687.325967,-1.85,-3.4086215238577977,9.600364030136166,0.5377777777777778,-0.015555555555555557,-0.6133333333333333,0.030373038725101366,0.085114583180595,-1.5250821654411448
1589986687.335967,-1.6838390233413765,-3.248914876842583,8.875659507370333,0.5377777777777778,-0.015555555555555557,-0.6133333333333333,0.05519704875695442,0.09923250387354701,-1.4636912702952922
1589986687.345967,-1.5543169918081243,-3.106956760408749,8.889285322185627,0.5377777777777778,-0.015555555555555557,-0.6133333333333333,0.04795254257220216,0.0837839754233528,-1.4184629042853174
1589986687.355967,-1.3636458359677297,-2.921091272350219,8.503273817050657,0.5377777777777778,0.056416996141838704,-0.6232605818433188,0.059876653690134486,0.0855706967523865,-1.3573506114671028
1589986687.365967,-1.5181918687589158,-3.27376604850214,9.107061340941513,0.5377777777777778,0.0811111111111111,-0.6266666666666667,0.048245142471932234,0.07184077708347202,-1.3103507518071194
1589986687.375967,-1.513088543509622,-3.262522659843763,8.947170581670704,0.5377777777777778,0.0811111111111111,-0.6266666666666667,0.05479174819431564,0.07671344155837022,-1.2504106056239952
1589986687.385967,-1.5266742989139246,-3.293348597827849,8.831131463770465,0.5377777777777778,0.0811111111111111,-0.6266666666666667,0.0517527503930765,0.07184822197179845,-1.1958387616679018
1589986687.395967,-1.5959623750070617,-3.4617366250494324,9.03577425004237,0.5377777777777778,0.0811111111111111,-0.6266666666666667,0.043843188956259875,0.06738050835789038,-1.139263028335387
1589986687.405967,-1.5623703670099351,-3.4210123395182146,8.934567890033117,0.5468367634976082,0.10898491332597399,-0.6266666666666667,0.041303431915720785,0.0647468665623286,-1.0782929586609014
1589986687.415967,-1.4989568055906761,-3.362410059538861,8.86,0.5522222222222222,0.12555555555555556,-0.6266666666666667,0.036071966750324064,0.061726112103711206,-1.0220260184093568
1589986687.425967,-1.4636810997651652,-3.343681099765165,8.670432992954959,0.5522222222222222,0.12555555555555556,-0.6266666666666667,0.03519432443492648,0.05735235898092075,-0.9601994861020073
1589986687.435967,-1.484266171957626,-3.4176517502644033,8.788102016401686,0.5522222222222222,0.12555555555555556,-0.6266666666666667,0.03387979283480458,0.05242391613724433,-0.9089971568677481
1589986687.445967,-1.4775682111320567,-3.451352316698085,8.89216489731124,0.5522222222222222,0.12555555555555556,-0.6266666666666667,0.03296075245346891,0.04973599607447974,-0.8533544643696421
1589986687.455967,-1.4595471438888203,-3.447536328888732,8.841956739999647,0.5559742404938184,0.13915662179009192,-0.6201006346913733,0.03490658503988659,0.04862694329678655,-0.7894057411566078
1589986687.465967,-1.475051506165132,-3.5221796472608085,8.996538941782426,0.5611111111111111,0.15777777777777774,-0.6111111111111112,0.03257390632114397,0.04371997677881593,-0.7278668421661749
1589986687.475967,-1.420140250280888,-3.485070125140444,8.855631126263996,0.5611111111111111,0.15777777777777774,-0.6111111111111112,0.026748302569710128,0.03545964989731713,-0.6484736485032926
1589986687.485967,-1.4039859659827625,-3.5281122721378995,8.864126306155137,0.5611111111111111,0.15777777777777774,-0.6111111111111112,0.023777049310821804,0.030970408980096537,-0.5590389200774464
1589986687.495967,-1.3839626196781423,-3.56,8.873271032796904,0.5611111111111111,0.15777777777777774,-0.6111111111111112,0.020574904015667517,0.02486278671977077,-0.47570621562887616
1589986687.505967,-1.3566984112449065,-3.573301588755094,8.83004761686736,0.5707178141009009,0.18364197813490427,-0.6251516770192656,0.014916677684898539,0.01891465915589615,-0.36849128865885944
1589986687.515967,-1.3272677739119019,-3.5042259130396727,8.865464452176196,0.5755555555555556,0.19666666666666666,-0.6322222222222222,0.005650865798487515,0.011667323059911108,-0.2665442474885221
1589986687.525967,-1.3673465810748635,-3.540874175667682,8.907055189185636,0.5755555555555556,0.19666666666666666,-0.6322222222222222,0.006223755666485104,0.005390582063974502,-0.18310738141004462
1589986687.5359669,-1.383316114431899,-3.556632228863798,8.926683885568101,0.5755555555555556,0.19666666666666666,-0.6322222222222222,0.002532123790417511,-0.0011021005271315016,-0.0991247293992394
1589986687.5459669,-1.3096887351778657,-3.4210960144927536,8.894844367588933,0.5755555555555556,0.19666666666666666,-0.6322222222222222,0.0006391474335353699,-0.005829082081630847,-0.02981110103143167
1589986687.5559669,-1.251180736521019,-3.378505949134396,8.861180736521018,0.6461096633874042,0.19274699400934173,-0.6425113629477002,-0.000352217829776445,-0.009559880293839059,0.02837995604136705
1589986687.5659668,-1.2849984232103437,-3.471152754530238,8.905382674720423,0.7355555555555555,0.18777777777777774,-0.6555555555555556,-0.0010489154449549285,-0.012376720647473676,0.08550361040799993
1589986687.5759668,-1.3620241579311447,-3.518036236896717,8.962144947586868,0.7355555555555555,0.18777777777777774,-0.6555555555555556,-0.001954272133266744,-0.015700057603468785,0.1480663045041905
1589986687.5859668,-1.342889721961887,-3.4644486098094345,8.872224304904718,0.7355555555555555,0.18777777777777774,-0.6555555555555556,-0.007708401218391076,-0.021573981623956774,0.20233462708272204
1589986687.5959668,-1.33,-3.4046738760797117,8.847010814119567,0.7355555555555555,0.18777777777777774,-0.6555555555555556,-0.01007239743753427,-0.02534402839248465,0.25342240388549525
1589986687.6059668,-1.3240867684245803,-3.4259132315754197,8.85226030527374,1.104804016153984,0.16083972282308812,-0.801415267749241,-0.011553341327614338,-0.0274700057852145,0.33848123912270905
1589986687.6159668,-1.3540258810901067,-3.4413419603633693,8.868354900908422,1.36,0.14222222222222222,-0.9022222222222224,-0.014473570507104514,-0.029598816294729602,0.4033097837732014
1589986687.6259668,-1.3761403743827278,-3.4615788768518163,8.859122995061824,1.36,0.14222222222222222,-0.9022222222222224,-0.01762552126711654,-0.03264836112601693,0.45663693187159404
1589986687.6359668,-1.37,-3.4994217968411516,8.786693843790617,1.36,0.14222222222222222,-0.9022222222222224,-0.018363800454192968,-0.037692287330040694,0.5153322383166152
1589986687.6459668,-1.4185647750949872,-3.486831311026678,8.820149119581648,1.36,0.14222222222222222,-0.9022222222222224,-0.014596596683492532,-0.04330384737562605,0.5751758594050319
1589986687.6559668,-1.4412747273955417,-3.4250329698607227,8.911208787674097,1.124200270906823,-0.07693282011143637,-0.8647716770133059,-0.013770839515543488,-0.04785750324160921,0.6202439829523965
1589986687.6659667,-1.43,-3.41,8.90678135694664,0.9822222222222222,-0.2088888888888889,-0.8422222222222222,-0.012154591326821708,-0.04959393742374857,0.6515020120297228
1589986687.6759667,-1.4350791704238053,-3.4125395852119027,8.864762488728585,0.9822222222222222,-0.2088888888888889,-0.8422222222222222,-0.011202605904426184,-0.05156334485679505,0.6824787413686982
1589986687.6859667,-1.455773764258555,-3.43154752851711,8.837321292775666,0.9822222222222222,-0.2088888888888889,-0.8422222222222222,-0.016531270911772335,-0.057521829842552184,0.7411154108027652
1589986687.6959667,-1.4811584962406015,-3.4294207518796993,8.8605792481203,0.9822222222222222,-0.2088888888888889,-0.8422222222222222,-0.018030300995207887,-0.05890486225480863,0.7890962929952268
1589986687.7059667,-1.4883613348192695,-3.388963559518052,8.912675105662679,0.8464377951136999,-0.08732949700125932,-0.7827357112984886,-0.0215064799599122,-0.061020831295860375,0.8340730665364531
1589986687.7159667,-1.4888114603942257,-3.3541085952956693,8.975297134901444,0.6322222222222222,0.10444444444444444,-0.6888888888888889,-0.027205944783001663,-0.0684630401796378,0.8861267583623773
1589986687.7259667,-1.516313746209685,-3.37,8.81215634475788,0.6322222222222222,0.10444444444444444,-0.6888888888888889,-0.026984154601228945,-0.07170821668358364,0.9355222338212865
1589986687.7359667,-1.52,-3.381883532570039,8.773475896565175,0.6322222222222222,0.10444444444444444,-0.6888888888888889,-0.02358735415347544,-0.0715521470188795,0.9732414116616454
1589986687.7459667,-1.5249316851008459,-3.3850683148991543,8.829726740403384,0.6322222222222222,0.10444444444444444,-0.6888888888888889,-0.026658286175752686,-0.07522261199531513,1.003355663911018
1589986687.7559667,-1.53,-3.385413789811957,8.914965477743486,0.6051532731624367,0.12369347488695862,-0.7057317905260888,-0.026909669830918415,-0.07735871062437512,1.0282847965746473
1589986687.7659667,-1.5194399478307568,-3.3583198434922705,8.927759791323028,0.5822222222222222,0.14,-0.72,-0.02521129242662136,-0.07693411627330086,1.0380171278672798
1589986687.7759666,-1.5224050572519083,-3.292784828244275,8.861054866412214,0.5822222222222222,0.14,-0.72,-0.0272707695624114,-0.07699792494694795,1.0327958265646162
1589986687.7859666,-1.5452132516369317,-3.2087204901784108,8.85127950982159,0.5822222222222222,0.14,-0.72,-0.0272707695624114,-0.07522079970225892,1.00784498050302
1589986687.7959666,-1.561581213074845,-3.210883234866253,8.887720808716564,0.5822222222222222,0.14,-0.72,-0.025165245608962862,-0.07417649320975901,0.9794292799708212
1589986687.8059666,-1.5810413968650918,-3.26,8.901041396865091,0.5822800776036162,0.13947930156745414,-0.7210992522464857,-0.021901814731721925,-0.0740060950461734,0.9552102118589141
1589986687.8159666,-1.616235344714748,-3.2487060341442433,8.913647413003234,0.5844444444444444,0.12,-0.7622222222222222,-0.023857127436226176,-0.06516754739239566,0.8813145373629956
1589986687.8259666,-1.6198008740262209,-3.2659365380961427,8.834063461903856,0.5844444444444444,0.12,-0.7622222222222222,-0.019678396633294796,-0.0603737841475901,0.8312042268130624
1589986687.8359666,-1.6255852192712776,-3.3207802923617034,8.822464049824465,0.5844444444444444,0.12,-0.7622222222222222,-0.013699222300767668,-0.05838072603674772,0.7700571019729929
1589986687.8459666,-1.5887985247402143,-3.2872791148441283,8.851837344532386,0.5844444444444444,0.12,-0.7622222222222222,-0.008298783111827208,-0.05226349822886145,0.7201910854693294
1589986687.8559666,-2.496352080585202,-4.321342686972859,7.756870927769118,0.5543278570572011,0.09307759612352488,-0.7234357081628937,-0.007752324245546124,-0.046515994841577396,0.6629740463392253
1589986687.8659666,-5.567658758600917,-6.084461367545872,0.10828483371559638,0.5111111111111111,0.054444444444444434,-0.6677777777777778,-0.4836222355038133,1.0456266673031114,0.12346442178198369
1589986687.8759665,-4.346975634628692,-3.403675565429581,-4.769750518993336,0.5111111111111111,0.054444444444444434,-0.6677777777777778,-0.8652115625173399,0.30727106446667474,-2.3532816219932755
1589986687.8859665,-2.2754641909814324,-0.127816091954023,-1.159893899204244,0.5111111111111111,0.054444444444444434,-0.6677777777777778,-0.5421255381986299,-1.4146281309761133,-4.414081965017852
1589986687.8959665,-1.8773380564787359,-0.395522298951223,-0.02330295130251353,0.5111111111111111,0.054444444444444434,-0.6677777777777778,-0.4160687022512187,-0.9502396294391948,-4.398180371588654
1589986687.9059665,-0.21867816091954023,-0.7090229885057472,0.2835632183908046,0.5536781609195403,0.12280970625798211,-0.6639080459770115,-0.3577736892315531,-0.8896038488380007,-4.172966889297763
1589986687.9159665,-0.06253952874724278,-0.3159052959244676,0.13335360448576553,0.5844444444444444,0.17222222222222222,-0.6611111111111111,-0.2946197468806504,-0.7203220984111451,-3.903566480155787
1589986687.9259665,3.587719963673274,-1.5288305999252096,6.160763929697098,0.5844444444444444,0.17222222222222222,-0.6611111111111111,-0.2962371586050927,-0.6348176537843341,-3.6666309132411516
1589986687.9359665,2.5785495200187314,-1.410094357293374,4.788421212830719,0.5844444444444444,0.17222222222222222,-0.6611111111111111,0.533920701219205,0.2857947789480816,-3.5519687106928695
1589986687.9459665,1.386988916440116,0.5291354225793924,0.5642359513637856,0.5844444444444444,0.17222222222222222,-0.6611111111111111,1.6791403006276384,1.7683192447886604,-3.49155546650942
1589986687.9559665,2.8692617511098906,2.4609716691839445,-0.08258226921140555,0.5819359645241836,0.17386328385229938,-0.6608063425226682,2.616141178119296,3.2742736533380876,-3.4046512722002436
1589986687.9659665,-3.1896636751764396,1.329468502221835,12.800950596845865,0.4655555555555556,0.25,-0.6466666666666666,-0.4436063874323892,1.900853189087176,-2.3874301544940284
1589986687.9759665,2.0021679752911843,-1.6061946935585905,12.221237301380569,0.4655555555555556,0.25,-0.6466666666666666,-0.4664557716876824,-0.48042902458998027,-1.9670140917649312
1589986687.9859664,1.347316367546532,-0.18965872142143958,12.028138969251644,0.4655555555555556,0.25,-0.6466666666666666,0.6691482607179854,0.4959770936013124,-1.7428471434758024
1589986687.9959664,0.3973534003622057,0.2748966464747392,5.035456816336726,0.4655555555555556,0.25,-0.6466666666666666,0.7526046414964025,0.28724872268583546,-1.5643002533908585
1589986688.0059664,0.8441990596340953,-1.627558772869047,9.068943950467855,0.4633609805047355,0.26141179026426453,-0.6453499216361746,-0.17380195533310244,-0.23408070273387455,-1.348653596722879
1589986688.0159664,0.5194176358015604,-2.919259826291771,12.46315619019579,0.46,0.2788888888888889,-0.6433333333333333,-0.5565634795125307,0.12754501589118716,-1.1228011651674639
1589986688.0259664,0.32888189704209325,-2.5381331769055744,9.52849758248009,0.46,0.2788888888888889,-0.6433333333333333,0.11544358192811632,0.30257481153384325,-1.007243546930194
1589986688.0359664,0.282312447109901,-2.7527616910114427,9.609969093785644,0.46,0.2788888888888889,-0.6433333333333333,0.3430449091759449,0.17317463438034367,-0.9439717433971804
1589986688.0459664,-0.28686518873576994,-3.012278010784901,11.147617735170762,0.46,0.2788888888888889,-0.6433333333333333,-0.2044526684954921,-0.023586781073124702,-0.8858788416014738
1589986688.0559664,-0.2619575824604775,-2.6939041051330426,9.802180729946002,0.46,0.29651298621502253,-0.6386335740463643,-0.093505367458321,-0.00721235654317319,-0.7736393183967489
1589986688.0659664,-0.13,-2.84,9.92,0.46,0.31222222222222223,-0.6344444444444445,0.17998707911191522,0.09817477042468103,-0.6970408700152353
1589986688.0759664,-0.24952227589908751,-3.221332975487565,10.984317409196635,0.46,0.31222222222222223,-0.6344444444444445,-0.028618645279699012,-0.014819996954110001,-0.5852878033768705
1589986688.0859663,-0.27594758953647613,-2.8869447345820856,9.315247777545668,0.46,0.31222222222222223,-0.6344444444444445,-0.03980434765080307,-0.011430543410224911,-0.3933450779521098
1589986688.0959663,-0.24431523363554847,-2.5402066354488393,7.840619906346518,0.46,0.31222222222222223,-0.6344444444444445,0.04619073335623594,0.03101869763184049,-0.2476327378875186
1589986688.1059663,-0.286272583882994,-2.6349870949240035,8.106195153427015,0.44582114520600324,0.32556702673421917,-0.6377806455724437,-0.018308720330306515,-0.0013712809679016953,-0.12199340623528745
1589986688.1159663,-0.35425786646201074,-2.7420706062931695,8.350391404451267,0.4222222222222222,0.3477777777777778,-0.6433333333333333,-0.05819745472510063,-0.01195225716170522,0.004452900178126364
1589986688.1259663,-0.4186369915579432,-3.092579176259913,9.280312100281403,0.4222222222222222,0.3477777777777778,-0.6433333333333333,0.027635216991917774,-0.000247801927566349,0.1175959674414688
1589986688.1359663,-0.37906839531092307,-2.9636472323577365,8.768820743731077,0.4222222222222222,0.3477777777777778,-0.6433333333333333,-0.005527660714687615,-0.026799411427532484,0.3255865244326931
1589986688.1459663,-0.38717300472968674,-3.1184493838681626,9.083554900422065,0.4222222222222222,0.3477777777777778,-0.6433333333333333,0.004499107258227601,-0.03650140652771938,0.4723136031543469
1589986688.1559663,-0.3681127611777102,-3.0721691417665653,8.894659350708734,0.4244087703138219,0.35433742205257684,-0.647394065503447,-0.024169120039209957,-0.04158738956331357,0.5971448548829437
1589986688.1659663,-0.4253594936708861,-3.1256209764918625,8.884313924050634,0.43,0.3711111111111111,-0.6577777777777778,-0.02227291036350431,-0.04768997772059343,0.7217306905497372
1589986688.1759663,-0.3873730940307032,-2.979068519704391,8.334662420602642,0.43,0.3711111111111111,-0.6577777777777778,-0.02134512240909652,-0.06421117186645964,0.8586322176271031
1589986688.1859663,-0.4285739707190811,-3.1002887648628974,8.601443824314487,0.43,0.3711111111111111,-0.6577777777777778,-0.012995471309551929,-0.07193183292449574,0.950617601316576
1589986688.1959662,-0.48202814059084026,-3.2101407029542015,9.034431489059552,0.43,0.3711111111111111,-0.6577777777777778,-0.008973462597682086,-0.06983363449492401,1.0710564502533513
1589986688.2059662,-0.47460968179983115,-3.216574668770874,9.066978382941242,0.4376573975524318,0.3690960064920501,-0.6674502799492706,-0.03281007769643623,-0.0825074746030146,1.1506532445433453
1589986688.2159662,2.554253035368643,-12.286584374450115,6.36072268168221,0.4511111111111111,0.3655555555555556,-0.6844444444444444,-0.04726024845031627,-0.08417123265371144,1.2332333186685942
1589986688.2259662,4.648987117108846,-19.560544080296214,5.3422696532941645,0.4511111111111111,0.3655555555555556,-0.6844444444444444,-0.18447657930845252,-0.10376601672137681,0.6082848170465079
1589986688.2359662,-0.15927190076277065,-5.51568148547654,8.541230449187148,0.4511111111111111,0.3655555555555556,-0.6844444444444444,-0.41956147259003984,-0.0477067644199783,-2.4532865822797025
1589986688.2459662,-0.6774437521182575,-0.9793677816304716,5.817773548504836,0.4511111111111111,0.3655555555555556,-0.6844444444444444,-0.008243384078701954,0.24171103237507457,-4.953249718170358
1589986688.2559662,0.40713683682999613,-1.253368869450329,5.145347046629764,0.45715556669223034,0.3620561339033286,-0.6863532198911136,0.9170993504264661,0.6418654915865578,-4.55219504184855
1589986688.2659662,0.18767150693772186,-2.336026782833172,6.545614069054534,0.4722222222222222,0.3533333333333333,-0.6911111111111111,0.5580426287418738,0.4052663393390826,-4.024881879889918
1589986688.2759662,-0.9774459117729699,-2.7349367799943805,10.044751802940901,0.4722222222222222,0.3533333333333333,-0.6911111111111111,-0.3198762934499165,0.11592342604214212,-3.481255975829127
1589986688.2859662,-1.5118809852780029,-2.898953975892134,8.379823955405213,0.4722222222222222,0.3533333333333333,-0.6911111111111111,-0.07326220976959147,0.2665957638375707,-3.0074372021805944
1589986688.2959661,-6.044421976702744,-12.340431055504492,7.855205304721352,0.4722222222222222,0.3533333333333333,-0.6911111111111111,0.21114799625245204,0.2673552974746329,-2.5605207170713307
1589986688.3059661,-8.283045489876745,-16.876190916830144,9.336930451197395,0.4470993571948526,0.37420463658684033,-0.6860865381056371,-0.07836062890173472,0.09579066500791192,-1.1660079878853677
1589986688.3159661,0.35113785557986876,-0.35952832482372965,10.258052516411379,0.4,0.4133333333333333,-0.6766666666666666,0.0035416859395715483,-0.19358334462727647,1.5488139515439316
1589986688.3259661,-0.7236631248614263,-1.4518738594306961,10.858210052359594,0.4,0.4133333333333333,-0.6766666666666666,0.2866220810334593,-0.09409845710967264,2.2849506244632827
1589986688.335966,-0.5526211799827166,-2.3263371042501375,8.536129703825909,0.4,0.4133333333333333,-0.6766666666666666,0.17021669229766473,0.15346414008006048,2.359429104685654
1589986688.345966,3.737939673105498,-7.024191084695393,10.688423476968795,0.4,0.4133333333333333,-0.6766666666666666,-0.3949802957550408,-0.380993867688734,2.299323208818593
1589986688.355966,12.394526151560179,-17.002013224368497,8.600621842496285,0.4,0.4133333333333333,-0.6766666666666666,-0.2637726569217863,-0.37351571210756407,2.159277749753047
1589986688.365966,-0.875349247138276,-0.4438481958927093,10.055090789389853,0.37777777777777777,0.44,-0.6766666666666666,0.0701681007064563,0.1119174730133477,-0.5684382057715668
1589986688.375966,-0.21127255767229935,-1.4036486922828544,5.761115057582607,0.37777777777777777,0.44,-0.6766666666666666,0.3997722424867166,0.31437419890246115,-1.1019429875831723
1589986688.385966,-0.7375985663082437,-2.20752688172043,9.070501792114696,0.37777777777777777,0.44,-0.6766666666666666,-0.07918884110639145,-0.006400322548196051,-0.8984066685489808
1589986688.395966,-0.2813735793973515,-4.988155562506517,10.47026253779585,0.37777777777777777,0.44,-0.6766666666666666,-0.23608828674748045,-0.044266188392001846,-0.6264643117369305
1589986688.405966,1.7759390014622936,-8.24247127637351,8.12111552120326,0.383818675579695,0.4360501822064387,-0.6766666666666666,-0.00875604195057997,0.00925987041519239,-0.04899897026694494
1589986688.415966,2.520230513135992,-4.267747340233046,9.21419664181805,0.4066666666666667,0.4211111111111111,-0.6766666666666666,0.016177998675761744,-0.07584645037316323,0.7250372548140891
1589986688.425966,-1.1928216900359845,-3.2053629482566075,9.022268685113952,0.4066666666666667,0.4211111111111111,-0.6766666666666666,0.05258763591653427,0.046999299485660784,-0.004327724607117431
1589986688.435966,-0.7165939734701675,-6.167777444183635,9.015736120967302,0.4066666666666667,0.4211111111111111,-0.6766666666666666,-0.013668433041715847,0.017505484952983208,-0.18510027025019724
1589986688.445966,0.18069700959187512,-4.722294526988904,8.750246755689298,0.4066666666666667,0.4211111111111111,-0.6766666666666666,-0.06611805004525304,-0.04346229276158928,-0.08831150187748218
1589986688.455966,-0.133173806790832,-3.564513829747843,8.735608731069723,0.40529564351629,0.42273141119791985,-0.6790347975627717,0.0173204880021202,0.0019369345049290016,0.02470113543174034
1589986688.465966,-0.016695671492576003,-4.4264520309549376,8.77443477616914,0.3958048324919876,0.43394782422664074,-0.6954280166047486,0.008849958970711889,0.00024282869864733925,0.006913024465782885
1589986688.475966,0.0,-4.32336145822208,8.723108334223362,0.3944444444444444,0.4355555555555555,-0.6977777777777778,-0.005435746215842908,-0.006709916103475388,-0.0014483051444488175
1589986688.485966,0.0,-4.338293638078963,8.603650895368293,0.3944444444444444,0.4355555555555555,-0.6977777777777778,0.004337342646754306,0.0022487486872387243,0.0018093911430835867
1589986688.495966,0.06879235932192264,-4.349806685593317,8.874782808474327,0.3944444444444444,0.4355555555555555,-0.6977777777777778,0.002487302551263068,-0.001723200085587678,0.0026612103749490564
1589986688.505966,0.01372827674483483,-4.39798775784827,8.750888622675879,0.3944444444444444,0.4355555555555555,-0.6977777777777778,0.003988942458388422,0.0005292597751003535,-0.0003420694393016523
1589986688.515966,0.02838178614690012,-4.318091069265499,8.851908930734501,0.4011111111111111,0.4222222222222222,-0.67,0.003480724388174051,-0.0007377912857717468,-0.0007377912857717468
1589986688.525966,0.014293726424459004,-4.351440589636689,8.792881179273378,0.4011111111111111,0.4222222222222222,-0.67,-0.002024517612928391,-0.00015408499141279113,0.001090830782496456
1589986688.535966,0.005979165718964655,-4.335979165718965,8.755979165718964,0.4011111111111111,0.4222222222222222,-0.67,-0.005667774733964664,-0.003598605248484078,0.001090830782496456
1589986688.545966,0.015603826540696527,-4.356594260188955,8.77219808672965,0.4011111111111111,0.4222222222222222,-0.67,-0.007767549993051215,-0.0036440009297955,0.0008510567157663479
1589986688.555966,0.0,-4.375714967255063,8.782678145465585,0.40075402504903307,0.4229363943463783,-0.6703570860620781,-0.004188038919153999,-0.0011492588527737308,-5.842807027727471e-05
1589986688.565966,0.0,-4.302950947651472,8.82815565771783,0.39469035674873376,0.43506373094697676,-0.6764207543623773,-0.001211542702587522,-0.00214142425829589,-0.001050593475799434
1589986688.575966,0.04,-4.407378979938118,8.808547759257412,0.3944444444444444,0.4355555555555555,-0.6766666666666666,0.0014295446825210566,-0.0011436357460168454,0.00028590893650421134
1589986688.5859659,0.03723490529356219,-4.3944698105871245,8.726912736766096,0.3944444444444444,0.4355555555555555,-0.6766666666666666,0.005152528870252243,-0.00376007304552575,0.0007892057402664189
1589986688.5959659,0.015786852974099666,-4.35368027946115,8.77210657351295,0.3944444444444444,0.4355555555555555,-0.6766666666666666,0.0030427008241375943,-0.00045958304670354794,-0.0001716646890893601
1589986688.6059659,0.0,-4.329370572453501,8.781573568866246,0.3946542536266106,0.4355555555555555,-0.6769114440458606,0.0023876412479144986,-0.002181661564992912,0.003272492347489368
1589986688.6159658,0.007297196817607257,-4.314864797878404,8.83,0.4011111111111111,0.4355555555555555,-0.6844444444444444,0.007399978440874786,-0.002181661564992912,0.0022111580922118783
1589986688.6259658,0.026372999348347824,-4.337254001303305,8.810051496415912,0.4011111111111111,0.4355555555555555,-0.6844444444444444,0.002481203555697988,-0.002379483762940757,-0.0006951863866007659
1589986688.6359658,0.013040195813532114,-4.363919608372936,8.736721076974428,0.4011111111111111,0.4355555555555555,-0.6844444444444444,-0.0004275629468529188,-0.0031066753885784838,0.0007591968646746875
1589986688.6459658,0.013029605860628443,-4.335049343101048,8.708078948961676,0.4011111111111111,0.4355555555555555,-0.6844444444444444,-0.006214505961818218,-0.0031623327697691958,0.001090830782496456
1589986688.6559658,0.03207498335048738,-4.366791638917479,8.758866622267966,0.4011111111111111,0.4355555555555555,-0.6844444444444444,-0.004136977558797898,-0.002469823302095755,0.001090830782496456
1589986688.6659658,0.005750646807915531,-4.337188308509894,8.78856233829802,0.4115761912531369,0.4288959591015391,-0.6844444444444444,-0.0042064985660523425,-0.004049674002118862,0.001090830782496456
1589986688.6759658,0.01,-4.355320827750484,8.832843035085107,0.4133333333333333,0.42777777777777776,-0.6844444444444444,0.0025219405734179393,0.0020115220607803985,0.001090830782496456
1589986688.6859658,0.013755715064079785,-4.339389287660199,8.749389287660199,0.4133333333333333,0.42777777777777776,-0.6844444444444444,0.003953638169767436,0.000885988302387262,0.001090830782496456
1589986688.6959658,0.025307252298263534,-4.376871501532175,8.791564249233911,0.4133333333333333,0.42777777777777776,-0.6844444444444444,0.0023522946865776996,-0.00034126624316957563,0.0012614639040812439
1589986688.7059658,0.00028820360476201033,-4.359135389185714,8.800864610814287,0.4132372654650793,0.42769772122089944,-0.6842362973965608,0.0032882114156744103,-0.0021345043604377853,0.0021502234286228275
1589986688.7159657,0.01888531713481278,-4.303344048595561,8.856655951404438,0.4070382276217291,0.4225318563514409,-0.6708050487359686,0.004302526610882445,0.0009084412251863213,0.0001215930382067569
1589986688.7259657,0.02,-4.328492328644692,8.80095397186815,0.4066666666666667,0.4222222222222222,-0.67,0.002181661564992912,-0.0001644614324258377,-0.0001644614324258377
1589986688.7359657,0.020559204198840372,-4.323355225193042,8.75055920419884,0.4066666666666667,0.4222222222222222,-0.67,0.0018156632727151035,-0.0010298310671168211,-0.0009078316363575517
1589986688.7459657,0.025549972628450768,-4.369616602799718,8.764450027371549,0.4066666666666667,0.4222222222222222,-0.67,-0.004848745813969593,-0.0001618075613279231,0.0018580464423370658
1589986688.7559657,0.0009490107140064132,-4.312214358332681,8.789050989285993,0.4066666666666667,0.4222222222222222,-0.67,-0.0075322944674994785,-0.0010563237791712183,6.901400665047536e-05
1589986688.7659657,0.01558079271727619,-4.371161585434552,8.817790396358639,0.38666666666666666,0.4155555555555556,-0.6844444444444444,-0.0023083708798438377,-0.0008498004155850734,-0.00024103036691138258
1589986688.7759657,0.0016842249594369158,-4.341684224959437,8.794841975365069,0.38666666666666666,0.4155555555555556,-0.6844444444444444,0.0009071103394561927,-0.00018372044304026329,-0.0012745512255367191
1589986688.7859657,0.008562815370681848,-4.3485628153706815,8.72862310777591,0.38666666666666666,0.4155555555555556,-0.6844444444444444,0.0006270900935163997,-0.000934058259117356,-0.001868116518234712
1589986688.7959657,0.001199523009377202,-4.343598569028131,8.78359856902813,0.38666666666666666,0.4155555555555556,-0.6844444444444444,0.004101627805397537,0.0001308476622941437,0.0
1589986688.8059657,0.006883164399154426,-4.360649493197463,8.800649493197463,0.38666666666666666,0.4155555555555556,-0.6844444444444444,0.00286164960846955,0.0007508367607581371,0.0
1589986688.8159657,0.01,-4.3549259907687405,8.825074009231258,0.38666666666666666,0.4247674500857694,-0.6844444444444444,0.002181661564992912,0.001912990446751106,0.0008221596642546501
1589986688.8259656,0.009377525944881091,-4.338755051889762,8.862530311338572,0.38666666666666666,0.42777777777777776,-0.6844444444444444,0.0030687881893006375,-6.790138606291024e-05,0.0021137601789300016
1589986688.8359656,0.0008592782144235273,-4.321718556428848,8.760311338573082,0.38666666666666666,0.42777777777777776,-0.6844444444444444,0.00028119813810653215,-0.0009970980697942787,0.0011845634951986332
1589986688.8459656,0.015302089673361738,-4.32,8.788255224183406,0.38666666666666666,0.42777777777777776,-0.6844444444444444,0.001669199045222412,-0.001925430305107662,0.0002562312598852499
1589986688.8559656,0.011639362317244419,-4.353442550731023,8.825081913048267,0.38666666666666666,0.42777777777777776,-0.6844444444444444,-0.001466354813266939,-0.002181661564992912,-0.0009120040945649627
1589986688.8659656,0.03302804734989869,-4.36,8.845352031566598,0.4071360420887988,0.4235133245648336,-0.6733568660907896,-0.004693631855998455,-0.002181661564992912,0.0005838160781739057
1589986688.8759656,0.0009336881319850984,-4.37439787120809,8.77439787120809,0.4133333333333333,0.4222222222222222,-0.67,-0.0029669436208030805,0.0006834324802480723,-0.00010184957556209593
1589986688.8859656,0.009862480042575839,-4.320825119744545,8.720825119744546,0.4133333333333333,0.4222222222222222,-0.67,-4.500330082976307e-05,-0.003212487946383017,-0.0010758296822198682
1589986688.8959656,0.011200730482422767,-4.355197078070309,8.75840511337696,0.4133333333333333,0.4222222222222222,-0.67,0.003141512970318511,0.00039293813151257217,0.0
1589986688.9059656,0.01917953888297063,-4.323281844468117,8.814256772180794,0.4133333333333333,0.4222222222222222,-0.67,0.0022711599892226188,0.0030039970748002485,0.0
1589986688.9159656,0.029200851700002264,-4.367602555100007,8.841598296599996,0.4066666666666667,0.4355555555555555,-0.6844444444444444,0.003272492347489368,0.0,0.0009164836694130076
1589986688.9259655,0.020723912627463845,-4.339638043686268,8.855294567921485,0.4066666666666667,0.4355555555555555,-0.6844444444444444,0.003193525729701823,3.9483308893772595e-05,-0.0010513474736026833
1589986688.9359655,0.03557301089978377,-4.327048673933189,8.738853978200433,0.4066666666666667,0.4355555555555555,-0.6844444444444444,0.0009298609163533842,0.0006079211840672406,0.0
1589986688.9459655,0.009550175362279438,-4.3117992985508815,8.791349473913161,0.4066666666666667,0.4355555555555555,-0.6844444444444444,-9.813651231018116e-05,-0.002279798077303093,4.906825615509058e-05
1589986688.9559655,0.00384845436502542,-4.334606182539898,8.808454636904923,0.4066666666666667,0.4355555555555555,-0.6844444444444444,-0.0013420590677123959,-0.0035237206327053076,0.0006710295338561979
1589986688.9659655,0.005739243916814011,-4.361478487833628,8.82,0.4066666666666667,0.4279032303331368,-0.6920967696668632,-0.0028077159582645373,-0.003111214343442573,0.0004647763892248307
1589986688.9759655,0.0015808145594484087,-4.36,8.775784494508137,0.4066666666666667,0.4222222222222222,-0.6977777777777778,-0.002239141604421742,-0.0008609106247811362,-5.7480039428829923e-05
1589986688.9859655,0.026801090355167163,-4.36,8.708530425719553,0.4066666666666667,0.4222222222222222,-0.6977777777777778,-0.0031561767104557525,0.0028072297993549057,-0.0009745151454628404
1589986688.9959655,0.03,-4.36,8.74874357814039,0.4066666666666667,0.4222222222222222,-0.6977777777777778,0.003108027110657576,0.001145652528107053,0.0010360090368858588
1589986689.0059655,0.004067678684376977,-4.368644107105208,8.775932321315622,0.4066666666666667,0.4222222222222222,-0.6977777777777778,0.0013866407239779951,-0.0007950208410149164,0.002976682406007829
1589986689.0159655,0.006260599756712445,-4.34495760097315,8.80504239902685,0.4031885556907153,0.4257003331981736,-0.6845609560691626,0.0031396072619499834,-0.001090830782496456,0.0012237158680358405
1589986689.0259655,0.017850948612110423,-4.34570189722422,8.81214905138789,0.4011111111111111,0.42777777777777776,-0.6766666666666666,0.0026505118464082477,-0.0019472364242852438,0.000856405641788788
1589986689.0359654,0.02,-4.3436111894024805,8.765278325817363,0.4011111111111111,0.42777777777777776,-0.6766666666666666,0.0014847504386615023,-0.0014847504386615023,0.0017877419088278656
1589986689.0459654,0.00482126424577051,-4.34,8.793125575139804,0.4011111111111111,0.42777777777777776,-0.6766666666666666,0.0019187023925011104,-0.001090830782496456,0.0013537899549882575
1589986689.0559654,0.032540175056731346,-4.323729912471634,8.81,0.4011111111111111,0.42777777777777776,-0.6766666666666666,0.0004068703340076162,-0.002865622013481752,-0.0015713560639814877
