time,acc_x,acc_y,acc_z,mag_x,mag_y,mag_z,gyr_x,gyr_y,gyr_z
1589986714.180416,-3.66,-0.64,9.09,0.3,-0.38666666666666666,-0.6355555555555555,0.001090830782496456,-0.003272492347489368,0.0
1589986714.190416,-3.6812179914038383,-0.599391004298081,8.972435982807676,0.3,-0.38666666666666666,-0.6355555555555555,0.0012236930341087127,-0.0019159370617683985,-0.0030067678442648547
1589986714.200416,-3.698145166172287,-0.5909274169138568,9.006290332344573,0.3,-0.38666666666666666,-0.6355555555555555,0.0030701613639208024,0.0017769995978557797,0.0006861688153593235
1589986714.210416,-3.6757297894463217,-0.5980900701845594,9.042360280738238,0.3,-0.38666666666666666,-0.6355555555555555,0.003272492347489368,0.00041668204701807697,0.00020834102350903848
1589986714.220416,-3.6797996126968093,-0.620200387303191,9.098797676180853,0.3,-0.38666666666666666,-0.6355555555555555,-0.001068971918622232,-0.005366718456985384,-0.001090830782496456
1589986714.230416,-3.672736718026438,-0.6272632819735624,9.056420308158625,0.3,-0.38666666666666666,-0.6355555555555555,-0.00029852962662511406,-0.002284949288996912,-0.001090830782496456
1589986714.240416,-3.679796655497833,-0.63,8.941220067013003,0.3,-0.38666666666666666,-0.6355555555555555,0.0,-0.0020263914553021603,0.002115117232268304
1589986714.250416,-3.673350035350896,-0.63,8.979899787894624,0.3,-0.38666666666666666,-0.6355555555555555,0.0,0.0028961287342361562,5.465722466168124e-06
1589986714.260416,-3.6837564439588952,-0.6024871120822095,9.041269331876686,0.3,-0.38666666666666666,-0.6355555555555555,0.0022508928792075483,0.0032032610332747317,-0.001841128408898972
1589986714.270416,-3.69,-0.6081285062871356,9.078128506287136,0.3,-0.3745809958085763,-0.6103770746012006,0.002283735712554968,0.003170418199927312,-0.001192904930058512
1589986714.280416,-3.68,-0.6,9.06713343423163,0.3,-0.37333333333333335,-0.6077777777777778,0.0020878534195872328,0.0009657532552888839,-6.253876360378605e-05
1589986714.290416,-3.68,-0.6,8.972387675348438,0.3,-0.37333333333333335,-0.6077777777777778,-0.0010126942894359337,-0.0031683103567420046,-0.00212957056961923
1589986714.300416,-3.6799512878686778,-0.64,9.030048712131322,0.3,-0.37333333333333335,-0.6077777777777778,-0.001090830782496456,-0.0022082299111567455,-0.0010802034440309226
1589986714.310416,-3.6729542573068197,-0.64,9.037045742693179,0.3,-0.37333333333333335,-0.6077777777777778,-0.001090830782496456,-0.00602451807262819,0.00044631182055765504
1589986714.320416,-3.678807879624918,-0.6311921203750818,9.057615759249837,0.29510673354171213,-0.37333333333333335,-0.6322441100692173,-0.0030124120271732835,-0.0018710717434447096,-0.0037131223291956127
1589986714.330416,-3.6722286989206245,-0.6144573978412494,9.021143494603123,0.29444444444444445,-0.37333333333333335,-0.6355555555555555,-0.003272492347489368,0.001452321548732694,-0.00012473591127057457
1589986714.340416,-3.6792479918475003,-0.61,8.9637600407625,0.29444444444444445,-0.37333333333333335,-0.6355555555555555,-0.003272492347489368,0.0031904609833458717,8.203136414349616e-05
1589986714.350416,-3.664475719937799,-0.6022378599688994,9.022097120248803,0.29444444444444445,-0.37333333333333335,-0.6355555555555555,-0.003272492347489368,0.0015790560906948777,-0.0008467181283972451
1589986714.360416,-3.66,-0.6112534736919595,9.05125347369196,0.29444444444444445,-0.37333333333333335,-0.6355555555555555,-0.0038862741231495378,-0.0019780780958043925,-0.001090830782496456
1589986714.370416,-3.667096849748214,-0.6270968497482141,9.067096849748214,0.3031183719144839,-0.3780645664988094,-0.6473836384692457,-0.00358917691357541,-0.0028150306971649964,0.00045746165032437155
1589986714.380416,-3.6760043850490707,-0.63,9.06399561495093,0.30666666666666664,-0.38,-0.6522222222222223,-0.003927469151638159,-0.004146591977439284,-0.0002191228258011256
1589986714.390416,-3.6661487941036963,-0.63,8.997669573466633,0.30666666666666664,-0.38,-0.6522222222222223,-0.002852390953347357,-0.0031877556475245795,-0.0018462968708156894
1589986714.400416,-3.66,-0.6118313065789711,8.988168693421029,0.30666666666666664,-0.38,-0.6522222222222223,-0.0015210292296129412,-0.002181661564992912,0.00046086777652697055
1589986714.410416,-3.6728346305984436,-0.6128346305984432,9.03850389179533,0.30666666666666664,-0.38,-0.6522222222222223,-0.0038909128102470247,-8.160004417998544e-05,0.002181661564992912
1589986714.4204159,-3.6738922917826744,-0.6016768753480232,9.066107708217325,0.29037944475379845,-0.3725350232899354,-0.6291486578456589,-0.006786649139275342,-0.0022404072844861974,0.002847909178389443
1589986714.4304159,-3.6351786131216435,-0.6161160401587672,9.087410693439178,0.28,-0.36777777777777776,-0.6144444444444445,-0.0028877853904590396,0.0013343129744335597,0.004222098364892598
1589986714.4404159,-3.6503907487591087,-0.6335938325060725,8.994843172457493,0.28,-0.36777777777777776,-0.6144444444444445,0.000784052624952041,0.0044059472074516265,0.0036218945824995855
1589986714.4504158,-3.66,-0.6305095923261391,9.016432853717026,0.28,-0.36777777777777776,-0.6144444444444445,0.003216904447901719,0.00545415391248228,0.00016676369876294757
1589986714.4604158,-3.6663494145199063,-0.6236505854800937,9.032698829039813,0.28,-0.36777777777777776,-0.6144444444444445,0.0053503333902325,0.007531994955225412,0.0020778410427431324
1589986714.4704158,-3.690034900874321,-0.6066433994171194,9.073391501457202,0.28964643375430266,-0.37594014480064925,-0.6240908781987471,0.0043595160351813,0.009455135813237462,0.0010870236876919315
1589986714.4804158,-3.7,-0.5926226883175462,9.038358818222823,0.29444444444444445,-0.38,-0.6288888888888889,0.0024677524799602392,0.004184297969764202,0.0016094797350582576
1589986714.4904158,-3.691524115755627,-0.581524115755627,8.952192926045015,0.29444444444444445,-0.38,-0.6288888888888889,0.00033251047646515775,0.001257086020729035,0.001257086020729035
1589986714.5004158,-3.6536325584871814,-0.5890918603782046,8.967275581134615,0.29444444444444445,-0.38,-0.6288888888888889,-0.003967072468282201,-0.002876241685785745,-0.0018844735687151947
1589986714.5104158,-3.664460806524694,-0.6333824195740825,9.013382419574082,0.29444444444444445,-0.38,-0.6288888888888889,-0.003574608485142725,-0.003272492347489368,-0.001392946920149813
1589986714.5204158,-3.67,-0.644430671839902,9.05784664080049,0.29444444444444445,-0.3762871145599347,-0.6301265173689107,-0.003272492347489368,-0.0008424145095456605,-0.0016983502419823829
1589986714.5304158,-3.67,-0.64,9.084008553269843,0.29444444444444445,-0.37333333333333335,-0.6311111111111111,-0.0015234310274803995,0.0024026267725031827,-0.000869865574986185
1589986714.5404158,-3.678370293411672,-0.6316297065883281,9.052333679647475,0.29444444444444445,-0.37333333333333335,-0.6311111111111111,0.0015473594680954098,0.004819851815584778,0.00017777341129854827
1589986714.5504158,-3.6822402293647203,-0.5967206880941602,9.04655862381168,0.29444444444444445,-0.37333333333333335,-0.6311111111111111,0.0013352018975853709,0.004607694245074739,-0.0002443711150889148
1589986714.5604157,-3.68,-0.59,9.06,0.29444444444444445,-0.37333333333333335,-0.6311111111111111,0.0018680015620675294,0.005917664689127971,0.0007771707795710736
1589986714.5704157,-3.674521075794621,-0.6064367726161369,9.06547892420538,0.30540229285520243,-0.37698594947025266,-0.633546188535724,0.0015840036471736802,0.005349668859340272,0.00228614661813492
1589986714.5804157,-3.685694102938112,-0.6278470514690561,8.999376536778495,0.3144444444444445,-0.38,-0.6355555555555555,0.002802791841352532,0.002651362071129748,0.001560531288633292
1589986714.5904157,-3.6836546524267155,-0.6109639572801463,8.941927914560292,0.3144444444444445,-0.38,-0.6355555555555555,0.0018881522557737704,0.0028738316108507106,0.002475170874212054
1589986714.6004157,-3.672000539436674,-0.607999460563326,8.975996223943282,0.3144444444444445,-0.38,-0.6355555555555555,-0.0015269865652562805,0.0015272807823208767,0.0006546749997366316
1589986714.6104157,-3.682659444377465,-0.5973405556225349,9.046967499698592,0.3144444444444445,-0.38,-0.6355555555555555,-0.002181661564992912,0.0024717619441205155,0.0
1589986714.6204157,-3.7639984937058424,-0.5604006025176631,9.146598644335258,0.2947115127895532,-0.38,-0.6322667336130736,-0.0037960582608469722,-0.003992292783853901,0.00161439669585406
1589986714.6304157,-3.748345073241015,-0.55,9.100575122068358,0.2877777777777778,-0.38,-0.6311111111111111,-0.007392554886741572,-0.01638998790443491,0.010512048896071213
1589986714.6404157,-3.7834716094654213,-0.5118059932389847,8.993611986477969,0.2877777777777778,-0.38,-0.6311111111111111,-0.012892966088150971,-0.025725368661247854,0.03834545517589401
1589986714.6504157,-3.85464984826372,-0.5546498482637199,8.946578636458405,0.2877777777777778,-0.38,-0.6311111111111111,-0.008219426497971302,-0.013644772592165405,0.09180263263943139
1589986714.6604156,-3.705138645064405,-0.6180845618562152,8.981215338733898,0.2877777777777778,-0.38,-0.6311111111111111,-0.0005504566680513637,0.011163371051777697,0.11071428314658713
1589986714.6704156,-3.6759783161104522,-0.6055162629171608,9.011494579027612,0.2986337690816346,-0.3761684736574623,-0.6215322952547668,-0.00408765875258635,-0.0012168362440947607,0.10717708106205215
1589986714.6804156,-3.7727484750627918,-0.5015644061715105,9.035687118765697,0.30666666666666664,-0.37333333333333335,-0.6144444444444445,-0.009582245861886702,-0.01574209331611319,0.10596049196232707
1589986714.6904156,-3.7394518428209698,-0.47157530713682827,8.997876535684142,0.30666666666666664,-0.37333333333333335,-0.6144444444444445,-0.013493442765758465,-0.026299528124821468,0.13814712533262075
1589986714.7004156,-3.5345554168400612,-0.4781435242983308,9.022574097193322,0.30666666666666664,-0.37333333333333335,-0.6144444444444445,-0.015957441568979342,-0.029249921043170563,0.19018233959919295
1589986714.7104156,-2.9221838373990634,-0.5375003708962974,8.986874721827776,0.30666666666666664,-0.37333333333333335,-0.6144444444444445,-0.007738025232883217,-0.004363161295946501,0.23442657031536931
1589986714.7204156,-3.1855106456367004,-0.2093534225957167,8.853117807531905,0.29567774258846974,-0.38532125050954813,-0.6214373961305698,-0.007305600671598274,0.20160599001997895,0.2652722528763702
1589986714.7304156,-3.494784975177941,-0.4711095161193851,9.843698387064617,0.29444444444444445,-0.38666666666666666,-0.6222222222222222,-0.19544728980080164,0.36089954949115544,0.22261673391281422
1589986714.7404156,-3.5338721518344975,-0.6167723328315037,9.943877395672988,0.29444444444444445,-0.38666666666666666,-0.6222222222222222,-0.27904062917724776,0.40874461075149204,0.21338044712774837
1589986714.7504156,-3.330342049469965,-0.54746925795053,9.246313427561837,0.29444444444444445,-0.38666666666666666,-0.6222222222222222,-0.15737812715226887,0.16525049487399074,0.21193454474642184
1589986714.7604156,-2.6400344380852423,-0.4321223699962282,8.855827907968317,0.29444444444444445,-0.38666666666666666,-0.6222222222222222,0.038650031355312205,-0.028753719119442078,0.21823289897866105
1589986714.7704155,-1.8672346400089856,-0.6503538133213524,9.101897113332585,0.2960968212961923,-0.38666666666666666,-0.6248660251850188,0.05072712331883833,0.06547263640564992,0.22727336216737629
1589986714.7804155,-1.565571682269628,-1.0644283177303722,9.018203284295456,0.3,-0.38666666666666666,-0.6311111111111111,0.017898727246741568,0.018920273497504636,0.22601578064562955
1589986714.7904155,-1.6450698802602703,-0.864743772379009,8.594510838178108,0.3,-0.38666666666666666,-0.6311111111111111,0.06357011363703204,0.04150238809419311,0.2790422251136452
1589986714.8004155,-1.8344424082599562,-0.7782831984981898,8.902318419523533,0.3,-0.38666666666666666,-0.6311111111111111,0.01878161656402917,-0.0021314422959645626,0.3165610140894033
1589986714.8104155,-1.9537796342289455,-0.7565855210492827,9.191095465834684,0.3,-0.38666666666666666,-0.6311111111111111,-0.03185980884253057,-0.038311851593336756,0.33751883818954426
1589986714.8204155,-2.006384050942521,-0.7281545987433053,9.247231898114958,0.29332501628267665,-0.38302576645721753,-0.6298974777079615,-0.02813580255905689,-0.03895978984995507,0.3643619770899813
1589986714.8304155,-2.0497400043696743,-0.6653899934454883,9.01181996941228,0.2877777777777778,-0.38,-0.6288888888888889,0.012080408718195405,-0.00783434334328676,0.3993536976281246
1589986714.8404155,-2.068156068148356,-0.6581560681483559,8.980780340741779,0.2877777777777778,-0.38,-0.6288888888888889,0.0018411736842052634,-0.024911292561023323,0.4137962522690105
1589986714.8504155,-2.1057842416090455,-0.6814705449654274,9.111666421470755,0.2877777777777778,-0.38,-0.6288888888888889,-0.022479628748220404,-0.040692245501514505,0.4187292923131847
1589986714.8604155,-2.143475710508923,-0.6782621447455387,9.107179651354924,0.2877777777777778,-0.38,-0.6288888888888889,-0.0196598501526547,-0.034480851016711334,0.4225306540275463
1589986714.8704154,-2.145689688906281,-0.6270690667188417,8.941207200156526,0.2925478814756843,-0.39033522467879733,-0.6241187851909824,-0.003413568290989691,-0.015563173676314138,0.42589418717593425
1589986714.8804154,-2.074863286781847,-0.6172374125797948,8.926187062898974,0.29444444444444445,-0.3944444444444444,-0.6222222222222222,-0.0031579169710668877,-0.017224141767098338,0.4225674397422807
1589986714.8904154,-2.0555276828047373,-0.6255276828047376,8.923416951585788,0.29444444444444445,-0.3944444444444444,-0.6222222222222222,-0.004363323129985824,-0.023252814020506635,0.415030915484348
1589986714.9004154,-2.071788203407331,-0.6123176948890036,8.868741288074341,0.29444444444444445,-0.3944444444444444,-0.6222222222222222,-0.0011485893432242786,-0.02103636472109647,0.3979363858289736
1589986714.9104154,-2.1206332282588543,-0.6045148031398726,8.916751653377835,0.29444444444444445,-0.3944444444444444,-0.6222222222222222,0.00010585353411950269,-0.019915735640885678,0.3761293964981459
1589986714.9204154,-2.1626971596917963,-0.6051314397945309,9.022171400513672,0.29444444444444445,-0.3944444444444444,-0.6243860267579863,-0.004808373519490534,-0.023438523966281873,0.34908706877977635
1589986714.9304154,-2.14,-0.585989237274175,9.06,0.29444444444444445,-0.3944444444444444,-0.6311111111111111,-0.012424904639089414,-0.02596412068594236,0.29774984237099833
1589986714.9404154,-2.143791317217563,-0.538295510606808,9.044834731129749,0.29444444444444445,-0.3944444444444444,-0.6311111111111111,-0.004477141931415523,-0.023962221140710258,0.2509384372059854
1589986714.9504154,-2.1745936337480987,-0.47983745349923945,9.079024720995436,0.29444444444444445,-0.3944444444444444,-0.6311111111111111,-0.004310129912000831,-0.016397923882770164,0.18917473326109013
1589986714.9604154,-2.215660460504572,-0.49,9.108679078990857,0.29444444444444445,-0.3944444444444444,-0.6311111111111111,-0.0059275242388294805,-0.009910072075839646,0.13515482925695477
1589986714.9704154,-2.2160004836174587,-0.47400032241163903,9.024000725426188,0.2886667830930919,-0.39844436384153464,-0.6311111111111111,-0.0028361688269042985,-0.00021822770339388273,0.06981369762458396
1589986714.9804153,-2.1937288900590515,-0.46372889005905144,8.942542219881897,0.28,-0.4044444444444445,-0.6311111111111111,-0.0026808580945236744,0.005860912718578111,-0.0039012986277218373
1589986714.9904153,-2.184868282883623,-0.48,8.859736565767246,0.28,-0.4044444444444445,-0.6311111111111111,-0.003272492347489368,0.009691899276040455,-0.09064326691697888
1589986715.0004153,-2.17,-0.4678477895384907,8.860380526153774,0.28,-0.4044444444444445,-0.6311111111111111,4.1508964208089236e-05,0.012233908349643541,-0.16486854313572116
1589986715.0104153,-2.1968168942628843,-0.46,8.971177440493808,0.28,-0.4044444444444445,-0.6311111111111111,0.003936823190167313,0.017185346515364408,-0.2391377506962257
1589986715.0204153,-2.200603289494943,-0.46646557016835233,9.030603289494943,0.2756896198877651,-0.4044444444444445,-0.6253639376281313,0.011801712581908857,0.02284163775724152,-0.3292620567027184
1589986715.0304153,-2.2166646599729094,-0.49666465997290965,9.066663154952591,0.2733333333333333,-0.4044444444444445,-0.6222222222222222,0.015998796752531658,0.025452608810084577,-0.4137842630725957
1589986715.0404153,-2.217270626188699,-0.5354587476226016,9.019988444037846,0.2733333333333333,-0.4044444444444445,-0.6222222222222222,0.02052813957602817,0.030345616618496277,-0.495940278812622
1589986715.0504153,-2.2216145641780067,-0.5616145641780066,8.99742184626701,0.2733333333333333,-0.4044444444444445,-0.6222222222222222,0.022907446432425576,0.037159256920621275,-0.5775493644683893
1589986715.0604153,-2.2397283663174234,-0.5764855775449489,9.035942310179795,0.2733333333333333,-0.4044444444444445,-0.6222222222222222,0.021492512906765963,0.04248313924085829,-0.6424364010586969
1589986715.0704153,-2.2578127021083945,-0.5885418014055965,9.084167205622386,0.2733333333333333,-0.4044444444444445,-0.6222222222222222,0.01886225288519343,0.0464285292732171,-0.6950416014901476
1589986715.0804152,-2.257563168333908,-0.5975631683339082,9.015631683339082,0.2877777777777778,-0.4,-0.6666666666666666,0.02208243274924262,0.057227272503200255,-0.8110268544725142
1589986715.0904152,-2.25,-0.6032164869029275,8.905637134052387,0.2877777777777778,-0.4,-0.6666666666666666,0.02319578544742907,0.06390738869231895,-0.9012484263874441
1589986715.1004152,-2.282753470811728,-0.6454589118019547,8.848212382613683,0.2877777777777778,-0.4,-0.6666666666666666,0.026380176827924158,0.06872233929727672,-1.0162957271168955
1589986715.1104152,-2.2860262948873373,-0.6835631871577275,8.91835792818026,0.2877777777777778,-0.4,-0.6666666666666666,0.02940765056520325,0.07133746484801522,-1.09672015604809
1589986715.1204152,-2.266943623805546,-0.72,8.973887247611092,0.30359380977929906,-0.40231454126851535,-0.6616518272515501,0.032815557486650174,0.07644878878650842,-1.1728211365657846
1589986715.1304152,-2.27222976419351,-0.739425589516224,8.99222976419351,0.3333333333333333,-0.4066666666666667,-0.6522222222222223,0.03835964846562575,0.0828404810059815,-1.2669666344611439
1589986715.1404152,-2.286203399940352,-0.787468933293568,8.962531066706433,0.3333333333333333,-0.4066666666666667,-0.6522222222222223,0.04036073895236887,0.08712841432592008,-1.35577263917076
1589986715.1504152,-2.3316614696063684,-0.8274922044095528,8.951661469606368,0.3333333333333333,-0.4066666666666667,-0.6522222222222223,0.04258685970512926,0.09153746588615634,-1.423523966753842
1589986715.1604152,-2.396464853977845,-0.87,9.007348640483384,0.3333333333333333,-0.4066666666666667,-0.6522222222222223,0.04899097905980085,0.10374051204198304,-1.5164574646885738
1589986715.1704152,-2.430493359238144,-0.8937666019046406,9.04,0.3497058813120857,-0.3971600259048104,-0.6691229169099666,0.04706717508048647,0.10856457143058719,-1.596237313448401
1589986715.1804152,-2.408075563566563,-0.9140377817832814,9.004226690699689,0.36777777777777776,-0.38666666666666666,-0.6877777777777778,0.04558436264868556,0.11319526439735532,-1.676129101287561
1589986715.1904151,-2.405535654240176,-0.9708921966419333,8.919107803358067,0.36777777777777776,-0.38666666666666666,-0.6877777777777778,0.045094185033415383,0.12094581715962928,-1.7413161469473966
1589986715.2004151,-2.4154958708615055,-1.0419834834460218,8.89198348344602,0.36777777777777776,-0.38666666666666666,-0.6877777777777778,0.04363323129985824,0.11955865711471159,-1.8032830358697283
1589986715.2104151,-2.440102095195355,-1.06,8.920051047597678,0.36777777777777776,-0.38666666666666666,-0.6877777777777778,0.045826029723035,0.11928272698325226,-1.8472310760358333
1589986715.220415,-2.475394777438084,-1.06,8.937697388719041,0.36777777777777776,-0.38666666666666666,-0.6877777777777778,0.049675864141758425,0.12569911768112466,-1.878671390455408
1589986715.230415,-2.485925508286349,-1.1503724585682555,8.951851016572698,0.3922222222222223,-0.3533333333333333,-0.6944444444444444,0.05716765878824344,0.1309403228267205,-1.9544474209667462
1589986715.240415,-2.4751902248289346,-1.2232879765395894,8.925570674486803,0.3922222222222223,-0.3533333333333333,-0.6944444444444444,0.05991269179770632,0.1367955116538068,-2.0035092995115513
1589986715.250415,-2.458503186298915,-1.2853290849347805,8.906167728766306,0.3922222222222223,-0.3533333333333333,-0.6944444444444444,0.06301342648801604,0.14129848393098246,-2.042903718603837
1589986715.260415,-2.4272422335628994,-1.3525258881236684,8.946778476936036,0.3922222222222223,-0.3533333333333333,-0.6944444444444444,0.06528678712365686,0.14630909068044706,-2.0838242100453717
1589986715.270415,-2.4403690201320534,-1.4289806375825334,9.017592255033012,0.40993748396592006,-0.3305565682342933,-0.708785370617914,0.06157155843313906,0.1469592575524421,-2.1237861585476634
1589986715.280415,-2.477054739652871,-1.485890520694259,8.999794392523365,0.4388888888888889,-0.2933333333333333,-0.7322222222222222,0.05486281718973429,0.14572305020185164,-2.1658595193904513
1589986715.290415,-2.451065734912689,-1.5468027952619319,8.910861542019791,0.4388888888888889,-0.2933333333333333,-0.7322222222222222,0.05818506639624898,0.15382941432131428,-2.1965127293469933
1589986715.300415,-2.4244832017624383,-1.611033596475124,8.865516798237563,0.4388888888888889,-0.2933333333333333,-0.7322222222222222,0.05830307292097314,0.15959981826774894,-2.2226990716240707
1589986715.310415,-2.385970492031457,-1.7041770478112603,8.908059015937088,0.4388888888888889,-0.2933333333333333,-0.7322222222222222,0.05322288572570223,0.160352125026979,-2.2583280128853285
1589986715.320415,-2.3830032288549376,-1.7520129154197512,8.910990313435187,0.446897499168723,-0.28132041791358214,-0.7385623720270909,0.055200264155550696,0.1636281395088267,-2.2857366836192776
1589986715.330415,-2.3121646236287114,-1.8133580184448381,8.773246935443067,0.4655555555555556,-0.2533333333333333,-0.7533333333333333,0.06921074328231941,0.1712604328519436,-2.3216622863250898
1589986715.340415,-2.3186598250846773,-1.9086598250846771,8.782989737627016,0.4655555555555556,-0.2533333333333333,-0.7533333333333333,0.07558220411803548,0.1700121620065571,-2.3513869710180226
1589986715.350415,-2.319817962990823,-1.9683636728348628,8.847454490747705,0.4655555555555556,-0.2533333333333333,-0.7533333333333333,0.06786946618510069,0.17637745271334893,-2.378606164126813
1589986715.360415,-2.2628795717035612,-2.007905738691049,8.853612548123195,0.4655555555555556,-0.2533333333333333,-0.7533333333333333,0.05711726855941884,0.1832538627083172,-2.405373248230998
1589986715.370415,-2.2599984208697848,-2.1200003158260428,8.889998420869784,0.4822227485989606,-0.22499910515954477,-0.771111672579632,0.06381351464785026,0.18162365257279106,-2.4483701564055345
1589986715.380415,-2.21,-2.13,8.84,0.4988888888888889,-0.19666666666666666,-0.7888888888888889,0.061086523819801536,0.19198621771937624,-2.463095906876997
1589986715.390415,-2.2345846140890147,-2.195558970904038,8.913753842267042,0.4988888888888889,-0.19666666666666666,-0.7888888888888889,0.06376828920221081,0.19198621771937624,-2.4863378735245445
1589986715.400415,-2.124964972157356,-2.2497898329441353,8.777447458236034,0.4988888888888889,-0.19666666666666666,-0.7888888888888889,0.05345070834232633,0.19416787928436915,-2.5265890381461653
1589986715.410415,-2.144207218207659,-2.352621654622976,8.783171127169366,0.4988888888888889,-0.19666666666666666,-0.7888888888888889,0.05207389940344827,0.2010519239787595,-2.556268603388412
1589986715.420415,-2.1247421579100707,-2.3910482017416075,8.797886763134894,0.5077759074020121,-0.19900535574906753,-0.7898243645218492,0.0465046117746864,0.21053034102181603,-2.5785497038570493
1589986715.430415,-2.09,-2.449391545165757,8.854898590860959,0.52,-0.20222222222222225,-0.7911111111111111,0.04145156973486533,0.21053034102181603,-2.5918139392115798
1589986715.440415,-2.098786565171403,-2.526861680914151,8.810209464028715,0.52,-0.20222222222222225,-0.7911111111111111,0.04432696646327872,0.21084982954719528,-2.5930918933130966
1589986715.450415,-2.0888868452953226,-2.615692847886971,8.642844124900723,0.52,-0.20222222222222225,-0.7911111111111111,0.04803421802664806,0.20965906256209346,-2.5962302923210845
1589986715.460415,-1.6952896242125841,-2.3795965172688436,8.56032401708783,0.52,-0.20222222222222225,-0.7911111111111111,-0.018301883203249495,0.15648795314148542,-2.593480277813687
1589986715.4704149,-2.071885605034653,-2.8159428025173265,9.912741974030112,0.5275492356851395,-0.20092062986271544,-0.7994413022119546,0.012292245612110148,0.1642418539751274,-2.5702590603828783
1589986715.4804149,-1.9053994780775279,-2.730736567409225,8.769512987574098,0.5522222222222222,-0.19666666666666666,-0.8266666666666667,0.11933565845752195,0.2499343808650801,-2.5133544699121715
1589986715.4904149,-1.8284232834133936,-2.722832014693416,8.334912051426958,0.5522222222222222,-0.19666666666666666,-0.8266666666666667,0.07603732445807176,0.187962912308221,-2.508824803192452
1589986715.5004148,-1.882631597216196,-2.858088651312935,8.927091410819347,0.5522222222222222,-0.19666666666666666,-0.8266666666666667,0.009560629453545536,0.1461320413911939,-2.503852490617218
1589986715.5104148,-1.7615125676105632,-2.819663378937321,8.906723512567611,0.5522222222222222,-0.19666666666666666,-0.8266666666666667,0.04084642415664044,0.16192864101374704,-2.4754710575970122
1589986715.5204148,-1.7584568274610615,-2.9569340692575232,8.72,0.512462405699212,-0.20094191575516238,-0.8010151721356923,0.06410317486324554,0.18434594852480937,-2.423401823392262
1589986715.5304148,-1.7663731635160207,-3.043955272526701,8.816701599558742,0.4488888888888889,-0.20777777777777776,-0.76,0.041763345067575036,0.1611433780029402,-2.388500157890884
1589986715.5404148,-1.7311769724954829,-3.0705044167837783,8.82693359767115,0.4488888888888889,-0.20777777777777776,-0.76,0.047758119976030966,0.15434338516733262,-2.340290556250692
1589986715.5504148,-1.7157689969604863,-3.1566079027355625,8.735349544072948,0.4488888888888889,-0.20777777777777776,-0.76,0.06383647838211934,0.16153446623378218,-2.283803113375583
1589986715.5604148,-1.7033455838293454,-3.2408386929253385,8.755834098989334,0.4488888888888889,-0.20777777777777776,-0.76,0.05999669527866637,0.15617277855035874,-2.2340254515181868
1589986715.5704148,-1.6349906780492591,-3.2666418081313577,8.833302260164198,0.45814469557379967,-0.15085456666557637,-0.7178860795836559,0.050088160818864025,0.14053502685593272,-2.1757632364030575
1589986715.5804148,-1.6395246122724207,-3.4057130815913688,8.843336142953472,0.4711111111111111,-0.07111111111111111,-0.6588888888888889,0.05244630548764063,0.14347017627662717,-2.1042480700528285
1589986715.5904148,-1.5239748071979435,-3.3735331619537274,8.945504627249358,0.4711111111111111,-0.07111111111111111,-0.6588888888888889,0.06459128741077208,0.15133642263060704,-2.035042915391796
1589986715.6004148,-1.3648752734351481,-3.16843384374561,8.631635593730559,0.4711111111111111,-0.07111111111111111,-0.6588888888888889,0.08336124067494288,0.15769686308572875,-1.9613602444417628
1589986715.6104147,-1.306004224330885,-3.070676523438731,8.057854102960183,0.4711111111111111,-0.07111111111111111,-0.6588888888888889,0.06909940684023166,0.132968355560678,-1.9121525644570823
1589986715.6204147,-1.3853390498407994,-3.2557911162951987,8.447916995050598,0.4711111111111111,-0.07111111111111111,-0.6588888888888889,-0.0196049846947232,0.059408616239008075,-1.891959694839369
1589986715.6304147,-1.385587439459742,-3.3830373587393985,8.906675686122924,0.51,0.031111111111111114,-0.6222222222222222,0.03408152318879944,0.0925050497569138,-1.7745064640771313
1589986715.6404147,-1.4139356736364217,-3.455742694545687,8.598514610908627,0.51,0.031111111111111114,-0.6222222222222222,0.0736728584719231,0.13390075150123087,-1.6748504163622349
1589986715.6504147,-1.421862734031059,-3.555261485865411,8.59748383351341,0.51,0.031111111111111114,-0.6222222222222222,0.033334501761098534,0.08887418509034337,-1.5997817364834512
1589986715.6604147,-1.4015713341181402,-3.6431908854880586,8.915382432149134,0.51,0.031111111111111114,-0.6222222222222222,0.02669415666761126,0.07928257551086174,-1.541494262885063
1589986715.6704147,-1.3623423520728701,-3.61639646451009,8.71324350596749,0.51442444280431,0.051671757084080894,-0.6170169953936223,0.05256623821388211,0.09197372015312268,-1.4134905790776857
1589986715.6804147,-1.3698927112023187,-3.66924897841623,8.917103202462602,0.5286862322710462,0.1179471316647965,-0.6002384195504031,0.04268284122511528,0.0755013918385113,-1.3459540329877786
1589986715.6904147,-1.288010037441249,-3.61,8.822355081122707,0.5288888888888889,0.11888888888888888,-0.6,0.05079507603743089,0.07141232528410851,-1.2125462831209946
1589986715.7004147,-1.2347269195853654,-3.583272109274389,8.732363459792683,0.5288888888888889,0.11888888888888888,-0.6,0.05188379199885813,0.06959489798830652,-1.1202030715181097
1589986715.7104146,-1.215222735522191,-3.5687250453720507,8.74350230984986,0.5288888888888889,0.11888888888888888,-0.6,0.043820900628095856,0.06046821839936487,-1.0404866741944476
1589986715.7204146,-1.220676726108825,-3.6350827617741195,8.804406035665295,0.5280601534318955,0.1321486562007824,-0.6066298836559467,0.03797567510429317,0.05522556534115367,-0.9585237323390431
1589986715.7304146,-1.18,-3.5734823201771406,8.773035359645718,0.5244444444444445,0.19,-0.6355555555555555,0.03480907337863939,0.05193125952483292,-0.855365619037254
1589986715.7404146,-1.1604572762873058,-3.5734857587624353,8.733943035049741,0.5244444444444445,0.19,-0.6355555555555555,0.028411481449937732,0.045534417779068796,-0.772196173781195
1589986715.7504146,-1.1310052623432905,-3.562751315585823,8.704761840272404,0.5244444444444445,0.19,-0.6355555555555555,0.023698155241584272,0.03637834554734941,-0.6955576288556738
1589986715.7604146,-1.1621972052230258,-3.5824508295971462,8.774394410446051,0.5244444444444445,0.19,-0.6355555555555555,0.02314712434169943,0.031554200055972606,-0.63081355133681
1589986715.7704146,-1.1827864319141277,-3.699123114180057,8.815572863828255,0.5244444444444445,0.19,-0.6355555555555555,0.02539306056794459,0.03080555464722422,-0.5724192094544359
1589986715.7804146,-1.138894385837274,-3.6244224566509033,8.738745968230873,0.56,0.2,-0.6144444444444445,0.023521258646473475,0.0220578232423822,-0.45529221385427776
1589986715.7904146,-1.124441014274783,-3.6419332963930446,8.936646085648698,0.56,0.2,-0.6144444444444445,0.012727481649522093,0.022330701209077625,-0.35693546672718723
1589986715.8004146,-1.0949706384796072,-3.5515394334116306,8.75816695138444,0.56,0.2,-0.6144444444444445,0.0203835269067775,0.010733975999610429,-0.2542596576724707
1589986715.8104146,-1.1173617339312407,-3.648567513702043,8.885049825610364,0.56,0.2,-0.6144444444444445,0.004100262791805313,0.005034833559370165,-0.18098496915509588
1589986715.8204145,-1.0806180834188672,-3.6598893347018753,8.726180834188673,0.5613048427731642,0.20247233367546888,-0.6154745834758898,0.01132491418801,0.0015748595874869988,-0.06769186707165444
1589986715.8304145,-1.0884454604833442,-3.7851273677335078,8.804454604833442,0.5778293054648378,0.23378184193337687,-0.6285202119166847,0.002786570339871744,-0.006109649875837432,0.0006148837134516139
1589986715.8404145,-1.0663266628858463,-3.6828577601339494,8.810408868724513,0.5811111111111111,0.24,-0.6311111111111111,-0.004096190516745448,-0.011175440438204934,0.10400708725689939
1589986715.8504145,-1.0423095162433695,-3.5715475812168473,8.679238064973477,0.5811111111111111,0.24,-0.6311111111111111,-0.001929732423898617,-0.01510540251871183,0.17353555458200165
1589986715.8604145,-1.039293812432333,-3.5885876248646658,8.727129900108267,0.5811111111111111,0.24,-0.6311111111111111,-0.0024922674579354914,-0.022984479546128315,0.22291217175965908
1589986715.8704145,-1.012732788798133,-3.52620536756126,8.800417736289381,0.5971878646441073,0.24450149098923893,-0.6352267600155581,-0.008393414639367713,-0.0272707695624114,0.2603857627500939
1589986715.8804145,-1.1023233932394088,-3.6653532135211826,8.844175835117241,0.72,0.2788888888888889,-0.6666666666666666,-0.011947765783234317,-0.0278290281597163,0.3007422150807371
1589986715.8904145,-1.0814427241499478,-3.7071145517001045,8.746732712699757,0.72,0.2788888888888889,-0.6666666666666666,-0.005873825356059348,-0.029347513266510045,0.3265564618962307
1589986715.9004145,-1.1255784172944903,-3.5955784172944902,8.764875779451973,0.72,0.2788888888888889,-0.6666666666666666,-0.008650000361215283,-0.03579457884563502,0.38061864093269987
1589986715.9104145,-1.1496399471836656,-3.618919841550997,8.829369907571415,0.72,0.2788888888888889,-0.6666666666666666,-0.013109607224726576,-0.03495567962680936,0.4237823840647753
1589986715.9204144,-1.122624392129078,-3.537873176387234,8.782092686225885,0.72,0.2788888888888889,-0.6666666666666666,-0.014583077177715172,-0.03863935450928084,0.46430280777196165
1589986715.9304144,-1.1481898982992906,-3.528642423724468,8.788642423724466,1.1984345592494465,0.4571084142855787,-1.0188623954267917,-0.02360337428400544,-0.044526610616896396,0.5530163870267661
1589986715.9404144,-1.1584925531251946,-3.5724627656259735,8.79,1.2211111111111108,0.4655555555555556,-1.0355555555555556,-0.023071883377827142,-0.04842963743073425,0.6165392984843605
1589986715.9504144,-1.2057121715713628,-3.642244595938766,8.69040272689779,1.2211111111111108,0.4655555555555556,-1.0355555555555556,-0.02666963364876946,-0.05031162238447681,0.7161170045557091
1589986715.9604144,-1.2659513203945276,-3.661902640789055,8.818097359210945,1.2211111111111108,0.4655555555555556,-1.0355555555555556,-0.028145204228812865,-0.056056311937487696,0.7885556031186578
1589986715.9704144,-1.2894902965717678,-3.7110194068564644,8.77254851714116,1.2092180311190277,0.42228739787007236,-1.0359519915552917,-0.027103969505573523,-0.06245535469702778,0.8483962574578351
1589986715.9804144,-1.28,-3.707483173170447,8.81099326926818,0.9877777777777778,-0.38333333333333336,-1.0433333333333332,-0.023261415780027477,-0.06861399042797302,0.9190359473874531
1589986715.9904144,-1.278746141059131,-3.627492282118262,8.776238423177391,0.9877777777777778,-0.38333333333333336,-1.0433333333333332,-0.020771376465086276,-0.07231397282834139,0.9723472867056056
1589986716.0004144,-1.2538452861553075,-3.577690572310615,8.701535858465922,0.9877777777777778,-0.38333333333333336,-1.0433333333333332,-0.021676797099738555,-0.07865191727090734,1.0239562628807852
1589986716.0104144,-1.323720444783429,-3.5432579984745693,8.807440889566859,0.9877777777777778,-0.38333333333333336,-1.0433333333333332,-0.027194532703500623,-0.08105107861526124,1.0921996304054455
1589986716.0204144,-1.3418180033375873,-3.470909001668794,8.836818494159223,0.9720217488520227,-0.36384029754698255,-1.0300518089504052,-0.031485357642148125,-0.08721688424963345,1.1286130189218282
1589986716.0304143,-1.3841773518251994,-3.4879113240874005,8.784620731388198,0.6411111111111111,0.045555555555555564,-0.7511111111111111,-0.0295007963349692,-0.08663131021324456,1.1717940864390184
1589986716.0404143,-1.3978967682847048,-3.4810516158576474,8.832638688996466,0.6411111111111111,0.045555555555555564,-0.7511111111111111,-0.03324218678294847,-0.08812786639243626,1.1905010386789145
1589986716.0504143,-1.3918358002762976,-3.4233955002960332,8.741835800276299,0.6411111111111111,0.045555555555555564,-0.7511111111111111,-0.035006712412481635,-0.08954825153730443,1.2220308585138158
1589986716.0604143,-1.5077233076771266,-3.547560686796921,8.857723307677126,0.6411111111111111,0.045555555555555564,-0.7511111111111111,-0.04132739543146214,-0.09586893455628492,1.240992907570757
1589986716.0704143,-1.48,-3.4601938746839,8.7503877493678,0.6408777434360463,0.04586072866910182,-0.7510428959445536,-0.0305926082869679,-0.09272766599463693,1.2610250577544366
1589986716.0804143,-1.48,-3.5107012403163007,8.8514024806326,0.5800818403600084,0.12536306346084375,-0.7332717858146349,-0.04344810576104738,-0.09456416563379112,1.2674528064914763
1589986716.0904143,-1.4873716856060606,-3.41,8.74262831439394,0.5688888888888889,0.14,-0.73,-0.03235085425414413,-0.09556305192263997,1.268723564639429
1589986716.1004143,-1.4733317479945465,-3.41499762199182,8.756668252005454,0.5688888888888889,0.14,-0.73,-0.03672480927768229,-0.09272061651219876,1.2606374660396107
1589986716.1104143,-1.4999292938901043,-3.4548939408351567,8.730070706109895,0.5688888888888889,0.14,-0.73,-0.033823467097508615,-0.09272061651219876,1.249032097318916
1589986716.1204143,-1.5287455944760124,-3.460627202761994,8.804355175142057,0.5688888888888889,0.14,-0.73,-0.035792164198488144,-0.09374303008673025,1.219077583465169
1589986716.1304142,-1.5512161781781078,-3.4317117624291895,8.824144118785405,0.565745751381021,0.13528529373819828,-0.7449299031623721,-0.03136876377366114,-0.088411353237853,1.1865094729412322
1589986716.1404142,-1.5899786713010506,-3.3800284382652657,8.810014219132633,0.5644444444444444,0.13333333333333333,-0.7511111111111111,-0.032722596874757225,-0.0850855765681024,1.1170510490120695
1589986716.1504142,-1.6350375828671413,-3.4716541390442863,8.659924834265718,0.5644444444444444,0.13333333333333333,-0.7511111111111111,-0.027180550273009568,-0.07490644683464814,1.0483293785274665
1589986716.1604142,-1.5859576078728237,-3.500922281100177,8.775957607872824,0.5644444444444444,0.13333333333333333,-0.7511111111111111,-0.025205127471257055,-0.0700375019212404,0.9806025108401547
1589986716.1704142,-1.6388758516275548,-3.597939061317184,8.828875851627554,0.5644444444444444,0.13333333333333333,-0.7511111111111111,-0.016546400084760302,-0.06234085535546551,0.9122947725689026
1589986716.1804142,-1.598295270634778,-3.547838518252113,8.80852364682611,0.5377777777777778,0.02666666666666667,-0.7022222222222222,-0.013994843045712937,-0.05850803602337717,0.8103244608303151
1589986716.1904142,-1.5907529221363066,-3.4497879877719835,8.846235389318467,0.5377777777777778,0.02666666666666667,-0.7022222222222222,-0.013172100454268074,-0.05192609529181826,0.7420368257403914
1589986716.2004142,-11.960637001926953,-8.720387826972912,-6.810152384327449,0.5377777777777778,0.02666666666666667,-0.7022222222222222,-0.7499102964289236,1.1750056196391518,-0.6284777254736755
1589986716.2104142,-1.8636524666035554,0.2608446407909961,-2.022660145156201,0.5377777777777778,0.02666666666666667,-0.7022222222222222,-0.9211394386438596,-1.0788396986192916,-3.66896487527455
1589986716.2204142,-3.1609468924061104,-0.5342546737991507,0.016521811062703354,0.5377777777777778,0.035465848024167114,-0.699406484187822,-0.4039207484574571,-1.2725218147277784,-4.41432453731291
1589986716.2304142,0.08668799561233118,-0.7,0.6551977878836354,0.5377777777777778,0.13777777777777778,-0.6666666666666666,-0.36334035547571447,-0.7769966300300317,-4.22736631277028
1589986716.2404141,-0.28571394079868656,-0.6089651842194215,0.0886206480274277,0.5377777777777778,0.13777777777777778,-0.6666666666666666,-0.2302458866899875,-0.7796376561201971,-4.006497732325809
1589986716.2504141,0.17005048788776156,-0.15233215204621584,0.02471479198019321,0.5377777777777778,0.13777777777777778,-0.6666666666666666,-0.214571535715959,-0.673782116654751,-3.7659415854783562
1589986716.2604141,-0.01994487320837928,-0.1750385887541345,-0.11820286659316427,0.5377777777777778,0.13777777777777778,-0.6666666666666666,-0.00441744373110195,-0.3542241450252466,-3.550850233870007
1589986716.270414,-0.14146478334343018,0.35033319516627875,-0.0864547396613844,0.5337921896643958,0.14202907176538526,-0.6666666666666666,1.1455636508989153,0.9251460625145187,-3.478339068831888
1589986716.280414,1.2538775927250434,4.505946663941964,7.994345560437315,0.4711111111111111,0.2088888888888889,-0.6666666666666666,1.6954361432991378,3.1963964513057275,-3.1494263054460294
1589986716.290414,-0.5170138355111452,0.44945738854727135,2.4413595311299,0.4711111111111111,0.2088888888888889,-0.6666666666666666,-0.35098599241062817,2.622916765451586,-2.486413305711973
1589986716.300414,0.17583698937311107,-0.18490182314516915,0.7882667446621817,0.4711111111111111,0.2088888888888889,-0.6666666666666666,-0.18769408520319594,-0.24462700786854866,-2.028930153759571
1589986716.310414,2.179548600955445,-0.4384326801208931,12.76146592570927,0.4711111111111111,0.2088888888888889,-0.6666666666666666,0.041582465174769434,-0.0644174235247782,-1.8861898889328226
1589986716.320414,1.0453087452606846,0.045482475658164045,5.828897274782393,0.4711111111111111,0.2088888888888889,-0.6666666666666666,0.5633038199905274,0.2780244738662184,-1.7838866124644337
1589986716.330414,1.8007731271660892,-0.842972540655825,9.758841908824314,0.4388888888888889,0.25555555555555554,-0.6466666666666666,0.03988377069659747,-0.07584010466653034,-1.5502980721871882
1589986716.340414,0.1235003998933617,-1.625699813383098,9.378660090642494,0.4388888888888889,0.25555555555555554,-0.6466666666666666,-0.6082085471149788,-0.09535605902973965,-1.372214988622903
1589986716.350414,-0.030960898586380046,-3.9988943112383795,15.480883865373368,0.4388888888888889,0.25555555555555554,-0.6466666666666666,-0.0016080784587880047,0.2805352407412318,-1.1090436024369568
1589986716.360414,0.40886164270301883,-1.512205327794471,5.305758535159008,0.4388888888888889,0.25555555555555554,-0.6466666666666666,0.5039977635548919,0.07755479321749173,-1.0398457225993183
1589986716.370414,0.4401428368995324,-2.674393651693354,7.665644891596996,0.4388888888888889,0.25555555555555554,-0.6466666666666666,0.07491644034817624,0.12733116086700141,-0.9786543944192402
1589986716.380414,-0.028188094793804852,-2.68,9.951579274740313,0.43407213894245056,0.27385920535202124,-0.6264363168916257,-0.428170656968495,0.0387251373573661,-0.978475211899321
1589986716.390414,-0.017675115325037873,-2.70512111256745,9.252345481471394,0.43333333333333335,0.2766666666666667,-0.6233333333333333,0.15083885212616305,0.09348143324295966,-0.908256436297345
1589986716.400414,0.09655846255979028,-1.912625665991455,5.98954891313599,0.43333333333333335,0.2766666666666667,-0.6233333333333333,0.18588527488751594,0.13086428418840274,-0.8615278726155411
1589986716.410414,-0.2786091228921509,-3.2629752517287396,10.920633264588135,0.43333333333333335,0.2766666666666667,-0.6233333333333333,-0.09183523456990923,0.004184738131686787,-0.8195442238095286
1589986716.420414,-0.15140118888754092,-2.8643903918476283,8.783539973310688,0.43333333333333335,0.2766666666666667,-0.6233333333333333,0.07560464385936491,0.08096656083682358,-0.7566386341233926
1589986716.430414,-0.21359059644800327,-2.912298737295966,9.13125859767991,0.4211111111111111,0.3244444444444444,-0.6533333333333333,0.025757178861007177,0.04164740639151555,-0.6631080258629496
1589986716.440414,-0.22900746156542642,-2.738014923130853,8.653697731483799,0.4211111111111111,0.3244444444444444,-0.6533333333333333,-0.03312828340768719,0.04167624733556681,-0.5561559966092602
1589986716.450414,-0.22469374216849708,-2.743101643694258,8.283223262327708,0.4211111111111111,0.3244444444444444,-0.6533333333333333,0.017328667495039522,0.025195963905868236,-0.41414182227394186
1589986716.460414,-0.35015220517737294,-3.1158281399808248,9.398093240651965,0.4211111111111111,0.3244444444444444,-0.6533333333333333,-0.018529481278513622,0.024031483233468782,-0.27795385435743136
1589986716.470414,-0.27116079989042596,-2.9219401451855913,8.500463635118477,0.4211111111111111,0.3244444444444444,-0.6533333333333333,0.025336976545310773,0.006798231945537768,-0.18003765385782333
1589986716.480414,-0.25906154314753366,-3.0367154010163677,8.863107776655607,0.4222222222222222,0.3533333333333333,-0.6322222222222222,-0.0009372761390891974,-0.0002559244056787642,-0.009078260337524291
1589986716.490414,-0.24561374821654725,-2.9896481187579154,8.62104746789785,0.4222222222222222,0.3533333333333333,-0.6322222222222222,0.0012631141610237662,-0.003923241572533704,0.07967081510036522
1589986716.500414,-0.26920980274955175,-3.106312412831241,8.704995417413828,0.4222222222222222,0.3533333333333333,-0.6322222222222222,-0.009501420831289315,-0.008640449111468341,0.23886020968825317
1589986716.510414,-0.2631569612279742,-3.068941767367845,8.668941767367846,0.4222222222222222,0.3533333333333333,-0.6322222222222222,-0.012803315977805096,-0.025895220138159362,0.31457102789613534
1589986716.5204139,-0.3068949039150766,-3.1828688944260506,8.868842884937024,0.4222222222222222,0.3533333333333333,-0.6322222222222222,0.009691255369509674,-0.02529002013526028,0.4306746406010291
1589986716.5304139,-0.2620840235722239,-3.2296526627379625,8.949305325475924,0.4222222222222222,0.3855088757932089,-0.6804855359120356,-0.008908150216856096,-0.041860405398152764,0.5390739208642981
1589986716.5404139,0.8486927365274297,-5.359688131211117,8.31188413993698,0.4222222222222222,0.38666666666666666,-0.6822222222222222,-0.029577316577739404,-0.030738389917693214,0.5874298709134322
1589986716.5504138,8.405684737820149,-19.2943747273168,5.404306051547225,0.4222222222222222,0.38666666666666666,-0.6822222222222222,-0.13899643099184347,0.011402755498549563,0.2798734412089235
1589986716.5604138,-0.3721607278241092,-0.9122820318423047,3.8017740712661108,0.4222222222222222,0.38666666666666666,-0.6822222222222222,-0.4568554795629737,-0.2989025206467014,-4.630816505607179
1589986716.5704138,-1.0733714352364845,-3.766046538753134,13.773642619700238,0.4222222222222222,0.38666666666666666,-0.6822222222222222,0.20576330807986765,0.6100859370324714,-5.367257252141772
1589986716.5804138,0.6078593593354658,-1.5884608774526185,5.298696710746169,0.43666666666666665,0.3622222222222222,-0.6677777777777778,1.0646138699324397,0.8083710690504591,-4.792624487369379
1589986716.5904138,0.29,-0.37,7.25,0.43666666666666665,0.3622222222222222,-0.6677777777777778,0.15926129424448254,0.4221515128261285,-3.4066645337364316
1589986716.6004138,-0.10900081900081898,1.6683737492433144,10.381289036071644,0.43666666666666665,0.3622222222222222,-0.6677777777777778,-0.12080771266809898,-0.04526095141311226,0.22760930258527612
1589986716.6104138,0.7606887860792708,0.10969341251208398,8.741765640104958,0.43666666666666665,0.3622222222222222,-0.6677777777777778,-0.12013890658887058,-0.5495315035904668,1.3997886033253089
1589986716.6204138,0.7968914859825992,-1.4832253832343598,9.885770957050132,0.43666666666666665,0.3622222222222222,-0.6677777777777778,-0.2425610669273696,-0.19253268763561793,1.5277395063887724
1589986716.6304138,0.05118469818556837,-2.4135389474362694,9.144531244964389,0.37055775779646993,0.42354063044965107,-0.6802330794489743,-0.08841923684925213,-0.01435633009920003,1.6784768179250968
1589986716.6404138,0.5157975327010105,-3.2437827785010227,9.263263281879611,0.36,0.43333333333333335,-0.6822222222222222,-0.06948891655537479,-0.14192154117552255,1.7980388094237454
1589986716.6504138,10.431031554150394,-14.138406174446718,6.472436922695431,0.36,0.43333333333333335,-0.6822222222222222,-0.06287083111798214,-0.16650300137155238,1.7829117569954194
1589986716.6604137,0.4478483731537235,-6.31890111638514,8.72893479356156,0.36,0.43333333333333335,-0.6822222222222222,-0.1957696022012681,-0.13106471709212175,-0.23233208867508082
1589986716.6704137,0.3294554664415365,-2.144326720135078,6.932296327564374,0.36,0.43333333333333335,-0.6822222222222222,0.2345824921082248,0.27406098885744323,-1.1625755841222707
1589986716.6804137,0.04378619360100844,-1.7180015200385572,6.5417877136395655,0.3772165787186363,0.39964872279687097,-0.6807251284206017,0.2952821865146164,0.21002370910739326,-1.1582196415211914
1589986716.6904137,-4.352770967181803,-6.959703594374023,10.55120871679111,0.3855555555555555,0.38333333333333336,-0.68,-0.254832750316375,-0.018764278297837497,-0.9114308086273651
1589986716.7004137,1.44452509116166,-4.767509984372287,8.679468657753082,0.3855555555555555,0.38333333333333336,-0.68,-0.16505923316655524,-0.06563717663269915,-0.10744143379889082
1589986716.7104137,1.9495277136919176,-4.93969340477053,8.543314012240929,0.3855555555555555,0.38333333333333336,-0.68,0.13230050889436792,-0.03337020394902857,0.9810020907184538
1589986716.7204137,-0.12974850801761795,-2.404575857532366,9.079127500143,0.3855555555555555,0.38333333333333336,-0.68,-0.03606515727296347,-0.048200340347187294,0.13655667698800422
1589986716.7304137,-0.7,-3.38,8.25,0.4,0.3977777777777778,-0.6733333333333333,0.0272707695624114,0.09053895494720583,-0.34797501961636945
1589986716.7404137,-0.13701943844492437,-3.6252986732489973,8.559639308855292,0.4,0.3977777777777778,-0.6733333333333333,-0.00036447412970238083,0.04755079809280663,-0.2536642673337589
1589986716.7504137,-0.21833188463058084,-3.829514816278151,8.458301856973529,0.4,0.3977777777777778,-0.6733333333333333,0.018847625095025286,-0.003719082176340741,0.050917532914747834
1589986716.7604136,0.080566183154816,-4.414229477095767,8.730847397336074,0.4,0.3977777777777778,-0.6733333333333333,-0.011845760064765825,-0.008096770274165476,0.014287960360189395
1589986716.7704136,0.1375603772138312,-4.550975235758645,8.869024764241356,0.4,0.3977777777777778,-0.6733333333333333,-0.016096340174163566,-0.0030063707842060954,-0.003884438129558414
1589986716.7804136,0.005359283366630135,-4.403864148997873,8.629223432364503,0.403184464350927,0.40653505474282686,-0.6781100298597238,-0.011836044748120177,-0.004998756489719372,-0.00045539742276290776
1589986716.7904136,0.04,-4.35,8.76,0.4044444444444445,0.41,-0.68,0.00545415391248228,0.002181661564992912,0.0
1589986716.8004136,0.04440997319905791,-4.348897506700236,8.754487533501177,0.4044444444444445,0.41,-0.68,0.005574417275370198,0.0025424516536566672,0.00012026336288791837
1589986716.8104136,0.061227039860052485,-4.346257653379983,8.741288266899913,0.4044444444444445,0.41,-0.68,0.0038145683217475717,0.0027237375392511155,0.00040822668918866494
1589986716.8204136,0.05,-4.385216614560072,8.703653416703885,0.4044444444444445,0.41,-0.68,-0.0016598751567509723,0.001090830782496456,0.0
1589986716.8304136,0.05,-4.3564048001979465,8.723595199802054,0.3955639407810632,0.4188805036633813,-0.675156088910883,-0.003272492347489368,0.0026759969796019086,-0.0015851661971054525
1589986716.8404136,0.05,-4.3116898310779845,8.75887344594801,0.3922222222222223,0.4222222222222222,-0.6733333333333333,0.0049626019772595125,0.003272492347489368,0.0019358855973815284
1589986716.8504136,0.037069426977524106,-4.329395859533713,8.708277707910096,0.3922222222222223,0.4222222222222222,-0.6733333333333333,0.006864660621305774,0.0018619856386658733,-0.0006393518526540769
1589986716.8604136,0.035399719495091166,-4.323800841514727,8.717798036465638,0.3922222222222223,0.4222222222222222,-0.6733333333333333,0.0023346532595926953,0.002268866830914789,-0.002181661564992912
1589986716.8704135,0.04449353603928933,-4.341454752275025,8.741012927921421,0.3922222222222223,0.4222222222222222,-0.6733333333333333,-0.006593180255515512,0.002292154860706568,-0.001201324078210112
1589986716.8804135,0.054676035623825475,-4.375323964376174,8.73,0.3922222222222223,0.41910486513967193,-0.6764506904158837,-0.01352936768701667,7.067806279268643e-05,-0.0010201527197037695
1589986716.8904135,0.05389870212092435,-4.388303893637227,8.723898702120925,0.3922222222222223,0.4155555555555556,-0.68,-0.010612792477177137,0.00024026592543875723,-0.0008505648570576987
1589986716.9004135,0.057661345607677994,-4.346370580746254,8.674031926353932,0.3922222222222223,0.4155555555555556,-0.68,0.004900031958823568,0.001090830782496456,-0.0008357231624199173
1589986716.9104135,0.06,-4.353815251877383,8.699692086462305,0.3922222222222223,0.4155555555555556,-0.68,0.007860699265279807,0.001090830782496456,-0.0002248837878046151
1589986716.9204135,0.039738764621383135,-4.3532462548737945,8.743768725631028,0.3922222222222223,0.4155555555555556,-0.68,0.0032154996289948884,-0.0011193271417436958,-0.0014734386161601011
1589986716.9304135,0.03,-4.379000888099467,8.754199822380107,0.3922222222222223,0.4123332346556148,-0.6980449970396685,-0.0020726753633669333,0.0003491433516977999,-0.000916259106647556
1589986716.9404135,0.03737761117518903,-4.370489555299244,8.727867166474434,0.3922222222222223,0.41,-0.7111111111111111,-0.001144232981511405,0.0005721164907557025,-0.0008047725371186047
1589986716.9504135,0.04,-4.345182161355456,8.697773242033184,0.3922222222222223,0.41,-0.7111111111111111,0.0056573140832369305,-0.0008081877261767045,0.0005255446698569531
1589986716.9604135,0.04,-4.323548774496425,8.739353676510726,0.3922222222222223,0.41,-0.7111111111111111,0.005841265158566098,-0.00288538110140555,-0.000703719536412638
1589986716.9704134,0.0467098313170898,-4.33341966263418,8.76341966263418,0.3922222222222223,0.41,-0.7111111111111111,0.0003306505302540794,-0.003272492347489368,-0.0025546888917045135
1589986716.9804134,0.05,-4.370050463345261,8.754974768327369,0.37803172564251564,0.4250252316726305,-0.7044332303677198,-0.008737655654051345,-0.0016334938252247598,-0.0008139945640924556
1589986716.9904134,0.057584458701601685,-4.417922293508008,8.70449324779039,0.37333333333333335,0.43,-0.7022222222222222,-0.01090830782496456,-0.001090830782496456,0.0
1589986717.0004134,0.05458823733638857,-4.397529424018331,8.646705898691108,0.37333333333333335,0.43,-0.7022222222222222,-0.006185653984138671,0.0012704961379164882,0.0
1589986717.0104134,0.044372165584297796,-4.358744331168595,8.666278344157023,0.37333333333333335,0.43,-0.7022222222222222,0.0033434519525039215,0.0014307878416570901,0.0006139015019440925
1589986717.0204134,0.04,-4.35,8.738423004389787,0.37333333333333335,0.43,-0.7022222222222222,0.006085581071504571,0.0020669792079608287,0.0005740859805062488
1589986717.0304134,0.043390791210497714,-4.35,8.773390791210497,0.3774776337017194,0.42510219047372555,-0.6995849401696128,0.0036235672440999597,0.0036235672440999597,0.0
1589986717.0404134,0.035537854386117645,-4.364462145613882,8.758306781579176,0.3855555555555555,0.4155555555555556,-0.6944444444444444,0.0006040862033360138,0.00375923692664981,-0.002366363042485348
1589986717.0504134,0.04642469711562833,-4.37,8.66787651442186,0.3855555555555555,0.4155555555555556,-0.6944444444444444,0.0008958282603454066,0.0007800100886041976,-0.0014808358267985545
1589986717.0604134,0.0376696352841391,-4.345339270568278,8.699321458863444,0.3855555555555555,0.4155555555555556,-0.6944444444444444,0.0037808990607903032,0.0013450341391469235,-0.0004183137129229942
1589986717.0704134,0.03528692699490662,-4.3247130730050936,8.756434634974532,0.3855555555555555,0.4155555555555556,-0.6944444444444444,0.001993868285968904,0.0027583758360784747,-0.0005767142710855626
1589986717.0804133,0.04543975053489325,-4.3417590021395736,8.785439750534893,0.3855555555555555,0.4058848879379676,-0.6865870270051542,-0.004057754448778015,0.0014923381477204328,-0.0004974460492401442
1589986717.0904133,0.05,-4.374038640222999,8.747884079331005,0.3855555555555555,0.3977777777777778,-0.68,-0.008076362784942682,-0.000765689044981973,-0.001531378089963946
1589986717.1004133,0.05783522972778338,-4.395670459455567,8.628142013538817,0.3855555555555555,0.3977777777777778,-0.68,-0.0061625733274724166,0.0014732421500027752,-0.003036352542492656
1589986717.1104133,0.06,-4.367105427479582,8.690460074431153,0.3855555555555555,0.3977777777777778,-0.68,-7.179207013208264e-05,0.0012846012579345455,0.0012128091878024641
1589986717.1204133,0.05332368557244446,-4.36,8.736705257710222,0.3855555555555555,0.3977777777777778,-0.68,0.0047321954280978495,0.00036255785337617724,-3.157222367924147e-06
1589986717.1304133,0.042390040210330965,-4.352390040210331,8.772829879369006,0.3965477196961886,0.41130659518163387,-0.690992164140633,0.004054631177339363,0.0024903535176393726,-0.00026071294328333173
1589986717.1404133,0.04,-4.357756971208343,8.733458172749943,0.4,0.4155555555555556,-0.6944444444444444,-0.00095827913901015,0.001580183752889561,-0.0016923085945998067
1589986717.1504133,0.04,-4.378709281961471,8.663872154115587,0.4,0.4155555555555556,-0.6944444444444444,-0.0028619502543921907,-0.000269746596302101,-0.000821084186194355
1589986717.1604133,0.04636192191854083,-4.377276156162918,8.655447687674164,0.4,0.4155555555555556,-0.6944444444444444,-0.001190558268114394,-0.0017848088089547805,-0.0013879560529166492
1589986717.1704133,0.04547893556026424,-4.356436806680793,8.72425277327683,0.4,0.4155555555555556,-0.6944444444444444,0.001972686504205544,-0.0007021466868387537,-0.0002089750607873679
1589986717.1804132,0.04,-4.337434120854157,8.79,0.39173216719672876,0.41241948104396997,-0.690738174567116,0.0032437471474054086,0.0008109367868513521,0.002181661564992912
1589986717.1904132,0.05282953761214631,-4.3364147688060735,8.783585231193927,0.36777777777777776,0.4033333333333333,-0.68,-0.004198456365757581,-0.0006997427276262635,0.0014819188373666483
1589986717.2004132,0.06,-4.369145654108573,8.692563037674281,0.36777777777777776,0.4033333333333333,-0.68,-0.00781670376208377,0.00018088828460857882,-0.00018088828460857882
1589986717.2104132,0.06432805462734273,-4.381343890745314,8.651640273136714,0.36777777777777776,0.4033333333333333,-0.68,-0.007782411216805313,0.0001465957393301209,-0.0015629483040796234
1589986717.2204132,0.052616194356061734,-4.365654048589016,8.701729757054922,0.36777777777777776,0.4033333333333333,-0.68,-0.002278356874476451,-0.00014269126682928167,-0.0012335220493257376
1589986717.2304132,0.039054614382182204,-4.36,8.76621845752873,0.3788445286893338,0.40886670878911135,-0.68,0.004260197556661316,0.00010312557332450801,-0.000493852604585974
1589986717.2404132,0.06016796512043457,-4.36,8.769328139518262,0.3922222222222223,0.4155555555555556,-0.68,0.0032358480427382183,-0.001090830782496456,-0.001090830782496456
1589986717.2504132,0.06028051240495854,-4.3648597437975205,8.681402562024793,0.3922222222222223,0.4155555555555556,-0.68,3.059915662008829e-05,-0.0005607149695582721,-0.001090830782496456
1589986717.2604132,0.05,-4.378966511421601,8.638966511421602,0.3922222222222223,0.4155555555555556,-0.68,-0.001090830782496456,-0.0004890473335144347,-0.0006017834489820213
1589986717.2704132,0.05547876870665531,-4.368084925173378,8.721223993186518,0.3922222222222223,0.4155555555555556,-0.68,-0.000493189826956665,-0.001688471738036247,0.0
1589986717.2804132,0.03474922083346721,-4.35,8.78,0.3922222222222223,0.42467389247680354,-0.6757915368055779,0.0,0.001949987514538214,-0.0006886081799218543
1589986717.2904131,0.034459552454853944,-4.342770223772573,8.78,0.3922222222222223,0.43,-0.6733333333333333,-0.0007886462459438439,-0.00036855434567723954,-0.001090830782496456
1589986717.3004131,0.04708229017992934,-4.368329160719718,8.702094808020776,0.3922222222222223,0.43,-0.6733333333333333,-0.004181062838032171,-0.0006365455372250547,-0.0018633887963803845
1589986717.3104131,0.0568841239810338,-4.373115876018966,8.6906523719431,0.3922222222222223,0.43,-0.6733333333333333,-0.00545415391248228,0.001501882869806743,7.11627397172029e-05
1589986717.320413,0.043290037389001404,-4.364430012463001,8.716709962610999,0.3922222222222223,0.43,-0.6733333333333333,-0.004238971139786139,0.00035888740594869936,0.00048323939614838515
1589986717.330413,0.03821766493984673,-4.364108832469924,8.750544162349616,0.3972441285743509,0.4240650197656663,-0.6852032938020008,-0.0005832677845013586,-0.001987238970159126,0.00044820409383133485
1589986717.340413,0.05519504376328207,-4.349219824946871,8.78519504376328,0.4044444444444445,0.4155555555555556,-0.7022222222222222,0.003272492347489368,-0.001005726886127644,0.001657522147836887
1589986717.350413,0.06,-4.33540352136623,8.719754222239015,0.4044444444444445,0.4155555555555556,-0.7022222222222222,0.0015041941154411874,0.002269696270528577,-0.0013549348991034496
1589986717.360413,0.0551487439400617,-4.344851256059938,8.669702512119876,0.4044444444444445,0.4155555555555556,-0.7022222222222222,-0.0010583798887906337,0.0011557325699081008,-0.0022465633524045565
1589986717.370413,0.05486860564943359,-4.369474422597734,8.699474422597735,0.4044444444444445,0.4155555555555556,-0.7022222222222222,-0.001650579073969081,-0.001621913273520287,0.0
1589986717.380413,0.05334706881092734,-4.373367672027318,8.743285259161754,0.40037876427334457,0.4177731992852465,-0.6948300764565859,-0.001090830782496456,-0.00109307824476223,-0.0003628611067435606
1589986717.390413,0.04252878991535583,-4.345057579830712,8.782413630253933,0.3922222222222223,0.4222222222222222,-0.68,-0.001090830782496456,0.0008149825942827811,-0.0002632862178554311
1589986717.400413,0.046175507648269075,-4.36,8.725579568834421,0.3922222222222223,0.4222222222222222,-0.68,-0.0015080181809654916,0.000834374796938071,0.0009300993695858053
1589986717.410413,0.04295076103803203,-4.368852283114096,8.675901522076064,0.3922222222222223,0.4222222222222222,-0.68,-0.003469173953823526,0.0012160272733699514,-0.0014127088797041094
1589986717.420413,0.05515801137937648,-4.374525965861871,8.710632045517507,0.3922222222222223,0.4222222222222222,-0.68,-0.006544984694978735,0.0022850797709580645,-0.002181661564992912
1589986717.430413,0.05404830469112866,-4.36,8.741903390617743,0.383625328998297,0.4195770243071683,-0.6720644062548382,-0.0007019214891177848,0.0022080076870039734,-0.00023397382970592783
1589986717.440413,0.05,-4.340894109861019,8.75,0.37777777777777777,0.4177777777777778,-0.6666666666666666,0.003272492347489368,0.0,0.001090830782496456
1589986717.450413,0.05,-4.34963627957155,8.7107274408569,0.37777777777777777,0.4177777777777778,-0.6666666666666666,0.003272492347489368,0.0021419858210352696,-0.00033715976486039037
1589986717.460413,0.03699022920281253,-4.340485343804219,8.70951465619578,0.37777777777777777,0.4177777777777778,-0.6666666666666666,0.0011437735786700353,0.0025629194245495902,-0.001090830782496456
1589986717.470413,0.0439960060959588,-4.343996006095959,8.716500998476011,0.37777777777777777,0.4177777777777778,-0.6666666666666666,-0.00038168185703699767,0.0006549341368449213,-0.001090830782496456
1589986717.480413,0.06603762678017763,-4.3660376267801775,8.710990593304956,0.37777777777777777,0.4177777777777778,-0.6666666666666666,-0.0009827738154984098,-0.0017494336970007274,-0.001090830782496456
1589986717.490413,0.04609202851587816,-4.362184057031756,8.746092028515879,0.3855555555555555,0.41,-0.6877777777777778,-0.0008525871183996926,0.0,0.00023824366409676333
1589986717.500413,0.05957958322214406,-4.33694694451857,8.687787778074282,0.3855555555555555,0.41,-0.6877777777777778,-0.0028935953012317744,0.0,-0.0025146982549741816
1589986717.510413,0.06486762656758012,-4.350529493729679,8.68052949372968,0.3855555555555555,0.41,-0.6877777777777778,-0.0049520576256945475,0.0005598550927350598,-0.002152782162019248
1589986717.520413,0.05624164438502674,-4.366241644385027,8.707516711229946,0.3855555555555555,0.41,-0.6877777777777778,-0.005725038695702489,0.001090830782496456,-0.001500803782134579
1589986717.530413,0.04710293227705342,-4.362897067722947,8.725794135445893,0.38974020893314504,0.41225327489562513,-0.6855245028821527,-0.002783217804402302,0.00045878865226304697,-0.0012335983696427984
1589986717.540413,0.04115846836767837,-4.367683063264644,8.74115846836768,0.4,0.4177777777777778,-0.68,0.001469938669300053,-0.0007117228956928589,0.000964461486895257
1589986717.550413,0.047076391914993465,-4.352923608085006,8.726611135319947,0.4,0.4177777777777778,-0.68,0.003725490790969695,0.0018627453954848474,-0.0003189161695080645
1589986717.560413,0.04004676029899776,-4.359953239701002,8.670374082391982,0.4,0.4177777777777778,-0.68,0.0021918630797020094,0.0010959315398510047,-0.0010857300251419072
1589986717.5704129,0.05650932771874847,-4.343490672281251,8.74,0.4,0.4177777777777778,-0.68,-0.0007100575048968264,0.002510945792290109,-0.001090830782496456
1589986717.5804129,0.045248777770901666,-4.345248777770902,8.754253666687294,0.3963046049329236,0.41091490122463575,-0.6905582716202185,-0.001554833838594568,0.0016091087286946451,-0.0005725528362982667
1589986717.5904129,0.04419099389302732,-4.356763975572109,8.744854036641836,0.3922222222222223,0.4033333333333333,-0.7022222222222222,-0.0023581593179355974,0.0017244950502160266,-0.00045716651477688524
1589986717.6004128,0.05539152854511971,-4.374608471454881,8.70730423572744,0.3922222222222223,0.4033333333333333,-0.7022222222222222,-0.0013848930475827013,0.001090830782496456,-0.0007967685174102106
1589986717.6104128,0.05853230992635619,-4.352354873284238,8.707645126715763,0.3922222222222223,0.4033333333333333,-0.7022222222222222,-0.002598638542874903,0.00025687682673247454,0.0
1589986717.6204128,0.045325042881646654,-4.345325042881647,8.72,0.3922222222222223,0.4033333333333333,-0.7022222222222222,-0.0034661163706031614,-0.0005099587131550755,0.0
1589986717.6304128,0.064347023732887,-4.375652976267113,8.72847946440067,0.3922222222222223,0.4074160384151372,-0.700651951036913,-0.00313003502500807,0.0018733395387484735,-0.0003083220262444384
1589986717.6404128,0.053254578124402645,-4.380236265626792,8.743490843751195,0.3922222222222223,0.4177777777777778,-0.6966666666666667,0.0014200776008551942,0.001090830782496456,-0.001090830782496456
1589986717.6504128,0.06,-4.3545281149368344,8.686224919494675,0.3922222222222223,0.4177777777777778,-0.6966666666666667,0.004960213196504196,0.001090830782496456,0.00010294935054028969
1589986717.6604128,0.04948698813163533,-4.344743494065818,8.681539035605095,0.3922222222222223,0.4177777777777778,-0.6966666666666667,0.0037339663680678657,0.0005174349343583179,-5.596091377982012e-05
1589986717.6704128,0.053103861413363714,-4.348735907608909,8.714367953804455,0.3922222222222223,0.4177777777777778,-0.6966666666666667,0.0012287218717086017,-0.00047646984664215513,-0.001090830782496456
1589986717.6804128,0.06152204472843451,-4.36,8.73695591054313,0.3842152644657438,0.41165481008164717,-0.6867757188498402,-0.0009248014582851743,-0.00016602932421128167,-0.00016602932421128167
1589986717.6904128,0.054568486214868456,-4.36,8.755431513785132,0.37333333333333335,0.4033333333333333,-0.6733333333333333,-0.002680006104251835,0.001090830782496456,0.001090830782496456
1589986717.7004128,0.05618047705177481,-4.3638195229482255,8.719443816414199,0.37333333333333335,0.4033333333333333,-0.6733333333333333,-0.002022556385576673,0.00025754014122132576,0.001090830782496456
1589986717.7104127,0.05,-4.366172954835758,8.689135225821211,0.37333333333333335,0.4033333333333333,-0.6733333333333333,-0.00041746586711596774,0.0001615668188514473,0.001090830782496456
1589986717.7204127,0.05,-4.358212570317902,8.725362289046293,0.37333333333333335,0.4033333333333333,-0.6733333333333333,-0.001870744110008453,0.0012067699056029155,0.0008958524506184568
1589986717.7304127,0.05,-4.35037378286953,8.748878651391406,0.37333333333333335,0.4033333333333333,-0.6733333333333333,-0.005291060368460532,-0.0030686254174621844,4.077338600543684e-05
1589986717.7404127,0.03545835560782637,-4.355458355607826,8.739083288784348,0.3855555555555555,0.41,-0.6733333333333333,-0.0004954165506135406,-0.0012885402171685387,0.0
1589986717.7504127,0.05270193943518204,-4.37,8.693788363388908,0.3855555555555555,0.41,-0.6733333333333333,0.0019750383949977512,0.0016803025241639864,-0.00029473587083376514
1589986717.7604127,0.06,-4.356712914937759,8.676574170124482,0.3855555555555555,0.41,-0.6733333333333333,0.004363323129985824,0.00254779427771232,-0.0007284817476079322
1589986717.7704127,0.06,-4.33045101798594,8.73045101798594,0.3855555555555555,0.41,-0.6733333333333333,0.004314124699733542,0.0010662315673703147,7.379764537842362e-05
1589986717.7804127,0.05776871891535893,-4.347768718915359,8.756693843253924,0.38382011471194577,0.41123960060257836,-0.6765562949000371,0.0014514765375343457,0.0,0.002298912310877947
1589986717.7904127,0.04476108232584917,-4.350477835348301,8.78,0.37777777777777777,0.4155555555555556,-0.6877777777777778,-0.001090830782496456,-0.00028573863329642345,-0.0008050921492000325
1589986717.8004127,0.03,-4.3661715318448024,8.715467148609077,0.37777777777777777,0.4155555555555556,-0.6877777777777778,-0.0005880134912144032,-0.001090830782496456,0.0005028172912820528
1589986717.8104126,0.0394005728314239,-4.3688011456628475,8.68700286415712,0.37777777777777777,0.4155555555555556,-0.6877777777777778,0.0005127217108808526,-0.0016035524933773085,0.0005781090716156034
1589986717.8204126,0.05,-4.375623496730919,8.74,0.37777777777777777,0.4155555555555556,-0.6877777777777778,0.0006987724747320957,-0.0010054866416998312,0.0011761749232930808
1589986717.8304126,0.05150384713561609,-4.35,8.743007694271233,0.37777777777777777,0.4147200849246578,-0.6866081188945209,-0.0001640442747699152,0.0007627422329566256,0.0029444037979495376
1589986717.8404126,0.056520278467309955,-4.35,8.76347972153269,0.37777777777777777,0.41,-0.68,-0.001090830782496456,-0.001090830782496456,0.000711252046259051
