time,acc_x,acc_y,acc_z,mag_x,mag_y,mag_z,gyr_x,gyr_y,gyr_z
1589986770.7735267,-3.76,-0.75,8.91,0.26222222222222225,-0.4011111111111111,-0.65,-0.007635815477475192,-0.00545415391248228,-0.002181661564992912
1589986770.7835267,-3.7860706459812428,-0.7386902153270809,8.883929354018758,0.26222222222222225,-0.4011111111111111,-0.65,-0.0018959108770604835,-0.0035582430354217966,-0.0008050800945640276
1589986770.7935266,-3.76235729468599,-0.73,8.940644830917874,0.26222222222222225,-0.4011111111111111,-0.65,0.0,-0.003911308148346133,0.0008336898218070982
1589986770.8035266,-3.77,-0.7291473282714861,9.043410686914054,0.2628854113443997,-0.39987947416992436,-0.65,9.301205688274063e-05,0.0009048066687309746,-0.00018602411376548127
1589986770.8135266,-3.766112411059644,-0.7238875889403562,9.076112411059643,0.27,-0.38666666666666666,-0.65,0.0006667606139131195,-0.0006667606139131195,-0.0017575913964095755
1589986770.8235266,-3.762892873579495,-0.7328928735794952,9.020821149148583,0.27,-0.38666666666666666,-0.65,-0.0006311271100768074,0.0012622542201536147,-0.001090830782496456
1589986770.8335266,-3.77,-0.7391819406085229,8.901636118782955,0.27,-0.38666666666666666,-0.65,-0.002270898001606258,0.004140232038452459,-0.001046212564189783
1589986770.8435266,-3.77,-0.7200346944831206,8.939930611033757,0.27,-0.38666666666666666,-0.65,-0.00435953854896874,-0.0010813693299537462,-1.8922905085420015e-06
1589986770.8535266,-3.77,-0.7353691127344811,8.924630887265518,0.27,-0.38666666666666666,-0.65,-0.004363323129985824,-0.0019290858460179697,0.0
1589986770.8635266,-3.7549728897301806,-0.7480108441079277,8.920994577946036,0.28444444444444444,-0.38666666666666666,-0.6288888888888889,-0.007852798725300853,0.002181661564992912,-0.0011993224064092865
1589986770.8735266,-3.7884650080023277,-0.732883747999418,8.912697512003492,0.28444444444444444,-0.38666666666666666,-0.6288888888888889,-0.008873772716449783,0.001867093456320138,-0.001867093456320138
1589986770.8835266,-3.7671979674568923,-0.74,8.87863756094827,0.28444444444444444,-0.38666666666666666,-0.6288888888888889,-0.005445737668704682,0.001247866071964178,-0.000933795493028734
1589986770.8935266,-3.8063757962973344,-0.74,8.9256509555568,0.28444444444444444,-0.38666666666666666,-0.6288888888888889,0.0005373557679696807,0.0021025937057748013,-7.906785921811066e-05
1589986770.9035265,-3.78,-0.7207470183388193,8.971494036677639,0.2845551138279732,-0.3865006625913735,-0.6294145684606507,-0.0010093437225891094,-0.003272492347489368,0.0010365060758915582
1589986770.9135265,-3.78,-0.7476416021886889,9.025283204377377,0.2885394966205465,-0.38052408840251356,-0.6483403867253738,0.001924400271997873,-0.003272492347489368,-0.0009193232538330964
1589986770.9235265,-3.78,-0.7517444505174815,8.992555494825185,0.2888888888888889,-0.38,-0.65,0.004363323129985824,-0.0012811208147975287,-0.0012811208147975287
1589986770.9335265,-3.78,-0.7591395877779149,8.91860412222085,0.2888888888888889,-0.38,-0.65,0.004363323129985824,-0.0020878051512442527,-0.0020878051512442527
1589986770.9435265,-3.78,-0.7160048709013147,8.952001623633771,0.2888888888888889,-0.38,-0.65,-0.0034908356149584135,-0.0028366913674000484,-0.0008724875150274105
1589986770.9535265,-3.78,-0.7390331646992693,8.96,0.28759977515458124,-0.3803222784335769,-0.6508056960839423,-0.004310590444603758,-0.005243223170954016,-5.273268538206589e-05
1589986770.9635265,-3.78,-0.7255171252645757,8.968275687896865,0.26222222222222225,-0.38666666666666666,-0.6666666666666666,-0.0038743173544381775,-0.0004890057755476464,-0.001090830782496456
1589986770.9735265,-3.78,-0.742724928630629,8.96275071369371,0.26222222222222225,-0.38666666666666666,-0.6666666666666666,-0.0042651795003238804,0.0013880743855360558,-0.001090830782496456
1589986770.9835265,-3.782423383317713,-0.7572701499531397,8.906963683223994,0.26222222222222225,-0.38666666666666666,-0.6666666666666666,-0.0008264806704214595,0.0019173114529179155,-0.001090830782496456
1589986770.9935265,-3.7884104711002267,-0.78,8.964768586699321,0.26222222222222225,-0.38666666666666666,-0.6666666666666666,0.0015605163481863986,0.0005706586664343232,-0.0012642214878505003
1589986771.0035264,-3.7814700577499045,-0.78,8.985589826750285,0.26222222222222225,-0.38666666666666666,-0.6666666666666666,0.008374251221388783,-0.0017005862912998048,-0.002021303140428543
1589986771.0135264,-3.7644030918980818,-0.7155969081019181,9.013395362152878,0.2888888888888889,-0.3944444444444444,-0.65,0.008966797669001072,-0.008376568588291567,-0.0008506793734670329
1589986771.0235264,-3.78,-0.7048248917530964,8.96346309535797,0.2888888888888889,-0.3944444444444444,-0.65,0.008764848953169944,-0.003009335325164828,0.0007894710669736208
1589986771.0335264,-3.7788528953169522,-0.7188528953169525,8.884588418732191,0.2888888888888889,-0.3944444444444444,-0.65,0.004953635072876669,-0.0023067912748943147,0.0030222329276865627
1589986771.0435264,-3.7682083855191744,-0.7153748434424763,8.921791614480826,0.2888888888888889,-0.3944444444444444,-0.65,-0.0004726477983441734,-0.003858796815304604,0.0006999611372862987
1589986771.0535264,-3.760149311659551,-0.7397013766808976,8.930597246638204,0.28882252815131065,-0.3944444444444444,-0.65,-0.007603240726590387,-0.006528697319536332,-0.001090830782496456
1589986771.0635264,-3.7697251204310405,-0.7205497591379192,8.968900481724162,0.28456661314175985,-0.3944444444444444,-0.65,-0.00551412333154238,-0.00548413862201233,-0.001090830782496456
1589986771.0735264,-3.7869902990977033,-0.74,8.957961196390814,0.28444444444444444,-0.3944444444444444,-0.65,-0.005290000192965639,-0.005125846473448998,-0.000762523343463174
1589986771.0835264,-3.773450034703727,-0.74,8.903800138814908,0.28444444444444444,-0.3944444444444444,-0.65,-0.004551493332761148,-0.003648832753040015,0.0007144903769458087
1589986771.0935264,-3.7613859568609453,-0.73,8.980692978430474,0.28444444444444444,-0.3944444444444444,-0.65,-0.0009396463417833171,-0.004287730909629255,-0.001090830782496456
1589986771.1035264,-3.7746609485528,-0.73,8.9873304742764,0.28444444444444444,-0.3944444444444444,-0.65,0.0005084306157026812,-0.0035636924308862557,-0.001090830782496456
1589986771.1135263,-3.798286172695449,-0.7482861726954493,9.008286172695449,0.28444444444444444,-0.38733315506288085,-0.6367933197199533,0.002088186786008567,-0.002275136343977257,-9.347477898434477e-05
1589986771.1235263,-3.7822329421795415,-0.7233494132693127,8.992232942179543,0.28444444444444444,-0.38666666666666666,-0.6355555555555555,0.00024357620649789594,-0.002181661564992912,-0.001938085358495016
1589986771.1335263,-3.7628214219759926,-0.7285892890120037,8.902821421975993,0.28444444444444444,-0.38666666666666666,-0.6355555555555555,0.0007830613883139841,-0.0003077693941824719,-0.001090830782496456
1589986771.1435263,-3.7783128347183745,-0.7208435826408125,8.918312834718375,0.28444444444444444,-0.38666666666666666,-0.6355555555555555,-0.0009067896000608578,-0.001997620382557314,-0.001090830782496456
1589986771.1535263,-3.7703962278695684,-0.7392075442608629,8.948811316391293,0.28444444444444444,-0.38666666666666666,-0.6355555555555555,-0.004233657862883308,-0.0011340525381972944,-4.3221755700838466e-05
1589986771.1635263,-3.7584607009014483,-0.73,8.975382102704346,0.2766666666666667,-0.38666666666666666,-0.65,-0.004363323129985824,-0.0016779271129421709,0.0
1589986771.1735263,-3.7542148433639686,-0.7278925783180156,8.928925783180155,0.2766666666666667,-0.38666666666666666,-0.65,-0.003903555041504019,0.00040117864977374845,0.000459768088481805
1589986771.1835263,-3.77,-0.72,8.85,0.2766666666666667,-0.38666666666666666,-0.65,-0.002181661564992912,-0.002181661564992912,0.002181661564992912
1589986771.1935263,-3.77,-0.729870731924757,8.889482927699028,0.2766666666666667,-0.38666666666666666,-0.65,-0.001643296653528137,-0.0011049317420633621,0.002181661564992912
1589986771.2035263,-3.7823100704705617,-0.74,8.954620140941124,0.2766666666666667,-0.38666666666666666,-0.65,0.0009233997881019104,0.0006714101901994554,0.00016743099439454553
1589986771.2135262,-3.752373167031856,-0.74,8.979406708242037,0.2881637545180441,-0.38666666666666666,-0.65,0.0011555488737553053,0.0051952815474468825,-0.002116943473734063
1589986771.2235262,-3.7596559999999997,-0.720688,9.018623999999999,0.2888888888888889,-0.38666666666666666,-0.65,-0.006282312642553588,0.01072068493037517,0.000978257045742822
1589986771.2335262,-3.76,-0.7350389668225339,8.94480516588733,0.2888888888888889,-0.38666666666666666,-0.65,-0.008185481489675031,0.017470295003749744,-0.0013699144095479876
1589986771.2435262,-3.798877015679572,-0.720561492160214,8.95,0.2888888888888889,-0.38666666666666666,-0.65,-0.013273717269705035,0.029881176180148628,0.00321124305424018
1589986771.2535262,-3.7864097495727127,-0.7267951252136434,8.95,0.2888888888888889,-0.38666666666666666,-0.65,-0.015313668916145497,0.034641063355176374,0.0025312591720933588
1589986771.2635262,-3.788534276979773,-0.6958628920809079,8.97560283093932,0.2955266598731568,-0.3989939556374499,-0.65,-0.0275338041805116,0.04453580823358934,0.0003197711578154525
1589986771.2735262,-3.77,-0.7004731224964285,8.898265217513096,0.2966666666666667,-0.4011111111111111,-0.65,-0.028464819661506997,0.055683979565618824,0.0021644583455597203
1589986771.2835262,-3.7685305673085225,-0.73,8.794408298074432,0.2966666666666667,-0.4011111111111111,-0.65,-0.0358683264874887,0.060507764667478814,0.0009305405412294372
1589986771.2935262,-3.763053236565004,-0.729491127239166,8.824579854847507,0.2966666666666667,-0.4011111111111111,-0.65,-0.04172911677081117,0.07064581118761071,0.00011101881437833628
1589986771.3035262,-3.815840500062927,-0.7206932499895121,8.903760750094392,0.2966666666666667,-0.4011111111111111,-0.65,-0.046527614433085035,0.08504130417443231,0.002030417879287882
1589986771.3135262,-3.87,-0.7089570884110478,9.037300381122664,0.2766666666666667,-0.38666666666666666,-0.6311111111111111,-0.055973661926714637,0.10506104713905516,0.009342275574452132
1589986771.3235261,-3.872863555643252,-0.7066816298342541,9.098090962904498,0.2766666666666667,-0.38666666666666666,-0.6311111111111111,-0.058488374969068564,0.1055974455741438,0.026393079107927396
1589986771.3335261,-3.8885513764856703,-0.771144862351433,9.076565412945701,0.2766666666666667,-0.38666666666666666,-0.6311111111111111,-0.050919870950296126,0.07653399888694237,0.05146020229220282
1589986771.3435261,-3.7997490925972817,-0.780250907402718,9.049749092597283,0.2766666666666667,-0.38666666666666666,-0.6311111111111111,-0.021922135366037918,0.026148609736803233,0.07101743916091366
1589986771.353526,-3.79089811766692,-0.7891018823330801,9.040898117666918,0.2766666666666667,-0.38666666666666666,-0.6311111111111111,0.012835561906878405,-0.013436545490684803,0.11349906916114472
1589986771.363526,-3.8071405830718152,-0.8157108746077227,9.014289125392278,0.2833324489723726,-0.3933324489723725,-0.6349201295715144,0.014492714172979473,-0.012778923608774886,0.13837694771875825
1589986771.373526,-3.7132063925436016,-0.7935872149127969,8.85076164473839,0.28444444444444444,-0.3944444444444444,-0.6355555555555555,0.013248098389166537,-0.013248098389166537,0.1709776800238401
1589986771.383526,-3.7345669558913483,-0.7354724632427901,8.692716522054326,0.28444444444444444,-0.3944444444444444,-0.6355555555555555,0.0033798677977498305,-0.004071296502660647,0.2096198614558905
1589986771.393526,-3.678383720407888,-0.6878449605438509,8.723232559184224,0.28444444444444444,-0.3944444444444444,-0.6355555555555555,-0.01792344919519565,0.00987624662687465,0.2564004100000983
1589986771.403526,-3.640700777143884,-0.6376010361918452,8.798598445712232,0.28444444444444444,-0.3944444444444444,-0.6355555555555555,-0.028884973058513886,0.011246437109789427,0.2831191244169365
1589986771.413526,-2.82335336802756,-0.5060895697427252,8.770726379828483,0.28752327200762295,-0.3944444444444444,-0.632476727992377,-0.05833198220228446,0.04751506333754811,0.31517693700008576
1589986771.423526,-2.2834190638963823,-0.5360144554496221,9.106251467166361,0.2888888888888889,-0.3944444444444444,-0.6311111111111111,-0.0702299558048977,0.07909815871481463,0.3123325960656042
1589986771.433526,-2.102188214285714,-0.32124714285714284,8.8371325,0.2888888888888889,-0.3944444444444444,-0.6311111111111111,0.006009893237921992,-0.037009901579750926,0.2519242135999357
1589986771.443526,-1.9299223214285712,-1.0103107142857142,8.99441875,0.2888888888888889,-0.3944444444444444,-0.6311111111111111,0.018265084892452932,0.012827877815341587,0.22659681751390512
1589986771.453526,-1.915522165578511,-0.9524642995557941,8.773583758161166,0.2888888888888889,-0.3944444444444444,-0.6311111111111111,0.051846836197260514,0.021458468811314996,0.22506928803288404
1589986771.463526,-2.017623345721983,-0.9049810237350796,8.860151810119364,0.2688635872023283,-0.3886037314525309,-0.6344486613922046,0.021227730481465604,0.008438413643913501,0.21924870732422283
1589986771.473526,-2.09299500108672,-0.8682029993479679,8.939400999782656,0.26222222222222225,-0.38666666666666666,-0.6355555555555555,-0.016603862281402045,-0.020268399354371986,0.20680046316126596
1589986771.483526,-2.1385753097152795,-0.8408548141708324,8.930284938056944,0.26222222222222225,-0.38666666666666666,-0.6355555555555555,-0.0036765573121945866,-0.01330754283249105,0.19983960663938505
1589986771.493526,-2.093001596224582,-0.7836019154694982,8.873601915469498,0.26222222222222225,-0.38666666666666666,-0.6355555555555555,0.014158391545094712,-0.0018111621653442433,0.1903939181948951
1589986771.503526,-2.1061126922053193,-0.78,8.829718269486701,0.26222222222222225,-0.38666666666666666,-0.6355555555555555,0.012635197857982432,0.0068184685084073954,0.17310714654025297
1589986771.513526,-2.2911032172356034,-0.8092645218429312,8.88147095631414,0.2766666666666667,-0.4011111111111111,-0.6222222222222222,-0.011349563042436027,-0.0048848065688157395,0.13725185783531474
1589986771.523526,-2.3153295211690637,-0.7931136525539576,8.913772694892085,0.2766666666666667,-0.4011111111111111,-0.6222222222222222,-0.021039389003905007,-0.016336419068733624,0.10906327322013225
1589986771.533526,-2.3324220799471664,-0.7837889600264167,8.888944800132084,0.2766666666666667,-0.4011111111111111,-0.6222222222222222,-0.008002020524524138,-0.0063487748323385745,0.08465838227256149
1589986771.543526,-2.3814893202369816,-0.78,8.828510679763019,0.2766666666666667,-0.4011111111111111,-0.6222222222222222,0.011047552867554046,0.00923723976117994,0.04593096583165094
1589986771.553526,-2.361309898298873,-0.7627859389793238,8.888856244082705,0.2766666666666667,-0.4011111111111111,-0.6222222222222222,0.00870852293756142,0.006526861372568508,0.013446139316221701
1589986771.563526,-2.323288742457923,-0.7667112575420769,8.973422515084154,0.28099921491831625,-0.4073004657563247,-0.6376956088352563,0.0012006846128867982,0.00023429999063545245,-0.03328107743529319
1589986771.573526,-2.2982738786782213,-0.7682738786782212,9.029315303304447,0.28444444444444444,-0.4122222222222222,-0.65,0.00037658125442397404,0.0010161419592781963,-0.08076352802384587
1589986771.583526,-2.3932342430787354,-0.7758821912428824,8.946765756921264,0.28444444444444444,-0.4122222222222222,-0.65,0.009111574805485613,0.018864797138597948,-0.13824636318494896
1589986771.593526,-2.400155368504533,-0.7601553685045331,8.88692561417422,0.28444444444444444,-0.4122222222222222,-0.65,0.011629878988383026,0.020021161778751708,-0.18370997342702286
1589986771.6035259,-2.3762764034957784,-0.7637235965042216,8.904308991260553,0.28444444444444444,-0.4122222222222222,-0.65,0.0030170656994416116,0.017047111151103182,-0.24297152892359994
1589986771.6135259,-2.38822815722149,-0.7578478951856733,8.992912628885959,0.2871449121809615,-0.4122222222222222,-0.6459492983952244,0.009513881220376294,0.026304379240140043,-0.2956019073083063
1589986771.6235259,-2.3680797381293903,-0.7260598035970429,8.760697708632167,0.2888888888888889,-0.4122222222222222,-0.6433333333333333,0.015491971631601622,0.03011345315735803,-0.367049693739646
1589986771.6335258,-2.412975604692204,-0.7805435482196617,8.833790927021697,0.2888888888888889,-0.4122222222222222,-0.6433333333333333,-0.005366733444913788,0.020371550791464077,-0.43161779059642436
1589986771.6435258,-2.475619038995533,-0.7726285766026803,8.943866654593746,0.2888888888888889,-0.4122222222222222,-0.6433333333333333,0.009896428274401778,0.03039158204104404,-0.5060561279309544
1589986771.6535258,-2.495360100721972,-0.7623199496390141,8.911599748195071,0.2888888888888889,-0.4122222222222222,-0.6433333333333333,0.022890064555813487,0.043362782175238354,-0.556838867853225
1589986771.6635258,-2.5096705904994066,-0.7793411809988132,8.977364723995253,0.2964104592773163,-0.40147712166732596,-0.6787921651644909,0.019850552098912642,0.042686132526679396,-0.6390728549565048
1589986771.6735258,-2.525355976731094,-0.78,9.018389941827735,0.2966666666666667,-0.4011111111111111,-0.68,0.013772183845184378,0.040867323306004115,-0.6891482006316095
1589986771.6835258,-2.6485971245217823,-0.8256142786622238,8.957017154140441,0.2966666666666667,-0.4011111111111111,-0.68,0.021950630464686028,0.053297678366761386,-0.7603093582963967
1589986771.6935258,-2.6176647393837023,-0.779197687260443,8.856862426644145,0.2966666666666667,-0.4011111111111111,-0.68,0.028449119088257636,0.05823598756204417,-0.816561875324306
1589986771.7035258,-2.584228267297457,-0.7906173861620344,8.870926079243052,0.2966666666666667,-0.4011111111111111,-0.68,0.022705407283355267,0.05440684635877593,-0.8578072656090501
1589986771.7135258,-2.5739538777684756,-0.8169769388842378,8.920930816652714,0.3032559978351135,-0.39374656451108236,-0.6695345916736434,0.015601395767194534,0.05284194689072003,-0.9073434391935489
1589986771.7235258,-2.6161272933917843,-0.8058090599123234,8.935809059912323,0.31555555555555553,-0.38,-0.65,0.02121765940049796,0.06573049810386171,-0.9857897822276985
1589986771.7335258,-2.627333278982553,-0.836666394912767,8.827334094244252,0.31555555555555553,-0.38,-0.65,0.025307256367666637,0.0724311283852624,-1.0303257801577197
1589986771.7435257,-2.635907918440878,-0.9031712659679004,8.837263347527022,0.31555555555555553,-0.38,-0.65,0.02617993877991494,0.07224313142102261,-1.067967931320185
1589986771.7535257,-2.6524827292110875,-0.94,8.882482729211088,0.31555555555555553,-0.38,-0.65,0.029584075098170407,0.07294648265322293,-1.109205582811762
1589986771.7635257,-2.66,-0.9949090329775371,8.944909032977536,0.3287743968279256,-0.38,-0.6581346715522277,0.03662546464314809,0.0781695907703597,-1.1515073888955545
1589986771.7735257,-2.66,-1.0080796445614613,8.917681421754155,0.33,-0.38,-0.6588888888888889,0.0370882466048795,0.07942116883967203,-1.1752514278795032
1589986771.7835257,-2.6707519825894845,-1.0261279738842266,8.86161607834732,0.33,-0.38,-0.6588888888888889,0.03591538724673194,0.07963064712224129,-1.192007500242641
1589986771.7935257,-2.665103973131342,-1.0747573960268688,8.85475739602687,0.33,-0.38,-0.6588888888888889,0.0327400457538564,0.07963064712224129,-1.2102200446337077
1589986771.8035257,-2.6761043160410516,-1.1295782370307887,8.903052158020525,0.33,-0.38,-0.6588888888888889,0.031255146697240645,0.07963064712224129,-1.2284243710712994
1589986771.8135257,-2.645993184031159,-1.1311986368062317,8.918801363193769,0.3534703018500487,-0.3623972736124635,-0.6843150492264417,0.029713933112458478,0.08155080670218004,-1.2423703331132159
1589986771.8235257,-2.6656866563696195,-1.155686656369619,8.90715667181519,0.3566666666666667,-0.36,-0.6877777777777778,0.03155391578745852,0.07971082402718,-1.2484505562527528
1589986771.8335257,-2.68,-1.1931656372824255,8.81505932996444,0.3566666666666667,-0.36,-0.6877777777777778,0.03019794445051194,0.07938214268120541,-1.2553945392307377
1589986771.8435256,-2.6713805288461536,-1.2344778846153845,8.833097355769231,0.3566666666666667,-0.36,-0.6877777777777778,0.030392669573749875,0.08245136246127797,-1.2669796843457184
1589986771.8535256,-2.6837535381166773,-1.2537535381166771,8.867507076233355,0.3566666666666667,-0.36,-0.6877777777777778,0.03504409673367368,0.08515355688161712,-1.2753874522790376
1589986771.8635256,-2.694975029262583,-1.2799001170503317,8.89492508778775,0.36551116313348075,-0.3467332552997789,-0.691094463952833,0.041429778655636365,0.08888908934894307,-1.282795209136603
1589986771.8735256,-2.706176773651872,-1.3555909628668472,8.885292905392513,0.3744444444444445,-0.3333333333333333,-0.6944444444444444,0.044467329897656165,0.08893465979531233,-1.297960827083378
1589986771.8835256,-2.717886415849411,-1.39,8.854227168301177,0.3744444444444445,-0.3333333333333333,-0.6944444444444444,0.040192133231016135,0.08726646259971647,-1.3175377336239191
1589986771.8935256,-2.745045102488607,-1.4338289293550626,8.85626127562215,0.3744444444444445,-0.3333333333333333,-0.6944444444444444,0.04268490426304132,0.08931546025561782,-1.3319240651013486
1589986771.9035256,-2.7248852485174053,-1.4775573757412972,8.86,0.3744444444444445,-0.3333333333333333,-0.6944444444444444,0.042170445293226215,0.09181576334177008,-1.3550478792524865
1589986771.9135256,-2.7095955567695533,-1.5427755622325412,8.888786670308658,0.41016123908666935,-0.3274693819741621,-0.7045730877011948,0.03774395677751372,0.09272061651219876,-1.381464950647248
1589986771.9235256,-2.7092733980271073,-1.6053633009864465,8.909273398027107,0.4488888888888889,-0.3211111111111111,-0.7155555555555555,0.03373649427752473,0.09447575265574155,-1.4143205484322072
1589986771.9335256,-2.7152391462466454,-1.6252391462466453,8.81618469564345,0.4488888888888889,-0.3211111111111111,-0.7155555555555555,0.038543088913575836,0.10098010780712997,-1.4514298203338456
1589986771.9435256,-2.72769643068896,-1.6838750148227202,8.79769643068896,0.4488888888888889,-0.3211111111111111,-0.7155555555555555,0.04036073895236887,0.10421719425684046,-1.486985468134713
1589986771.9535255,-2.699535134317636,-1.7365578388188365,8.818278919409419,0.4488888888888889,-0.3211111111111111,-0.7155555555555555,0.04036073895236887,0.10471975511965977,-1.517462131561463
1589986771.9635255,-2.6871233427079146,-1.7742466854158296,8.872740056247489,0.4393910986116691,-0.28311995000223206,-0.7258448283558769,0.04424591970240145,0.10938197201969885,-1.5532834308252068
1589986771.9735255,-2.6777955867823033,-1.7983066198265452,8.877795586782304,0.4355555555555555,-0.2677777777777778,-0.73,0.0484774827888852,0.11326168225766405,-1.584036047408206
1589986771.9835255,-2.691909277475055,-1.8976371099002194,8.760453612624726,0.4355555555555555,-0.2677777777777778,-0.73,0.049381572185102106,0.1161305197815976,-1.621966410649354
1589986771.9935255,-2.7,-1.9657752645020066,8.785587984920346,0.4355555555555555,-0.2677777777777778,-0.73,0.04908738521234052,0.11997095704134925,-1.6516052250432638
1589986772.0035255,-2.682829732541771,-2.0014468449721523,8.847170267458228,0.4355555555555555,-0.2677777777777778,-0.73,0.04659007104072276,0.1209243905537942,-1.6819311469876037
1589986772.0135255,-2.637401363715834,-2.107795908852497,8.876299318142083,0.4509493560230782,-0.2315570707953714,-0.7544489772131243,0.04650204187866339,0.12532532546353625,-1.7207299021616265
1589986772.0235255,-2.5868088049703912,-2.138638239005922,8.793617609940782,0.4544444444444444,-0.22333333333333333,-0.76,0.04879029505019181,0.1312477992766994,-1.7484576998245982
1589986772.0335255,-2.567436416135,-2.1588453757974997,8.742309248405,0.4544444444444444,-0.22333333333333333,-0.76,0.046346436408656974,0.13267576188299204,-1.7703756411141722
1589986772.0435255,-2.5464148184255424,-2.192641969290763,8.733585181574458,0.4544444444444444,-0.22333333333333333,-0.76,0.04176023523291027,0.13308135546456762,-1.7956518309223606
1589986772.0535254,-2.4688151826888967,-2.234119573225639,8.740586951182907,0.4544444444444444,-0.22333333333333333,-0.76,0.041772892579765304,0.13513496414593296,-1.825795814767643
1589986772.0635254,-2.432127689895967,-2.2901596123699584,8.802287302265926,0.47586290437508905,-0.18674346428514876,-0.7948049973872975,0.03968186507077246,0.1365685317668279,-1.8647636412478363
1589986772.0735254,-2.44,-2.317189719868784,8.86297429967196,0.4811111111111111,-0.17777777777777778,-0.8033333333333333,0.039116631166144014,0.14197917048466527,-1.895151190229391
1589986772.0835254,-2.430546863844977,-2.329453136155023,8.822734319224885,0.4811111111111111,-0.17777777777777778,-0.8033333333333333,0.042105645444855455,0.14599236407974447,-1.9055812497694729
1589986772.0935254,-2.391706867980114,-2.3682931320198857,8.684927637635795,0.4811111111111111,-0.17777777777777778,-0.8033333333333333,0.050183478334461615,0.15743622648748895,-1.9314731479554763
1589986772.1035254,-2.3463767489905156,-2.4281162550474225,8.76,0.4811111111111111,-0.17777777777777778,-0.8033333333333333,0.04472406208235469,0.16313450666342202,-1.9644598958929704
1589986772.1135254,-2.33111333555778,-2.46888666444222,8.7451888925963,0.4916434541537422,-0.17777777777777778,-0.8164987621366222,0.041169651469014926,0.15873648383909728,-1.9847850298927543
1589986772.1235254,-2.3054449867079314,-2.535550132920684,8.714555013292069,0.5166666666666667,-0.17777777777777778,-0.8477777777777777,0.029246799375325566,0.16284796905636673,-2.0076369843373993
1589986772.1335254,-2.3235207268597384,-2.6429216354344125,8.70823963657013,0.5166666666666667,-0.17777777777777778,-0.8477777777777777,0.030861962896609696,0.1697855503459106,-2.021178738492278
1589986772.1435254,-2.2313953337021246,-2.576566984478214,9.06201555432625,0.5166666666666667,-0.17777777777777778,-0.8477777777777777,0.05803630807769412,0.13075472780944697,-2.0273651818547824
1589986772.1535254,-2.026167031106722,-2.48,8.699127459970375,0.5166666666666667,-0.17777777777777778,-0.8477777777777777,0.12399245828239852,0.06814899334427028,-2.020450440540399
1589986772.1635253,-1.905312697409981,-2.4697915350600126,8.121983575489576,0.5223380360777707,-0.18401628412999227,-0.8466435038955569,0.09753736140774534,0.1892043580422201,-1.9953906666102545
1589986772.1735253,-1.866713062098501,-2.412633832976445,8.817087794432549,0.5277777777777778,-0.19,-0.8455555555555555,-0.10376673807627959,0.34227677187782535,-1.9994776414464401
1589986772.1835253,-2.036164316966456,-2.6621195916383082,9.42807486631016,0.5277777777777778,-0.19,-0.8455555555555555,-0.054556917876739386,0.13825126761748835,-2.0126755965192507
1589986772.1935253,-2.2890156492653206,-2.9395078246326602,9.822184924142874,0.5277777777777778,-0.19,-0.8455555555555555,0.0358932975814065,0.062060205292363176,-1.9885340862541707
1589986772.2035253,-1.9989880952380954,-2.768013095238095,8.665116666666666,0.5277777777777778,-0.19,-0.8455555555555555,-0.011740845461462746,0.19034841321594229,-1.9639400518982955
1589986772.2135253,-2.124181484154583,-3.0050400236204973,9.095978610327407,0.48237940059342854,-0.22359479911641844,-0.8691627116914171,0.03363718180136174,0.12587207407595064,-1.9419961436533228
1589986772.2235253,-2.19,-3.08,9.33,0.4722222222222222,-0.2311111111111111,-0.8744444444444445,0.04799655442984406,0.10253809355466686,-1.9384063004962024
1589986772.2335253,-2.1583923005543793,-3.1669211734754574,9.140353803326274,0.4722222222222222,-0.2311111111111111,-0.8744444444444445,0.032481161246213315,0.12494921704213348,-1.910823379280859
1589986772.2435253,-2.15,-3.19,9.09,0.4722222222222222,-0.2311111111111111,-0.8744444444444445,0.02836160034490785,0.1308996938995747,-1.903499715456316
1589986772.2535253,-2.104418636885668,-3.2290697398122847,8.953255910657004,0.4722222222222222,-0.2311111111111111,-0.8744444444444445,0.03617498740099188,0.13161000181376417,-1.8601709326907592
1589986772.2635252,-2.0013837882304553,-3.235706143314628,8.694179863090167,0.4491932308957899,-0.1850531284582464,-0.7497702500220348,0.03334425845952053,0.1234148263019232,-1.815909596245487
1589986772.2735252,-1.9733437948350072,-3.242260581061693,8.646750358680057,0.44,-0.16666666666666666,-0.7,0.03200226764445216,0.1202345536970354,-1.8028864217705483
1589986772.2835252,-1.9964674807640777,-3.3338180913371356,8.836155495157524,0.44,-0.16666666666666666,-0.7,0.04363323129985824,0.12120970245902682,-1.7627796632478028
1589986772.2935252,-1.9374807886844019,-3.2860851509397127,8.59,0.44,-0.16666666666666666,-0.7,0.04433507841130386,0.1112647398146385,-1.7156316951394157
1589986772.3035252,-1.909770766030889,-3.3562464043899634,8.652607425764481,0.44,-0.16666666666666666,-0.7,0.044916286190683274,0.1098269691359699,-1.680506088463508
1589986772.3135252,-1.8877168892142262,-3.353663831183583,9.25532725850014,0.4497050087925217,-0.08579159339565225,-0.6741199765532754,0.0644980098768106,0.1323920865401606,-1.604955765577292
1589986772.3235252,-1.4098757303925602,-2.753244177433956,7.3212830219735,0.4566666666666666,-0.027777777777777776,-0.6555555555555556,0.17984299357114436,0.2282800637321801,-1.5032974128867946
1589986772.3335252,-1.3959848484848485,-2.888863636363636,7.610984848484849,0.4566666666666666,-0.027777777777777776,-0.6555555555555556,0.03184068943150639,0.07295344051423269,-1.5120154225835536
1589986772.3435252,-1.5144274500555874,-3.133282350166762,8.452366000741165,0.4566666666666666,-0.027777777777777776,-0.6555555555555556,-0.09348661984172596,-0.03739624285822663,-1.5133902497920282
1589986772.3535252,-1.5132628147769398,-3.1209465678128594,8.24231624696408,0.4566666666666666,-0.027777777777777776,-0.6555555555555556,0.029473137809137753,0.07781466416227163,-1.4318028302383616
1589986772.3635252,-1.5734896777330798,-3.2500857610185228,8.452980416427215,0.47150838208351137,-0.008794188291115924,-0.6465814950709518,0.09557502376688745,0.12702813914056715,-1.365529807290951
1589986772.3735251,-1.6646027161555952,-3.482383703066429,8.856657039267498,0.5044444444444445,0.03333333333333333,-0.6266666666666667,0.009004632817767555,0.05287992089606829,-1.332005873648212
1589986772.3835251,-1.5819855773675613,-3.4559900151006193,8.411935652870659,0.5044444444444445,0.03333333333333333,-0.6266666666666667,0.04472890289817889,0.08050730542129342,-1.2666650803499617
1589986772.3935251,-1.620041365788341,-3.5515989192291135,8.831068337238774,0.5044444444444445,0.03333333333333333,-0.6266666666666667,0.035733537121543375,0.06165862181567158,-1.2142510267198339
1589986772.403525,-1.6194390438247013,-3.592616733067729,8.859250996015936,0.5044444444444445,0.03333333333333333,-0.6266666666666667,0.035375598816966336,0.057018898404720325,-1.1696864617097937
1589986772.413525,-1.6085036974528657,-3.6355110923585974,8.882792520707957,0.5111263351913127,0.0605748879167191,-0.6302646078380573,0.045147061507727286,0.06234057589013217,-1.1181233778796358
1589986772.423525,-1.5688453584558824,-3.623556698069853,8.793649471507354,0.5188888888888888,0.09222222222222222,-0.6344444444444445,0.04301434399383077,0.059439781658231244,-1.0586718904127783
1589986772.433525,-1.480300931454502,-3.604448292333413,8.697692858848818,0.5188888888888888,0.09222222222222222,-0.6344444444444445,0.0387299638668574,0.05566519643671848,-1.003848816484866
1589986772.443525,-1.45,-3.6283358234885337,8.895457261987492,0.5188888888888888,0.09222222222222222,-0.6344444444444445,0.03786507503791134,0.05330188460822376,-0.9585605950302065
1589986772.453525,-1.44853312788906,-3.550366718027735,8.806699537750386,0.5188888888888888,0.09222222222222222,-0.6344444444444445,0.03704824387356453,0.055312348056799486,-0.9155085597077159
1589986772.463525,-1.4054424350072663,-3.573672694978201,8.688097045050865,0.5259784344331414,0.11551644329619462,-0.6410275938783931,0.032517343291271504,0.04839718330353826,-0.8397705207094844
1589986772.473525,-1.4449003850228688,-3.662963125662162,8.795926251324325,0.5344444444444445,0.14333333333333334,-0.6488888888888888,0.02713713229168565,0.04344364170211486,-0.778918376552541
1589986772.483525,-1.4469367415525718,-3.7365316292237143,8.843873483105144,0.5344444444444445,0.14333333333333334,-0.6488888888888888,0.025729108528863807,0.037728247136324826,-0.7343058802195898
1589986772.493525,-1.3925606222357785,-3.7228031111788926,8.685525392710082,0.5344444444444445,0.14333333333333334,-0.6488888888888888,0.02535961140634623,0.036006232969168515,-0.6906016910816822
1589986772.503525,-1.3802459381772907,-3.6578143781606896,8.606120632675962,0.5344444444444445,0.14333333333333334,-0.6488888888888888,0.02506228030398051,0.03272492347489368,-0.6325983358848104
1589986772.513525,-1.399587284996234,-3.7480739966490924,8.825322563290653,0.5344444444444445,0.14333333333333334,-0.6488888888888888,0.022952466655476178,0.03272492347489368,-0.5974347750764047
1589986772.523525,-1.3442077569379616,-3.6678961215310193,8.795792243062039,0.5422222222222223,0.17333333333333334,-0.6577777777777778,0.020323446703914918,0.025491446160936234,-0.514982573293476
1589986772.533525,-1.308610270193804,-3.6534239637855426,8.709899278540105,0.5422222222222223,0.17333333333333334,-0.6577777777777778,0.017604888525138446,0.027381719814584968,-0.45515765429763
1589986772.543525,-1.299525101118249,-3.6290502022364977,8.677639067332857,0.5422222222222223,0.17333333333333334,-0.6577777777777778,0.01859592673431848,0.020881195163068845,-0.38776000339198596
1589986772.553525,-1.2886374257722897,-3.658545029691084,8.805819881235664,0.5422222222222223,0.17333333333333334,-0.6577777777777778,0.01698723344872426,0.01698723344872426,-0.322510562188337
1589986772.563525,-1.247052996322357,-3.6505794944835355,8.743816245402947,0.5558885038819564,0.18196466911842862,-0.6620934456703255,0.013184788953096604,0.01389093846072999,-0.26098761268376386
1589986772.573525,-1.2162652112987684,-3.621204366103695,8.706265211298769,0.5844444444444444,0.2,-0.6711111111111111,0.005730180198694046,0.007504439515544613,-0.1939847735346117
1589986772.583525,-1.2276113960382065,-3.651740930692138,8.682388603961794,0.5844444444444444,0.2,-0.6711111111111111,0.0005211125457434953,0.0016119433282399515,-0.12314010585201576
1589986772.593525,-1.2288680967594705,-3.676697854860794,8.642170241898675,0.5844444444444444,0.2,-0.6711111111111111,0.0002469429795154002,0.0001234714897577001,-0.0737652534898402
1589986772.603525,-1.2420828265390198,-3.672333738768784,8.672998783693647,0.5844444444444444,0.2,-0.6711111111111111,-0.0007089736694021972,-0.0032451220690962075,-0.03658866947502153
1589986772.613525,-1.2509882392757425,-3.6233835349860395,8.720988239275743,0.6499293980502204,0.23210875144541276,-0.6820956839740154,-0.003119006300337189,-0.009556190813070738,-0.0015841458288153986
1589986772.623525,-1.2281344332416744,-3.584067216620837,8.681865566758326,0.7566666666666667,0.28444444444444444,-0.7,-0.0024218243092235707,-0.011351972333873597,0.036254042679249004
1589986772.633525,-1.24,-3.5874583027586615,8.662374908275986,0.7566666666666667,0.28444444444444444,-0.7,-0.0046405792890496355,-0.011721882448397202,0.07054962093548872
1589986772.643525,-1.2313036502206176,-3.5713036502206177,8.65565342960289,0.7566666666666667,0.28444444444444444,-0.7,-0.006402778515952924,-0.012615832111211719,0.11382655131297795
1589986772.6535249,-1.2014676812891674,-3.5567579230080573,8.699419516562221,0.7566666666666667,0.28444444444444444,-0.7,-0.01007435450802573,-0.02114276152590208,0.182515208846124
1589986772.6635249,-1.222590774586597,-3.6,8.647409225413403,0.9299607001257133,0.3385628469200271,-0.8957474132095542,-0.010704913928670356,-0.02294705431775695,0.24142471943006183
1589986772.6735249,-1.2540512223515716,-3.610307666722102,8.70528188923998,1.4255555555555557,0.4933333333333334,-1.4555555555555555,-0.017486853753065173,-0.028428722811151608,0.3185784634068113
1589986772.6835248,-1.29902368732728,-3.6339052506908804,8.811450059218318,1.4255555555555557,0.4933333333333334,-1.4555555555555555,-0.019421955701587317,-0.03325741943326592,0.3759427495176645
1589986772.6935248,-1.2993389440720262,-3.73070313646817,8.686694720360132,1.4255555555555557,0.4933333333333334,-1.4555555555555555,-0.015415850985987493,-0.03766971700388701,0.47751380377080976
1589986772.7035248,-1.2905337170893778,-3.7104550986111375,8.732213486835752,1.4255555555555557,0.4933333333333334,-1.4555555555555555,-0.013939346214745126,-0.04091044231642395,0.539562276760193
1589986772.7135248,-1.3002484863017805,-3.607152448893951,8.738576224446977,1.2246571282030787,0.24049027836060993,-1.2980016519126885,-0.014596180373306244,-0.04690572364734761,0.5904031857534475
1589986772.7235248,-1.3535425954934328,-3.5487275575370525,8.752656946620075,0.7766666666666666,-0.3233333333333333,-0.9466666666666668,-0.01408419086709968,-0.05137972029448754,0.6409535820047446
1589986772.7335248,-1.3287982811779273,-3.455193124711709,8.715300429705518,0.7766666666666666,-0.3233333333333333,-0.9466666666666668,-0.01322105657825971,-0.05159676474808902,0.6743066440471905
1589986772.7435248,-1.3546947589587954,-3.5306104820824094,8.728779035835181,0.7766666666666666,-0.3233333333333333,-0.9466666666666668,-0.012444664101561061,-0.05247243673010266,0.6997140229798356
1589986772.7535248,-1.3827764389839214,-3.5465725121479084,8.76138821949196,0.7766666666666666,-0.3233333333333333,-0.9466666666666668,-0.016251236902396732,-0.057097081615385153,0.7237957218228154
1589986772.7635248,-1.4132769623484365,-3.549661774090619,8.756469368219527,0.7079422817840175,-0.18439055520102104,-0.8734602566829753,-0.01963495408493621,-0.05566004094982355,0.7552953757553361
1589986772.7735248,-1.42694569558936,-3.505927594119147,8.73694569558936,0.5722222222222222,0.09,-0.7288888888888889,-0.020614727225091306,-0.06413690088260818,0.7817270964813056
1589986772.7835248,-1.4650479162726184,-3.5525239581363093,8.73971250236429,0.5722222222222222,0.09,-0.7288888888888889,-0.02264257901857465,-0.06654067773228381,0.7982755339187094
1589986772.7935247,-1.4782699703675681,-3.559134985183784,8.660380177794591,0.5722222222222222,0.09,-0.7288888888888889,-0.024806032560765346,-0.06654067773228381,0.8148620110755048
1589986772.8035247,-1.482965992397502,-3.562585019006245,8.677414980993754,0.5722222222222222,0.09,-0.7288888888888889,-0.025856399199130374,-0.06577338653057192,0.8461656088470713
1589986772.8135247,-1.4972013304371437,-3.526996673907141,8.71300332609286,0.5722222222222222,0.09,-0.7288888888888889,-0.024303564705841992,-0.06732622102386032,0.865576040013176
1589986772.8235247,-1.5462407541967098,-3.5362407541967094,8.78624075419671,0.5644444444444444,0.14333333333333334,-0.7355555555555555,-0.026520319119103186,-0.070753910773608,0.8907879686366863
1589986772.8335247,-1.4680953179438452,-3.458095317943845,8.708095317943844,0.5644444444444444,0.14333333333333334,-0.7355555555555555,-0.022258146750291228,-0.06990147629984561,0.906984223638172
1589986772.8435247,-1.5176440378751404,-3.521911009468785,8.69382201893757,0.5644444444444444,0.14333333333333334,-0.7355555555555555,-0.027527765163230654,-0.07048708327143104,0.9236766771736789
1589986772.8535247,-1.5457752229815824,-3.525305803312869,8.713285937680991,0.5644444444444444,0.14333333333333334,-0.7355555555555555,-0.024254305927192788,-0.06887595652463918,0.926642901954992
1589986772.8635247,-1.485668813944676,-3.464225085259568,8.765739547808513,0.5707824231962163,0.14143193970780177,-0.7501329066846307,-0.027585742300669187,-0.07106148723139852,0.9111625340566004
1589986772.8735247,-1.55,-3.588009230903841,8.73,0.5866666666666667,0.13666666666666666,-0.7866666666666666,-0.023368131311191413,-0.0682616544185109,0.8849022555852681
1589986772.8835247,-1.555769466471058,-3.622691600586826,8.692498467938124,0.5866666666666667,0.13666666666666666,-0.7866666666666666,-0.021166196983576982,-0.06574345502721692,0.8493160989604926
1589986772.8935246,-1.5763209979789532,-3.5888493971705344,8.62149139312844,0.5866666666666667,0.13666666666666666,-0.7866666666666666,-0.014732411306177131,-0.06067281546950913,0.8083567722186551
1589986772.9035246,-1.6034233897905452,-3.6201621016229812,8.73684677958109,0.5866666666666667,0.13666666666666666,-0.7866666666666666,-0.015289313498974423,-0.05564415827000195,0.7356935823818154
1589986772.9135246,-1.5749943260622874,-3.542519858781995,8.702463119404866,0.5666893624175178,0.11169503635523052,-0.7614175737962146,-0.009816239181285092,-0.05072425031667671,0.6771533234788989
1589986772.9235246,-9.70115104350902,-6.0610979837283345,8.543318004952246,0.5066666666666667,0.03666666666666667,-0.6855555555555556,-0.007956697995594772,-0.034154232065103575,0.5898889519708385
1589986772.9335246,-8.511875307860109,-4.416038280205475,2.149836746182534,0.5066666666666667,0.03666666666666667,-0.6855555555555556,-0.30009045745390006,1.0999433760630484,-0.8285405937668103
1589986772.9435246,5.838275188389618,1.0090106056377335,-3.988739882779793,0.5066666666666667,0.03666666666666667,-0.6855555555555556,-0.4302680488745112,1.4906793268468004,-4.7066745249597775
1589986772.9535246,0.5707156266183325,-2.3234240678404974,0.549556576903159,0.5066666666666667,0.03666666666666667,-0.6855555555555556,0.15866909769105128,-0.7448865243038187,-8.486100984067031
1589986772.9635246,0.04805719186949775,-1.9093699831693423,-0.16994724236147085,0.5066666666666667,0.03666666666666667,-0.6855555555555556,0.24974211697770018,-0.3998456544861083,-8.441675121000372
1589986772.9735246,-0.8029673111610393,-1.8875041929052876,-0.35487706085250464,0.5066666666666667,0.16333333333333333,-0.6644444444444444,0.3375285397411223,-0.03292074901931007,-7.944522418421751
1589986772.9835246,-0.12318257989865539,-1.1819004109643698,-0.30016598172605036,0.5066666666666667,0.16333333333333333,-0.6644444444444444,0.19905759801340156,0.056497792214272105,-7.547140418640198
1589986772.9935246,-0.2148461269112555,-1.1737411975255805,-0.16080457534139986,0.5066666666666667,0.16333333333333333,-0.6644444444444444,0.08277654147633738,0.05256736585674561,-7.285733617702595
1589986773.0035245,-0.30459693421001444,-1.37772030502276,1.1038658911411119,0.5066666666666667,0.16333333333333333,-0.6644444444444444,-0.016906455394609027,0.04722720531008778,-7.068567088805177
1589986773.0135245,3.2450276045297812,-1.9912424864803753,9.946831226093346,0.4861884393862311,0.2005664738432163,-0.6630482016753237,0.3286491387065458,0.9552071424132709,-6.563219745106063
1589986773.0235245,-0.018988336379566206,-1.0902792485538242,-1.876335475118239,0.408912840031907,0.341067563578351,-0.6577794108102563,1.1036805352077181,3.4647915642318607,-5.788188348604891
1589986773.0335245,0.036564265478900015,-1.3739620416919123,8.939957915076882,0.4088888888888889,0.3411111111111111,-0.6577777777777778,-0.3065400980595592,0.6918217019206865,-4.76374873472443
1589986773.0435245,3.3196392486940565,-1.7860635040201747,16.996541503594415,0.4088888888888889,0.3411111111111111,-0.6577777777777778,0.03210806560710994,0.035503579416257036,-4.489533628746552
1589986773.0535245,1.05,-0.6183135334872979,5.1276380600461895,0.4088888888888889,0.3411111111111111,-0.6577777777777778,0.7059790517928621,-0.39759017546522235,-4.005819297886759
1589986773.0635245,0.996479057591623,-1.4224541884816753,8.088913612565445,0.40351148923792907,0.34718440954043045,-0.6569553519488075,0.5752240557267224,-0.09142918137768562,-3.7363759905853886
1589986773.0735245,0.5126940403727777,-1.8950493483269713,13.455697582447815,0.3144444444444445,0.4477777777777778,-0.6433333333333333,-0.5241968587710604,0.4900553632880501,-3.1901419008678755
1589986773.0835245,1.3700902255639098,-1.7571299677765844,8.770776226279986,0.3144444444444445,0.4477777777777778,-0.6433333333333333,-0.23801779261721306,0.5915828025034412,-2.9150267485623425
1589986773.0935245,1.2096963608452231,-1.6621992956474625,8.091130124616218,0.3144444444444445,0.4477777777777778,-0.6433333333333333,0.23283610178265193,0.12843439072015173,-2.483903917768964
1589986773.1035244,0.7029786842812487,-1.766908867169267,8.145584803179677,0.3144444444444445,0.4477777777777778,-0.6433333333333333,-0.038783162406913735,0.15022711267062075,-2.185458882430807
1589986773.1135244,0.9165528508182577,-2.401698751043155,9.800784593841495,0.3144444444444445,0.4477777777777778,-0.6433333333333333,-0.027781646633363466,0.2259434271121138,-1.9667228629331608
1589986773.1235244,0.5801830116656559,-1.6240262566444295,6.381712746601976,0.2533333333333333,0.4977777777777778,-0.6433333333333333,0.09534096864874039,0.03218641552411826,-1.589279547875703
1589986773.1335244,0.6385722980786788,-2.368574124043904,8.567151291363183,0.2533333333333333,0.4977777777777778,-0.6433333333333333,-0.004986474793495992,0.10440754854519738,-1.1247993535396024
1589986773.1435244,0.6990054321217914,-2.6151304408644767,9.247434779567762,0.2533333333333333,0.4977777777777778,-0.6433333333333333,0.019069384276996948,0.05759705042094575,-0.8203171844117979
1589986773.1535244,0.6234649269012811,-2.6976389351873897,9.038073955902663,0.2533333333333333,0.4977777777777778,-0.6433333333333333,0.0571486189808417,0.04186820901726033,-0.4639563727248948
1589986773.1635244,0.5098456814424062,-2.3688717423824897,8.09697189197701,0.24856957894828927,0.5019147223753161,-0.6457152105258553,-0.015517778582903683,0.01956761991176266,-0.09767500313680239
1589986773.1735244,0.43554306747500193,-2.3606158963861112,7.708947130147232,0.21371156251913673,0.5321861576953696,-0.6631442187404316,-0.017318924772583583,-0.012853011502475566,0.20131526435006122
1589986773.1835244,0.48977419354838714,-2.8903548387096776,9.21625806451613,0.2111111111111111,0.5344444444444445,-0.6644444444444444,-0.02838623200773842,-0.05013950909610322,0.6437907337845292
1589986773.1935244,0.41266020391108144,-2.7010750459635635,8.248828012702658,0.2111111111111111,0.5344444444444445,-0.6644444444444444,-0.036798063373487004,-0.07078673153930429,0.8816161478525117
1589986773.2035244,2.918225226048041,-7.496194903644168,8.852468901269523,0.2111111111111111,0.5344444444444445,-0.6644444444444444,-0.031243111203418408,-0.08949897447354,1.3000751805790085
1589986773.2135243,13.59838633665175,-25.99110804639693,6.255213078819984,0.2111111111111111,0.5344444444444445,-0.6644444444444444,-0.029571626482978227,-0.10370659459728152,1.532411556720194
1589986773.2235243,0.7029675933822276,-3.5918901586218657,9.193019955654101,0.21444444444444444,0.5366666666666666,-0.6577777777777778,-0.3354659087805573,-0.39156979368908423,2.9592334687053183
1589986773.2335243,-0.8637247143100801,-0.930659389391097,9.937019955654101,0.21444444444444444,0.5366666666666666,-0.6577777777777778,-0.48373498513988333,-0.4828723301840376,4.540250040831604
1589986773.2435243,-0.8204887122254497,-1.9059961949413105,4.03174794883555,0.21444444444444444,0.5366666666666666,-0.6577777777777778,0.4561415583801291,-0.03548480744162267,5.002841127272489
1589986773.2535243,-1.0342327880548337,-2.924842956394707,7.8577669061815225,0.21444444444444444,0.5366666666666666,-0.6577777777777778,0.3574377436422942,-0.033930416658349685,5.066571149386682
1589986773.2635243,-0.13923052337195366,-3.7149992009588493,11.944223332001597,0.2244660407510987,0.5332264171882629,-0.66420954854175,-0.5143264524614739,-0.5383461061246106,5.004479993779791
1589986773.2735243,-0.07220215741110668,-3.497157011586097,9.916615261685976,0.28683965907577574,0.5118145780618812,-0.7042403782128114,-0.4430377626932076,-0.5758183661310071,5.030070805491477
1589986773.2835243,-0.5189553931451613,-3.2404498487903224,7.6926953125,0.2888888888888889,0.5111111111111111,-0.7055555555555556,0.05300989504602266,-0.2230181267350954,5.148932971735722
1589986773.2935243,-0.54,-3.5,8.78,0.2888888888888889,0.5111111111111111,-0.7055555555555556,-0.09926560120717748,-0.2498002491916884,5.151993785730762
1589986773.3035243,15.003132917435863,-21.823919409255844,6.487070787446687,0.2888888888888889,0.5111111111111111,-0.7055555555555556,-0.32596990946271087,-0.5169494575115892,5.097712472486478
1589986773.3135242,0.9420588836638721,-3.6138662850132874,7.878161930075649,0.2888888888888889,0.5111111111111111,-0.7055555555555556,-0.4831535089692655,-0.5291093556379477,2.8140628494022177
1589986773.3235242,-1.809485042932324,-0.6627906010525345,13.875331225186963,0.38365299192646624,0.43389591604345545,-0.6888840929841299,0.6496080105248828,0.38469490562786124,-0.9024314099617836
1589986773.3335242,-0.9297589940621726,0.4905052974735126,2.1600977995110022,0.4088888888888889,0.4133333333333333,-0.6844444444444444,0.7732251573617375,0.5296967089072737,-1.6965071765391941
1589986773.3435242,-0.8251160121750412,-1.3163301897776223,5.676101990918616,0.4088888888888889,0.4133333333333333,-0.6844444444444444,-0.18637722872052398,0.019836598934938054,-1.2749213542635616
1589986773.3535242,-0.9500703594930346,-2.818004491699779,10.291125751888554,0.4088888888888889,0.4133333333333333,-0.6844444444444444,-0.3495647273543462,-0.014575002052453972,-0.7732322984668165
1589986773.3635242,-0.8907851051466085,-2.6269742276946273,9.342561682345735,0.4088888888888889,0.4133333333333333,-0.6844444444444444,0.07079144517554209,0.11332824360621291,-0.5052103286315202
1589986773.3735242,-0.6216745189186926,-2.550371882655946,7.861674309525306,0.42777777777777776,0.4066666666666667,-0.6977777777777778,0.015850040568308795,0.045140115911179224,-0.2184249253066891
1589986773.3835242,0.28293192620977026,-4.447410641371945,8.845324036266934,0.42777777777777776,0.4066666666666667,-0.6977777777777778,-0.12498060582921577,-0.09952265691893103,-0.0957968794639466
1589986773.3935242,-4.33316863084922,-25.105647487001733,8.333123396880415,0.42777777777777776,0.4066666666666667,-0.6977777777777778,-0.08956885285408586,0.01616609329138461,-0.1445126003826801
1589986773.4035242,0.09374419410745283,-4.185031542461008,9.016423570190641,0.42777777777777776,0.4066666666666667,-0.6977777777777778,0.05157470625898687,-0.06233509969847043,-0.14213377635268448
1589986773.4135242,0.4320158147415984,0.884349618751765,10.45729398475007,0.42777777777777776,0.40714412124635224,-0.69881226270043,0.4405971810260305,0.2192858830534335,0.044674896142539264
1589986773.4235241,0.1319083900431824,-3.2759770296850625,8.37457235875291,0.42777777777777776,0.4133333333333333,-0.7122222222222222,-0.12375877343492664,-0.0645633172729001,0.1644171103401427
1589986773.4335241,1.0604880691410283,-7.131762037946935,10.59530879129186,0.42777777777777776,0.4133333333333333,-0.7122222222222222,-0.37857567197336506,-0.19333830147104716,0.014687501749174825
1589986773.4435241,-0.266774960007528,-6.574344123459114,8.344099463630375,0.42777777777777776,0.4133333333333333,-0.7122222222222222,-0.004158105905754522,0.02579313882732792,-0.2516393003827021
1589986773.453524,0.38748228394558937,-3.4701506882788955,7.389829762971409,0.42777777777777776,0.4133333333333333,-0.7122222222222222,0.18737339936765463,0.08278167936712638,-0.002213381577158037
1589986773.463524,-0.4153396226415094,-4.676048771804913,8.78790993236027,0.42586491831810447,0.4135918278549107,-0.7115501364661208,-0.004211872789945377,0.011287749176896664,0.042135542770540296
1589986773.473524,0.06151089952392884,-4.635396308360478,8.889856343439405,0.38666666666666666,0.4188888888888889,-0.6977777777777778,-0.028550010773221786,-0.02865988648721917,-0.006074140839308337
1589986773.483524,-0.016952630731359424,-4.335096049876919,8.687951319391722,0.38666666666666666,0.4188888888888889,-0.6977777777777778,0.003872377755380303,0.008235700885366126,0.0032075449146069324
1589986773.493524,-0.0643445143683428,-4.533737805747337,8.462269811205474,0.38666666666666666,0.4188888888888889,-0.6977777777777778,-0.013668475603195646,-0.008963602760370972,-0.0005785062132381766
1589986773.503524,0.019428981171644898,-4.500652592946691,8.688939536461625,0.38666666666666666,0.4188888888888889,-0.6977777777777778,-0.010863816045296359,-0.004363323129985824,0.002172763209059272
1589986773.513524,-0.02584557973137597,-4.55239494826443,8.604858209070303,0.38666666666666666,0.4188888888888889,-0.6977777777777778,-0.007336181424080237,-0.004363323129985824,0.0014672362848160475
1589986773.523524,-0.0429152333707499,-4.466643733931998,8.595423833146251,0.3921770407116389,0.4188888888888889,-0.6930546000249443,-4.4356844289513905e-05,0.0002736457856079757,0.0018636589350954223
1589986773.533524,-0.06971353424657534,-4.405143232876712,8.617428383561643,0.3944444444444444,0.4188888888888889,-0.6911111111111111,0.0054229053462856135,0.002181661564992912,0.0038022834556392634
1589986773.543524,-0.005537369963495518,-4.525385525030421,8.581845789987831,0.3944444444444444,0.4188888888888889,-0.6911111111111111,-0.0040613064494732145,-0.0005874696483087737,-0.00020134445367507293
1589986773.553524,-0.04866715796328986,-4.489444035030592,8.596222385987764,0.3944444444444444,0.4188888888888889,-0.6911111111111111,-0.0017089414298371184,0.0033331387177513863,-0.0017695878000991369
1589986773.563524,-0.051931637312459235,-4.512273450750163,8.664546901500326,0.3944444444444444,0.4188888888888889,-0.6911111111111111,0.0006694128942866054,-3.728606197182967e-05,0.0022189476269647425
1589986773.573524,-0.05,-4.4971721889319705,8.69521854071202,0.399517291348451,0.4188888888888889,-0.6860382642071045,0.003580958683498456,-0.0002607881488291228,0.0007823644464873681
1589986773.583524,-0.04137360285374554,-4.485192390011891,8.697252794292508,0.4011111111111111,0.4188888888888889,-0.6844444444444444,0.002598226623383592,-0.0011657491962859866,7.491841378953067e-05
1589986773.593524,-0.06,-4.425575101488498,8.65372801082544,0.4011111111111111,0.4188888888888889,-0.6844444444444444,-0.006849059310938505,-0.002333698872972797,0.000938793474516571
1589986773.603524,-0.058341651464564756,-4.500829174267718,8.577462568409459,0.4011111111111111,0.4188888888888889,-0.6844444444444444,-0.010546512298852425,-0.004182425366929757,-0.0008194841379123549
1589986773.613524,-0.043904932364988124,-4.508047533817506,8.642427804357554,0.4011111111111111,0.4188888888888889,-0.6844444444444444,-0.007396908780437882,-0.002607623607722485,0.0015427185008985522
1589986773.623524,-0.011725553669416921,-4.561372231652916,8.639137223165292,0.4011111111111111,0.43333333333333335,-0.6911111111111111,0.003272492347489368,-0.0009967164295239714,0.001993432859047943
1589986773.633524,-0.028283526114247365,-4.4785823694287625,8.630858236942878,0.4011111111111111,0.43333333333333335,-0.6911111111111111,0.003272492347489368,-9.361912759651395e-05,0.0001872382551930279
1589986773.643524,-0.03648044403840518,-4.482960888076811,8.617039111923189,0.4011111111111111,0.43333333333333335,-0.6911111111111111,0.003272492347489368,0.0,0.0014138135682676043
1589986773.653524,-0.047911566876171575,-4.450442165619142,8.61791156687617,0.4011111111111111,0.43333333333333335,-0.6911111111111111,-0.0027686341329257276,0.0008630180686307278,0.00045562542773145624
1589986773.663524,-0.04449481530963913,-4.484041477522887,8.625505184690361,0.4011111111111111,0.43333333333333335,-0.6911111111111111,-0.001961233160556277,0.0022918757672112295,0.0
1589986773.673524,-0.04,-4.5053572558949195,8.64464274410508,0.4070766735242918,0.43007939019887115,-0.6981613212357792,0.0005324252003346564,0.0016752167464853987,0.0005324252003346564
1589986773.683524,-0.04,-4.49,8.678595883823812,0.4133333333333333,0.4266666666666667,-0.7055555555555556,0.003119327032770689,-0.0010142481251371163,-0.0009376654677777767
1589986773.693524,-0.058639752426501615,-4.471360247573498,8.586801237867492,0.4133333333333333,0.4266666666666667,-0.7055555555555556,0.0012392107749952704,0.0019590915762446896,-0.001090830782496456
1589986773.7035239,-0.03054878738731943,-4.492088409459511,8.63890242522536,0.4133333333333333,0.4266666666666667,-0.7055555555555556,-0.005334427077455513,-0.0002278101324890763,-0.001090830782496456
1589986773.7135239,-0.02,-4.51456349619752,8.630873007604958,0.4133333333333333,0.4266666666666667,-0.7055555555555556,-0.010813077468080298,-0.001090830782496456,0.000497800212806097
1589986773.7235239,-0.026894997154987527,-4.506210005690025,8.64757998861995,0.4003094498183568,0.4213038911016764,-0.7063216663505542,-0.005982118493952312,-0.00334721332506222,0.0018429582966850442
1589986773.7335238,-0.05938813594465703,-4.528470339861643,8.697246611750955,0.3944444444444444,0.4188888888888889,-0.7066666666666667,0.003339236362116491,-0.0011242027898100174,0.0021482895576793505
1589986773.7435238,-0.0435758044146199,-4.48893951103655,8.626091119865789,0.3944444444444444,0.4188888888888889,-0.7066666666666667,0.00506409415971687,-0.001986631688610207,0.001285860658879161
1589986773.7535238,-0.04,-4.507530713364556,8.651234643317723,0.3944444444444444,0.4188888888888889,-0.7066666666666667,0.0030031349602144,0.0010234914356777138,0.003070474307033142
1589986773.7635238,-0.04,-4.479061969727821,8.66546901513609,0.3944444444444444,0.4188888888888889,-0.7066666666666667,-0.00010232322958054043,0.00024712688822897883,0.0007413806646869368
1589986773.7735238,-0.02213497510429283,-4.525730049791415,8.652134975104293,0.3944444444444444,0.4188888888888889,-0.7055555555555556,-0.0037422840463521715,0.0008579411261338362,-0.002026401794084499
1589986773.7835238,-0.04975240008409054,-4.470495199831818,8.679009600336363,0.3944444444444444,0.4188888888888889,-0.7055555555555556,0.00429580072748143,-0.002114139162488518,0.0
1589986773.7935238,-0.030157903342598862,-4.509684193314802,8.600631613370394,0.3944444444444444,0.4188888888888889,-0.7055555555555556,-0.0010477693258049738,0.0032294308907978866,0.0
1589986773.8035238,-0.030908866226130392,-4.47151477704355,8.65060591081742,0.3944444444444444,0.4188888888888889,-0.7055555555555556,-0.004462465055649265,-0.001090830782496456,0.001090830782496456
1589986773.8135238,-0.04727665331182684,-4.498794422186378,8.661517768874551,0.3944444444444444,0.4188888888888889,-0.7055555555555556,-0.00624791365509183,-0.001090830782496456,0.001090830782496456
1589986773.8235238,-0.056051329753498795,-4.516051329753498,8.666051329753499,0.3944444444444444,0.4188888888888889,-0.7081880023865563,-0.00806654858295633,-0.00022936457153417938,0.0006600976770153176
1589986773.8335238,-0.04256591691777874,-4.495131833835558,8.652565916917778,0.3944444444444444,0.4188888888888889,-0.7122222222222222,-0.003861050260537794,-0.001341967217220471,0.0016218653331446177
1589986773.8435237,-0.06278689293080818,-4.512786892930808,8.581639321207575,0.3944444444444444,0.4188888888888889,-0.7122222222222222,0.0027896672842823767,-0.0005245519485678157,0.002181661564992912
1589986773.8535237,-0.05212277369242632,-4.496163698256568,8.61959075435858,0.3944444444444444,0.4188888888888889,-0.7122222222222222,0.0037132888379205965,0.0,0.0028316958570581397
1589986773.8635237,-0.046964559289143094,-4.48,8.666964559289143,0.3944444444444444,0.4188888888888889,-0.7122222222222222,0.002512776781577476,0.0007597155659118919,0.00023363008384180055
1589986773.8735237,-0.05,-4.48,8.676086467758878,0.4018834605941843,0.4155075179117344,-0.6905814479684336,-0.0004740609902296484,0.001090830782496456,0.0009009611339204644
1589986773.8835237,-0.05,-4.510046069575942,8.6274193782421,0.4066666666666667,0.4133333333333333,-0.6766666666666666,-0.001362282125331211,-0.0005479280968269462,-0.0002764767539921915
1589986773.8935237,-0.05,-4.48293690410163,8.563671130127037,0.4066666666666667,0.4133333333333333,-0.6766666666666666,0.0019413866600455903,-8.009163498244056e-05,0.002952125807559606
1589986773.9035237,-0.030989757778748604,-4.48,8.664556332216883,0.4066666666666667,0.4133333333333333,-0.6766666666666666,0.0011448136951101708,-0.0020736957397654823,0.00016194873784114395
1589986773.9135237,-0.036673356077329584,-4.47332664392267,8.67,0.4066666666666667,0.4133333333333333,-0.6766666666666666,-0.0025489203333590007,-0.0043655122345061855,-0.0007279502231710913
1589986773.9235237,-0.031287633346503356,-4.504849466613987,8.67,0.39601821853461516,0.4355982703367136,-0.6950594407129373,-0.0053136949033888,-0.001652666818870371,-0.001090830782496456
1589986773.9335237,-0.036931746913469635,-4.50306825308653,8.649204759259591,0.3944444444444444,0.4388888888888889,-0.6977777777777778,-0.007722562785388523,-0.00033469449152770826,0.0011775780904097874
1589986773.9435236,-0.04,-4.519777680385673,8.56088927845731,0.3944444444444444,0.4388888888888889,-0.6977777777777778,-9.700523154436771e-05,0.0,0.001102956436439502
1589986773.9535236,-0.04,-4.492658427212075,8.642024718363777,0.3944444444444444,0.4388888888888889,-0.6977777777777778,0.0049708382064893725,0.0009941676412978746,-0.0008975045000992933
1589986773.9635236,-0.03219670915793159,-4.505606581684137,8.69681974505241,0.3944444444444444,0.4388888888888889,-0.6977777777777778,0.004602946926952189,0.00023962379696636454,0.0023139971596239095
1589986773.9735236,-0.022794212514975577,-4.502794212514975,8.71,0.3944444444444444,0.4300818152960813,-0.6977777777777778,0.0020052346897481157,-0.0007860294800792359,0.001700433387330896
1589986773.9835236,-0.04855022503112133,-4.5,8.681449774968879,0.3944444444444444,0.4266666666666667,-0.6977777777777778,-0.004099746602694874,-0.002128946259534722,-0.0009854001715800759
1589986773.9935236,-0.05,-4.518600446274528,8.577697545490096,0.3944444444444444,0.4266666666666667,-0.6977777777777778,-0.0013198322253218488,-0.002181661564992912,-7.633381427513087e-05
1589986774.0035236,-0.040820472886875264,-4.50164094577375,8.634256689791874,0.3944444444444444,0.4266666666666667,-0.6977777777777778,-0.001090830782496456,-0.0011803304906171832,0.0010013310743757287
1589986774.0135236,-0.04,-4.507325740839491,8.654651481678982,0.3944444444444444,0.4266666666666667,-0.6977777777777778,0.0005073979399652139,-0.00029171642126562104,0.0026890595049581262
1589986774.0235236,-0.04,-4.484514203939957,8.702476326766739,0.38783701583628505,0.4266666666666667,-0.6977777777777778,-0.002615927998666485,0.0,-0.0013609561289643088
1589986774.0335236,-0.047967141811291504,-4.487967141811292,8.678131432754833,0.38666666666666666,0.4266666666666667,-0.6977777777777778,-0.00587973340837077,-0.0008690803536271342,-0.00044350085773864345
1589986774.0435236,-0.0405968465210473,-4.499403153478953,8.566565311731521,0.38666666666666666,0.4266666666666667,-0.6977777777777778,-0.005519259768240711,-6.510585575843155e-05,0.002051449853476049
1589986774.0535235,-0.025136318741730494,-4.492568159370865,8.57486368125827,0.38666666666666666,0.4266666666666667,-0.6977777777777778,-0.0014007136480482718,-0.0008106880528868017,-0.00025040259366749303
1589986774.0635235,-0.04058074102945117,-4.4831397529901835,8.655462717107987,0.38666666666666666,0.4266666666666667,-0.6977777777777778,0.0014966737227675424,-0.001090830782496456,0.0011541798016548581
1589986774.0735235,-0.04297278993832386,-4.48,8.69,0.3968170812001989,0.4212010588409186,-0.6977777777777778,0.004481310680096457,0.0004422686275725744,0.0014151118599583967
1589986774.0835235,-0.034292423775793036,-4.485707576224208,8.684292423775792,0.4011111111111111,0.4188888888888889,-0.6977777777777778,0.003586353960839326,-0.00015436918526551334,-0.00015436918526551334
1589986774.0935235,-0.05527731308711877,-4.5068515420580795,8.587316518680565,0.4011111111111111,0.4188888888888889,-0.6977777777777778,-0.002413883637378702,-0.001090830782496456,-0.001090830782496456
1589986774.1035235,-0.03790540150480112,-4.502635133834934,8.621554063155465,0.4011111111111111,0.4188888888888889,-0.6977777777777778,-0.0016657278031251804,-0.0002874485103143624,-0.001090830782496456
1589986774.1135235,-0.03648939835978957,-4.487021203280421,8.665957593439158,0.4011111111111111,0.4188888888888889,-0.6977777777777778,-0.001090830782496456,-0.000707883549074048,0.001032819864725688
1589986774.1235235,-0.04,-4.485482756493306,8.69644826947992,0.4120766240977235,0.41584291305927434,-0.6977777777777778,-0.002286982693662599,-0.0028850586492456705,0.0027797375205759834
1589986774.1335235,-0.04,-4.51386453231394,8.622496714848882,0.4211111111111111,0.4133333333333333,-0.6977777777777778,-0.0041402312294203086,-0.0017601064841930034,0.0006692757016965476
1589986774.1435235,-0.04738236591921056,-4.512617634080789,8.555705804484736,0.4211111111111111,0.4133333333333333,-0.6977777777777778,-0.004363323129985824,-0.0035067043801947423,-0.0008052911992327622
1589986774.1535234,-0.05,-4.51,8.578754158171478,0.4211111111111111,0.4133333333333333,-0.6977777777777778,-0.0018268694089947622,-0.0018268694089947622,-0.001090830782496456
1589986774.1635234,-0.05,-4.5033526790135685,8.623236604932158,0.4211111111111111,0.4133333333333333,-0.6977777777777778,0.00035938968813040606,-0.001090830782496456,-0.00036572054718302495
1589986774.1735234,-0.028432381171331685,-4.485621587447555,8.69032444393356,0.410726702045456,0.42291894170163036,-0.7033693826592844,0.0026592722840605596,-0.001090830782496456,0.0015684415015641037
1589986774.1835234,-0.03311289599217189,-4.473443552003914,8.703443552003915,0.4066666666666667,0.4266666666666667,-0.7055555555555556,-0.0003034953014945086,-0.001090830782496456,0.002181661564992912
1589986774.1935234,-0.047590062111801244,-4.485180124223603,8.601329192546585,0.4066666666666667,0.4266666666666667,-0.7055555555555556,0.00030218045279094405,0.0013930112352874,0.0005257668864703416
1589986774.2035234,-0.04339275300338245,-4.496607246996618,8.576607246996618,0.4066666666666667,0.4266666666666667,-0.7055555555555556,-0.0017921245820906164,1.9445041552607588e-05,0.0
1589986774.2135234,-0.044374229731902054,-4.491251540536196,8.619368067587118,0.4066666666666667,0.4266666666666667,-0.7055555555555556,-0.002318183459235373,-0.0006136763383694585,0.00190861777650799
1589986774.2235234,-0.04244521588197006,-4.491332176177045,8.681332176177044,0.41464116101347603,0.4237286950652106,-0.7000993225814228,-0.0006787812289433359,-0.00041204955355312,0.0027151249157733436
1589986774.2335234,-0.04081642469826832,-4.51,8.705408212349134,0.42777777777777776,0.4188888888888889,-0.6911111111111111,-0.0023597778034852054,-0.0022707196842390587,-0.0011798889017426027
1589986774.2435234,-0.033370786516853934,-4.51,8.601910112359551,0.42777777777777776,0.4188888888888889,-0.6911111111111111,-0.003456340232179782,-0.003272492347489368,-0.002181661564992912
1589986774.2535233,-0.049394635752503774,-4.503535121415832,8.605859514336672,0.42777777777777776,0.4188888888888889,-0.6911111111111111,-0.0025672834910181203,-0.0011568657780756247,-0.0007712438520504166
1589986774.2635233,-0.04934535554611984,-4.49467267777306,8.63598196668082,0.42777777777777776,0.4188888888888889,-0.6911111111111111,-0.00043829944296576873,0.0017433621220271432,0.000581120707342381
1589986774.2735233,-0.0466621745613029,-4.509986523683908,8.676648698245211,0.4233363280702425,0.4188888888888889,-0.6955525608186465,0.002544291800463262,0.0018190313295225623,0.001090830782496456
1589986774.2835233,-0.05,-4.487818606627018,8.67390930331351,0.4211111111111111,0.4188888888888889,-0.6977777777777778,0.005905326436105097,0.0028460535082402757,0.001090830782496456
1589986774.2935233,-0.03345565017701656,-4.496544349822983,8.603822600708066,0.4211111111111111,0.4188888888888889,-0.6977777777777778,0.0020332131791537013,0.0014677837411593542,-0.0007138778238335577
1589986774.3035233,-0.046370022867111435,-4.5,8.622740045734224,0.4211111111111111,0.4188888888888889,-0.6977777777777778,-0.001587707945545951,-0.001587707945545951,-0.0019836770251772584
1589986774.3135233,-0.04355528371130141,-4.5,8.655778865154794,0.4211111111111111,0.4188888888888889,-0.6977777777777778,-0.0007756425825591626,-7.263309134228737e-05,0.0013333858910914622
1589986774.3235233,-0.04789397986439285,-4.484212040271214,8.67,0.40970869575143254,0.4145033445197817,-0.6977777777777778,0.0,0.001951930405745148,-0.0001719061455053997
1589986774.3335233,-0.05,-4.496876326087982,8.67843816304399,0.4066666666666667,0.4133333333333333,-0.6977777777777778,0.0,-0.0033411032326725585,-0.001090830782496456
1589986774.3435233,-0.05,-4.492048718987798,8.60843847089018,0.4066666666666667,0.4133333333333333,-0.6977777777777778,-0.0008673502088389804,-0.004363323129985824,0.0006438696351815049
1589986774.3535233,-0.04385169792953686,-4.502296604140926,8.614593208281853,0.4066666666666667,0.4133333333333333,-0.6977777777777778,-0.0004201550666416673,-0.0023512959824214578,0.0004201550666416673
1589986774.3635232,-0.04513913273527502,-4.515139132735275,8.64027826547055,0.4066666666666667,0.4133333333333333,-0.6977777777777778,-0.00112118483659464,3.0354054098184063e-05,-0.00056059241829732
1589986774.3735232,-0.04315247187824936,-4.506304943756499,8.663695056243501,0.4112316854145004,0.42550671666089,-0.6977777777777778,5.918677277180892e-05,0.0025847296743396033,-0.0003438813365748824
1589986774.3835232,-0.04,-4.495002503598924,8.655007510796771,0.4133333333333333,0.4311111111111111,-0.6977777777777778,0.0027262576554093216,0.0027273500565184127,-0.0010902845819419106
1589986774.3935232,-0.03653871516329435,-4.496922569673411,8.622693575816472,0.4133333333333333,0.4311111111111111,-0.6977777777777778,0.004740890734672498,0.0018040939603062374,-0.0014265263556195629
1589986774.4035232,-0.038074442988204456,-4.497888335517693,8.618260550458716,0.4133333333333333,0.4311111111111111,-0.6977777777777778,0.004573368816177671,0.000210045686191847,0.000880785096304609
1589986774.4135232,-0.044171262483231485,-4.482914368758385,8.662914368758384,0.4133333333333333,0.4311111111111111,-0.6977777777777778,0.0013650424555744518,-0.001090830782496456,0.0012279366190354538
1589986774.4235232,-0.043186105360018406,-4.483406947319991,8.67,0.40087978938220475,0.43257623392889094,-0.703638269048897,-0.003272492347489368,-0.0003716403010989766,0.00034755018029850276
1589986774.4335232,-0.03445024284385657,-4.495549757156144,8.67,0.3944444444444444,0.43333333333333335,-0.7066666666666667,-0.0007281692825494971,-0.0008481076883132903,0.001090830782496456
1589986774.4435232,-0.03,-4.478914405010438,8.62080027835769,0.3944444444444444,0.43333333333333335,-0.7066666666666667,0.0,0.0004425569562946652,0.001090830782496456
1589986774.4535232,-0.04392321535692861,-4.490884823035393,8.606961607678464,0.3944444444444444,0.43333333333333335,-0.7066666666666667,0.0,0.0018502243776297115,-0.0004279564077700553
1589986774.4635231,-0.045165703713321216,-4.5048342962866785,8.639005777720072,0.3944444444444444,0.43333333333333335,-0.7066666666666667,-0.0015820197603652593,0.001654321644871159,-0.0005634908623747029
1589986774.4735231,-0.04,-4.502383749388154,8.67,0.4016375700222983,0.4307945831293849,-0.700742916190787,-0.002026286255298116,0.0015062328132268734,-0.0008308040614608348
1589986774.4835231,-0.0299420141217309,-4.4849710070608655,8.68005798587827,0.4133333333333333,0.4266666666666667,-0.6911111111111111,0.001097156060593059,0.0038273956558825,-0.001084505504399853
1589986774.4935231,-0.036682834457327,-4.48556094481911,8.63439055180891,0.4133333333333333,0.4266666666666667,-0.6911111111111111,0.00278826654383774,0.0024211290182581382,0.0012132099576896566
1589986774.503523,-0.04299279199764637,-4.497007208002354,8.604014416004707,0.4133333333333333,0.4266666666666667,-0.6911111111111111,0.004036860166321652,0.0007643678188322842,0.0014172937461606277
1589986774.513523,-0.04831380881818436,-4.5,8.630784522045461,0.4133333333333333,0.4266666666666667,-0.6911111111111111,0.003456427272119226,0.001090830782496456,0.00018393492462985778
1589986774.523523,-0.05993947741881626,-4.500121045162367,8.660121045162368,0.4133333333333333,0.42661959354796825,-0.6911111111111111,0.002155253607156367,0.0010842287930373196,-0.0010974327719555923
1589986774.533523,-0.04650465596020745,-4.513009311920414,8.669513967880622,0.4133333333333333,0.4188888888888889,-0.6911111111111111,-0.002181661564992912,-0.00038128288740212356,-0.0010378129027865412
1589986774.543523,-0.04,-4.497104436522783,8.626835492182261,0.4133333333333333,0.4188888888888889,-0.6911111111111111,-0.0018658045876307925,-0.001090830782496456,0.001090830782496456
1589986774.553523,-0.04,-4.496159015190017,8.600795075950082,0.4133333333333333,0.4188888888888889,-0.6911111111111111,-0.0004189864465831438,-0.0004189864465831438,-0.0002528578893301683
1589986774.563523,-0.045724241016421925,-4.5114484820328435,8.64862120508211,0.4133333333333333,0.4188888888888889,-0.6911111111111111,0.0,0.0,0.00015800487893191033
1589986774.573523,-0.044862632607136674,-4.514862632607136,8.675137367392864,0.4099084217380911,0.4188888888888889,-0.6985317529008026,0.0,-0.0011207996986257757,0.0016512306318093438
1589986774.583523,-0.04,-4.497974522980595,8.673987261490298,0.4066666666666667,0.4188888888888889,-0.7055555555555556,0.001967664076045546,-0.0028375495903414276,0.000869885514295881
1589986774.593523,-0.04,-4.494854814788343,8.621451852116577,0.4066666666666667,0.4188888888888889,-0.7055555555555556,0.002213336064600809,-0.002213336064600809,0.0
1589986774.603523,-0.04,-4.490868750000001,8.61565625,0.4066666666666667,0.4188888888888889,-0.7055555555555556,0.0020868956407635326,-0.001090830782496456,0.0004980324291335382
1589986774.613523,-0.04,-4.484170883766677,8.67,0.4066666666666667,0.4188888888888889,-0.7055555555555556,0.0028175195071987956,0.00027408773837526166,0.00018088510191531092
1589986774.623523,-0.04,-4.4918784330731425,8.675635299219428,0.40562309273714303,0.4188888888888889,-0.7040945520542226,0.0017718510411842549,0.0019767563030885834,-0.001500641306305113
1589986774.633523,-0.048782677342957034,-4.4956086613285215,8.660477951956693,0.4011111111111111,0.4188888888888889,-0.6977777777777778,-0.0004790207399215857,0.0020488722623396276,-0.0013564093878030254
1589986774.643523,-0.04898897414404539,-4.495505512927977,8.593483461216067,0.4011111111111111,0.4188888888888889,-0.6977777777777778,-0.0004902724849694723,0.0038730506450163514,0.0004902724849694723
1589986774.653523,-0.027206980834684882,-4.5063965095826575,8.599189528747972,0.4011111111111111,0.4188888888888889,-0.6977777777777778,0.0,0.0029678212193265385,0.0
1589986774.663523,-0.03933108020758306,-4.51,8.638996620311374,0.4011111111111111,0.4188888888888889,-0.6977777777777778,-0.0010543468674669792,0.0006001412637924434,0.0
1589986774.673523,-0.050989998924615546,-4.506996666308205,8.673003333691796,0.4027796298287749,0.4188888888888889,-0.6957755553165813,-0.001854048680881061,-0.000763217898384605,0.0
1589986774.683523,-0.03311439065550445,-4.5031143906555045,8.67377121868899,0.4066666666666667,0.4188888888888889,-0.6911111111111111,-0.001430558102070813,0.0,-0.000339727319574357
1589986774.693523,-0.03118351341203955,-4.5055917567060195,8.611509323766217,0.4066666666666667,0.4188888888888889,-0.6911111111111111,-0.0017007968168121915,0.00048086474818072046,-0.0015716955306771764
1589986774.703523,-0.03013391362571142,-4.505066956812856,8.580401740877134,0.4066666666666667,0.4188888888888889,-0.6911111111111111,1.4607710512172349e-05,0.0005381115359921418,-0.0005235038254799698
1589986774.713523,-0.04510977144252259,-4.4895609142299095,8.645768400097658,0.4066666666666667,0.4188888888888889,-0.6911111111111111,0.002205609978701447,0.0005573895981024954,0.0005334411843939606
1589986774.723523,-0.05,-4.4787104636196835,8.675644768190157,0.3979562030469827,0.42227629140765494,-0.6911111111111111,0.0018472460705643494,0.001090830782496456,0.0009501641846166792
1589986774.733523,-0.03451505178588714,-4.500323298809408,8.685484948214112,0.38666666666666666,0.4266666666666667,-0.6911111111111111,-0.0011260972118211888,0.0005277821765858616,0.0004925157472611284
1589986774.743523,-0.027216386381943417,-4.506391806809028,8.66030987489931,0.38666666666666666,0.4266666666666667,-0.6911111111111111,-0.002181661564992912,0.0,-0.0006972379623058507
1589986774.7535229,-0.04,-4.49874703233729,8.59250593532542,0.38666666666666666,0.4266666666666667,-0.6911111111111111,-0.0019083064258016182,0.0004100327087869405,0.00027335513919129366
1589986774.7635229,-0.03194235024575558,-4.494028824877122,8.638201774139855,0.38666666666666666,0.4266666666666667,-0.6911111111111111,-0.0008789532386504821,0.002393539108838886,0.0013027083263424297
1589986774.7735229,-0.02,-4.508037061734461,8.68803706173446,0.3947037284011278,0.4266666666666667,-0.6969156556971108,-0.001743307847954186,0.0002141233484190038,0.0
