time,acc_x,acc_y,acc_z,mag_x,mag_y,mag_z,gyr_x,gyr_y,gyr_z
1589986849.2424262,-3.83,-0.91,8.95,0.2966666666666667,-0.38333333333333336,-0.6555555555555556,-0.001090830782496456,-0.003272492347489368,0.0
1589986849.2524261,-3.8333621311779624,-0.9,8.946551475288151,0.3088888888888889,-0.38333333333333336,-0.65,0.0029057407291181187,-0.0039965715116145745,0.0018149099466216628
1589986849.2624261,-3.8371967453494724,-0.9028032546505276,8.900377217446307,0.3088888888888889,-0.38333333333333336,-0.65,0.0024874492113900956,-0.004189855286680919,0.0013966184288936396
1589986849.2724261,-3.825247702812825,-0.905247702812825,8.854752297187174,0.3088888888888889,-0.38333333333333336,-0.65,0.0022357019356209853,-0.003953008665307779,0.0011448711531245293
1589986849.282426,-3.8167113761960625,-0.9,8.866577247607875,0.3088888888888889,-0.38333333333333336,-0.65,0.000732097574757879,-0.001449563990235033,0.00035873320773857696
1589986849.292426,-3.8107832883411303,-0.9,8.87843342331774,0.3088888888888889,-0.38333333333333336,-0.65,8.544350340756383e-05,-0.0020962180615853483,0.0010053872790888921
1589986849.302426,-3.8480088029145785,-0.9080088029145784,8.911991197085422,0.2966666666666667,-0.3911111111111111,-0.6411111111111111,-0.00545415391248228,0.003928911315026811,-0.004150918467605243
1589986849.312426,-3.840252066650639,-0.900252066650639,8.919747933349361,0.2966666666666667,-0.3911111111111111,-0.6411111111111111,-0.00545415391248228,0.0022366539773444618,0.0009258535454418071
1589986849.322426,-3.825714870192665,-0.9071425649036674,8.84143178605966,0.2966666666666667,-0.3911111111111111,-0.6411111111111111,-0.002649096715076289,0.0023373988988697495,-0.0012465681163732931
1589986849.332426,-3.8379990946129467,-0.9,8.92300135808058,0.2966666666666667,-0.3911111111111111,-0.6411111111111111,-0.000654300944684384,-0.000654794756718108,0.001090830782496456
1589986849.342426,-3.82405594685449,-0.9,8.952027973427244,0.29508935400103165,-0.3920124326343311,-0.638181816160646,0.0037149275155941215,-0.0063237671109263585,0.0008696131984440792
1589986849.352426,-3.839223379886204,-0.9,8.959223379886204,0.2888888888888889,-0.3955555555555556,-0.6266666666666667,0.00545415391248228,-0.005369437799838832,8.471611264344751e-05
1589986849.362426,-3.8266267334207495,-0.8966267334207494,8.902774267890491,0.2888888888888889,-0.3955555555555556,-0.6266666666666667,0.006190086516924896,-0.0032594242233218995,0.0007228644802751477
1589986849.372426,-3.825946133074846,-0.892973066537423,8.818919199612269,0.2888888888888889,-0.3955555555555556,-0.6266666666666667,0.0053656367292734,-0.00044220828301022987,-0.00032431124974311305
1589986849.382426,-3.833366737151788,-0.9,8.853266525696425,0.2888888888888889,-0.3955555555555556,-0.6266666666666667,0.0,0.0007290424173354772,-0.0007290424173354772
1589986849.392426,-3.820513009101774,-0.9,8.878973981796452,0.2888888888888889,-0.3955555555555556,-0.6266666666666667,0.0,2.798030599581781e-05,-2.798030599581781e-05
1589986849.402426,-3.845794844253491,-0.9,8.941589688506982,0.2766666666666667,-0.3911111111111111,-0.6411111111111111,-0.002411017231667113,-0.0008614751158222548,0.0006321194491480537
1589986849.412426,-3.83,-0.9,8.895234418530606,0.2766666666666667,-0.3911111111111111,-0.6411111111111111,-0.003272492347489368,-0.00048320252364823514,-0.001090830782496456
1589986849.422426,-3.8254312359500546,-0.9,8.832843820249728,0.2766666666666667,-0.3911111111111111,-0.6411111111111111,-0.0037708671938537375,0.00021613157706121787,-9.408108976771733e-05
1589986849.432426,-3.8227992595311426,-0.9,8.887992595311427,0.2766666666666667,-0.3911111111111111,-0.6411111111111111,-0.004363323129985824,0.00405797128350911,0.001701534475449884
1589986849.442426,-3.829492683082521,-0.9,8.954926830825208,0.2766666666666667,-0.3911111111111111,-0.6411111111111111,-0.004363323129985824,0.0033278320384961223,0.00316181296547586
1589986849.452426,-3.83,-0.9066919824616348,8.976691982461634,0.2888888888888889,-0.3911111111111111,-0.6355555555555555,0.0025425103009816003,0.003641625658008447,-0.001099115357026847
1589986849.462426,-3.8430706167692277,-0.8967323458076931,8.920985187115397,0.2888888888888889,-0.3911111111111111,-0.6355555555555555,0.002559600791584971,0.00253810734294511,0.001090830782496456
1589986849.472426,-3.8673582877556827,-0.8926417122443173,8.83056684897727,0.2888888888888889,-0.3911111111111111,-0.6355555555555555,0.001378996885956365,0.002984326244029459,0.003684325713635638
1589986849.482426,-3.852740706175144,-0.8927407061751439,8.874518587649712,0.2888888888888889,-0.3911111111111111,-0.6355555555555555,0.00020199627415803858,0.0013897954486589627,0.01605543758113523
1589986849.492426,-3.8456860558756114,-0.88,8.905686055875613,0.29162661949566493,-0.3911111111111111,-0.636608528865854,-0.0036859939994968415,0.0,0.027776868735467065
1589986849.502426,-3.8620834864408025,-0.88,8.927031307415302,0.3033333333333333,-0.3911111111111111,-0.6411111111111111,-0.00545415391248228,-0.0003238341255158693,0.04121291292296764
1589986849.512426,-3.7929869528691684,-0.888960858607506,8.87909132991582,0.3033333333333333,-0.3911111111111111,-0.6411111111111111,-0.005128327898926752,-0.0035983183610448955,0.06118564434969732
1589986849.522426,-3.802346116175695,-0.91,8.831564077450464,0.3033333333333333,-0.3911111111111111,-0.6411111111111111,-0.0042780159385271245,-0.004448630321444523,0.06675394571093056
1589986849.5324259,-3.8822313474656513,-0.9068240932191927,8.876351813561614,0.3033333333333333,-0.3911111111111111,-0.6411111111111111,-0.0007959108134553553,-0.006891422382863124,0.07476633314784119
1589986849.5424259,-3.910921910974674,-0.9,8.904838513686366,0.3045109931497115,-0.3911111111111111,-0.6429953668173162,0.002644127493438103,-0.008098281405920383,0.0832650405111863
1589986849.5524259,-3.84,-0.8920114517916513,8.952011451791652,0.3088888888888889,-0.3911111111111111,-0.65,0.004363323129985824,-0.010688892471780474,0.0975134013734168
1589986849.5624259,-3.827366876809008,-0.8736834384045041,8.905258911224772,0.3088888888888889,-0.3911111111111111,-0.65,0.004018808138590736,-0.011654623616065927,0.10575330009384504
1589986849.5724258,-3.8,-0.8620284950051859,8.834056990010371,0.3088888888888889,-0.3911111111111111,-0.65,0.0019448454712111332,-0.010687033345584854,0.10710714954963034
1589986849.5824258,-3.795818862226307,-0.8720905688868463,8.862543413321077,0.3088888888888889,-0.3911111111111111,-0.65,-0.0053249035527205705,-0.007993111526707036,0.10362892433716332
1589986849.5924258,-3.7820503561697794,-0.8789748219151101,8.90384893149066,0.3088888888888889,-0.3911111111111111,-0.65,-0.012083503158672702,-0.0019854674325273606,0.10362892433716332
1589986849.6024258,-3.709884866139548,-0.804942433069774,8.955172700790678,0.2966666666666667,-0.3911111111111111,-0.6411111111111111,-0.013892393531943699,-0.008174951290768973,0.09406217646747876
1589986849.6124258,-3.68,-0.79,8.956670652263544,0.2966666666666667,-0.3911111111111111,-0.6411111111111111,-0.008804655907544836,-0.005869770605029891,0.08599404406739197
1589986849.6224258,-3.67777449947313,-0.7810979978925184,8.871127502634351,0.2966666666666667,-0.3911111111111111,-0.6411111111111111,-0.006302220246861505,-0.004606087578103054,0.07756554007921375
1589986849.6324258,-3.6648326890302196,-0.7448326890302199,8.91516731096978,0.2966666666666667,-0.3911111111111111,-0.6411111111111111,-0.0057359870059106675,-0.006017820099339055,0.0645678460782851
1589986849.6424258,-3.6553613103522107,-0.7246386896477893,8.938041965528315,0.2956241896537368,-0.3911111111111111,-0.6423025134116024,-0.006106363517475611,-0.007197194299972067,0.05817382695897008
1589986849.6524258,-3.689478557504873,-0.6889571150097465,8.989478557504874,0.2888888888888889,-0.3911111111111111,-0.65,-0.0032156117949907713,-0.004306442577487227,0.053280066684830533
1589986849.6624258,-3.6776793375394323,-0.6630380126182965,8.954472712933754,0.2888888888888889,-0.3911111111111111,-0.65,-0.0016753715554386418,-0.003778782357043638,0.051950231028276915
1589986849.6724257,-3.6710637223974762,-0.6431911671924291,8.88170094637224,0.2888888888888889,-0.3911111111111111,-0.65,-0.0002320682270396245,-0.005222085685442655,0.057001792677673475
1589986849.6824257,-3.5741059772174584,-0.554036861640855,8.89197235376936,0.2888888888888889,-0.3911111111111111,-0.65,0.0006529906015277006,-0.006542471581695113,0.07155447835051372
1589986849.6924257,-3.3670727404794025,-0.49764241984019925,8.93541454809588,0.2888888888888889,-0.39518706835921735,-0.6454145480958805,0.003605955820067407,-0.011575234770120638,0.07770615765829973
1589986849.7024257,-3.24,-0.54,8.91,0.2888888888888889,-0.4177777777777778,-0.62,0.00545415391248228,-0.015271630954950384,0.07308566242726255
1589986849.7124257,-2.980084173249796,-0.5768384636338872,8.86088204848815,0.2888888888888889,-0.4177777777777778,-0.62,0.007463380418068301,-0.008574209269663643,0.060807056004236866
1589986849.7224257,-2.055985012853939,-0.7432391926632268,8.762956770652908,0.2888888888888889,-0.4177777777777778,-0.62,0.008934124275596988,0.0217627970619036,-0.024174569884640493
1589986849.7324257,-2.3389341258409755,-0.8197119259029664,9.068847703611866,0.2888888888888889,-0.4177777777777778,-0.62,-0.011920578584289993,0.03594399500662674,-0.14680022270077595
1589986849.7424257,-2.4449399565039243,-0.8270120086992152,8.957012008699216,0.2910468826061224,-0.41561978406054434,-0.6178420062827665,0.004187254026787779,0.038505016676248734,-0.3192219826887806
1589986849.7524257,-2.53,-0.81,8.94,0.3033333333333333,-0.4033333333333333,-0.6055555555555555,0.02181661564992912,0.04036073895236887,-0.41015237421866746
1589986849.7624257,-1.749537532355479,-1.4461259706643659,9.035951682484901,0.3033333333333333,-0.4033333333333333,-0.6055555555555555,0.013985598874533508,0.0699520886505208,-0.46854033891890573
1589986849.7724257,-1.7404902933563418,-1.1747088006902502,8.565495254529766,0.3033333333333333,-0.4033333333333333,-0.6055555555555555,0.07418654033538725,0.11534951991608264,-0.5011080613485478
1589986849.7824256,-1.8200066728947017,-1.0566644423684328,8.594176119934161,0.3033333333333333,-0.4033333333333333,-0.6055555555555555,0.0839896028528577,0.08971883013562253,-0.5511453464308876
1589986849.7924256,-1.9337675527039413,-1.0218837763519706,8.75242199816682,0.30324362969752516,-0.4033333333333333,-0.605959221916692,0.011661550976478335,0.05625351355105719,-0.6025642459075436
1589986849.8024256,-2.1490570119156738,-1.1295285059578368,8.890822364802933,0.29811769019248396,-0.4033333333333333,-0.6290259496893778,-0.007629236498053721,0.029414157064751725,-0.6268874127232579
1589986849.8124256,-2.258479357210018,-1.065760321394991,8.794454511781634,0.2966666666666667,-0.4033333333333333,-0.6355555555555555,0.010564837699957625,0.04331319583906768,-0.6113628673873635
1589986849.8224256,-2.339721190760904,-1.0325697023097742,8.766872679212034,0.2966666666666667,-0.4033333333333333,-0.6355555555555555,0.02593004111182462,0.046105341693001546,-0.5923413904756056
1589986849.8324256,-2.4330888253119127,-1.0130888253119128,8.97720725906113,0.2966666666666667,-0.4033333333333333,-0.6355555555555555,0.0176456204405761,0.039686861805971134,-0.585439191627398
1589986849.8424256,-2.454390140678167,-1.034390140678167,9.026910328249055,0.2966666666666667,-0.4033333333333333,-0.6355555555555555,0.01144931897146282,0.03503963570413617,-0.5831155785764806
1589986849.8524256,-2.4486706493506496,-1.05,8.994682597402598,0.31555555555555553,-0.38333333333333336,-0.6555555555555556,0.01701174688580239,0.04028497579620276,-0.5828694203310822
1589986849.8624256,-2.431936706774353,-1.058063293225647,8.919683533871765,0.31555555555555553,-0.38333333333333336,-0.6555555555555556,0.029021276979320162,0.04734550807028915,-0.5785800991460632
1589986849.8724256,-2.4,-1.0929879885463538,8.771951954185415,0.31555555555555553,-0.38333333333333336,-0.6555555555555556,0.03016736724454792,0.04843550723551861,-0.5799960372997036
1589986849.8824255,-2.4,-1.1085854003198097,8.834341601279238,0.31555555555555553,-0.38333333333333336,-0.6555555555555556,0.022511005644156715,0.045032679857566954,-0.5782946236107278
1589986849.8924255,-2.4,-1.1195302231440067,8.859060446288012,0.31555555555555553,-0.38333333333333336,-0.6555555555555556,0.010381168803432315,0.03952613169758343,-0.5812590729539844
1589986849.9024255,-2.3662295166977807,-1.1256557249533292,8.871147583488902,0.33,-0.37666666666666665,-0.65,0.00996053403525661,0.03791083845506948,-0.5820297509582535
1589986849.9124255,-2.35189231945111,-1.15189231945111,8.788107680548888,0.33,-0.37666666666666665,-0.65,0.015478050985709146,0.04145156973486533,-0.5848917194488592
1589986849.9224255,-2.3593476599299668,-1.1593476599299666,8.780652340070032,0.33,-0.37666666666666665,-0.65,0.016291302474542024,0.04145156973486533,-0.585704970937692
1589986849.9324255,-2.3871103744315523,-1.1950788388796802,8.83320498108717,0.33,-0.37666666666666665,-0.65,0.016473264813232743,0.03730985275645131,-0.5889550194476628
1589986849.9424255,-2.4495016787793786,-1.2396440562709847,8.94907454630456,0.33,-0.37666666666666665,-0.65,0.01744552703241437,0.03925437719481456,-0.5977053794202976
1589986849.9524255,-2.4413491485955463,-1.2140474457866395,8.95,0.3578749656365724,-0.36993822668542503,-0.6375043257491227,0.022171600023333585,0.041157231171228534,-0.6090992068161946
1589986849.9624255,-2.5086593096250365,-1.237318619250073,8.932571025125473,0.3622222222222222,-0.3688888888888889,-0.6355555555555555,0.02276119979934488,0.04407197119910032,-0.6201097666393781
1589986849.9724255,-2.5022216935521002,-1.2244433871042009,8.848882016177306,0.3622222222222222,-0.3688888888888889,-0.6355555555555555,0.022058964821519624,0.04617867613257609,-0.627834351395456
1589986849.9824255,-2.52,-1.251734109358248,8.821156072905499,0.3622222222222222,-0.3688888888888889,-0.6355555555555555,0.02178508865212592,0.045909473858260746,-0.6440630666399569
1589986849.9924254,-2.52,-1.290278756317966,8.846852504211977,0.3622222222222222,-0.3688888888888889,-0.6355555555555555,0.021084327195390603,0.0480117582284667,-0.6545744884909868
1589986850.0024254,-2.5042098365710763,-1.3336852451433858,8.875790163428924,0.35783606571418786,-0.3688888888888889,-0.6583635693973344,0.016419685785202684,0.043920066313664546,-0.6728709206570458
1589986850.0124254,-2.4893847290380458,-1.2818458128858636,8.826923645190227,0.3566666666666667,-0.3688888888888889,-0.6644444444444444,0.016463135213178267,0.04359967347461443,-0.6930466829629314
1589986850.0224254,-2.470895150337809,-1.3391048496621913,8.73805635304028,0.3566666666666667,-0.3688888888888889,-0.6644444444444444,0.019537308330591818,0.043128275043428144,-0.706043726053532
1589986850.0324254,-2.4781056920352764,-1.3318943079647236,8.80295122831749,0.3566666666666667,-0.3688888888888889,-0.6644444444444444,0.01875076024638461,0.04784756354867137,-0.7170553992324329
1589986850.0424254,-2.4182437521396785,-1.3123553577541938,8.864111605614514,0.3566666666666667,-0.3688888888888889,-0.6644444444444444,0.021431221138619175,0.046200287376161095,-0.7353461715739512
1589986850.0524254,-2.0754428027957177,-1.293272140139786,8.886727859860214,0.36595992214456335,-0.3428677735507781,-0.6821016298524483,0.02181661564992912,0.04763961931093199,-0.7519994205362509
1589986850.0624254,-2.397521967958081,-1.3612390160209595,8.890263615496973,0.36777777777777776,-0.3377777777777778,-0.6855555555555556,0.027801806958717493,0.05932949995943211,-0.7731095427669307
1589986850.0724254,-2.3839637577491652,-1.3769365760610397,8.697836909871244,0.36777777777777776,-0.3377777777777778,-0.6855555555555556,0.03667563478958328,0.047878576164956034,-0.7886508886635191
1589986850.0824254,-2.42,-1.445116670084068,8.863411113389379,0.36777777777777776,-0.3377777777777778,-0.6855555555555556,0.013834158887501495,0.056258082253850684,-0.8101660835737339
1589986850.0924253,-2.42,-1.4967176542956735,8.897811769530449,0.36777777777777776,-0.3377777777777778,-0.6855555555555556,0.02133921781885255,0.051567420421756285,-0.8289287309021115
1589986850.1024253,-2.41311680108833,-1.4624934408706636,8.789973763482655,0.4088888888888889,-0.3422222222222222,-0.6855555555555556,0.025771950471506735,0.05890486225480863,-0.8511851386441679
1589986850.1124253,-2.464013486273757,-1.5008026972547515,8.921537963140718,0.4088888888888889,-0.3422222222222222,-0.6855555555555556,0.019722514772387033,0.05846705881755452,-0.8742407183712796
1589986850.1224253,-2.5114050903438896,-1.513512725859724,8.719835632407229,0.4088888888888889,-0.3422222222222222,-0.6855555555555556,0.021185599607223667,0.053910523082117336,-0.8934491169315785
1589986850.1324253,-2.527703128035749,-1.5542578200893724,8.833921896250242,0.4088888888888889,-0.3422222222222222,-0.6855555555555556,0.026519119969793965,0.059244043444687644,-0.9067829178380045
1589986850.1424253,-2.460361172178871,-1.5425902930447177,8.789066025656512,0.4088888888888889,-0.3422222222222222,-0.6855555555555556,0.03296808284073077,0.06379390188951799,-0.9200566683761865
1589986850.1524253,-2.5140249024902492,-1.5857320732073208,8.880610561056105,0.4393769376937694,-0.3249456612327899,-0.6855555555555556,0.0328180351933516,0.06236357803921382,-0.9337246399779677
1589986850.1624253,-2.539456871242835,-1.610543128757165,8.930766811128198,0.44222222222222224,-0.3233333333333333,-0.6855555555555556,0.024590738782096465,0.06132350844667131,-0.9472558423039457
1589986850.1724253,-2.529048053634736,-1.62,8.769048053634735,0.44222222222222224,-0.3233333333333333,-0.6855555555555556,0.03490658503988659,0.06547580725975023,-0.954658656854139
1589986850.1824253,-2.4996030046684687,-1.62,8.739603004668469,0.44222222222222224,-0.3233333333333333,-0.6855555555555556,0.03490658503988659,0.06627879640486324,-0.9602795808699303
1589986850.1924253,-2.498490237308501,-1.6624511865425051,8.831882847702012,0.44222222222222224,-0.3233333333333333,-0.6855555555555556,0.029349737715798904,0.06654067773228381,-0.9713741623686871
1589986850.2024252,-2.4929784886927746,-1.6840430226144512,8.885107556536129,0.44222222222222224,-0.30694980694980695,-0.7105209290923576,0.023000103873409825,0.06424289353021323,-0.9822121947951209
1589986850.2124252,-2.5221960434125568,-1.7214640289417045,8.856339927645738,0.44222222222222224,-0.3,-0.7211111111111111,0.02120488721825574,0.06592894930061043,-1.000850780291877
1589986850.2224252,-2.547168449262416,-1.739292112315604,8.807168449262416,0.44222222222222224,-0.3,-0.7211111111111111,0.02765686240075607,0.07214926878010394,-1.0085453915680769
1589986850.2324252,-2.4682625550045403,-1.721389955996368,8.733822378990013,0.44222222222222224,-0.3,-0.7211111111111111,0.038065361878339435,0.07628234443539422,-1.0261390389402452
1589986850.2424252,-2.4316426276454566,-1.7506858978836348,8.814386219179996,0.44222222222222224,-0.3,-0.7211111111111111,0.035668593237375076,0.07468449867475134,-1.0421174965466744
1589986850.2524252,-2.42,-1.8105977328026859,8.91103400795971,0.4622222222222222,-0.25222222222222224,-0.7355555555555555,0.025284715599681793,0.06494583897408082,-1.0725650816273626
1589986850.2624252,-2.42,-1.8185089688213216,8.792365467680177,0.4622222222222222,-0.25222222222222224,-0.7355555555555555,0.027873661532698494,0.07271267677313094,-1.0906877031584796
1589986850.2724252,-2.43924845194673,-1.85849690389346,8.73150309610654,0.4622222222222222,-0.25222222222222224,-0.7355555555555555,0.044109203269080535,0.08257521476931778,-1.115100078742842
1589986850.2824252,-2.4313522836154586,-1.86,8.747295432769084,0.4622222222222222,-0.25222222222222224,-0.7355555555555555,0.03906414494402048,0.08573309803889777,-1.1357296004780442
1589986850.2924252,-2.390133515535742,-1.8839198906785546,8.845679562714217,0.4622222222222222,-0.25222222222222224,-0.7355555555555555,0.027742056160928986,0.0826966247417377,-1.1605711311480649
1589986850.3024251,-2.372868848905268,-1.9541803598525904,8.855737697810534,0.47569217429004984,-0.23795992003275768,-0.7466484572584724,0.025089107997418484,0.08647963616449456,-1.1824337526591226
1589986850.3124251,-2.405506771380867,-1.98,8.796739842928698,0.4811111111111111,-0.23222222222222225,-0.7511111111111111,0.033803780819514115,0.09707196620430855,-1.2093397895060272
1589986850.3224251,-2.3637207054844165,-2.026279294515583,8.706697269871949,0.4811111111111111,-0.23222222222222225,-0.7511111111111111,0.03490658503988659,0.10019408558667374,-1.2310964933924933
1589986850.332425,-2.338525169917666,-2.0586331067764454,8.764424490247002,0.4811111111111111,-0.23222222222222225,-0.7511111111111111,0.0325640444696175,0.09723304456264849,-1.245132333929097
1589986850.342425,-2.2992231798264706,-2.07,8.805388410086765,0.4811111111111111,-0.23222222222222225,-0.7511111111111111,0.028276862409132835,0.09599310885968812,-1.2693961508697087
1589986850.352425,-2.2765382407095767,-2.0767308796452117,8.789807361064364,0.4766238580143033,-0.21950833844793338,-0.790748513466247,0.031676119988576876,0.10627225985407424,-1.303081737437405
1589986850.362425,-2.290256334554801,-2.1425633455480106,8.817180319897188,0.4744444444444445,-0.21333333333333332,-0.81,0.033731868970491775,0.11140454862613576,-1.3173877220553076
1589986850.372425,-2.2975405081537312,-2.215405081537313,8.737054410308957,0.4744444444444445,-0.21333333333333332,-0.81,0.03134812873446346,0.11537744901951628,-1.3388413841795623
1589986850.382425,-2.290869922439858,-2.2856503878007097,8.737390232680426,0.4744444444444445,-0.21333333333333332,-0.81,0.027555451015145865,0.12369045248154886,-1.399865781706215
1589986850.392425,-2.267988311518569,-2.2533138525309484,8.75467445898762,0.4744444444444445,-0.21333333333333332,-0.81,0.02647040198340248,0.12755617952063164,-1.4249992373306584
1589986850.402425,-2.24,-2.3103099357390016,8.780619871478002,0.5077777777777778,-0.23222222222222225,-0.8155555555555556,0.015305439699420244,0.13096731138851442,-1.4636154891950244
1589986850.412425,-2.24,-2.317220958971824,8.794441917943649,0.5077777777777778,-0.23222222222222225,-0.8155555555555556,0.016059315387511344,0.13247506276469662,-1.4817085057092105
1589986850.422425,-2.2496250095954555,-2.3970000767636446,8.674874875259077,0.5077777777777778,-0.23222222222222225,-0.8155555555555556,0.024761867136284213,0.14043083518855032,-1.503682977555628
1589986850.432425,-2.25,-2.448886608272274,8.611336070073271,0.5077777777777778,-0.23222222222222225,-0.8155555555555556,0.020822946624999113,0.13858409025583315,-1.5234533752385
1589986850.442425,-2.024260066900961,-2.397906169284837,8.818375322860652,0.5077777777777778,-0.23222222222222225,-0.8155555555555556,-0.046517787510573755,0.09591634378535568,-1.5494621025025654
1589986850.452425,-2.163258634070625,-2.549397943344975,9.272751067132324,0.5200983917561333,-0.2460829129478722,-0.8201757857974389,-0.01438812998124972,0.10305582546389132,-1.5472951670308726
1589986850.462425,-2.1531322536663233,-2.533132253666323,8.634756409830068,0.5255555555555556,-0.25222222222222224,-0.8222222222222222,0.11049229624167854,0.18204674726393433,-1.5123986640346467
1589986850.472425,-2.1030884317392466,-2.4738605396740585,8.196251669783596,0.5255555555555556,-0.25222222222222224,-0.8222222222222222,0.03594175226922866,0.13167402929607303,-1.530680099471305
1589986850.482425,-2.140678629032258,-2.630740322580645,8.840987096774194,0.5255555555555556,-0.25222222222222224,-0.8222222222222222,-0.0215474267632808,0.06791415684576102,-1.5608846336421014
1589986850.492425,-2.2336973790322583,-2.7322153225806454,8.976287096774193,0.5255555555555556,-0.25222222222222224,-0.8222222222222222,0.01534992445466182,0.10665637562460074,-1.5479705607158216
1589986850.502425,-2.178239674465921,-2.775280976602238,8.72,0.4311111111111111,-0.3,-0.7922222222222223,0.04370265385708406,0.12442413176182181,-1.5328092711354993
1589986850.512425,-2.1611723296032554,-2.826483011190234,8.72,0.4311111111111111,-0.3,-0.7922222222222223,0.02322331019023818,0.10394478809497593,-1.5346710296506672
1589986850.522425,-2.18,-2.8898776724707957,8.779877672470795,0.4311111111111111,-0.3,-0.7922222222222223,0.01776020137906975,0.09398491751941887,-1.5269362498165535
1589986850.532425,-2.18,-2.880633017412387,8.770633017412386,0.4311111111111111,-0.3,-0.7922222222222223,0.0409542162949993,0.10709457812407472,-1.5097928474873885
1589986850.542425,-2.1535618222725965,-2.8998286332955527,8.723733188977043,0.4311111111111111,-0.3,-0.7922222222222223,0.03893745325509129,0.10438730020487867,-1.496362151500879
1589986850.552425,-2.086511173525461,-2.972403630886962,8.798062848536656,0.4519123214067651,-0.20688982058135802,-0.7149605839812214,0.034170883682977576,0.09573091340356236,-1.4764604885879498
1589986850.562425,-2.1120827615500226,-2.98,8.835666209240019,0.4544444444444444,-0.1955555555555556,-0.7055555555555556,0.03591556609056565,0.09490227807719166,-1.4636042214916054
1589986850.572425,-2.13,-3.087565443943592,8.65141764195029,0.4544444444444444,-0.1955555555555556,-0.7055555555555556,0.038893411180057465,0.09490227807719166,-1.4392982796634854
1589986850.5824249,-1.7158633720361052,-2.777211638243299,9.031531924891821,0.4544444444444444,-0.1955555555555556,-0.7055555555555556,0.04895032921149311,0.10296929561187558,-1.4185925729424997
1589986850.5924249,-1.6970464212091956,-2.71231323226261,8.103842079169167,0.4544444444444444,-0.1955555555555556,-0.7055555555555556,0.11187039953308331,0.14412557950137417,-1.3783869328825453
1589986850.6024249,-1.838673832776212,-2.878010749164318,8.324994865744685,0.47715508849611227,-0.12898987471446016,-0.6554355135104956,0.0005202841714771478,0.05713149661880414,-1.3921824203911564
1589986850.6124249,-1.889634047167254,-3.094144754676064,9.302187584711303,0.4866666666666667,-0.10111111111111112,-0.6344444444444445,-0.02721783957865784,0.02893348072803286,-1.3765355982652836
1589986850.6224248,-1.9242214685007222,-3.159887569876264,8.679792098486276,0.4866666666666667,-0.10111111111111112,-0.6344444444444445,0.06341165625085485,0.10131235630833423,-1.3242090987416524
1589986850.6324248,-1.871383328686925,-3.150461109562308,8.50161388346808,0.4866666666666667,-0.10111111111111112,-0.6344444444444445,0.04763506277911824,0.08254164781900483,-1.296359662859992
1589986850.6424248,-1.9026725867652026,-3.2316814669130065,8.704203667282515,0.4866666666666667,-0.10111111111111112,-0.6344444444444445,0.021066532691577412,0.05686412431614574,-1.2771958313274734
1589986850.6524248,-1.8201892691524855,-3.2207570766099423,8.719810730847515,0.52,-0.027777777777777776,-0.6622222222222223,0.048161722924010594,0.0709865851093529,-1.2274083264966351
1589986850.6624248,-1.82899028474306,-3.255961138972239,8.71100971525694,0.52,-0.027777777777777776,-0.6622222222222223,0.05584205790275433,0.07482675259872479,-1.1870865678582303
1589986850.6724248,-1.8734758682059807,-3.320866215488373,8.640438610870431,0.52,-0.027777777777777776,-0.6622222222222223,0.039650267169272266,0.05440040524492459,-1.1559026716386458
1589986850.6824248,-1.88,-3.3515039120238073,8.744687530793637,0.52,-0.027777777777777776,-0.6622222222222223,0.036306342298890674,0.05517856830727751,-1.1206411340767048
1589986850.6924248,-1.8331597186831108,-3.355315971868311,8.747843746814798,0.52,-0.027777777777777776,-0.6622222222222223,0.042128794308933806,0.05978888993309109,-1.0868242503134717
1589986850.7024248,-1.7555059797608095,-3.3255059797608095,8.744905703771849,0.5236287437391394,-0.01144843095165082,-0.6508823980374119,0.0455248743771405,0.06059630225839443,-1.045101941829948
1589986850.7124248,-1.7100480606766042,-3.3099038786467916,8.755264333721323,0.5288888888888889,0.012222222222222223,-0.6344444444444445,0.03710397442451975,0.055637612513865994,-0.9998434003791168
1589986850.7224247,-1.7059818754925138,-3.3539275019700554,8.694018124507485,0.5288888888888889,0.012222222222222223,-0.6344444444444445,0.030553147295242535,0.05062641077024568,-0.9534651869846367
1589986850.7324247,-1.6857092300334768,-3.345709230033477,8.702145384983261,0.5288888888888889,0.012222222222222223,-0.6344444444444445,0.02637431637415606,0.04998383840059586,-0.9107605477524364
1589986850.7424247,-1.659234559211684,-3.346148161182474,8.71,0.5288888888888889,0.012222222222222223,-0.6344444444444445,0.02626343541732229,0.05009471935742962,-0.8739305117987772
1589986850.7524247,-1.6656388200955243,-3.3652129400318413,8.720425880063683,0.5329433978025433,0.038866137940523224,-0.6344444444444445,0.027839413107815472,0.04510688039451199,-0.8363996401705752
1589986850.7624247,-1.6513967582804792,-3.37,8.71569837914024,0.5366666666666666,0.06333333333333334,-0.6344444444444445,0.02914163275857886,0.04145156973486533,-0.7877018227391729
1589986850.7724247,-1.6276151806127115,-3.363807590306356,8.685230361225424,0.5366666666666666,0.06333333333333334,-0.6344444444444445,0.030127918238569973,0.040776082623699667,-0.7465347405748568
1589986850.7824247,-1.593098596033237,-3.3734507019833817,8.67,0.5366666666666666,0.06333333333333334,-0.6344444444444445,0.024674286002037246,0.03669262900995417,-0.7015309491337638
1589986850.7924247,-1.5927338549104002,-3.4054677098208,8.7273023470968,0.5366666666666666,0.06333333333333334,-0.6344444444444445,0.02181661564992912,0.03421206099408119,-0.6563661176482154
1589986850.8024247,-1.567852719439957,-3.2994476978998386,8.687668618739902,0.5652420271644827,0.07226313348890086,-0.668377685035601,0.02269329673014024,0.031185711016756767,-0.597808678070715
1589986850.8124247,-1.4961591160220995,-3.3897016574585637,8.741820994475137,0.5722222222222222,0.07444444444444444,-0.6766666666666666,0.015943486289937702,0.03315474696333372,-0.5496560109819064
1589986850.8224247,-1.4879499297174155,-3.4120500702825844,8.67255077310843,0.5722222222222222,0.07444444444444444,-0.6766666666666666,0.014180800172453925,0.028612537424726,-0.5035387195070967
1589986850.8324246,-1.4111306088799904,-3.3390175479919915,8.720982452008009,0.5722222222222222,0.07444444444444444,-0.6766666666666666,0.013320468576149337,0.026410437966106808,-0.4605934122150155
1589986850.8424246,-1.414205851044305,-3.3623602393275336,8.752102925522152,0.5722222222222222,0.07444444444444444,-0.6766666666666666,0.009789408460500991,0.02287937785045846,-0.42982024181911993
1589986850.8524246,-1.4497981005297842,-3.403198733686523,8.720403798940431,0.6198843160902212,0.07884402233995204,-0.6905986633357741,0.011955090976044792,0.02144566411719426,-0.3918505128890169
1589986850.8624246,-1.4375311114289802,-3.41,8.739320554999285,0.6444444444444445,0.0811111111111111,-0.6977777777777778,0.008666105229559885,0.01752740847212264,-0.3642905152451721
1589986850.8724246,-1.3811738500946653,-3.3841159000631102,8.653521550283996,0.6444444444444445,0.0811111111111111,-0.6977777777777778,0.006480961104113871,0.014886679497163276,-0.33751487692745896
1589986850.8824246,-1.4100433694459682,-3.3644396256171145,8.66228486697751,0.6444444444444445,0.0811111111111111,-0.6977777777777778,0.00520964446185276,0.014058545447139168,-0.31851312674362875
1589986850.8924246,-1.4359681651215672,-3.345968165121567,8.705968165121567,0.6444444444444445,0.0811111111111111,-0.6977777777777778,0.0053133400035296156,0.011559333647927286,-0.2985712801207721
1589986850.9024246,-1.4260808729139922,-3.372566110397946,8.732566110397945,0.9052463272001141,0.1115154756810726,-0.778180430751676,0.004982534133862503,0.009154156706564932,-0.2678880159446858
1589986850.9124246,-1.4220627175627025,-3.4,8.69650174050162,1.0733333333333333,0.13111111111111112,-0.83,0.0050041387498838494,0.01132411586356337,-0.22344395224117203
1589986850.9224246,-1.4126599157179696,-3.422020252846091,8.650639662871878,1.0733333333333333,0.13111111111111112,-0.83,-0.0017519569803790807,0.010397780631269603,-0.17566039373511222
1589986850.9324245,-1.4177099035471459,-3.4685495177357297,8.647709903547147,1.0733333333333333,0.13111111111111112,-0.83,-0.004363323129985824,0.004771356970884858,-0.1168688951771568
1589986850.9424245,-1.4868573047467601,-3.5954807991080404,8.76548079910804,1.0733333333333333,0.13111111111111112,-0.83,-0.004363323129985824,-4.2507927624836975e-05,-0.06517492114583855
1589986850.9524245,-1.497187249719686,-3.6503123498318115,8.728436649046932,1.1491672450922812,-0.27795450905013613,-1.029064018367238,0.0020794453215585967,-0.002181661564992912,0.0061703665310074984
1589986850.9624245,-1.472227451566313,-3.64,8.763270581204242,1.1888888888888889,-0.4922222222222222,-1.1333333333333333,-0.003024381177428045,-0.013203757181876332,0.08734944701229994
1589986850.9724245,-1.4558465761650474,-3.6541534238349525,8.690926033155332,1.1888888888888889,-0.4922222222222222,-1.1333333333333333,0.006125088885181636,-0.012502714138225533,0.16152513832548288
1589986850.9824245,-1.4638319857341768,-3.6323360285316464,8.746823900139239,1.1888888888888889,-0.4922222222222222,-1.1333333333333333,-0.00040795904145444865,-0.021470156900288966,0.23070630049007357
1589986850.9924245,-1.47,-3.566571173436845,8.752599821405791,1.1888888888888889,-0.4922222222222222,-1.1333333333333333,-0.004288517738727206,-0.027928393040547554,0.27770071197055163
1589986851.0024245,-1.4757465460410968,-3.5257465460410966,8.72,0.8619742696620458,-0.2266040941004122,-0.9034714916894593,-0.004526194210421686,-0.03195983485326895,0.3248896313647359
1589986851.0124245,-1.5108335918916125,-3.5351389319819355,8.689166408108388,0.62,-0.03,-0.7333333333333333,-0.007135865470997475,-0.0343763247768952,0.35877741076953407
1589986851.0224245,-1.5348614590734024,-3.529722918146805,8.665138540926598,0.62,-0.03,-0.7333333333333333,-0.012650341293867023,-0.03546711290187164,0.38816815494591067
1589986851.0324244,-1.5367490613996222,-3.493003754401511,8.643003754401512,0.62,-0.03,-0.7333333333333333,-0.014153836559146876,-0.03746983260791635,0.4183585209923288
1589986851.0424244,-1.5342340004941932,-3.4915319990116136,8.704957993575489,0.62,-0.03,-0.7333333333333333,-0.01308996938995747,-0.040065996313213975,0.439094295461701
1589986851.0524244,-1.5740261803206355,-3.4685527283424036,8.766289454331519,0.5920468696376918,0.05036524979163602,-0.7333333333333333,-0.013776042428950166,-0.040079423656879935,0.46273898542489006
1589986851.0624244,-1.586969521947752,-3.436969521947752,8.776515239026123,0.5755555555555556,0.09777777777777777,-0.7333333333333333,-0.014180800172453925,-0.043534122140883424,0.484031539951502
1589986851.0724244,-1.5613555831706019,-3.4066944789632525,8.700761228475058,0.5755555555555556,0.09777777777777777,-0.7333333333333333,-0.012655457387513737,-0.0437811024849309,0.5040934895928868
1589986851.0824244,-1.578841528266383,-3.3994207641331915,8.648841528266383,0.5755555555555556,0.09777777777777777,-0.7333333333333333,-0.013556403741975611,-0.04568852320208301,0.5303574553197594
1589986851.0924244,-1.6430127539525499,-3.4142468115118625,8.718765942440687,0.5755555555555556,0.09777777777777777,-0.7333333333333333,-0.013852159697301006,-0.04766791395469114,0.5628528907319418
1589986851.1024244,-1.6332267653081445,-3.3966133826540723,8.766773234691856,0.5681185459189291,0.103727385487079,-0.7630813718798394,-0.01491964546234881,-0.04873539971973894,0.6000441161347801
1589986851.1124244,-1.6421866314619233,-3.463955438206411,8.765208912358718,0.5644444444444444,0.10666666666666667,-0.7777777777777778,-0.014749004366875486,-0.04775802993897995,0.6326469127007286
1589986851.1224244,-1.6568152654130497,-3.4763694691739007,8.664586284217302,0.5644444444444444,0.10666666666666667,-0.7777777777777778,-0.014180800172453925,-0.05136630442941045,0.6529559815412644
1589986851.1324244,-1.6535951170832461,-3.4187609366659704,8.69045371208429,0.5644444444444444,0.10666666666666667,-0.7777777777777778,-0.014879464516841988,-0.05275204399793827,0.6679444291049041
1589986851.1424243,-1.6399111331477172,-3.364777832869293,8.735044433426141,0.5644444444444444,0.10666666666666667,-0.7777777777777778,-0.01362084397650367,-0.05180961523368098,0.67469337977876
1589986851.1524243,-1.682009198565893,-3.363115199362619,8.832460797450477,0.5265612010445966,0.05722582358550925,-0.7495258674456878,-0.013890246433082565,-0.05126904677733343,0.6731632387717668
1589986851.1624243,-1.6295797984823983,-3.093669361860928,8.719159596964797,0.4988888888888889,0.021111111111111112,-0.7288888888888889,-0.006230259863914888,-0.04633738981858679,0.6626415029707428
1589986851.1724243,-10.082694119864303,-8.695379444653852,0.8162751287850227,0.4988888888888889,0.021111111111111112,-0.7288888888888889,-0.528497697464828,1.2526974477372779,0.039231926453501154
1589986851.1824243,-11.290052898471417,-9.255543394987415,-5.159132100251724,0.4988888888888889,0.021111111111111112,-0.7288888888888889,-1.016027591860016,0.6211487189785092,-2.736808117134352
1589986851.1924243,0.451594387755102,-1.2690083936800525,-0.7636903390388414,0.4988888888888889,0.021111111111111112,-0.7288888888888889,-0.7931728910404859,-1.6807478865966043,-6.537515394568865
1589986851.2024243,-0.06165174129353235,-1.372512277323062,0.2391827956989247,0.4956482818880508,0.09370070792988462,-0.702964032882184,-0.6243190279269527,-1.0362813654410905,-6.548265065256769
1589986851.2124243,-0.5572642368191087,-1.2285430017477426,-0.1085430017477425,0.4933333333333334,0.14555555555555555,-0.6844444444444444,-0.6091798204356917,-1.0351834982664299,-6.173218272314741
1589986851.2224243,-0.47519691157189337,-1.0068338755887924,-0.18163696401689897,0.4933333333333334,0.14555555555555555,-0.6844444444444444,-0.6310241279537947,-0.9047412909805229,-5.8360771667031
1589986851.2324243,0.7452507522567703,-1.2089562019391509,1.5007128050819125,0.4933333333333334,0.14555555555555555,-0.6844444444444444,-0.4260703707355766,-0.5669014023831678,-5.531930037862965
1589986851.2424242,0.5194968185475024,-1.2403212169970015,1.2074090543406715,0.4933333333333334,0.14555555555555555,-0.6844444444444444,0.6776628232136892,0.7247670871583614,-5.371070917171398
1589986851.2524242,-0.37377113133940176,-0.6028608582574772,-0.2608257477243173,0.4870889322352262,0.15804435775176998,-0.6844444444444444,1.9371104956589975,2.1917457210823357,-5.240138657904029
1589986851.2624242,0.7091749339257671,-0.44687765733328216,4.528143601332976,0.42777777777777776,0.2766666666666667,-0.6844444444444444,1.4447852528651417,3.451031308730223,-4.641067921742687
1589986851.2724242,-0.7728721541155866,-0.0048511383537653,-0.001838879159369533,0.42777777777777776,0.2766666666666667,-0.6844444444444444,0.25250344631468746,3.402368074139524,-3.8381845827400776
1589986851.2824242,1.5620287387156222,-0.20279712612843778,8.913752595115351,0.42777777777777776,0.2766666666666667,-0.6844444444444444,0.02251924716447517,0.19055759555761642,-3.179343912788125
1589986851.2924242,2.1429636238846945,-0.701360329444063,11.842091969800961,0.42777777777777776,0.2766666666666667,-0.6844444444444444,-0.04445947759468534,0.013002972453151643,-2.9589507454080546
1589986851.3024242,1.5047970749542963,-1.3530073126142597,8.697569165143205,0.40910894441058976,0.30280303338072995,-0.6746433069266707,-0.009044057410880879,0.19505064788836385,-2.773623190987102
1589986851.3124242,1.0325863218237568,-1.3507319024130116,8.272980935875218,0.38333333333333336,0.3388888888888889,-0.6611111111111111,0.09922837248029855,0.21397865184897982,-2.5556597555471043
1589986851.3224242,0.3918262854189992,-1.4145310481440014,6.47171733700801,0.38333333333333336,0.3388888888888889,-0.6611111111111111,-0.020518465013046813,0.12167446535016127,-2.301069345794861
1589986851.3324242,0.4889182660045631,-1.8339685948194873,6.6569118239162535,0.38333333333333336,0.3388888888888889,-0.6611111111111111,0.035112424266861536,0.12504762318843113,-2.0433071531434353
1589986851.3424242,0.5869143749604272,-2.6101131255144465,8.36432367404656,0.38333333333333336,0.3388888888888889,-0.6611111111111111,0.13114750847805115,0.10052318421857628,-1.799760421081135
1589986851.3524241,0.2590529732236004,-2.752501448939376,9.552072562883968,0.36393686488157334,0.3692766894633128,-0.6598180132143271,-0.04478450222539783,0.1524856760329542,-1.5478706724532696
1589986851.3624241,0.0986177595013975,-2.6691126674591192,9.330102483374562,0.35,0.3911111111111111,-0.6588888888888889,-0.06380054669224146,0.1361862999606381,-1.3419470760801666
1589986851.3724241,0.1525592348530232,-2.7688055940011154,9.353137019975625,0.35,0.3911111111111111,-0.6588888888888889,0.060132179270228306,0.06533301004740878,-1.168382093294534
1589986851.382424,0.1111416196148194,-2.2193967050815995,6.849024673215252,0.35,0.3911111111111111,-0.6588888888888889,0.07667302680509276,0.07046814102605828,-0.9303312615860347
1589986851.392424,0.15,-3.0387847981957115,9.736037129296125,0.35,0.3911111111111111,-0.6588888888888889,0.012139205730355707,0.050381624522107954,-0.5915874745542793
1589986851.402424,0.15,-2.586980173023193,7.6817379742148315,0.35,0.3911111111111111,-0.6588888888888889,0.10223695566638283,0.037290498463027094,-0.4075416434883776
1589986851.412424,0.07007563223824155,-2.784262585677145,8.431086031671,0.2977777777777777,0.42777777777777776,-0.6522222222222223,-0.030950486495330498,-8.250197362298824e-06,-0.008754361766735608
1589986851.422424,0.0675423045930701,-2.9268654311039484,8.674474214343272,0.2977777777777777,0.42777777777777776,-0.6522222222222223,-0.015981198359600077,-0.02177969792803963,0.27400003563859054
1589986851.432424,0.04611026993160341,-3.0694183678797056,9.179894011382029,0.2977777777777777,0.42777777777777776,-0.6522222222222223,-0.025087456345317387,-0.04133128389908855,0.488047134982651
1589986851.442424,0.044352866242038214,-2.940940127388535,8.560173885350318,0.2977777777777777,0.42777777777777776,-0.6522222222222223,-0.01214032129217648,-0.050845498723187034,0.6990483460533672
1589986851.452424,0.04979744011272898,-3.156599146704243,8.970767574761235,0.29362117930518583,0.4406254457839709,-0.657134565871649,-0.01392030390644442,-0.06850603474333407,0.9746119596212452
1589986851.462424,0.02010229871223974,-3.166496168812934,8.799181610302083,0.2855555555555556,0.4655555555555556,-0.6666666666666666,-0.03263565100743699,-0.0883014980900525,1.2053178207761464
1589986851.472424,0.0,-3.1484371807967313,8.67210759278175,0.2855555555555556,0.4655555555555556,-0.6666666666666666,-0.044084865699420946,-0.10160919747464518,1.4471409823718604
1589986851.482424,-0.014058077192047689,-3.124985847014553,8.444638849112524,0.2855555555555556,0.4655555555555556,-0.6666666666666666,-0.03937111215801837,-0.11116044812405448,1.6196280139194557
1589986851.492424,-0.05420399396980774,-3.2568159758792308,8.84,0.2855555555555556,0.4655555555555556,-0.6666666666666666,-0.03653193935060467,-0.12716861694891576,1.8327099270977583
1589986851.502424,-0.06,-3.2671936138796602,8.818656023132768,0.29314452510834943,0.46697848734670444,-0.6718840832342124,-0.03562669173954126,-0.13491813088514998,2.0012565823936947
1589986851.512424,-0.0976659588219001,-3.3145702151232572,8.843808512602715,0.3033333333333333,0.4688888888888889,-0.6788888888888889,-0.0603280484599104,-0.15262788286433795,2.16398871646652
1589986851.522424,-3.58199376473272,-11.19118394038476,7.756011710136112,0.3033333333333333,0.4688888888888889,-0.6788888888888889,-0.07709272989525899,-0.16423413666578046,2.2941768630995005
1589986851.532424,4.380462951867386,-26.785044138206512,4.4600878769722385,0.3033333333333333,0.4688888888888889,-0.6788888888888889,-0.25060234859091296,-0.2563331208066778,2.9800618779503942
1589986851.542424,11.778924800515838,-26.913166438300962,2.7694935117272506,0.3033333333333333,0.4688888888888889,-0.6788888888888889,-0.5404824657721891,-0.44911503508842604,3.1187094732407044
1589986851.552424,1.8399854920609329,-1.9779227855242993,4.878982671072782,0.3033333333333333,0.4688888888888889,-0.6788888888888889,-0.84508263512389,-0.7094633638563449,1.7653406820533655
1589986851.562424,-2.5731148640409707,-0.006971710766979777,13.977614620168271,0.3688888888888889,0.43,-0.7066666666666667,0.44692235654421286,0.28421332674337146,-0.22314299712522445
1589986851.572424,-2.00110802019069,1.2147701626472238,4.24615344924285,0.3688888888888889,0.43,-0.7066666666666667,1.0785597376450393,0.3333753844726889,-0.04258782019054884
1589986851.582424,-0.8576556396619072,-1.1143744620749014,4.967059342793458,0.3688888888888889,0.43,-0.7066666666666667,0.3992681637082325,0.10398354725458123,-0.02300970956141825
1589986851.592424,-2.0646315543617892,-2.564908326521079,12.480259254934019,0.3688888888888889,0.43,-0.7066666666666667,-0.4324365069737889,-0.13565919637483248,0.0026480321704722455
1589986851.602424,-1.0953168837442635,-2.4498766280819755,9.5320077664852,0.372728860481968,0.4199569973719469,-0.7066666666666667,-0.5071774968390426,-0.020558758307566562,0.14257400121532673
1589986851.612424,-1.0779397264078885,-2.5085348239705576,8.722451913061592,0.38333333333333336,0.3922222222222223,-0.7066666666666667,0.09662665574287682,0.02646959483937376,0.3854642701905939
1589986851.622424,0.5264177753286625,-6.0777920569944115,7.285139337164449,0.38333333333333336,0.3922222222222223,-0.7066666666666667,0.05786995554907362,-0.008021552065287048,0.5939393709056635
1589986851.6324239,2.2373245812584877,-11.968879583521955,9.102188773200544,0.38333333333333336,0.3922222222222223,-0.7066666666666667,-0.21471663253771173,-0.1392969675330524,0.2904832004960623
1589986851.6424239,-1.371517091574254,-2.3689585000571625,9.176066651423346,0.38333333333333336,0.3922222222222223,-0.7066666666666667,-0.022808801508571147,0.02680591627079648,-1.0525231299934112
1589986851.6524239,-1.3582692307692308,-2.7855896027049876,8.952909974640745,0.3915032403493942,0.39948436179205415,-0.7098438527284681,0.28469254185868514,0.30373943395584696,-1.2686691647098822
1589986851.6624238,-0.82,-2.2,8.32,0.4033333333333333,0.41,-0.7144444444444444,0.2988876344040289,0.2617993877991494,-0.8912087492996045
1589986851.6724238,1.0335825122854585,-4.261947759568133,8.580456559103343,0.4033333333333333,0.41,-0.7144444444444444,0.10095485865681508,-0.0019531387348172835,-0.19228823015394048
1589986851.6824238,2.1083603558279402,-5.4767438084566304,9.077090717830272,0.4033333333333333,0.41,-0.7144444444444444,-0.10011421362433193,-0.18045470274494316,0.3603921657570988
1589986851.6924238,-0.0754817912528315,-3.874720334553058,9.045127199860602,0.4033333333333333,0.41,-0.7144444444444444,0.026927402110140993,0.09586015257246801,-0.23189277647401463
1589986851.7024238,0.06688845234028018,-4.527173727365903,8.798720817674523,0.40049649495754724,0.4079736868744385,-0.7116076060686584,0.05575588186558106,0.0990016204062659,-0.22731330864683263
1589986851.7124238,0.4830071599045346,-4.667261650546414,8.902875266926266,0.3955555555555556,0.4044444444444445,-0.7066666666666667,-0.03826868966369208,-0.05506455144699198,0.08747555791112076
1589986851.7224238,-0.3378999841747112,-4.65469694571926,8.582348472859628,0.3955555555555556,0.4044444444444445,-0.7066666666666667,-0.01566366714850149,-0.02431263120367437,0.022674399818029253
1589986851.7324238,-0.08922314253163777,-4.51586445792407,8.533191181451489,0.3955555555555556,0.4044444444444445,-0.7066666666666667,0.0005923543332237427,0.010588451263653053,-0.023979165760192822
1589986851.7424238,0.0,-4.73,8.67,0.3955555555555556,0.4044444444444445,-0.7066666666666667,-0.006544984694978735,-0.001090830782496456,0.003272492347489368
1589986851.7524238,-0.08460596505625985,-4.414640951990152,8.628458847158932,0.3946137399304581,0.4039307268307549,-0.7050398942233165,-0.01216534406219424,-0.007131474389604339,-0.0009227170865395048
1589986851.7624238,-0.02119733062652529,-4.586750102585145,8.610342094464722,0.3835423910617743,0.3978918092660183,-0.6859166552683171,-0.001296072727448385,-0.0012027809342884171,0.0010535140652324691
1589986851.7724237,-0.011644792548687553,-4.457598433530906,8.672401566469095,0.38333333333333336,0.3977777777777778,-0.6855555555555556,-0.001090830782496456,-0.002361080599285831,-0.00040727197134380277
1589986851.7824237,0.017950889077053344,-4.59077900084674,8.53922099915326,0.38333333333333336,0.3977777777777778,-0.6855555555555556,-0.001090830782496456,0.0008673074553464622,0.0020140190696304166
1589986851.7924237,-0.06710988868515123,-4.4583582448926675,8.60515604452594,0.38333333333333336,0.3977777777777778,-0.6855555555555556,-0.0002812186042408581,0.0003152622387078345,-0.0013380057522703376
1589986851.8024237,-0.03,-4.533146748360028,8.628722320269054,0.38333333333333336,0.3977777777777778,-0.6873553994205988,-0.000615102010282541,0.004023516864118741,0.0008869470229762066
1589986851.8124237,-0.026864934946774634,-4.461350650532253,8.728649349467746,0.38333333333333336,0.3977777777777778,-0.7144444444444444,0.006203002148460024,-0.000748848235977744,-0.0018396790184742
1589986851.8224237,-0.02287973753794927,-4.5040823621584565,8.66,0.38333333333333336,0.3977777777777778,-0.7144444444444444,0.004825892642101155,-0.0009423919055716861,-0.001090830782496456
1589986851.8324237,-0.020490473960515614,-4.4653587361052915,8.653660315973678,0.38333333333333336,0.3977777777777778,-0.7144444444444444,0.0005062833526037207,-0.003272492347489368,-0.0007450546581357501
1589986851.8424237,0.0,-4.515810838656501,8.650472903358747,0.38333333333333336,0.3977777777777778,-0.7144444444444444,-0.006368087141748835,-0.0037294589621226456,-0.0004569666146332774
1589986851.8524237,0.0,-4.503464131170705,8.68133967207324,0.38333333333333336,0.3977777777777778,-0.7144444444444444,-0.009061720859346131,-0.005076275820921293,-0.001803783473431925
1589986851.8624237,-0.016174856975209036,-4.541074666275487,8.580400762798886,0.37666666666666665,0.4044444444444445,-0.7066666666666667,-0.007613957257600024,-0.002181661564992912,0.001229916907792909
1589986851.8724236,-0.007024651746746645,-4.4727037206799665,8.673790230973117,0.37666666666666665,0.4044444444444445,-0.7066666666666667,0.00053060040533238,-0.0016510611596605319,0.001120460754328152
1589986851.8824236,-0.056604290278411684,-4.456791419443177,8.548110451848471,0.37666666666666665,0.4044444444444445,-0.7066666666666667,0.0025520760342660122,0.00037041446927310053,-0.002181661564992912
1589986851.8924236,-0.02565008315133543,-4.507825041575668,8.66172554048368,0.37666666666666665,0.4044444444444445,-0.7066666666666667,0.004267898112526457,0.00232348770752471,-0.001707159245010583
1589986851.9024236,-0.01055860628794617,-4.503351637727677,8.566703275455355,0.37772181187723164,0.4047547812710813,-0.7051149825334828,0.00030467246709388037,-0.0007861583154025756,-0.00012186898683755215
1589986851.9124236,-0.018668548667775245,-4.552011292006651,8.664022584013303,0.39304059192801993,0.4092603048154307,-0.6825873648117354,0.004727959863188939,0.0036371290806924833,-0.0018911839452755758
1589986851.9224236,-0.03834955222915522,-4.483398208916621,8.61660179108338,0.3955555555555556,0.41,-0.6788888888888889,0.0025417334116609415,0.0009107948591624413,0.0
1589986851.9324236,-0.031569461058485015,-4.456277844233941,8.64372215576606,0.3955555555555556,0.41,-0.6788888888888889,0.004020919843080839,0.0001712016434524924,0.0
1589986851.9424236,-0.008808503652630716,-4.5211914963473685,8.597148978084215,0.3955555555555556,0.41,-0.6788888888888889,-0.0006498604464712531,-0.0023116336542871626,0.0009608586932022054
1589986851.9524236,-0.0019230074694246077,-4.5280769925305755,8.638461955183452,0.3955555555555556,0.41,-0.6788888888888889,-0.004405316041172793,-0.0030627247732274705,0.0002097675742618974
1589986851.9624236,-0.02043957192425066,-4.518241712302997,8.632637431545504,0.3911111111111111,0.4177777777777778,-0.7,-0.006353185260541208,0.0019419122719460027,-4.794985860938186e-05
1589986851.9724236,-0.029206554909911794,-4.483173780360353,8.68523932945947,0.3911111111111111,0.4177777777777778,-0.7,-0.002527867296388468,-0.0028397351832449235,-0.001004279349647567
1589986851.9824235,-0.021830523246069787,-4.545355814031441,8.560135755706767,0.3911111111111111,0.4177777777777778,-0.7,0.000798716441955304,0.002181661564992912,0.00089115167200763
1589986851.9924235,-0.028860154862065494,-4.489118761103477,8.637461703482721,0.3911111111111111,0.4177777777777778,-0.7,0.0038659718644906745,0.002181661564992912,0.00012433781637378734
1589986852.0024235,-0.029573668017776042,-4.557015676124432,8.631705327928897,0.38997422582518054,0.41692511381332986,-0.7002842213214826,0.0023211783799246995,0.000858302757610143,4.650560497726259e-05
1589986852.0124235,-0.019150884818379385,-4.492547345544862,8.665754424091897,0.3644444444444445,0.3977777777777778,-0.7066666666666667,0.0049910334234838614,-0.00427069903218614,0.0009982066846967723
1589986852.0224235,-0.0208149368955198,-4.51188879732836,8.60377759465672,0.3644444444444445,0.3977777777777778,-0.7066666666666667,0.0008847949557292241,-0.0029775606955796266,-0.00029493165190974137
1589986852.0324235,-0.04592395175751026,-4.49,8.574266168848714,0.3644444444444445,0.3977777777777778,-0.7066666666666667,0.003272492347489368,-0.0017370336756080728,-0.001090830782496456
1589986852.0424235,-0.03186802846444885,-4.49,8.637472113857797,0.3644444444444445,0.3977777777777778,-0.7066666666666667,0.002864951757169291,-0.0002037702951600386,-0.0004795198970163402
1589986852.0524235,-0.039857645750988144,-4.4904270627470355,8.67,0.36471333580368914,0.3980624862758015,-0.7064768610013176,0.0009666032650234159,-0.001090830782496456,0.0021195478062563918
1589986852.0624235,-0.03,-4.521976097503254,8.666047804993491,0.38333333333333336,0.4177777777777778,-0.6933333333333334,-0.006989139081746019,-0.0017375071782256292,-0.0017505439678401297
1589986852.0724235,-0.029778322516930023,-4.5295566450338605,8.64733987020316,0.38333333333333336,0.4177777777777778,-0.6933333333333334,-0.004290779343290104,-0.004314960605522011,2.4181262231906834e-05
1589986852.0824234,-0.022381489841986457,-4.514762979683973,8.558577878103836,0.38333333333333336,0.4177777777777778,-0.6933333333333334,-0.00187017151084889,-0.0027012220505612016,0.0008310505397123113
1589986852.0924234,-0.03876830199153425,-4.509692075497884,8.621539622510582,0.38333333333333336,0.4177777777777778,-0.6933333333333334,0.002148072212433561,-0.0010572414299371052,-0.001090830782496456
1589986852.1024234,-0.009663451530081187,-4.50241586288252,8.6579206855874,0.38333333333333336,0.4177777777777778,-0.6933333333333334,0.001354360542350832,-0.0002635297598543759,-0.001090830782496456
1589986852.1124234,-0.009993222999001284,-4.519986445998002,8.679993222999,0.38333333333333336,0.39223954122477456,-0.706657630665335,0.0032710138352288866,0.0021801830527324304,-0.001090830782496456
1589986852.1224234,-0.0219142188325908,-4.503828437665182,8.634686249339273,0.38333333333333336,0.3922222222222223,-0.7066666666666667,0.0012996396651989038,0.00020880888270244778,0.00020880888270244778
1589986852.1324234,-0.028351244248916947,-4.513404976995668,8.579892534506499,0.38333333333333336,0.3922222222222223,-0.7066666666666667,0.001642107507163075,0.0007311280772765646,0.0009109794298865103
1589986852.1424234,-0.021308392383383147,-4.485233569533533,8.622149645699702,0.38333333333333336,0.3922222222222223,-0.7066666666666667,-0.0006626603762829833,-0.0008053838450208075,0.00014272346873782425
1589986852.1524234,-0.02,-4.488891868669774,8.674459343348868,0.38333333333333336,0.3922222222222223,-0.7066666666666667,0.0018190264351750469,-0.001090830782496456,0.0009699524058905008
1589986852.1624234,-0.002873048694585198,-4.481436524347293,8.688563475652707,0.3937998035755313,0.4026886924644202,-0.7190361314983552,-0.0015548595738599535,-0.002959091351922889,-0.0007774297869299767
1589986852.1724234,-0.02,-4.521731899238669,8.599608604567983,0.3955555555555556,0.4044444444444445,-0.7211111111111111,-0.006356063794806453,-0.0019927406648206298,0.0003778418003445647
1589986852.1824234,-0.01776820034944671,-4.525536400698893,8.55669539895166,0.3955555555555556,0.4044444444444445,-0.7211111111111111,-0.004236896032888098,-0.0013342823584152922,0.0016947584131552394
1589986852.1924233,-0.012787756954801893,-4.5086061215225985,8.591151027819208,0.3955555555555556,0.4044444444444445,-0.7211111111111111,0.000456145665062473,-0.0018775644549512633,0.0
1589986852.2024233,-0.02638706958044225,-4.5018064652097785,8.645548278321769,0.3955555555555556,0.4044444444444445,-0.7211111111111111,0.0026813279899886543,-0.00039410957166714257,0.0
1589986852.2124233,-0.02,-4.521670507454263,8.678329492545737,0.38333333333333336,0.3977777777777778,-0.7066666666666667,0.003816650843935773,-0.001817213374292878,0.0012705410882428267
1589986852.2224233,-0.02152128776390995,-4.523914848944361,8.65935098565263,0.38333333333333336,0.3977777777777778,-0.7066666666666667,0.0012567775346872733,-0.00016594675219081746,-0.003272492347489368
1589986852.2324233,-0.028891901519949335,-4.49110809848005,8.605540492400253,0.38333333333333336,0.3977777777777778,-0.7066666666666667,0.0019399119785775518,-0.0008490811960810958,-0.003030742761074008
1589986852.2424233,-0.020590959468017735,-4.499409040531982,8.647045202659912,0.38333333333333336,0.3977777777777778,-0.7066666666666667,0.00012892735578429442,0.0009619034267121615,-0.0012197581382807502
1589986852.2524233,-0.02,-4.481217848275198,8.668782151724804,0.38333333333333336,0.3977777777777778,-0.7066666666666667,0.0020488149262933943,0.002115238245643153,-6.642331934975879e-05
1589986852.2624233,-0.02,-4.5084113788712425,8.67,0.36965378054347564,0.41145733056763545,-0.7003530269175016,-0.0019506059877965752,0.0011485946767955401,-0.0010330668881973718
1589986852.2724233,-0.02,-4.519300458715596,8.632798165137615,0.3688888888888889,0.4122222222222222,-0.7,-0.003196184230823905,-0.002967259880827516,-0.003119876114158442
1589986852.2824233,-0.0025089367362208,-4.5,8.57125446836811,0.3688888888888889,0.4122222222222222,-0.7,-0.0028619685340084923,-0.0028619685340084923,-0.002998809805168784
1589986852.2924232,-0.016456230775625573,-4.5,8.578228115387812,0.3688888888888889,0.4122222222222222,-0.7,-0.0005798478834016826,-0.0005798478834016826,-0.0014773960380975776
1589986852.3024232,-0.02,-4.508794872515672,8.641564107609705,0.3688888888888889,0.4122222222222222,-0.7,0.002878115300468118,0.0009593717668227061,-0.001090830782496456
1589986852.3124232,-0.02,-4.492899570854431,8.667100429145568,0.36508879352320694,0.4169723414293247,-0.7,0.0023398086221950616,0.00015814705720214957,-0.00015814705720214957
1589986852.3224232,-0.02145850796311819,-4.52,8.665414920368818,0.3644444444444445,0.4177777777777778,-0.7,0.0017043659501872538,-0.002340760103261465,0.0018634644884558066
1589986852.3324232,-0.02918480461631909,-4.5191848046163186,8.586521563069446,0.3644444444444445,0.4177777777777778,-0.7,-0.0010019067606696417,-0.0030057202820089252,-8.892402182681425e-05
1589986852.3424232,-0.02,-4.511075260634654,8.661075260634655,0.3644444444444445,0.4177777777777778,-0.7,0.00011729273994882369,0.00011729273994882369,-0.0008562453025988086
1589986852.3524232,-0.02,-4.519054676204246,8.669054676204246,0.3644444444444445,0.4177777777777778,-0.7,0.000987711952912998,0.000987711952912998,0.0008845931233295399
1589986852.3624232,-0.019000494804552202,-4.473998020781791,8.67,0.37666666666666665,0.4044444444444445,-0.7,-0.0004361164137838379,-0.0009818016790504964,-0.00032708731033787844
1589986852.3724232,-0.010863966770508826,-4.510863966770509,8.658768431983384,0.37666666666666665,0.4044444444444445,-0.7,-0.004363323129985824,0.0,-0.0031782481926568604
1589986852.3824232,-0.019024086637206696,-4.5204879566813965,8.54146387004419,0.37666666666666665,0.4044444444444445,-0.7,-0.004256867496267368,-5.322781685922832e-05,-0.0019155224806967704
1589986852.3924232,-0.001620713263210307,-4.529189643368395,8.567568930105185,0.37666666666666665,0.4044444444444445,-0.7,-0.0023584539567039205,-0.0010024345866409517,0.0028305113682118477
1589986852.4024231,0.0,-4.518392737259688,8.628036313701557,0.37666666666666665,0.4044444444444445,-0.7,0.000983728309421011,0.0001753251672691131,0.0013732584228410144
1589986852.4124231,-0.005801293640271584,-4.498397412719457,8.67,0.38053419576018105,0.4005769153509301,-0.7083796463692812,0.006436607188043951,-0.0001748151537253773,-0.0018984689043327497
1589986852.4224231,-0.02,-4.490984221057164,8.665078894714181,0.38333333333333336,0.3977777777777778,-0.7144444444444444,0.0021279806336961357,-0.0008761070573093513,0.0020742997023993595
1589986852.432423,-0.02069476441442863,-4.51,8.571389528828858,0.38333333333333336,0.3977777777777778,-0.7144444444444444,0.000939256700528081,0.0028177701015842434,-7.578704098418745e-05
1589986852.442423,-0.027313093697730932,-4.51,8.584626187395461,0.38333333333333336,0.3977777777777778,-0.7144444444444444,-0.0005046387616566904,-0.0015139162849700707,-0.0007977347720765732
1589986852.452423,-0.021866083379582776,-4.493732166759166,8.64693741634292,0.38333333333333336,0.3977777777777778,-0.7144444444444444,-0.00020355811931539096,-0.003272492347489368,-0.001090830782496456
1589986852.462423,-0.013056370153144347,-4.49,8.67388725969371,0.3787042467687629,0.3977777777777778,-0.6997856703233047,-0.00075743251792113,-0.0010001947937259784,-0.000333398264575326
1589986852.472423,-0.028235830527497188,-4.49,8.689117915263749,0.37666666666666665,0.3977777777777778,-0.6933333333333334,-0.003080051310874709,-0.0029838307925673787,0.0
1589986852.482423,-0.014456358905621698,-4.49,8.620053615075298,0.37666666666666665,0.3977777777777778,-0.6933333333333334,-0.00242471823859813,0.00096637819696682,0.0
1589986852.492423,-0.03,-4.5105855279979545,8.621171055995909,0.37666666666666665,0.3977777777777778,-0.6933333333333334,-0.002889265168980002,-0.0011547019789146836,0.0
1589986852.502423,-0.03,-4.5172882574789055,8.63457651495781,0.37666666666666665,0.3977777777777778,-0.6933333333333334,0.001497661017760811,-0.0018858563433714857,0.0
1589986852.512423,-0.020133923280527793,-4.510133923280527,8.669598230158417,0.3909176663725709,0.3977777777777778,-0.7152579482654937,4.382629106778691e-05,-2.921752737852475e-05,-0.002152444037614387
1589986852.522423,-0.02,-4.490041256896139,8.630082513792278,0.3911111111111111,0.3977777777777778,-0.7155555555555555,0.00435432227152627,0.002177161135763135,-4.500429229776885e-06
1589986852.532423,-0.018872522428541625,-4.481127477571459,8.562254955142917,0.3911111111111111,0.3977777777777778,-0.7155555555555555,0.0009678420583443415,6.149436207605725e-05,0.00018448308622817175
1589986852.542423,-0.0013707490089714183,-4.498629250991028,8.597258501982056,0.3911111111111111,0.3977777777777778,-0.7155555555555555,-0.000941305261090203,0.0010160680217933295,0.003048204065379988
1589986852.552423,-0.008035335689045936,-4.508035335689046,8.616070671378091,0.3911111111111111,0.3977777777777778,-0.7155555555555555,-0.00021431163076608814,0.0028438690859571916,0.0015194540440286322
1589986852.562423,-0.023367206302840803,-4.50331639684858,8.660101618908522,0.3911111111111111,0.3977777777777778,-0.6955047461012943,0.0021872040166679087,0.0018143563363774288,-0.00036730522861548316
1589986852.572423,-0.03,-4.509555900965915,8.670444099034084,0.3911111111111111,0.3977777777777778,-0.6855555555555556,0.0022301052546785547,0.0031756049681180834,0.0009939434031251712
1589986852.582423,-0.039047566175164326,-4.51,8.579524338248357,0.3911111111111111,0.3977777777777778,-0.6855555555555556,0.001194725195938615,0.0012986196093807737,0.00010389441344215897
1589986852.592423,-0.03312720170843448,-4.51,8.611236789749393,0.3911111111111111,0.3977777777777778,-0.6855555555555556,-0.0004085812051692879,0.001090830782496456,-0.0007497059938328719
1589986852.602423,-0.023405804805443332,-4.516594195194556,8.636594195194558,0.3911111111111111,0.3977777777777778,-0.6855555555555556,-0.0018101458928977178,-0.00034779943830606764,-0.001090830782496456
1589986852.612423,-0.014227308759413398,-4.508454617518827,8.65731807372176,0.3757172678028802,0.39072226626150525,-0.6900454265204563,-0.0009222557043770075,0.00016857507811944843,-0.0017205337128044082
1589986852.622423,-0.01730067651330004,-4.5073006765132995,8.6773006765133,0.3644444444444445,0.3855555555555555,-0.6933333333333334,0.002389140802126974,0.001887211049872114,0.0010038595045097198
1589986852.632423,-0.029774170582372205,-4.519774170582372,8.59203246475865,0.3644444444444445,0.3855555555555555,-0.6933333333333334,0.001140099118564785,0.0032478581794552035,-0.0010169282783939627
1589986852.642423,-0.03,-4.492107998192499,8.627189335743335,0.3644444444444445,0.3855555555555555,-0.6933333333333334,0.003119194392967725,0.0022583105422537336,-0.001090830782496456
1589986852.652423,-0.014059029987069233,-4.50594097001293,8.66188194002586,0.3644444444444445,0.3855555555555555,-0.6933333333333334,-0.00020528781110219383,-0.00042667355395075964,0.000648059296799325
1589986852.662423,-0.019573800848216954,-4.51,8.679573800848218,0.368699467043652,0.408958179851197,-0.7199272245783804,-0.002135170449569029,0.0020421882187212637,0.002135170449569029
1589986852.672423,-0.012851168945743273,-4.495702337891487,8.651404675782974,0.3688888888888889,0.41,-0.7211111111111111,-0.002181661564992912,0.001401845067707929,0.001401845067707929
1589986852.6824229,-0.027909286656942416,-4.507909286656942,8.577317496700703,0.3688888888888889,0.41,-0.7211111111111111,-0.00022806144719832817,0.00011403072359916409,0.002067630841393748
1589986852.6924229,-0.010745301681503464,-4.51,8.579627349159248,0.3688888888888889,0.41,-0.7211111111111111,-0.003150542645024816,-0.0010501808816749387,0.0011314806833179732
1589986852.7024229,-0.01,-4.517797747608762,8.650179728478864,0.3688888888888889,0.41,-0.7211111111111111,-0.001571287722334065,0.000610373842658847,0.001090830782496456
1589986852.7124228,-0.003590701971736346,-4.52,8.67,0.36247959086062526,0.398605692394198,-0.7033075054770455,-0.001090830782496456,-0.00030746113418831083,-0.00030746113418831083
1589986852.7224228,0.0,-4.52,8.67,0.3588888888888889,0.3922222222222223,-0.6933333333333334,0.004671869378719784,-0.001090830782496456,0.0005556549778510411
1589986852.7324228,-0.009189027864449086,-4.510810972135551,8.587298749219958,0.3588888888888889,0.3922222222222223,-0.6933333333333334,0.004540249803826989,0.0009139041086552912,0.0020931982280723294
1589986852.7424228,-0.018925600898196733,-4.492148798203607,8.624628004490985,0.3588888888888889,0.3922222222222223,-0.6933333333333334,0.0024160590875796214,0.002064462803699557,0.0002343975225867095
1589986852.7524228,-0.02,-4.504542402654435,8.644542402654436,0.3588888888888889,0.3922222222222223,-0.6933333333333334,-0.00019783350504454147,-0.00019783350504454147,0.0
1589986852.7624228,-0.011249022001064063,-4.518750977998936,8.676252933996807,0.3802801684418434,0.39708387666607553,-0.7050013039985813,0.001772920070960112,0.0008183364531412559,-0.0009545836178188559
1589986852.7724228,-0.018910175142038785,-4.511089824857961,8.644359299431846,0.38333333333333336,0.3977777777777778,-0.7066666666666667,-0.0007341864317182796,0.0001188814502593921,0.0018250172142147355
1589986852.7824228,-0.029432306680827393,-4.51,8.57397385323421,0.38333333333333336,0.3977777777777778,-0.7066666666666667,-0.001090830782496456,0.0,0.00012385146951421344
1589986852.7924228,-0.03,-4.4915816456723965,8.616045885819007,0.38333333333333336,0.3977777777777778,-0.7066666666666667,-0.001090830782496456,-0.0030136961795214916,0.0
1589986852.8024228,-0.015036211482826243,-4.51244568277576,8.634963788517174,0.38333333333333336,0.3977777777777778,-0.7066666666666667,-0.0002746827256314494,-0.0008240481768943485,0.0008161480568650066
1589986852.8124228,-0.0004681383031220187,-4.510468138303122,8.678127446787512,0.365328705683675,0.40413235224236316,-0.7066666666666667,-0.002079529630690681,-0.0010397648153453406,0.001090830782496456
1589986852.8224227,-0.01215539223038848,-4.516077696115194,8.673922303884806,0.3644444444444445,0.4044444444444445,-0.7066666666666667,-0.0008557139631703112,-0.0017538045834077564,-0.00023511681932614475
1589986852.8324227,-0.02,-4.526352520011263,8.600122279876112,0.3644444444444445,0.4044444444444445,-0.7066666666666667,0.000692952437471,-0.00010280425257991202,0.00029507409244554405
1589986852.8424227,-0.026158327557462113,-4.517683344885076,8.615424948017159,0.3644444444444445,0.4044444444444445,-0.7066666666666667,0.0017626001093340444,-0.0002527078711787212,-0.0009244771980163097
1589986852.8524227,-0.018207300635435866,-4.504103650317718,8.661792699364565,0.3644444444444445,0.4044444444444445,-0.7066666666666667,0.0015384695912132643,0.001481937112622135,-0.00025208564365396865
1589986852.8624227,-0.0018066335192820776,-4.491806633519282,8.678193366480718,0.37992080335246725,0.4108170628183362,-0.701204422346188,0.0019845884194406326,0.0014849770736010143,0.0028783460563848095
1589986852.8724227,-0.018131156627113093,-4.499065578313557,8.698131156627113,0.38333333333333336,0.4122222222222222,-0.7,-0.0017739431892310037,0.002079731971052435,-0.0006831124067345476
1589986852.8824227,-0.01076004736702192,-4.509239952632978,8.570640663138308,0.38333333333333336,0.4122222222222222,-0.7,0.0008421058632655885,-0.0018500283393517556,0.0029408591218482117
1589986852.8924227,-0.017449692780337943,-4.495100614439324,8.612147849462366,0.38333333333333336,0.4122222222222222,-0.7,0.00027819536200303233,-0.0013690261444994883,0.0016472215065025206
1589986852.9024227,-0.02,-4.500981015689354,8.651962031378709,0.38333333333333336,0.4122222222222222,-0.7,-0.0005989214968512275,0.0007059337080572265,0.0004919092856452285
1589986852.9124227,-0.01314344262295082,-4.50314344262295,8.67,0.37876229508196724,0.3985091074681239,-0.7,-0.001090830782496456,0.0006857927952252309,0.0
1589986852.9224226,-0.01,-4.5,8.66342761867399,0.37666666666666665,0.3922222222222223,-0.7,-0.0018077663689681361,-0.0014338711729433603,0.0
1589986852.9324226,-0.01803870035152272,-4.516077400703045,8.579612996484773,0.37666666666666665,0.3922222222222223,-0.7,0.0004489969734189068,-0.00042788920605169966,0.0008768861794706061
1589986852.9424226,-0.028651307087371635,-4.502697385825257,8.603256535436858,0.37666666666666665,0.3922222222222223,-0.7,0.001090830782496456,0.0,0.0020345419904699296
1589986852.9524226,-0.023420790555344306,-4.5,8.65605446611259,0.37666666666666665,0.3922222222222223,-0.7,0.0032438720385130097,-0.0007176804186721843,0.0014639811463207277
1589986852.9624226,-0.028172954190894908,-4.51634590838179,8.704518862572685,0.3884720449424037,0.40675191856159093,-0.6881946217242629,0.0025802611269135074,0.001583762222112019,0.001090830782496456
1589986852.9724226,-0.02418045493372141,-4.508360909867442,8.698360909867443,0.3911111111111111,0.41,-0.6855555555555556,-0.0003575939943759143,0.0015468476751507054,-0.00017879699718795715
1589986852.9824226,-0.02,-4.51749417424641,8.637517477260769,0.3911111111111111,0.41,-0.6855555555555556,-0.001545555438914865,-0.00018138146965963778,0.0008174875957376849
1589986852.9924226,-0.02,-4.53,8.621901432196923,0.3911111111111111,0.41,-0.6855555555555556,-0.001090830782496456,0.00010370703856165384,0.000389854833405747
1589986853.0024226,-0.028905975038579203,-4.516641037442131,8.653358962557869,0.3911111111111111,0.41,-0.6855555555555556,-0.00011933961047373037,0.001090830782496456,-0.001090830782496456
1589986853.0124226,-0.04,-4.50462629921939,8.67,0.38751287838491877,0.41,-0.6989204199671272,-0.0004231220967685829,0.0005861798227414432,-0.0005861798227414432
