time,acc_x,acc_y,acc_z,mag_x,mag_y,mag_z,gyr_x,gyr_y,gyr_z
1589987366.3503914,-3.75,-0.72,8.9,0.2933333333333333,-0.3922222222222223,-0.6711111111111111,0.0,0.001090830782496456,0.0
1589987366.3603914,-3.7564772727272726,-0.7329545454545454,8.862897727272728,0.2933333333333333,-0.3922222222222223,-0.6711111111111111,0.0008367167933921679,0.0014751007172395258,-0.0014751007172395258
1589987366.3703914,-3.7289858844162826,-0.6752182399366354,8.983767644479647,0.2933333333333333,-0.3922222222222223,-0.6711111111111111,-0.004252700280412974,0.002972128939472042,-0.002972128939472042
1589987366.3803914,-3.705256428389579,-0.6218269638765522,9.013429464513026,0.2933333333333333,-0.3922222222222223,-0.6711111111111111,-0.0016642181718305384,0.0023250084123264325,-0.0023250084123264325
1589987366.3903913,-3.6968246852932145,-0.5390995803909528,9.062274895097739,0.2933333333333333,-0.4,-0.6711111111111111,-0.003396568627467524,0.0007444576798689354,-0.005578230192460436
1589987366.4003913,-3.7483358919250844,-0.6077811892334459,9.07944529730836,0.2933333333333333,-0.4,-0.6711111111111111,-0.004333068791427177,0.006363458663626854,-0.006514730356420089
1589987366.4103913,-3.802182370703004,-0.792605876432332,8.980423505729329,0.2933333333333333,-0.4,-0.6711111111111111,-0.005500351221093736,0.020533922461878594,-0.0017588126163815667
1589987366.4203913,-3.78,-0.8029813565623839,9.009006214479205,0.2933333333333333,-0.4,-0.6711111111111111,-0.009051861811156255,0.02693877506601236,0.011003155118263901
1589987366.4303913,-3.78,-0.8316471818853064,9.0,0.2977258183608171,-0.39670563622938715,-0.6711111111111111,-0.011460099596002176,0.033456394916417574,0.03289185038580118
1589987366.4403913,-3.779011403757964,-0.8409885962420356,8.996539913152874,0.32,-0.38,-0.6711111111111111,-0.008457048456903453,0.03131057532871539,0.03905422992741786
1589987366.4503913,-3.7667807780320364,-0.8430480549199085,8.889315331807781,0.32,-0.38,-0.6711111111111111,-0.0017931560661651126,0.022500269505101037,0.027879737703596377
1589987366.4603913,-3.783988658490759,-0.8040170122638609,8.81598298773614,0.32,-0.38,-0.6711111111111111,0.0015259259287550772,0.01593045950803812,0.010917586575514265
1589987366.4703913,-3.793030183208119,-0.7660603664162383,8.864394358771582,0.32,-0.38,-0.6711111111111111,0.0025122032769949354,0.0044954535490070785,-0.0029419506354873446
1589987366.4803913,-3.7776431689779146,-0.7329295069337443,8.924140986132512,0.3181669092050448,-0.3813093505678251,-0.6679686697483308,0.0016050115481030932,-0.008282148123318784,-0.0041062327471825056
1589987366.4903913,-3.762872528595574,-0.706436264297787,8.977127471404426,0.31222222222222223,-0.3855555555555555,-0.6577777777777778,0.002106262566092711,-0.017842035780408848,-0.004827465389351577
1589987366.5003912,-3.7474380694959177,-0.6948761389918354,8.977190347479588,0.31222222222222223,-0.3855555555555555,-0.6577777777777778,0.0005589265312939179,-0.01882358656808671,-0.008753668540063028
1589987366.5103912,-3.748653791590217,-0.682884597196739,8.963076777573912,0.31222222222222223,-0.3855555555555555,-0.6577777777777778,0.0031256437901846733,-0.019005632601475034,-0.013257781574383364
1589987366.5203912,-3.769266990867038,-0.6914660182659234,9.020733009132961,0.31222222222222223,-0.3855555555555555,-0.6577777777777778,0.00529423612726515,-0.017293374734726166,-0.016362461737446838
1589987366.5303912,-3.7621600555772066,-0.7056798888455869,9.027839944422793,0.31222222222222223,-0.3855555555555555,-0.6577777777777778,0.003743743370593383,-0.015742881978054398,-0.016362461737446838
1589987366.5403912,-3.7876732656456924,-0.6946534687086149,9.059529695405617,0.30666666666666664,-0.3922222222222223,-0.6644444444444444,0.0047440341484414105,-0.016489365410265366,-0.011745331261823958
1589987366.5503912,-3.763137783141878,-0.733431108429061,8.94225780728033,0.30666666666666664,-0.3922222222222223,-0.6644444444444444,0.008010091346725468,-0.01782756838919357,-0.009068925303967551
1589987366.5603912,-3.752298546365915,-0.7537912781954887,8.874597092731829,0.30666666666666664,-0.3922222222222223,-0.6644444444444444,0.007974448720691084,-0.016036798171504538,-0.005379222859633501
1589987366.5703912,-3.7591285467554894,-0.8008714532445103,8.894357266222551,0.30666666666666664,-0.3922222222222223,-0.6644444444444444,0.0050739107026350075,-0.0063049642430097405,0.002847087182225638
1589987366.5803912,-3.744756792577866,-0.8086891981444666,8.94,0.30666666666666664,-0.39149399896914816,-0.6635705765407555,0.0012338170838733936,0.00777880177885213,0.010532408549352794
1589987366.5903912,-3.71,-0.7973533404581035,8.950586638167586,0.30666666666666664,-0.38666666666666666,-0.6577777777777778,0.00044942694553968534,0.00930405779978939,0.015271630954950384
1589987366.6003911,-3.7207391804738226,-0.782840546350785,8.944202731753926,0.30666666666666664,-0.38666666666666666,-0.6577777777777778,-0.0047538107513068395,0.017156109766100804,0.010976267120419216
1589987366.6103911,-3.749585656753408,-0.7540239054109872,8.908756970260225,0.30666666666666664,-0.38666666666666666,-0.6577777777777778,-0.007196875488659303,0.030104321921084875,0.002226859401783154
1589987366.6203911,-3.7762107444603856,-0.7231053722301929,8.985526861150964,0.30666666666666664,-0.38666666666666666,-0.6577777777777778,-0.011585794948925374,0.03550947206729217,0.0010162306859412226
1589987366.6303911,-3.792163842640342,-0.7364915279210255,9.026491527921026,0.30666666666666664,-0.3878688014668566,-0.6577777777777778,-0.013798085238126454,0.03926990816987242,0.003272492347489368
1589987366.640391,-3.8,-0.76,9.042900779244803,0.30666666666666664,-0.3922222222222223,-0.6577777777777778,-0.01442644960457021,0.03462347905096851,0.002498087494338717
1589987366.650391,-3.793096449195233,-0.7634517754023836,8.98167514436663,0.30666666666666664,-0.3922222222222223,-0.6577777777777778,-0.009778716966009328,0.022791166203049246,0.0029734822140885086
1589987366.660391,-3.7763221679851875,-0.7773556640296246,8.901033496044437,0.30666666666666664,-0.3922222222222223,-0.6577777777777778,-0.007635815477475192,0.013955326312681895,0.005742606220057087
1589987366.670391,-3.7679033597685136,-0.7837100793055407,8.924193280462973,0.30666666666666664,-0.3922222222222223,-0.6577777777777778,-0.006492275625312238,0.010274892983333287,0.0039059071891206425
1589987366.680391,-3.762284589004394,-0.7668537670131819,8.935430821991211,0.30666666666666664,-0.3922222222222223,-0.6577777777777778,-0.00342771157066584,0.011500718605191845,0.0026800815672620836
1589987366.690391,-3.770099795599375,-0.7798004088012505,8.979900204400625,0.32,-0.3744444444444445,-0.6577777777777778,-0.005432381890131142,0.01089742181378899,0.005410609867780004
1589987366.700391,-3.7781386650134325,-0.7581386650134325,8.95510932010746,0.32,-0.3744444444444445,-0.6577777777777778,-0.0030694521975008254,0.009411396742491019,0.002106031532439169
1589987366.710391,-3.77,-0.7495004683109585,8.89,0.32,-0.3744444444444445,-0.6577777777777778,-0.0020726806563451236,0.007635815477475192,0.006490494240654841
1589987366.720391,-3.77,-0.7413161489228848,8.89,0.32,-0.3744444444444445,-0.6577777777777778,-0.0002871391518864579,0.007635815477475192,0.005597723488425509
1589987366.730391,-3.760351688557275,-0.7596483114427247,8.97929662288545,0.3192966228854494,-0.3753432040908147,-0.6577777777777778,-0.00553088045330781,0.016477551548685132,0.002258388105818442
1589987366.740391,-3.76897288853261,-0.7510271114673902,8.962054222934782,0.30205422293478035,-0.3973751595833362,-0.6577777777777778,-0.007411734516338328,0.019298832643230915,0.0041392421688489596
1589987366.750391,-3.7917872829754744,-0.7382127170245254,8.952127170245255,0.3,-0.4,-0.6577777777777778,-0.011883119468304323,0.026843768955430062,0.005259191583814327
1589987366.760391,-3.799694044903576,-0.7303059550964239,8.87305955096424,0.3,-0.4,-0.6577777777777778,-0.016195589118826393,0.03460621432636979,0.004396697653709912
1589987366.770391,-3.8478415214471657,-0.7664754356585034,9.004316957105669,0.3,-0.4,-0.6577777777777778,-0.014329817015434284,0.030283951984204763,0.008491192775092624
1589987366.780391,-3.8408870686939363,-0.7873387939181907,9.018225862612127,0.3,-0.4,-0.6577777777777778,-0.011295364559978474,0.018904755276245473,0.007732579661228671
1589987366.790391,-3.792359566610214,-0.7615280866779571,8.970831479932258,0.31222222222222223,-0.3922222222222223,-0.6433333333333333,0.006287595905801462,-0.010393530246610012,0.005120777115154607
1589987366.800391,-3.750135238826012,-0.7693238058699405,8.918647611739882,0.31222222222222223,-0.3922222222222223,-0.6433333333333333,0.010849298755203577,-0.019561192747734983,0.0032577400800491226
1589987366.810391,-3.76,-0.7243594330535297,8.837437732214118,0.31222222222222223,-0.3922222222222223,-0.6433333333333333,0.005593903941174202,-0.010376477157235792,0.0019438913765417786
1589987366.820391,-3.76,-0.7417145576145285,8.901143038409685,0.31222222222222223,-0.3922222222222223,-0.6433333333333333,0.0014958877494193911,0.003958266163062889,0.001090830782496456
1589987366.830391,-3.7629102037977322,-0.7670897962022675,8.927275509494331,0.3143240360761401,-0.3933539681435627,-0.6443034012659108,-0.010134931031058574,0.017811262863674137,0.0014082847710869249
1589987366.840391,-3.77858142582318,-0.7471628516463602,8.97141857417682,0.32666666666666666,-0.4,-0.65,-0.013237078110924803,0.03473657516802234,0.0035819772233553152
1589987366.850391,-3.7726043343364357,-0.73,8.956560990972077,0.32666666666666666,-0.4,-0.65,-0.02214622889848107,0.04974661170944443,0.0060223315249016435
1589987366.860391,-3.7844989235973814,-0.721002152805237,8.898997847194764,0.32666666666666666,-0.4,-0.65,-0.026916073432133456,0.05805940968971834,0.009353462999318388
1589987366.870391,-3.7970836890610973,-0.6914581554694511,8.931458155469452,0.32666666666666666,-0.4,-0.65,-0.0297705513017529,0.05890486225480863,0.01702129191386761
1589987366.880391,-3.7789766122820527,-0.6984649184230796,8.942046775435893,0.32564327894871975,-0.4,-0.65,-0.031745726974913756,0.05912813081984169,0.02888946665890109
1589987366.8903909,-3.7642917162663676,-0.6764375743995519,8.971416567467264,0.31095838293303457,-0.4,-0.65,-0.033347600636080645,0.06233187814217548,0.05211663474582107
1589987366.9003909,-3.7028236653718984,-0.6223530544765818,8.98,0.30666666666666664,-0.4,-0.65,-0.035894744452145175,0.07470263145594723,0.08385274459186924
1589987366.9103909,-3.4525634364803923,-0.59,9.04948731270392,0.30666666666666664,-0.4,-0.65,-0.053968160979356694,0.08016900098293511,0.10813912276879287
1589987366.9203908,-3.2719628669935967,-0.5843925733987194,9.067663661477182,0.30666666666666664,-0.4,-0.65,-0.052329322991795414,0.060444293897040424,0.11672907858313228
1589987366.9303908,-3.0461396253952806,-0.5408392118705911,8.970839211870592,0.3065547717505878,-0.40011189491607885,-0.6502424389848375,-0.025996851151619503,0.02930596102476796,0.1252990698844561
1589987366.9403908,-2.7427108854451765,-0.6054578229109647,9.014847392363011,0.3,-0.4066666666666667,-0.6644444444444444,-0.014428537501867419,0.02072578486743266,0.1127844576127336
1589987366.9503908,-2.5080712166172106,-0.6514910979228486,8.98956231454006,0.3,-0.4066666666666667,-0.6644444444444444,-0.011348524401877075,0.02040047776464069,0.10014603436100251
1589987366.9603908,-2.3583466360616967,-0.6782668196915158,8.86496009181491,0.3,-0.4066666666666667,-0.6644444444444444,-0.0009278899853475079,0.018346356043874565,0.08255113802937057
1589987366.9703908,-2.351053089189142,-0.714734554054289,8.886840732432574,0.3,-0.4066666666666667,-0.6644444444444444,0.009414943089464865,0.027097984030254263,0.0761863176756399
1589987366.9803908,-2.3612226720647773,-0.6727007162877608,8.81,0.2995498806187065,-0.4056914080071975,-0.6644444444444444,0.027123468339337445,0.03912260694679847,0.0754882758268664
1589987366.9903908,-2.248016194331984,-0.7075334786670818,8.81,0.29374442022215297,-0.3931129104813316,-0.6644444444444444,0.025223635867200046,0.03722277447466106,0.07833802453507248
1589987367.0003908,-2.0332638692662712,-1.162103230667797,8.916101299802204,0.2933333333333333,-0.3922222222222223,-0.6644444444444444,0.017281222363309034,0.012584598389542623,0.08863323750711544
1589987367.0103908,-2.117731777666934,-0.9869497516861486,8.65872611741233,0.2933333333333333,-0.3922222222222223,-0.6644444444444444,0.02627257813590931,0.0007349404679971676,0.12510547595685267
1589987367.0203907,-2.2631230504213415,-0.9192192373946646,8.968588388658691,0.2933333333333333,-0.3922222222222223,-0.6644444444444444,0.003085803304402773,-0.0027090225615683202,0.16508882624313803
1589987367.0303907,-2.298704729205892,-0.9091364861372615,9.068272972274523,0.29448468515031806,-0.3922222222222223,-0.6641566064901983,-0.011669456981555332,-0.021439836648894053,0.19676582607100593
1589987367.0403907,-2.2754779045298483,-0.8936519363532321,9.037303872706463,0.31513075152902376,-0.3922222222222223,-0.6589950898955218,-0.005757598736424053,-0.014683427225886874,0.2237914637630346
1589987367.0503907,-2.37,-0.87,8.949340689610473,0.32,-0.3922222222222223,-0.6577777777777778,0.0028409747066204124,-0.014108880565642433,0.2653475218935607
1589987367.0603907,-2.37,-0.87,8.942544558947436,0.32,-0.3922222222222223,-0.6577777777777778,-0.0016070824108449632,-0.013367537712731537,0.2794330360988677
1589987367.0703907,-2.409915458736208,-0.8599154587362079,8.90978864684052,0.32,-0.3922222222222223,-0.6577777777777778,-0.006531151663038409,-0.01743023746670942,0.30002457529299315
1589987367.0803907,-2.3959551665030205,-0.8459551665030205,8.874887916257551,0.32,-0.3922222222222223,-0.6577777777777778,-0.004246904187947351,-0.013623158341557655,0.3076387335432966
1589987367.0903907,-2.3605942046704973,-0.8301980682234992,8.8698019317765,0.3003961364469984,-0.3922222222222223,-0.679559848392224,-0.002203267456515644,-0.01092991371648729,0.31409444768441114
1589987367.1003907,-2.3520316374190324,-0.8379683625809675,8.83812654967613,0.3,-0.3922222222222223,-0.68,-0.007396942678640316,-0.015254375419670728,0.31763611943474424
1589987367.1103907,-2.334147484865348,-0.8191705030269304,8.7190784303806,0.3,-0.3922222222222223,-0.68,-0.007726299560696387,-0.01754377660316449,0.31498366567565433
1589987367.1203907,-2.369511981248208,-0.8120976037503583,8.881755113741757,0.3,-0.3922222222222223,-0.68,-0.00849783318593456,-0.01831531022840266,0.3034106612970817
1589987367.1303906,-2.3709519136408246,-0.7919038272816488,8.966192345436703,0.3,-0.3922222222222223,-0.68,-0.007739653147644138,-0.02249209575174979,0.28813454783859527
1589987367.1403906,-2.337395063801209,-0.7736975319006044,9.027058638347883,0.3,-0.39856207092754276,-0.6618861465562271,-0.005857492074126474,-0.019350799625728138,0.2664377766580576
1589987367.1503906,-2.3236832921331976,-0.7577194513111337,9.04833478745577,0.3,-0.4,-0.6577777777777778,-0.0030237230764096424,-0.014649707777251069,0.2181473864480195
1589987367.1603906,-2.4252837127845885,-0.7388209281961471,8.882358143607707,0.3,-0.4,-0.6577777777777778,-0.001090830782496456,-0.009174393133259927,0.16957876723537255
1589987367.1703906,-2.3889608234429156,-0.7296536078143052,8.901039176557084,0.3,-0.4,-0.6577777777777778,-0.0010530452565992465,-0.004249966552294196,0.12235207633204384
1589987367.1803906,-2.3625289360361306,-0.7208429786787102,8.92747106396387,0.3,-0.4,-0.6577777777777778,-9.195470917252972e-05,-0.001366694910014045,0.0714142773184279
1589987367.1903906,-2.359184896196182,-0.6997282987320607,8.91646788351679,0.2933333333333333,-0.4122222222222222,-0.6644444444444444,-0.003272492347489368,0.0012390208358521817,0.00046265694606649173
1589987367.2003906,-2.334138816457334,-0.6913796054857779,8.807934871315114,0.2933333333333333,-0.4122222222222222,-0.6644444444444444,-0.003272492347489368,0.005792526629184936,-0.052358010256593465
1589987367.2103906,-2.3922700103950105,-0.6907566701316701,8.77302668052668,0.2933333333333333,-0.4122222222222222,-0.6644444444444444,0.004528402944350109,0.013337589111503899,-0.13735561864891044
1589987367.2203906,-2.4195198804573805,-0.6998399601524601,8.809359840609842,0.2933333333333333,-0.4122222222222222,-0.6644444444444444,0.006510069416554234,0.016310088819810085,-0.2017597789955445
1589987367.2303905,-2.4324336884033917,-0.6875663115966082,8.91568635142883,0.2933333333333333,-0.4122222222222222,-0.6644444444444444,0.009935747207575975,0.01568430923492739,-0.25104335322322163
1589987367.2403905,-2.468409751168372,-0.6728975622079071,9.022614626752556,0.2980682918613953,-0.4122222222222222,-0.6794384797833074,0.013548650162337247,0.019145409842140967,-0.33535117129969555
1589987367.2503905,-2.460903594771242,-0.6890964052287581,9.046365468409586,0.3,-0.4122222222222222,-0.6855555555555556,0.016958259726928018,0.0248919741991438,-0.4126473228597009
1589987367.2603905,-2.4408851286741777,-0.7455743566291108,8.940621544090135,0.3,-0.4122222222222222,-0.6855555555555556,0.020532679746579963,0.03323643889483204,-0.5264932209078765
1589987367.2703905,-2.461168651637601,-0.7641124344250674,8.922943782787467,0.3,-0.4122222222222222,-0.6855555555555556,0.02149549876177397,0.040743179306461895,-0.5976236227592505
1589987367.2803905,-2.4281526347668083,-0.77,8.913025439127802,0.3,-0.4122222222222222,-0.6855555555555556,0.02409903535806601,0.04895887728551099,-0.6848197331382898
1589987367.2903905,-2.4297709127296727,-0.7963612169728971,8.929770912729673,0.317574144648598,-0.40856094208709764,-0.681894275420431,0.025807998670871087,0.056301281491501654,-0.7687329240638975
1589987367.3003905,-2.448752953885626,-0.8275059077712511,8.86122341502937,0.32666666666666666,-0.4066666666666667,-0.68,0.02427034047267248,0.06176925971567231,-0.8767816633843466
1589987367.3103905,-2.4423553983291364,-0.8529338050125914,8.796487788303953,0.32666666666666666,-0.4066666666666667,-0.68,0.025666070579422447,0.06718073469579924,-0.9571496815788825
1589987367.3203905,-2.420415944540728,-0.8904159445407279,8.832495667244368,0.32666666666666666,-0.4066666666666667,-0.68,0.03177021022504843,0.07004003263419185,-1.0718707445109152
1589987367.3303905,-2.427613123530724,-0.897613123530724,8.875678741184345,0.32666666666666666,-0.4066666666666667,-0.68,0.034125481541875766,0.07396548482890408,-1.140173612698908
1589987367.3403904,-2.4528562273490677,-0.9717137364094405,8.989428754530186,0.3466666666666667,-0.3977777777777778,-0.7088888888888889,0.04176313580628243,0.08206156154436788,-1.257508048305739
1589987367.3503904,-2.4992000353575534,-0.999520021214532,8.98015999292849,0.3466666666666667,-0.3977777777777778,-0.7088888888888889,0.04681846104165864,0.08610582173266886,-1.342437512260059
1589987367.3603904,-2.5190780125431025,-1.0286170188146537,8.89414894355604,0.3466666666666667,-0.3977777777777778,-0.7088888888888889,0.04690572364734761,0.09241889682248092,-1.4271470574391123
1589987367.3703904,-2.5438760508386786,-1.0777521016773577,8.897958683612893,0.3466666666666667,-0.3977777777777778,-0.7088888888888889,0.04777388135465698,0.10313850899991123,-1.5006226032201
1589987367.3803904,-2.5580448742353865,-1.13826924541232,8.916089748470773,0.3466666666666667,-0.3977777777777778,-0.7088888888888889,0.04711899478411682,0.1093208244850652,-1.5824983033731554
1589987367.3903904,-2.5448233677585215,-1.1424116838792606,8.897235051637782,0.3761767849139862,-0.3792285605937483,-0.7139477663027151,0.047733480528529264,0.112657179675687,-1.6576655918023873
1589987367.4003904,-2.545793773665852,-1.1631750946634085,8.901587547331705,0.3855555555555555,-0.37333333333333335,-0.7155555555555555,0.04736455176369118,0.11534240937809007,-1.720215096661602
1589987367.4103904,-2.5568124495029334,-1.241312045526399,8.807813257456,0.3855555555555555,-0.37333333333333335,-0.7155555555555555,0.04764884660954783,0.11894826261372145,-1.7957184914591215
1589987367.4203904,-2.553449519709833,-1.289651440870501,8.792752401450835,0.3855555555555555,-0.37333333333333335,-0.7155555555555555,0.050854740646104256,0.1221350257368053,-1.8605351392086324
1589987367.4303904,-2.5045120487489614,-1.3379066260425323,8.840325300834026,0.3855555555555555,-0.37333333333333335,-0.7155555555555555,0.05484086043269644,0.1265718555859216,-1.9260414702101112
1589987367.4403903,-2.5370912858975627,-1.3970912858975624,8.890363959340768,0.4034950930403412,-0.3561412765770804,-0.7155555555555555,0.06150306982096523,0.1364332514225543,-2.0062763427964216
1589987367.4503903,-2.579681825236691,-1.4692045630917274,8.870636349526617,0.4122222222222222,-0.3477777777777778,-0.7155555555555555,0.0643590161672909,0.1407171709420428,-2.038762732485876
1589987367.4603903,-2.601857172929165,-1.5282857944777744,8.818999929831948,0.4122222222222222,-0.3477777777777778,-0.7155555555555555,0.06833276234220453,0.14310141864699097,-2.071347451120168
1589987367.4703903,-2.598658889135976,-1.5714752219504269,8.889597666740793,0.4122222222222222,-0.3477777777777778,-0.7155555555555555,0.0611157823200659,0.14739381888821118,-2.160269197596816
1589987367.4803903,-2.526911168511264,-1.6503977146376092,8.868073350553379,0.4122222222222222,-0.3477777777777778,-0.7155555555555555,0.06268107476469373,0.1544376348890364,-2.1829659380439193
1589987367.4903903,-2.470618773498736,-1.695568961488625,8.899381226501264,0.4577777777777778,-0.28,-0.76,0.059793199883360765,0.1541446289219075,-2.2260264038957724
1589987367.5003903,-2.479528219725131,-1.7757539775261806,8.890471780274869,0.4577777777777778,-0.28,-0.76,0.05687759042373617,0.15900397802128177,-2.252266889032394
1589987367.5103903,-2.4499069561364646,-1.781395657953035,8.750372175454142,0.4577777777777778,-0.28,-0.76,0.058894712743761915,0.16148355385366234,-2.284422947790607
1589987367.5203903,-2.441459902525476,-1.9081014621178556,8.784160389898094,0.4577777777777778,-0.28,-0.76,0.05797328213373555,0.16516927629376776,-2.304694421211187
1589987367.5303903,-2.4158996920369558,-1.9782006159260888,8.822133743950726,0.4577777777777778,-0.28,-0.76,0.06570083881043218,0.1701878385717502,-2.3301057339239453
1589987367.5403903,-2.41,-2.017826303968056,8.836956575992014,0.4763286470898151,-0.2483089315919364,-0.7700483875440203,0.07218457685449908,0.17581350119166236,-2.348369065620782
1589987367.5503902,-2.393519010259505,-2.161847917923959,8.823519010259504,0.4844444444444445,-0.2344444444444445,-0.7744444444444445,0.07507539175650602,0.18140101173391032,-2.374687495202533
1589987367.5603902,-2.3717339403136064,-2.199133029843197,8.765201820940819,0.4844444444444445,-0.2344444444444445,-0.7744444444444445,0.07028602894704655,0.18117248166786637,-2.404008411850815
1589987367.5703902,-2.3426358792184723,-2.2638496151568974,8.778242747187685,0.4844444444444445,-0.2344444444444445,-0.7744444444444445,0.07080815758925456,0.1840628724228558,-2.427267443886291
1589987367.5803902,-2.2987107712909567,-2.27,8.796515691483618,0.4844444444444445,-0.2344444444444445,-0.7744444444444445,0.06549925346290632,0.19606068827385487,-2.448196768517379
1589987367.5903902,-2.26,-2.344409041893019,8.800801643980549,0.5244444444444445,-0.20222222222222225,-0.81,0.05772658567925359,0.18993572484397114,-2.47710405709407
1589987367.6003902,-2.26,-2.438281348552361,8.81786933610043,0.5244444444444445,-0.20222222222222225,-0.81,0.055864789284199814,0.19272841943655183,-2.496652919242135
1589987367.6103902,-2.2288527789563006,-2.46557361052185,8.742131947390751,0.5244444444444445,-0.20222222222222225,-0.81,0.0573311872825037,0.19647468325224157,-2.5143826790760406
1589987367.6203902,-2.173566165635131,-2.516433834364869,8.654992631889185,0.5244444444444445,-0.20222222222222225,-0.81,0.05274888588485809,0.20351854633680344,-2.5288585679592246
1589987367.6303902,-2.1515275678875785,-2.5754172963372644,8.699259818966457,0.5244444444444445,-0.20222222222222225,-0.81,0.04900149463052898,0.20062697339753635,-2.537025027053743
1589987367.6403902,-2.1083853261366756,-2.6495183423291557,8.79322934772665,0.5349826690655526,-0.20749133453277632,-0.8310764492422164,0.04863003661878263,0.2088770802429651,-2.5519816010453527
1589987367.6503901,-2.1,-2.693819136417127,8.789708518149723,0.5377777777777778,-0.2088888888888889,-0.8366666666666667,0.052038661615640414,0.2130968100059624,-2.551036597102575
1589987367.6603901,-2.119161657577326,-2.863293260618606,8.665030054536045,0.5377777777777778,-0.2088888888888889,-0.8366666666666667,0.04822517686007549,0.20857730188705453,-2.545091113508417
1589987367.6703901,-2.070898217973966,-2.8012575051635524,8.679640712810412,0.5377777777777778,-0.2088888888888889,-0.8366666666666667,0.040497911486524006,0.2019212712196916,-2.539552042033289
1589987367.6803901,-1.8601574203885438,-2.7067366312837975,8.645026236731423,0.5377777777777778,-0.2088888888888889,-0.8366666666666667,-0.02258751601025699,0.16365323720873776,-2.542633266447842
1589987367.69039,-1.9144015737470381,-2.8725948942638713,9.310736352662405,0.5557901769968654,-0.18931019408553276,-0.8421487012116063,0.048465377084296546,0.19171130319704727,-2.498008149196393
1589987367.70039,-1.9673104703406699,-2.9618276175851674,8.415004549849286,0.5633333333333334,-0.1811111111111111,-0.8444444444444444,0.12293652992503742,0.23896331717376826,-2.441817323983777
1589987367.71039,-1.936652131039772,-3.0300436068806835,8.539131149337132,0.5633333333333334,-0.1811111111111111,-0.8444444444444444,0.03278640297029371,0.16029980052642273,-2.440435095527596
1589987367.72039,-1.8932251913910154,-3.0959685107612307,8.8890362559584,0.5633333333333334,-0.1811111111111111,-0.8444444444444444,0.0014426445873726781,0.1343480931495022,-2.4122838020712423
1589987367.73039,-1.9371218807670705,-3.2178047019176765,8.705805183342695,0.5633333333333334,-0.1811111111111111,-0.8444444444444444,0.05506292875583711,0.17101028486378866,-2.3599566004004844
1589987367.74039,-1.9014287046825444,-3.2985712953174553,8.582000186555563,0.4694288290529196,-0.2070158019470873,-0.795873149126989,0.05815689598261179,0.17577960348661106,-2.3008115780427913
1589987367.75039,-1.8826243117323167,-3.3086878441338414,8.736381194409148,0.4666666666666667,-0.20777777777777776,-0.7944444444444444,0.044546276531696224,0.1528790332265878,-2.2663019021509894
1589987367.76039,-1.8621808484123423,-3.4258244853197746,8.777819151587657,0.4666666666666667,-0.20777777777777776,-0.7944444444444444,0.039626748656893654,0.14458439743456752,-2.2156136663011528
1589987367.77039,-1.8063859999643221,-3.44,8.813508750022299,0.4666666666666667,-0.20777777777777776,-0.7944444444444444,0.052428763532501234,0.14691385337011637,-2.1683534566894953
1589987367.78039,-1.7256107600440604,-3.3901431967070557,8.75748101339208,0.4666666666666667,-0.20777777777777776,-0.7944444444444444,0.06829869297505842,0.15675799285342573,-2.119169906431601
1589987367.79039,-1.6833502972244792,-3.440913911816277,8.535735790959244,0.47834181527890635,-0.12670035685944678,-0.726988030240393,0.06307435217685395,0.1446097896031671,-2.054648938334066
1589987367.80039,-1.6669092341146858,-3.508969744704895,8.572363063541257,0.4866666666666667,-0.06888888888888889,-0.6788888888888889,0.03683047635969974,0.12149874712576494,-2.0020250093351875
1589987367.81039,-1.603490959666203,-3.536509040333797,8.673915159944366,0.4866666666666667,-0.06888888888888889,-0.6788888888888889,0.05031172518657506,0.12757561845527746,-1.9281314027570406
1589987367.82039,-1.3513456200954455,-3.274182025119307,8.720812084423235,0.4866666666666667,-0.06888888888888889,-0.6788888888888889,0.08801878973430699,0.15951249832216735,-1.84222018727231
1589987367.83039,-1.3405142129826049,-3.277380851364729,7.986743317776835,0.4866666666666667,-0.06888888888888889,-0.6788888888888889,0.06237892149529896,0.11501515519482114,-1.7793746191122297
1589987367.84039,-1.4178259759641818,-3.413477927892546,8.53695075013746,0.505813085294862,-0.0008860916921949041,-0.6788888888888889,-0.014702138629456497,0.0647859961764713,-1.7321130072241424
1589987367.85039,-1.400294569314533,-3.487131788356834,8.538759597933828,0.5188888888888888,0.045555555555555564,-0.6788888888888889,0.06049123448170595,0.1068845128431258,-1.6172623221322544
1589987367.86039,-1.42935809272247,-3.6102026596229164,8.540405319245833,0.5188888888888888,0.045555555555555564,-0.6788888888888889,0.047978148709609286,0.09648325741217476,-1.5231535794892415
1589987367.87039,-1.4050519995711375,-3.631262999892784,8.870847003323684,0.5188888888888888,0.045555555555555564,-0.6788888888888889,0.03095657765830245,0.08263894018403756,-1.4282864835858757
1589987367.88039,-1.4146388550308653,-3.703194275154327,8.822166869814806,0.5188888888888888,0.045555555555555564,-0.6788888888888889,0.042519647176029095,0.08420758574045986,-1.3515182803413948
1589987367.89039,-1.3367030667625712,-3.6744687111750474,8.817765644412477,0.5322575324948959,0.11856891678836362,-0.6511232444764126,0.03983861240245231,0.07801768978982826,-1.2508124259250377
1589987367.90039,-1.33,-3.67,8.82,0.5333333333333333,0.12444444444444445,-0.6488888888888888,0.03926990816987242,0.07744898555724837,-1.244637922828456
1589987367.91039,-1.299553560136588,-3.730892879726824,8.713437460478056,0.5333333333333333,0.12444444444444445,-0.6488888888888888,0.04757288662498171,0.06084302864702978,-1.105978182628131
1589987367.92039,-1.2752639179724168,-3.735263917972417,8.694736082027582,0.5333333333333333,0.12444444444444445,-0.6488888888888888,0.046159573022566826,0.054828641312865224,-0.9925447944340476
1589987367.93039,-1.27,-3.7244519592055827,8.738836285560923,0.5333333333333333,0.12444444444444445,-0.6488888888888888,0.04230327260991597,0.05212074965238407,-0.9155199304169238
1589987367.9403899,-1.2646416457286431,-3.693208228643216,8.727133165829144,0.5380963149078727,0.15659457007258515,-0.6524611250697934,0.04036073895236887,0.04842469866002177,-0.8275795002961942
1589987367.9503899,-1.246174674267101,-3.683825325732899,8.726867535287731,0.5422222222222223,0.18444444444444444,-0.6555555555555556,0.035333708656539994,0.04388950546985028,-0.7488716916845588
1589987367.9603899,-1.2219161629016864,-3.679790407254216,8.689161629016862,0.5422222222222223,0.18444444444444444,-0.6555555555555556,0.030334240962157057,0.0399198340349925,-0.6674316514853517
1589987367.9703898,-1.2240992522093814,-3.7063970088375253,8.649895762519828,0.5422222222222223,0.18444444444444444,-0.6555555555555556,0.02753278647368406,0.03209262228712438,-0.5736373316357122
1589987367.9803898,-1.2365654400381088,-3.773434559961891,8.73656544003811,0.5422222222222223,0.18444444444444444,-0.6555555555555556,0.02328209880550165,0.02399827721492203,-0.4964912993898946
1589987367.9903898,-1.2344028066758157,-3.7976112267032627,8.747611226703263,0.5461358281562806,0.19227165631256118,-0.6584907600060994,0.020156103573833534,0.017754745048153227,-0.39743030488256137
1589987368.0003898,-1.2282306387789712,-3.808230638778971,8.722922555115884,0.5511111111111111,0.20222222222222225,-0.6622222222222223,0.01783930725699405,0.011101315193489936,-0.29341189819794156
1589987368.0103898,-1.22,-3.821302253630067,8.679348873184965,0.5511111111111111,0.20222222222222225,-0.6622222222222223,0.014987523285691385,0.005608921258499382,-0.20819916626181684
1589987368.0203898,-1.2146525479814692,-3.829305095962938,8.696737260092654,0.5511111111111111,0.20222222222222225,-0.6622222222222223,0.01090830782496456,-0.0017499495809208533,-0.116148571875253
1589987368.0303898,-1.215746391669682,-3.82,8.708507216660635,0.5511111111111111,0.20222222222222225,-0.6622222222222223,0.009027805548493466,-0.004526160531803431,-0.02686277700945982
1589987368.0403898,-1.2068864561314951,-3.7675458245259805,8.7,0.5729670175586192,0.2328204912487337,-0.6578510409327206,0.007635815477475192,-0.013321715438142822,0.06376361397250997
1589987368.0503898,-1.1715499931233668,-3.74,8.628874982808416,0.5844444444444444,0.2488888888888889,-0.6555555555555556,0.0053082547327301405,-0.017453292519943295,0.1558797338212299
1589987368.0603898,-1.16,-3.7254773098431238,8.665352105705942,0.5844444444444444,0.2488888888888889,-0.6555555555555556,-0.00593384522407052,-0.02220583176027699,0.23573211115824919
1589987368.0703897,-1.1671829052670761,-3.6769025683975434,8.682817094732924,0.5844444444444444,0.2488888888888889,-0.6555555555555556,-0.005116276538618568,-0.027915944301463314,0.3041407723424708
1589987368.0803897,-1.1848059553349874,-3.6797412737799835,8.699741273779983,0.5844444444444444,0.2488888888888889,-0.6555555555555556,-0.006502650716223787,-0.031067510311771525,0.3535724161219279
1589987368.0903897,-1.1862486342114846,-3.7068756828942577,8.702810792764357,0.6142390703195608,0.2523267303360177,-0.6685429565780422,-0.009442466714881078,-0.033099933802480705,0.4056888342385354
1589987368.1003897,-1.1834036794978837,-3.7141490801255292,8.740211038493651,0.6711111111111111,0.2588888888888889,-0.6933333333333334,-0.013194300713466906,-0.04147459046338201,0.47888548583501805
1589987368.1103897,-1.2056416876703346,-3.6592248109669883,8.727941435626319,0.6711111111111111,0.2588888888888889,-0.6933333333333334,-0.018824112367859528,-0.048136548962553954,0.5305665603230089
1589987368.1203897,-1.2269979171234378,-3.6313319447489585,8.646004165753125,0.6711111111111111,0.2588888888888889,-0.6933333333333334,-0.01701741462011874,-0.05094157033599748,0.572974474011319
1589987368.1303897,-1.2128258834785863,-3.5910865902614555,8.652608939825695,0.6711111111111111,0.2588888888888889,-0.6933333333333334,-0.014773647428227996,-0.051174183048281745,0.6121696655232749
1589987368.1403897,-1.1938890185552573,-3.5383329443342277,8.711112148442059,0.8249434006301787,0.3012359798239131,-0.7555576302174505,-0.01781698764721513,-0.05060244211021443,0.6523781027189435
1589987368.1503897,-1.2218703241895261,-3.5112518703241897,8.738129675810475,1.0666666666666669,0.36777777777777776,-0.8533333333333334,-0.023248025020875838,-0.05365472906224463,0.7127156459127443
1589987368.1603897,-1.2689788044295236,-3.537957608859047,8.686276494463096,1.0666666666666669,0.36777777777777776,-0.8533333333333334,-0.026641807803921305,-0.05775833389415092,0.7814341793312957
1589987368.1703897,-1.2980258874889903,-3.584012943744495,8.67605177497798,1.0666666666666669,0.36777777777777776,-0.8533333333333334,-0.0296748331143844,-0.060655839280777356,0.8478896963138104
1589987368.1803896,-1.3354664838267323,-3.602733241913366,8.691511172057755,1.0666666666666669,0.36777777777777776,-0.8533333333333334,-0.03117109895106143,-0.06558315409147342,0.923783154492935
1589987368.1903896,-1.37,-3.6251804091754494,8.700721636701797,1.1296949783013022,0.17552703726665284,-0.9710437418199352,-0.03139090437907687,-0.07098271921507968,0.9837114701651074
1589987368.2003896,-1.375736295234683,-3.6227911142959512,8.748527409530634,1.31,-0.3744444444444445,-1.3077777777777777,-0.029435625063754238,-0.07807471829919635,1.065554853605439
1589987368.2103896,-1.411208549222798,-3.6037582901554406,8.690066321243524,1.31,-0.3744444444444445,-1.3077777777777777,-0.028222533550071975,-0.07990154618651618,1.1210597381897005
1589987368.2203896,-1.43,-3.5778795452713053,8.67659034104652,1.31,-0.3744444444444445,-1.3077777777777777,-0.030658914774448286,-0.08434092884586966,1.163444598826154
1589987368.2303896,-1.4257418896213,-3.525935116970402,8.6942581103787,1.31,-0.3744444444444445,-1.3077777777777777,-0.03024062932949122,-0.08819543817498714,1.1973241774304888
1589987368.2403896,-1.42,-3.474883705364613,8.746046651718483,0.9808517117901008,-0.1925317462973499,-1.0405935023742325,-0.02891970151296802,-0.09223863000501022,1.2357844918120304
1589987368.2503896,-1.42,-3.4900125856114266,8.769987414388574,0.6666666666666666,-0.01888888888888889,-0.7855555555555556,-0.029015824238958515,-0.09533888496563746,1.2655895619649102
1589987368.2603896,-1.421576249641202,-3.5196059375896995,8.734483126255792,0.6666666666666666,-0.01888888888888889,-0.7855555555555556,-0.0287484702115504,-0.09607907994116424,1.284810527353828
1589987368.2703896,-1.4406732073896253,-3.553485283373343,8.614495094457782,0.6666666666666666,-0.01888888888888889,-0.7855555555555556,-0.037124964372059865,-0.097647713917023,1.3131399555226508
1589987368.2803895,-1.4295087952919951,-3.6095087952919953,8.701315964689963,0.6666666666666666,-0.01888888888888889,-0.7855555555555556,-0.03547879149193476,-0.09708393964218458,1.3178307494989185
1589987368.2903895,-1.4336123669243108,-3.62,8.754449467697244,0.6478586359438043,0.029018359178779197,-0.7667475248326933,-0.03351301968263576,-0.09673554830287187,1.308225705565159
1589987368.3003895,-1.4271379323701436,-3.625353449277608,8.708922415462679,0.6077777777777778,0.13111111111111112,-0.7266666666666667,-0.032100517180446896,-0.09540913813323332,1.2840695732702967
1589987368.3103895,-1.4184440881179279,-3.5744437965780507,8.670665986406952,0.6077777777777778,0.13111111111111112,-0.7266666666666667,-0.035561051707317236,-0.0931327116747049,1.2199122130780882
1589987368.3203895,-1.3746472471443816,-3.499294494288763,8.601618117860953,0.6077777777777778,0.13111111111111112,-0.7266666666666667,-0.029452431127404314,-0.08877032681552846,1.1536463987842238
1589987368.3303895,-1.425532132736082,-3.5787249291525733,8.722128530944328,0.6077777777777778,0.13111111111111112,-0.7266666666666667,-0.028965062413045303,-0.07842372298596638,1.0538838582597045
1589987368.3403895,-1.4498870944168372,-3.5741566793335284,8.738426264250219,0.6077777777777778,0.11735355971288447,-0.7456425996297379,-0.02696438194822511,-0.0735760340699494,0.9585346275001423
1589987368.3503895,-1.4851452182433307,-3.571452182433307,8.780290436486661,0.6077777777777778,0.09888888888888887,-0.7711111111111111,-0.023500384382675352,-0.0633315487967965,0.8480687725173014
1589987368.3603895,-1.3988639107687,-3.3982958661530502,8.72943195538435,0.6077777777777778,0.09888888888888887,-0.7711111111111111,-0.020931558212880307,-0.06197158125685035,0.7481328049585108
1589987368.3703895,-1.3486318167150693,-3.3229477250726043,8.674902272622505,0.6077777777777778,0.09888888888888887,-0.7711111111111111,-0.009474609311381945,-0.046690780754258546,0.6304754018170975
1589987368.3803895,-1.463629241670701,-3.4474516966682804,8.780347255842612,0.6077777777777778,0.09888888888888887,-0.7711111111111111,-0.006047987192210226,-0.03230795831728698,0.5101425394049584
1589987368.3903894,-1.515571017795139,-3.465571017795139,8.870139160156251,0.5935066128954475,0.06296492211612653,-0.777508529851466,-0.009474106805920555,-0.031166145698191514,0.35646141915533713
1589987368.4003894,-1.4835689237911789,-3.412424062824122,8.714275695164716,0.5755555555555556,0.017777777777777778,-0.7855555555555556,0.008197797790520114,-0.011826465487596288,0.1841554243883003
1589987368.4103894,-1.4848742952917873,-3.3849245771750724,8.699597744933719,0.5755555555555556,0.017777777777777778,-0.7855555555555556,0.006599833721067998,-0.004884056459493884,0.025511445498305793
1589987368.4203894,-12.305276884392725,-9.282819425764576,-0.2785495000292393,0.5755555555555556,0.017777777777777778,-0.7855555555555556,-0.3110879589238924,0.9512530484451056,-0.25857658594809685
1589987368.4303894,-10.385426956968427,-7.4854000869324695,-4.491704271545422,0.5755555555555556,0.017777777777777778,-0.7855555555555556,-0.6959714187746885,0.6510549408147877,-2.4646576048293674
1589987368.4403894,-1.8770803964460285,-0.9784044937751493,-0.9041162332226093,0.5556522665418396,0.0586602092654106,-0.7253077617843072,-0.6116327289316669,-0.9588321860966931,-4.853824003942462
1589987368.4503894,-1.5172854732244774,-0.5897168593974886,-0.12,0.5344444444444445,0.10222222222222224,-0.6611111111111111,-0.42499566366033614,-1.112377356757577,-5.335120745646083
1589987368.4603894,-0.37720772168307465,-0.8529436289107662,-0.13286795361384576,0.5344444444444445,0.10222222222222224,-0.6611111111111111,-0.43460478527335417,-0.742099790357627,-5.175297581742604
1589987368.4703894,-0.3102212214584815,-0.8054578494113929,-0.11678241289405072,0.5344444444444445,0.10222222222222224,-0.6611111111111111,-0.41704834321969947,-0.7462418888205854,-4.9763874389151495
1589987368.4803894,2.234170823118325,-1.8805599233522134,4.247076394172515,0.5344444444444445,0.10222222222222224,-0.6611111111111111,-0.4439994513990255,-0.665747026031702,-4.748873668998917
1589987368.4903893,5.874502212077662,-4.1262188970608955,11.202709583791249,0.5344444444444445,0.10222222222222224,-0.6611111111111111,-0.47752075788496323,-0.6257793144523148,-4.61930092662058
1589987368.5003893,1.0306613445136836,0.6054906240128651,1.829286391178244,0.4688888888888889,0.22,-0.7144444444444444,1.6225190223501098,1.7992159104845467,-4.448470424413163
1589987368.5103893,0.5896387213966747,1.3585907106995991,10.598280646870348,0.4688888888888889,0.22,-0.7144444444444444,1.3668786159019561,3.368502876837118,-3.9804777698521234
1589987368.5203893,-1.7747905679603841,0.6250190392763286,8.191116255787762,0.4688888888888889,0.22,-0.7144444444444444,0.3739362345094746,2.6392407506780637,-3.3469401394431797
1589987368.5303893,-1.1747854127579738,0.34825252110694177,3.3153083958724197,0.4688888888888889,0.22,-0.7144444444444444,0.21555547916923107,0.6801047883617349,-2.8430825824787087
1589987368.5403893,0.058764386823653814,-0.9235322132557218,14.698389998677072,0.4565930237685761,0.24318648851258984,-0.6979328541400244,-0.03530761940217758,-0.331528858731701,-2.5202031134819105
1589987368.5503893,2.6854231468390224,-1.5101959200161583,13.67922237931731,0.43,0.2933333333333333,-0.6622222222222223,-0.010718607703023651,-1.3097396557333345,-2.2166578224481643
1589987368.5603893,0.7860518693800284,-1.5449934690014198,6.716746426881212,0.43,0.2933333333333333,-0.6622222222222223,0.05881561340214511,-0.2855300217055634,-1.7864727252734476
1589987368.5703893,0.9737999937847664,-2.2087202834146495,10.736155256533765,0.43,0.2933333333333333,-0.6622222222222223,0.027681928596592055,0.9346828594430241,-1.427361689217842
1589987368.5803893,0.17278055754110078,-2.486962115796998,9.819492494639029,0.43,0.2933333333333333,-0.6622222222222223,-0.016718014873128316,0.8315420988571626,-1.2435852984136098
1589987368.5903893,0.18514635062672907,-2.2794651456675434,7.720791693705386,0.4286326946503182,0.30837369217983307,-0.6727048965697827,-0.11790711279697148,-0.06265006408582938,-1.1972055051419628
1589987368.6003892,0.02,-2.496897685248596,8.644631785600145,0.4266666666666667,0.33,-0.6877777777777778,-0.07899227480018314,0.025515021564140372,-0.9998802571896395
1589987368.6103892,0.04008540987936955,-2.766088975961962,8.136814959936602,0.4266666666666667,0.33,-0.6877777777777778,0.11698908013120307,0.12246263598240723,-0.8200485371920845
1589987368.6203892,-0.005463566262179448,-2.7812505230438163,8.405968079383108,0.4266666666666667,0.33,-0.6877777777777778,0.02750642396183406,-0.02529372435198085,-0.6830185855718895
1589987368.6303892,-0.1044602925983937,-2.477555903622488,8.204317659212851,0.4266666666666667,0.33,-0.6877777777777778,-0.1537427963294336,0.03426823437035489,-0.520720308473307
1589987368.6403892,-0.0834936848068784,-2.771088412703702,8.372050521544972,0.4266666666666667,0.33,-0.6877777777777778,0.08182872186077025,0.02359509115138125,-0.3735834055260274
1589987368.6503892,-0.22362057595075843,-2.947644170880047,9.38867956327398,0.4066666666666667,0.3711111111111111,-0.68,0.001955773985940006,0.03828522696451051,-0.11488141896871026
1589987368.6603892,-0.22163011061993698,-3.093260221239874,9.589153535396266,0.4066666666666667,0.3711111111111111,-0.68,-0.012371847007817367,-0.01478603025529085,0.10322206907333491
1589987368.6703892,-0.24091034814503037,-3.107581624676808,9.300326498707234,0.4066666666666667,0.3711111111111111,-0.68,-0.004855315295189715,0.004532349101153729,0.27233704534740855
1589987368.6803892,-0.22,-2.963151537543341,8.702237253453077,0.4066666666666667,0.3711111111111111,-0.68,-0.055168737373009175,-0.051814896194357675,0.4265323519963607
1589987368.6903892,-0.2248785957044252,-2.8800112119407166,8.263212571388529,0.40720873285604725,0.37544764062615577,-0.6832523971362835,-0.0043103505128897135,-0.036344183899520856,0.6109760755642337
1589987368.7003891,-0.23957429662590657,-3.181273080831085,9.387433691881855,0.40884158851398966,0.3885104858896948,-0.6930495310839377,-0.010722559687095082,-0.06038996830279099,0.729601945287033
1589987368.7103891,-0.27756974041069354,-3.1662553273924834,9.064264819837273,0.4088888888888889,0.3888888888888889,-0.6933333333333334,-0.023437646826320113,-0.06288136520901767,0.92239928255526
1589987368.7203891,-0.2668901579499042,-3.019633859833014,8.314450789749522,0.4088888888888889,0.3888888888888889,-0.6933333333333334,-0.02644603257219703,-0.07492809284856083,1.0432004273765416
1589987368.730389,-0.25880236894055714,-2.9939280543978946,8.225125685457337,0.4088888888888889,0.3888888888888889,-0.6933333333333334,-0.03653826116143876,-0.08183972900038927,1.2026245477245843
1589987368.740389,-0.315108362012836,-3.1836945400427865,8.668255976188261,0.41772331256007195,0.39260864622412384,-0.6914734546657159,-0.027881476518029125,-0.09224049268532002,1.320651610064693
1589987368.750389,-0.3358166136530462,-3.276361022755077,8.967249204795694,0.43,0.3977777777777778,-0.6888888888888889,-0.023245011451305538,-0.09327697490860537,1.4271286147242013
1589987368.760389,1.0461880828876287,-4.538367242723144,8.133373558738947,0.43,0.3977777777777778,-0.6888888888888889,-0.036702921559206625,-0.10362892433716332,1.509554564740534
1589987368.770389,1.266590510012824,-3.5966958666272077,5.365778632731577,0.43,0.3977777777777778,-0.6888888888888889,-0.25612170881007623,-0.15561156835737405,0.4062754645545039
1589987368.780389,-1.4085385169186464,-0.8772174226061915,5.485100791936645,0.43,0.3977777777777778,-0.6888888888888889,-0.4925725324564072,-0.08964131665750574,-2.4424478702078853
1589987368.790389,-1.8673043074473727,-3.8412687953299134,13.489282681761896,0.4339992285315565,0.3933080517719205,-0.6954758535290996,-0.08270711121549948,0.3591773818829892,-5.563870542857634
1589987368.800389,-3.86127713650323,-8.411357619400615,10.319607116382507,0.4488888888888889,0.37666666666666665,-0.72,0.8753236054477105,0.6903615385872223,-5.005020654621729
1589987368.810389,-10.365873221216042,-10.767218628719275,5.289172056921087,0.4488888888888889,0.37666666666666665,-0.72,0.41027843831944744,0.5886582001464165,-2.327370027626662
1589987368.820389,-0.01645381342522595,1.4997728471465241,11.160152079890292,0.4488888888888889,0.37666666666666665,-0.72,-0.15116011414558478,-0.09586012562107513,0.23758422171121404
1589987368.830389,0.6681953435547984,-0.2277030096536059,8.207911981828506,0.4488888888888889,0.37666666666666665,-0.72,-0.024931275127810255,-0.6544261191086654,1.1353604029078137
1589987368.840389,0.6062021880398124,-1.757955293246689,8.362660401414821,0.4358407136263516,0.39107402685238496,-0.72,-0.1785724626192404,-0.19576276056622188,1.3765761357275057
1589987368.850389,-0.22677807824049037,-2.3812078601045608,8.25355615648098,0.3955555555555556,0.4355555555555555,-0.72,-0.13660265241022077,0.18240220638900112,1.5548806199468812
1589987368.860389,0.7717849235961667,-3.1689105293307116,8.099482590453778,0.3955555555555556,0.4355555555555555,-0.72,-0.08430751802680606,-0.14647766133427773,1.6711395859275109
1589987368.870389,2.5250647923085263,-5.045569351767274,8.573517517920452,0.3955555555555556,0.4355555555555555,-0.72,-0.07084896196334942,-0.12593565471110704,1.7653494783717074
1589987368.880389,5.52498766596532,-14.361679242545165,9.000013785097584,0.3955555555555556,0.4355555555555555,-0.72,-0.09788965703180985,-0.12589847654431707,0.5808798963056153
1589987368.890389,0.056791351264293764,-1.7029618296021902,8.947315590272185,0.3962685886079348,0.4346231277178289,-0.7205210626152001,-0.057038248572036966,0.08135210072544495,-1.1732484592250474
1589987368.900389,-2.3483390711726266,-5.027934612051805,7.053643410852713,0.4244444444444445,0.3977777777777778,-0.7411111111111112,0.3116075812395078,0.21405424126481926,-1.1311756823171086
1589987368.910389,-3.879023048089959,-6.888171305526757,8.868239094026638,0.4244444444444445,0.3977777777777778,-0.7411111111111112,-0.053254708521530046,0.053322651646271244,-0.6054868569637015
1589987368.920389,0.5601677637202941,-2.9442494443494613,8.596336553256968,0.4244444444444445,0.3977777777777778,-0.7411111111111112,-0.22150212833517038,-0.020716320059395103,0.27599375575061286
1589987368.930389,4.962665466006303,-7.92392053129221,8.572980639351643,0.4244444444444445,0.3977777777777778,-0.7411111111111112,-0.012563831399975784,-0.2470111039148088,0.896868140003278
1589987368.940389,-0.0991188602213898,-3.503525190454144,9.279287848815185,0.4186591280029557,0.40476836847791015,-0.7329152461523353,-0.07474959372924687,-0.034388854776878,0.3056579797158637
1589987368.950389,-0.614571931130129,-3.0151023238507593,8.420557791834387,0.3977777777777778,0.43,-0.7033333333333334,0.08498480606058137,0.13128458230373602,-0.4028869829276917
1589987368.960389,0.5643544550985153,-4.698631299601932,9.0258162882107,0.3977777777777778,0.43,-0.7033333333333334,-0.017136063208938145,0.0018906768621038128,-0.06503326500160617
1589987368.970389,0.21,-4.39,8.5,0.3977777777777778,0.43,-0.7033333333333334,-0.04581489286485115,-0.10471975511965977,0.1974403716318585
1589987368.9803889,-0.3058111633875108,-4.39,8.538493370402053,0.3977777777777778,0.43,-0.7033333333333334,-0.0063445247096495655,-0.025779018809256607,0.04627725954810777
1589987368.9903889,-0.04840418531192419,-4.612446038431166,8.646383258752303,0.4000828434383317,0.4259218069082507,-0.7067022754526046,-0.005315036377836443,-0.0012185346494391512,-0.01191780725206693
1589987369.0003889,-0.04669155446756426,-4.543420440636474,8.646542227662179,0.4122222222222222,0.4044444444444445,-0.7244444444444444,-0.01524719741355542,-0.005810977078482498,0.0007299353595970776
1589987369.0103889,-0.046645660269263825,-4.557949584646233,8.582670867946147,0.4122222222222222,0.4044444444444445,-0.7244444444444444,-0.0013076220735007645,-0.002473008062156961,0.0010162755763367154
1589987369.0203888,-0.016603019538188275,-4.456793960923624,8.619713587921847,0.4122222222222222,0.4044444444444445,-0.7244444444444444,0.003971941570368979,-0.002192075802037172,-0.0014613838680247813
1589987369.0303888,-0.031526525915723774,-4.4467917850729615,8.689159155494343,0.4122222222222222,0.4044444444444445,-0.7244444444444444,0.009151404458808072,0.0,0.0
1589987369.0403888,-0.0388388918914207,-4.527227810805628,8.733033351348524,0.4122222222222222,0.4044444444444445,-0.7244444444444444,0.005960782899140094,0.0,0.0
1589987369.0503888,-0.03604817925206445,-4.511975910373968,8.645927731121903,0.3977777777777778,0.41,-0.7111111111111111,-0.00020239953313042395,-0.0008752923965586426,0.00021553838593781332
1589987369.0603888,-0.021340883987587003,-4.5193295580062065,8.66798867401862,0.3977777777777778,0.41,-0.7111111111111111,-0.00501535065365733,-7.313387647082514e-05,0.0010176969060256308
1589987369.0703888,-0.054540916271721966,-4.468035597682991,8.610918167456555,0.3977777777777778,0.41,-0.7111111111111111,0.007354761404141929,0.0016195534183263865,-0.00024766856249666756
1589987369.0803888,-0.019193614782966655,-4.511827897970696,8.694892436231685,0.3977777777777778,0.41,-0.7111111111111111,0.006210695428056252,-0.0002228595112816556,0.002070231809352084
1589987369.0903888,-0.07674701550564882,-4.460669319550535,8.662918324719085,0.3977777777777778,0.41,-0.7111111111111111,0.00411799472320107,-0.0016179933145184437,0.00137266490773369
1589987369.1003888,-0.023091412552987828,-4.525453986052236,8.65,0.41012113131865624,0.41,-0.7168080435145935,-0.009777725038702847,-0.002181661564992912,0.00015867239776844047
1589987369.1103888,-0.018195025524891568,-4.546390051049783,8.575414923425326,0.4122222222222222,0.41,-0.7177777777777777,-0.010620893404112952,-0.003575754442358359,-0.002878708003675636
1589987369.1203887,-0.010145472690285188,-4.53029094538057,8.599563581929145,0.4122222222222222,0.41,-0.7177777777777777,-0.0044744033919887835,-6.347443543026215e-05,-0.0011225680002115873
1589987369.1303887,-0.021607335060793303,-4.553570659756827,8.617680685668725,0.4122222222222222,0.41,-0.7177777777777777,0.00929147787383836,-0.0009154977262865413,0.001090830782496456
1589987369.1403887,-0.029967510464420966,-4.5201299581423156,8.709642615108631,0.4122222222222222,0.41,-0.7177777777777777,0.006555616870634322,-3.5440585518622166e-06,0.001090830782496456
1589987369.1503887,-0.02247356379816613,-4.535052872403668,8.694947127596333,0.3963330791294618,0.4258891430927604,-0.7227954019123337,0.005723977865833126,0.0,-0.000551182875794763
1589987369.1603887,-0.04005096324140673,-4.490152889724221,8.669235551378899,0.3911111111111111,0.4311111111111111,-0.7244444444444444,-0.00651162933147738,0.0032613738929889165,-5.559227250225912e-06
1589987369.1703887,-0.047630932157443885,-4.5128927964723315,8.55553601763834,0.3911111111111111,0.4311111111111111,-0.7244444444444444,-0.0015505512770896054,0.0016076812081929912,-0.0008324055696481884
1589987369.1803887,-0.03,-4.4313623283909935,8.70038923668314,0.3911111111111111,0.4311111111111111,-0.7244444444444444,0.0033149514830540846,0.002096743293863479,-0.003272492347489368
1589987369.1903887,-0.03,-4.4958545853926415,8.71881559582647,0.3911111111111111,0.4311111111111111,-0.7244444444444444,0.005324955459341788,-0.0019232646587119284,-0.003272492347489368
1589987369.2003887,-0.03736981811055885,-4.493150909447206,8.679479272442235,0.4044444444444445,0.41,-0.7022222222222222,-0.0023819182983516487,-0.0002869083368567095,-0.001090830782496456
1589987369.2103887,-0.022425667610852795,-4.567871661945736,8.619702670443411,0.4044444444444445,0.41,-0.7022222222222222,-0.00971761102085427,-0.0019170622751906255,-0.001090830782496456
1589987369.2203887,-0.03,-4.4967284366576825,8.543456873315364,0.4044444444444445,0.41,-0.7022222222222222,-0.007799090940791922,-0.0018146822737790604,-0.001090830782496456
1589987369.2303886,-0.03,-4.524991913746631,8.599983827493261,0.4044444444444445,0.41,-0.7022222222222222,0.00067934353718546,-0.0002731487323286274,-0.001090830782496456
1589987369.2403886,-0.039333603786342125,-4.445997565922921,8.694002434077078,0.4044444444444445,0.41,-0.7022222222222222,0.009308629190230138,0.0020362764643534923,0.0009454456818570364
1589987369.2503886,-0.03143919680804927,-4.517047228727557,8.70856080319195,0.4111028469270728,0.41,-0.7098318250595118,0.007949799513533348,0.002181661564992912,0.001090830782496456
1589987369.2603886,-0.04,-4.496714197395449,8.68864228307042,0.4122222222222222,0.41,-0.7111111111111111,0.0025556414222391195,0.001090830782496456,-0.00200244883368035
1589987369.2703886,-0.04,-4.48003337431934,8.580077873411792,0.4122222222222222,0.41,-0.7111111111111111,-0.0010871902090084124,0.001090830782496456,-0.0010896172580004415
1589987369.2803886,-0.041563974410235904,-4.5021801279488205,8.660947820871652,0.4122222222222222,0.41,-0.7111111111111111,0.0028640741368817385,0.0012614339254686626,0.0003412062859444132
1589987369.2903886,-0.04994922031187525,-4.460253898440624,8.719644542183127,0.4122222222222222,0.41,-0.7111111111111111,0.006522827876205917,0.002176122360299707,0.0021705831556065023
1589987369.3003886,-0.05776982573851458,-4.5066189544310875,8.751079302954059,0.40617902442559983,0.41,-0.7275140765590864,0.0014596456408557555,-0.0012085644710890754,-0.0012085644710890754
1589987369.3103886,-0.03,-4.483896495203202,8.697531215349757,0.4044444444444445,0.41,-0.7322222222222222,-0.003442509023949429,-0.002011644888532851,0.002011644888532851
1589987369.3203886,-0.029251445379855967,-4.529251445379856,8.55149710924029,0.4044444444444445,0.41,-0.7322222222222222,-0.005617463196888889,0.0002449639266099152,0.0
1589987369.3303885,-0.020742874530885483,-4.520742874530885,8.568514250938229,0.4044444444444445,0.41,-0.7322222222222222,-0.007473745396310691,0.003029387225742618,0.0
1589987369.3403885,-0.03253799292545526,-4.513731003537272,8.638958961090005,0.4044444444444445,0.41,-0.7322222222222222,-0.002848925455641905,0.0019048094841084288,0.0020515242950714086
1589987369.3503885,-0.023547292945773044,-4.48532093941866,8.737584474689795,0.38890577667100784,0.41,-0.7258239472566895,0.00717884772405894,0.001090830782496456,0.0005804244509672652
1589987369.3603885,-0.02,-4.5036605969588885,8.69479194042926,0.3855555555555555,0.41,-0.7244444444444444,0.005285351927305273,0.001090830782496456,-0.0008603235831665935
1589987369.3703885,-0.039155974102413185,-4.508311948204827,8.573376103590347,0.3855555555555555,0.41,-0.7244444444444444,-0.00018413788606237998,0.004087116300892254,0.0008146239534028859
1589987369.3803885,-0.032102581350374165,-4.494205162700749,8.601589674598502,0.3855555555555555,0.41,-0.7244444444444444,-0.00172294947305469,0.0017788989204037889,-0.001493593427085579
1589987369.3903885,-0.02074650322175075,-4.4714930064435015,8.665520980669495,0.3855555555555555,0.41,-0.7244444444444444,-0.0001628617387036983,0.002100230695641063,-0.0001628617387036983
1589987369.4003885,-0.034382610592126786,-4.47,8.71314783177638,0.42390918380122694,0.41,-0.7196502409137355,0.0023533491549827218,0.002966111283320486,-0.001568899436655148
1589987369.4103885,-0.039305150508457384,-4.500694849491542,8.695483478304972,0.4388888888888889,0.41,-0.7177777777777777,-0.004439119451443494,0.001052932621767621,-0.001090830782496456
1589987369.4203885,-0.02183599110396063,-4.52183599110396,8.573671982207921,0.4388888888888889,0.41,-0.7177777777777777,-0.006544984694978735,-0.00010013778062949532,-0.00079041744060797
1589987369.4303885,-0.039305259868356805,-4.537221039473427,8.612084220394928,0.4388888888888889,0.41,-0.7177777777777777,-0.005711356381403493,-0.001015046390353252,0.002030092780706504
1589987369.4403884,-0.031113107677884333,-4.504452430711537,8.636660676966347,0.4388888888888889,0.41,-0.7177777777777777,0.004118520581285962,-0.00012142121192693805,0.0002428424238538761
1589987369.4503884,-0.014268420439995343,-4.524024211384007,8.68,0.4044444444444445,0.41,-0.7022222222222222,0.006265617230463696,0.00018624497634335953,-0.00037248995268671905
1589987369.4603884,-0.0573448008600645,-4.463982798709903,8.674689601720129,0.4044444444444445,0.41,-0.7022222222222222,0.002982855051939393,0.0019644335933304306,-0.004073685834435848
1589987369.4703884,-0.021125379121416692,-4.518874620878583,8.601125379121417,0.4044444444444445,0.41,-0.7022222222222222,-0.0013363504200204846,-0.0008453111449724274,-0.00012275981876201433
1589987369.4803884,-0.03,-4.51,8.61405045173987,0.4044444444444445,0.41,-0.7022222222222222,-0.0028306566034027813,0.0013117486545397494,-0.0013117486545397494
1589987369.4903884,-0.03,-4.51,8.64406601663834,0.4044444444444445,0.41,-0.7022222222222222,0.00044353361112437536,0.002948843761803328,-0.002948843761803328
1589987369.5003884,-0.014826513358133245,-4.4948265133581335,8.687933716604666,0.414560102205689,0.4057851425994815,-0.7089659940630519,0.001918416097833808,0.0016173217168146642,-0.0007897364014773129
1589987369.5103884,-0.02805861723446894,-4.477960921843687,8.712039078156312,0.4177777777777778,0.4044444444444445,-0.7111111111111111,-0.0011014876964537115,0.0004342009302071314,-0.0013132597045786491
1589987369.5203884,-0.01543828608792646,-4.486374475941383,8.64631485826378,0.4177777777777778,0.4044444444444445,-0.7111111111111111,-0.005951759708105495,0.0017861782404107514,-0.0003954833245821605
1589987369.5303884,-0.016636718541098456,-4.503273437082197,8.623363281458902,0.4177777777777778,0.4044444444444445,-0.7111111111111111,-0.005821031007039219,-0.0007141531867651536,0.0
1589987369.5403883,-0.02746313065976714,-4.517463130659767,8.649852522639069,0.4177777777777778,0.4044444444444445,-0.7111111111111111,0.000244554947744678,-0.002181661564992912,0.0008141012657467082
1589987369.5503883,-0.03,-4.513638364955877,8.672723270088245,0.4177777777777778,0.4129266245032742,-0.7195932911699409,0.002875608298306594,-9.982136505186671e-05,0.0003968840491827743
1589987369.5603883,-0.03776424592602844,-4.51,8.711056983704115,0.4177777777777778,0.4177777777777778,-0.7244444444444444,0.0049663880392862726,0.0036316743201918137,-0.0025408435376953575
1589987369.5703883,-0.04704393400964841,-4.502956065990351,8.642516725893866,0.4177777777777778,0.4177777777777778,-0.7244444444444444,0.0046857799077224625,0.0005214531061867381,-0.0009673703332099162
1589987369.5803883,-0.020471849760840585,-4.51047184976084,8.630943699521682,0.4177777777777778,0.4177777777777778,-0.7244444444444444,-0.0012452432556480067,-0.0009878891337287555,-0.003221021523105518
1589987369.5903883,-0.028694032776601583,-4.518694032776601,8.647388065553203,0.4177777777777778,0.4177777777777778,-0.7244444444444444,-0.003935946355521499,0.0008059129328535724,-0.002324120489814354
1589987369.6003883,-0.021190019817419838,-4.50059500990871,8.68821497027387,0.3977777777777778,0.4,-0.7244444444444444,-0.0010259252700653375,0.0011557362949275744,-0.00012981102486223705
1589987369.6103883,-0.03481628277183977,-4.50740814138592,8.66777557584224,0.3977777777777778,0.4,-0.7244444444444444,-0.00028272791601171904,0.0018989336489811928,-0.0016162057329694739
1589987369.6203883,-0.030380211708792394,-4.5098098941456035,8.600190105854395,0.3977777777777778,0.4,-0.7244444444444444,-0.0011323054460780884,-0.0032102803521169196,-2.0737331790816184e-05
1589987369.6303883,-0.04850205227910996,-4.500748973860445,8.609251026139555,0.3977777777777778,0.4,-0.7244444444444444,-0.003109091599037642,-0.0002451011226775896,-0.0010091304082705927
1589987369.6403883,-0.018087585792191094,-4.531912414207809,8.657868621311714,0.3977777777777778,0.4,-0.7244444444444444,-0.002402216253447988,0.0,-0.001090830782496456
1589987369.6503882,-0.02418024843626112,-4.525819751563739,8.67709012421813,0.41195802621403893,0.4031511663191692,-0.7346857349817442,0.00013857615966521818,0.0,-0.0018642433573824993
1589987369.6603882,-0.03534520287994642,-4.509309594240107,8.69603560863984,0.4177777777777778,0.4044444444444445,-0.7388888888888889,0.003423115518550161,0.0,-0.002181661564992912
1589987369.6703882,-0.026735381721272926,-4.5,8.650309217745727,0.4177777777777778,0.4044444444444445,-0.7388888888888889,0.006901099306132344,0.0021704180904750974,-0.002181661564992912
1589987369.6803882,-0.049427336098120535,-4.509809112032706,8.639618224065414,0.4177777777777778,0.4044444444444445,-0.7388888888888889,0.0022857748003586873,6.246794121946529e-05,-0.001111653429569611
1589987369.6903882,-0.05,-4.51,8.665095616238554,0.4177777777777778,0.4044444444444445,-0.7388888888888889,-0.0014683478615048315,0.0,-0.002003333139120892
1589987369.7003882,-0.03135824550782862,-4.519320877246085,8.679320877246086,0.4053499414496636,0.4096227095811587,-0.7254253995334318,-0.002181661564992912,-0.003050249945970319,0.0018853383629675135
1589987369.7103882,-0.04594047811339041,-4.52,8.66405952188661,0.4044444444444445,0.41,-0.7244444444444444,0.0004265930670766813,0.0028134351273396817,0.0013122433543030477
1589987369.7203882,-0.03076172856884313,-4.513587242856281,8.615110699993966,0.4044444444444445,0.41,-0.7244444444444444,0.001090830782496456,0.0029642765513772863,0.001090830782496456
1589987369.7303882,-0.04786670134974999,-4.496066649325125,8.624833376687187,0.4044444444444445,0.41,-0.7244444444444444,0.001090830782496456,-9.817760792780019e-05,-0.00042906199945068574
1589987369.7403882,-0.0326788584336041,-4.503660570783198,8.653660570783199,0.4044444444444445,0.41,-0.7244444444444444,-0.0011443748850211509,-0.001090830782496456,-0.0018358993383356583
1589987369.7503881,-0.010024447421299397,-4.51001222371065,8.68,0.4122222222222222,0.41,-0.7022222222222222,0.0010948309824523623,-0.001092164182481758,1.3333999853020978e-06
1589987369.7603881,-0.024070997990622907,-4.517035498995311,8.68,0.4122222222222222,0.41,-0.7022222222222222,0.003393192444789043,-0.0018582846699273182,0.0007674538874308623
1589987369.7703881,-0.039379329025267966,-4.52,8.614344696823125,0.4122222222222222,0.41,-0.7022222222222222,0.0033401970479933468,-0.00013540940100795684,-0.0009554213814884991
1589987369.780388,-0.02383724657424473,-4.487674493148489,8.642325506851511,0.4122222222222222,0.41,-0.7022222222222222,0.003272492347489368,0.0017630828966713895,-0.001090830782496456
1589987369.790388,-0.035462080496835066,-4.48,8.68092416099367,0.4122222222222222,0.41,-0.7022222222222222,0.0015858410107507893,0.002181661564992912,-0.001090830782496456
1589987369.800388,-0.04,-4.498277280153231,8.69,0.3929295376160341,0.41,-0.7296381424520684,-0.000902911198649114,-0.0008089514067254437,-0.002087701773069241
1589987369.810388,-0.03,-4.52,8.708927644125826,0.3911111111111111,0.41,-0.7322222222222222,8.998144594936414e-06,-0.0010818326379015196,-0.0021726634203979756
1589987369.820388,-0.03,-4.52,8.583641230670251,0.3911111111111111,0.41,-0.7322222222222222,0.0010602771940250702,-3.0553588471385774e-05,-0.0011213843709678417
1589987369.830388,-0.03997941580082337,-4.52,8.629897079004117,0.3911111111111111,0.41,-0.7322222222222222,0.001090830782496456,0.0010885853946869652,-0.002179416177183421
1589987369.840388,-0.032103267431331114,-4.527896732568669,8.669483662843344,0.3911111111111111,0.41,-0.7322222222222222,-0.0006319690109128087,0.00022943088579182366,-0.0039044613584021766
1589987369.850388,-0.0575134764868809,-4.502486523513119,8.670828841171039,0.39722521699708463,0.41,-0.7047087457353413,-0.0020912490186758602,0.0030012547085382134,-0.000361650185268206
1589987369.860388,-0.05207704447052159,-4.539614777647392,8.646231133411565,0.3977777777777778,0.41,-0.7022222222222222,-0.001317401187002356,0.0006797112135177004,-0.0017285207559811118
1589987369.870388,-0.02670380584666299,-4.526703805846663,8.599231660231661,0.3977777777777778,0.41,-0.7022222222222222,-0.0004555256400596066,0.0006353051424368494,-0.0009110512801192132
1589987369.880388,-0.033632788496989065,-4.51,8.609387980828314,0.3977777777777778,0.41,-0.7022222222222222,0.002577937316874382,-0.001487106534377926,0.0017186248779162549
1589987369.890388,-0.03421981132075472,-4.498439622641509,8.65468113207547,0.3977777777777778,0.41,-0.7022222222222222,0.002641971573493539,-0.0015511407909970833,0.002181661564992912
1589987369.900388,-0.03548973287297837,-4.49,8.707448664364891,0.40875724352373455,0.41,-0.7107618066912996,0.00158282460444016,0.00010684313860904776,-0.0008125232377708476
1589987369.910388,-0.034345911588459406,-4.501308176823081,8.71869182317692,0.4177777777777778,0.41,-0.7177777777777777,-0.00014269995475653862,-0.00014269995475653862,-0.003272492347489368
1589987369.920388,-0.02237538632221254,-4.525249227355575,8.603255408510975,0.4177777777777778,0.41,-0.7177777777777777,-0.00025911445205904803,-0.004417696104246088,-0.003272492347489368
1589987369.930388,-0.03860036737122604,-4.483499081571935,8.644401469484905,0.4177777777777778,0.41,-0.7177777777777777,0.0010144926647138023,-0.0003816905889132685,-0.00022901435334796074
1589987369.940388,-0.03277916820022083,-4.487220831799779,8.664441663599558,0.4177777777777778,0.41,-0.7177777777777777,0.0018785013427392962,0.0,0.0
1589987369.950388,-0.03,-4.507287775344583,8.678643887672292,0.4235403695593056,0.40519784018206023,-0.71201518599625,-0.0006470440610202959,0.0,0.002828705626013208
1589987369.960388,-0.04846982231142004,-4.51923491115571,8.652295266532871,0.4244444444444445,0.4044444444444445,-0.7111111111111111,-0.002098203318723297,0.0010073725362268412,-0.0007569977974179968
1589987369.970388,-0.0356961768770152,-4.52,8.592784707508061,0.4244444444444445,0.4044444444444445,-0.7111111111111111,-0.002181661564992912,0.00031067825399963545,0.00046947427449718507
1589987369.980388,-0.002372126986334714,-4.52,8.616046455022774,0.4244444444444445,0.4044444444444445,-0.7111111111111111,0.003845805302648933,-0.0010045778112736407,0.001090830782496456
1589987369.990388,-0.02251063990769289,-4.504992906728205,8.657517733179487,0.4244444444444445,0.4044444444444445,-0.7111111111111111,0.004363323129985824,-0.001090830782496456,-0.0005461891471705163
1589987370.000388,-0.03,-4.5,8.703228332803516,0.4078302780426874,0.38875328728722935,-0.740647406936457,-0.0019798123178084246,-0.001090830782496456,-0.0001846685756687062
1589987370.010388,-0.037369549678341676,-4.507369549678342,8.687891350964975,0.4044444444444445,0.3855555555555555,-0.7466666666666667,-0.0016647060190349775,0.0005169555459579344,0.0008038931642271952
1589987370.020388,-0.02371957538582192,-4.51,8.614878301543287,0.4044444444444445,0.3855555555555555,-0.7466666666666667,-0.0028667496146223,0.0028667496146223,0.001978790198559378
1589987370.0303879,-0.04047500289989561,-4.516825000966631,8.634125004833159,0.4044444444444445,0.3855555555555555,-0.7466666666666667,-0.003272492347489368,0.002528000232992357,0.002181661564992912
1589987370.0403879,-0.02744237951075067,-4.508721189755375,8.666918215366938,0.4044444444444445,0.3855555555555555,-0.7466666666666667,-0.0014270013367734227,0.0015664978947542635,0.0009513342245156152
