time,acc_x,acc_y,acc_z,mag_x,mag_y,mag_z,gyr_x,gyr_y,gyr_z
1589987585.4418778,-3.87,-0.76,8.84,0.2966666666666667,-0.38,-0.6311111111111111,-0.001090830782496456,-0.001090830782496456,0.002181661564992912
1589987585.4518778,-3.864186365767093,-0.774186365767093,8.944534085582267,0.2966666666666667,-0.38,-0.6311111111111111,-0.002181661564992912,-0.000634169117943011,-0.0034120694530713072
1589987585.4618778,-3.8501426371124357,-0.7601426371124356,8.979643407218912,0.2966666666666667,-0.38,-0.6311111111111111,-0.002181661564992912,-0.0021661022696958018,-0.0011141697254421212
1589987585.4718778,-3.8595857948888153,-0.7769428034074566,8.97917158977763,0.26222222222222225,-0.3855555555555555,-0.6233333333333333,0.0007573423673674918,-0.001802990381309166,-0.003272492347489368
1589987585.4818778,-3.848193286998913,-0.79,8.92771006950163,0.26222222222222225,-0.3855555555555555,-0.6233333333333333,0.002181661564992912,-0.00019708181567222453,-0.0019318688972530206
1589987585.4918778,-3.8553506242136844,-0.7853506242136843,8.937896254717895,0.26222222222222225,-0.3855555555555555,-0.6233333333333333,0.003195998010414275,0.0005836625597857744,0.0
1589987585.5018778,-3.843380245827643,-0.7733802458276429,8.983239508344715,0.26222222222222225,-0.3855555555555555,-0.6233333333333333,0.005085426292362473,0.00036105158118832493,0.00036105158118832493
1589987585.5118778,-3.842584193766284,-0.76,9.013146048441572,0.26851431910536416,-0.3799625805483182,-0.6233333333333333,0.004829081453333425,0.0017771920791545804,0.0017771920791545804
1589987585.5218778,-3.8650211560395893,-0.7550211560395894,9.010042312079179,0.2822222222222222,-0.36777777777777776,-0.6233333333333333,0.0005477231571702099,0.0016431694715106297,0.002729384722163122
1589987585.5318778,-3.866716354141942,-0.7768654165677664,8.939552812722525,0.2822222222222222,-0.36777777777777776,-0.6233333333333333,0.0,-0.0007326405844177478,-1.6260188260331515e-05
1589987585.5418777,-3.863771548858852,-0.79,8.922456902282295,0.2822222222222222,-0.36777777777777776,-0.6233333333333333,-0.0013588372464078387,-0.0004114121592925366,0.0002680064639113827
1589987585.5518777,-3.8552551214682813,-0.7852551214682812,8.958469271190314,0.2822222222222222,-0.36777777777777776,-0.6233333333333333,-0.001664075608832363,-0.0015527578684816472,0.000573244826335907
1589987585.5618777,-3.85,-0.7764929570576152,8.993507042942385,0.28456025085047876,-0.37635054941471846,-0.6260610333996326,0.00043940537633966616,-0.0036550513871983987,0.0
1589987585.5718777,-3.85,-0.7603453034342167,9.0,0.2888888888888889,-0.3922222222222223,-0.6311111111111111,0.003272492347489368,-0.004363323129985824,0.0
1589987585.5818777,-3.853884073011416,-0.75,8.968927415908675,0.2888888888888889,-0.3922222222222223,-0.6311111111111111,0.004967238908415734,-0.0035159498495226406,-0.00042368664023159153
1589987585.5918777,-3.8606625779920587,-0.751325155984118,8.922650311968235,0.2888888888888889,-0.3922222222222223,-0.6311111111111111,0.007563539430520928,-0.0018925573771758563,-0.0010185547355421921
1589987585.6018777,-3.864948935825848,-0.7725255320870762,8.975153192522457,0.2888888888888889,-0.3922222222222223,-0.6311111111111111,0.006544984694978735,0.0024571543792694306,0.0
1589987585.6118777,-3.851371854009873,-0.7793140729950635,9.015884437970382,0.2888888888888889,-0.3922222222222223,-0.6311111111111111,0.006544984694978735,0.0031976693183363375,0.0
1589987585.6218777,-3.8528464784160987,-0.77,9.02007465108731,0.2888888888888889,-0.3744444444444445,-0.6233333333333333,0.007325312849675973,-0.0029619897196901494,-0.0007803281546972375
1589987585.6318777,-3.86,-0.77,8.926393276574776,0.2888888888888889,-0.3744444444444445,-0.6233333333333333,0.0039023426818652128,-0.0016531331623702073,0.0015855852078681138
1589987585.6418777,-3.8559485705270906,-0.7618971410541815,8.88810285894582,0.2888888888888889,-0.3744444444444445,-0.6233333333333333,-0.000676938810368666,-0.0019747155789290173,0.0015047227546242461
1589987585.6518776,-3.85,-0.7565278004239361,8.915231534322517,0.2888888888888889,-0.3744444444444445,-0.6233333333333333,-0.0035098498689701313,-0.003035134826008605,-0.0008534732610156928
1589987585.6618776,-3.85,-0.78,8.98073194614443,0.2871002311981504,-0.3774255405956753,-0.6272087583299333,-0.004655991560246807,-0.0010109878439489798,-0.00029266843026098303
1589987585.6718776,-3.852193457538995,-0.7821934575389948,9.01,0.2822222222222222,-0.3855555555555555,-0.6377777777777778,-0.00497561571175539,0.0026601997657198016,-0.00037302348140612123
1589987585.6818776,-3.855678285094528,-0.7856782850945282,8.971104565850753,0.2822222222222222,-0.3855555555555555,-0.6377777777777778,-0.001858214451870651,0.004363323129985824,0.0026530875301991512
1589987585.6918776,-3.8586091106780764,-0.775695444660962,8.94152277669519,0.2822222222222222,-0.3855555555555555,-0.6377777777777778,0.0,0.004363323129985824,0.0018638299068547005
1589987585.7018776,-3.87,-0.7614870992963253,8.982769351055513,0.2822222222222222,-0.3855555555555555,-0.6377777777777778,-0.001392920120385623,0.004363323129985824,0.0004643067067952077
1589987585.7118776,-3.862274950023066,-0.7422749500230663,8.992274950023067,0.2847972388812001,-0.3834097083397406,-0.632198575016659,-0.0020084840008149415,0.0026779786677532556,-0.0005945136797361125
1589987585.7218776,-3.8555331303319322,-0.7576656516596623,8.946801218008405,0.2888888888888889,-0.38,-0.6233333333333333,-0.003017854444818378,-0.0012071417779273511,-0.001461779680598341
1589987585.7318776,-3.854390419217214,-0.7631712576516416,8.869513772954924,0.2888888888888889,-0.38,-0.6233333333333333,-0.007901795270387748,0.0008778901323889241,-0.0024476413579054682
1589987585.7418776,-3.859385657175492,-0.7687713143509831,8.867542628701967,0.2888888888888889,-0.38,-0.6233333333333333,-0.010841293418566596,0.0017367677833416285,-0.0038514149419365774
1589987585.7518775,-3.872357356468185,-0.79,8.926501495277293,0.2888888888888889,-0.38,-0.6233333333333333,-0.011999138607461015,0.0012857385004064687,-0.0030153446474080743
1589987585.7618775,-3.8785669025552956,-0.79,8.96996831788707,0.2888888888888889,-0.38,-0.6233333333333333,-0.011999138607461015,0.004672520508982021,-0.0023379882456929634
1589987585.7718775,-3.8520738012149414,-0.7837785963551764,9.041704795140236,0.27,-0.38,-0.6311111111111111,-0.010003441344149998,0.003046275727285728,-0.001090830782496456
1589987585.7818775,-3.8714957528277805,-0.7676638352185203,8.983176576735179,0.27,-0.38,-0.6311111111111111,-0.004872995221310254,0.0025996589334100323,-0.0006728334140793356
1589987585.7918775,-3.8850284060456644,-0.775028406045664,8.957400578840176,0.27,-0.38,-0.6311111111111111,-0.001097028020300327,0.0019167004166236365,0.0
1589987585.8018775,-3.8700418051238077,-0.7600418051238075,9.009853682066673,0.27,-0.38,-0.6311111111111111,0.002172541101809856,-0.0021702609860140935,0.0
1589987585.8118775,-3.8518794418122595,-0.7637588836245188,9.001879441812259,0.27355005675649,-0.3789558656598559,-0.6296493230349093,0.001976646266720564,-0.006544984694978735,-0.001976646266720564
1589987585.8218775,-3.8596420639620965,-0.7792841279241931,9.009642063962096,0.2882127874839602,-0.3746432977988353,-0.6236117280294804,0.0011298755473274477,-0.006544984694978735,-0.0011298755473274477
1589987585.8318775,-3.86,-0.7671829923817627,8.946195908581151,0.2888888888888889,-0.3744444444444445,-0.6233333333333333,0.0012597979776428094,-0.0012597979776428094,-0.0007835429200464218
1589987585.8418775,-3.858045897362736,-0.7619541026372642,8.867816410549056,0.2888888888888889,-0.3744444444444445,-0.6233333333333333,-0.000877671251607938,0.0013039903133849739,0.0
1589987585.8518775,-3.8536480736055205,-0.7663519263944796,8.90729614721104,0.2888888888888889,-0.3744444444444445,-0.6233333333333333,-0.0007958861971429002,0.002181661564992912,0.0003979430985714501
1589987585.8618774,-3.86,-0.7626342403082109,8.926585600770528,0.2899133156754154,-0.37356636434170754,-0.6243577601198598,-0.002181661564992912,0.0024690126066618558,0.0006598042199930405
1589987585.8718774,-3.852668026645966,-0.776334013322983,8.984663946708068,0.2966666666666667,-0.36777777777777776,-0.6311111111111111,-0.0029814557880953087,0.003963426018434625,-0.0005820731187881185
1589987585.8818774,-3.8444844838298287,-0.7722422419149145,8.98533533893594,0.2966666666666667,-0.36777777777777776,-0.6311111111111111,-0.0031403698786895617,0.0035170829977486206,0.0016924802644744071
1589987585.8918774,-3.86,-0.78,8.925748810477224,0.2966666666666667,-0.36777777777777776,-0.6311111111111111,0.002027083951870505,0.005299576299359872,0.0
1589987585.9018774,-3.86,-0.7765296123544859,8.970411162936543,0.2966666666666667,-0.36777777777777776,-0.6311111111111111,0.0028939317803971555,0.006544984694978735,0.0015142422683688506
1589987585.9118774,-3.8581752596949244,-0.77,8.988175259694925,0.2952474242071636,-0.3710217605423563,-0.6349633406440481,0.002181661564992912,0.005947839826527262,0.0037661782615343504
1589987585.9218774,-3.85,-0.77,8.98,0.2888888888888889,-0.3855555555555555,-0.6522222222222223,0.0014843933699151069,0.003411945986504929,0.001230284421512017
1589987585.9318774,-3.8592893012578315,-0.7792893012578316,8.928908843081926,0.2888888888888889,-0.3855555555555555,-0.6522222222222223,-0.006312409075467082,0.006896587069967252,0.0026883143529891976
1589987585.9418774,-3.8730375262217387,-0.79,8.888225157330432,0.2888888888888889,-0.3855555555555555,-0.6522222222222223,-0.010148819752999388,0.011805533305655803,0.002941149636958085
1589987585.9518774,-3.8795549685339132,-0.79,8.92732981120348,0.2888888888888889,-0.3855555555555555,-0.6522222222222223,-0.010859762422725886,0.016071189324014794,0.002230206967231586
1589987585.9618773,-3.887348188296698,-0.7586740941483489,8.945303623406604,0.2888888888888889,-0.38319838959706465,-0.6483918275396746,-0.012077532147586225,0.015639292278610235,0.006834252478513377
1589987585.9718773,-3.8705086821238583,-0.7502543410619291,8.978982635752283,0.2888888888888889,-0.36822993966565176,-0.6240680964011286,-0.005648364054205878,0.011047029354767129,0.008671157648050619
1589987585.9818773,-3.8342701525054466,-0.6571895424836601,8.938540305010893,0.2888888888888889,-0.36777777777777776,-0.6233333333333333,-0.004204095107268476,0.01043656510094376,0.019328380727764
1589987585.9918773,-3.818880439948401,-0.7044782402063955,8.916717360309594,0.2888888888888889,-0.36777777777777776,-0.6233333333333333,-0.0009687057257827174,0.005812234354696304,0.025952278122341847
1589987586.0018773,-3.806622150882825,-0.74675569823435,8.99026709470305,0.2888888888888889,-0.36777777777777776,-0.6233333333333333,-0.00036846617956429244,0.0011053985386928775,0.045136231530508254
1589987586.0118773,-3.782530885762378,-0.7669876456950487,9.033493822847523,0.2888888888888889,-0.37204800570252977,-0.6190631054085813,-0.001090830782496456,0.004415843200690071,0.04854870804916087
1589987586.0218773,-3.8683231881906295,-0.8664669452162294,9.067305351120915,0.2888888888888889,-0.38,-0.6111111111111112,-0.0015872560746559177,0.008034260571457121,0.028048086846559864
1589987586.0318773,-3.9948704759688116,-0.9019171418596532,8.978963807750494,0.2888888888888889,-0.38,-0.6111111111111112,0.0011190885425550745,0.009404883279024607,0.0033346695751475513
1589987586.0418773,-3.872729648124492,-0.79294758642047,8.821266209886579,0.2888888888888889,-0.38,-0.6111111111111112,0.005258857494371874,0.008083582659668216,-0.0015838856205648132
1589987586.0518773,-3.610873889123995,-0.8043689166314008,8.933106749894202,0.2888888888888889,-0.38,-0.6111111111111112,0.0013873701070441329,0.005750693237029957,0.0245383838655868
1589987586.0618773,-3.4066115955019556,-0.8280359762059973,9.00214390482399,0.2875795396928872,-0.38,-0.6135115846371143,-0.0028440088250786637,0.0008765890212911037,0.040478470811187044
1589987586.0718772,-3.2580502692998206,-0.8170125673249551,8.966016756433275,0.2822222222222222,-0.38,-0.6233333333333333,-0.001090830782496456,0.0,0.014180800172453925
1589987586.0818772,-3.023670230107933,-0.8365425468023406,8.943297870514954,0.2822222222222222,-0.38,-0.6233333333333333,-0.006167835057273962,-0.004714361112293397,-0.0035887147892673475
1589987586.0918772,-2.7668306096384914,-0.9260382620481143,8.954945395782834,0.2822222222222222,-0.38,-0.6233333333333333,-0.017572505736275237,-0.016341593027504635,-0.04834523816108541
1589987586.1018772,-2.7385520022750187,-0.8560543936299475,8.778289599544996,0.2822222222222222,-0.38,-0.6233333333333333,-0.038537395319239144,-0.04592938765497901,-0.15567289779871432
1589987586.1118772,-2.7830548940776247,-0.7063961651461265,8.812768517086749,0.28052505884576395,-0.3820365960517499,-0.6212967372815834,-0.08399137263446763,-0.07163035551134746,-0.159050414911828
1589987586.1218772,-2.397182787361892,-0.8226315177359953,9.223498352393875,0.2766666666666667,-0.38666666666666666,-0.6166666666666667,-0.03751379536100517,-0.0003782702597181914,-0.11897823919005696
1589987586.1318772,-1.748338932689548,-1.0652519710296624,9.409447605220063,0.2766666666666667,-0.38666666666666666,-0.6166666666666667,0.1012074321156031,0.1323529133528791,-0.06674752545819675
1589987586.1418772,-1.741257913662992,-0.746606114834636,8.00032481893539,0.2766666666666667,-0.38666666666666666,-0.6166666666666667,0.17458727060890314,0.1338977520580012,-0.03507833200319357
1589987586.1518772,-1.9684850285171103,-0.6884850285171102,8.337082937262357,0.2766666666666667,-0.38666666666666666,-0.6166666666666667,-0.06357549999806666,-0.032811894417747185,-0.05017821599483697
1589987586.1618772,-2.211971899381657,-0.8941869273851533,9.464775810158956,0.28021909993129523,-0.38311423340203815,-0.6166666666666667,-0.053798415289280276,-0.05348136136182218,-0.03939838246126165
1589987586.1718771,-2.292281704900107,-0.8640280656992505,9.206787935394217,0.2888888888888889,-0.3744444444444445,-0.6166666666666667,0.019342969172656706,0.021180486137636102,-0.014583341754923347
1589987586.1818771,-2.297059138437706,-0.8305860309360549,8.948806524363851,0.2888888888888889,-0.3744444444444445,-0.6166666666666667,-0.004108202865992838,-0.0007072744317701482,-0.017710164693409955
1589987586.1918771,-2.3,-0.8290845606262999,8.896328266346528,0.2888888888888889,-0.3744444444444445,-0.6166666666666667,-0.01705712143089777,-0.014478200546762321,-0.01963495408493621
1589987586.201877,-2.3,-0.8787288006628228,9.17291760369287,0.2888888888888889,-0.3744444444444445,-0.6166666666666667,-0.01318901677336333,-0.015251821478269211,-0.01963495408493621
1589987586.211877,-2.33,-0.8518318798228391,8.898092781151545,0.2896012865977708,-0.376072782064746,-0.6172772932742797,0.015854675799473625,0.016953724794796524,-0.016370679950273283
1589987586.221877,-2.333006395397548,-0.8724051163180384,8.790221744351662,0.2966666666666667,-0.3922222222222223,-0.6233333333333333,-0.0008526618474402575,0.010949708641380698,-0.028648146392891816
1589987586.231877,-2.36929788772401,-0.9035787326344058,8.913612818261631,0.2966666666666667,-0.3922222222222223,-0.6233333333333333,-0.011378993730441905,-0.003119315210805596,-0.053680474047351996
1589987586.241877,-2.3095428684314503,-0.8754539707625445,8.777726985381271,0.2966666666666667,-0.3922222222222223,-0.6233333333333333,0.0006448012381244362,0.00595004877551682,-0.07075578406807741
1589987586.251877,-2.2452489737226617,-0.8613122434306654,8.785746921167984,0.2966666666666667,-0.3922222222222223,-0.6233333333333333,0.006258697589319021,0.0072779565954005495,-0.08694566722151172
1589987586.261877,-2.324005809028198,-0.8784978216144258,9.012002904514098,0.29594339559213095,-0.39161022362069203,-0.6234446058063388,0.0026732482921284773,0.0025093860497499556,-0.11519426529833564
1589987586.271877,-2.3874245284893774,-0.8520959119184371,9.041616352326253,0.2822222222222222,-0.38,-0.6255555555555555,0.011999138607461015,0.010555674450397567,-0.15772675589545085
1589987586.281877,-2.3431371869312763,-0.8625097495450212,9.00874512522749,0.2822222222222222,-0.38,-0.6255555555555555,0.012136024210464296,0.01717952131393673,-0.1958147605619383
1589987586.291877,-2.39,-0.9019246200607903,8.98807537993921,0.2822222222222222,-0.38,-0.6255555555555555,0.013341026249685833,0.015609291158261748,-0.24678756687494802
1589987586.301877,-2.388255464708827,-0.9103489070582347,8.980348907058236,0.2822222222222222,-0.38,-0.6255555555555555,0.009817477042468105,0.026065759212109164,-0.29082091073458277
1589987586.311877,-2.353262139162356,-0.9173475721675288,8.987347572167529,0.2822222222222222,-0.38,-0.6255555555555555,0.009817477042468105,0.02377545141082856,-0.325938963687552
1589987586.321877,-2.377398327291001,-0.9386991636455005,8.99934958182275,0.29572717374397267,-0.38,-0.6369828222278059,0.010837358208040637,0.032086376922578375,-0.38820266930387937
1589987586.331877,-2.38,-0.9146102745792737,8.966147032772366,0.2966666666666667,-0.38,-0.6377777777777778,0.009061914888427157,0.03641770934796848,-0.44146086020273745
1589987586.341877,-2.408406791790001,-0.92,8.804338873889991,0.2966666666666667,-0.38,-0.6377777777777778,0.009248022427489552,0.036914454549040195,-0.5169686689878529
1589987586.351877,-2.401585238916176,-0.92,8.865732849754416,0.2966666666666667,-0.38,-0.6377777777777778,0.011480370385248172,0.03617033856312065,-0.5586391641993471
1589987586.361877,-2.3900145768073693,-0.929985423192631,8.939912539155785,0.2966666666666667,-0.38,-0.6377777777777778,0.015266860705893783,0.041443619319770995,-0.6314987982503537
1589987586.371877,-2.514238235361208,-0.910886425329045,8.997340724012865,0.31471837607812425,-0.3916805178544726,-0.6377777777777778,0.023611501200799332,0.045621504857789805,-0.6910125985671217
1589987586.381877,-2.5017937673716566,-0.9343501389732546,9.015649861026745,0.31555555555555553,-0.3922222222222223,-0.6377777777777778,0.028557270011471955,0.053338225892650394,-0.7688892254960625
1589987586.391877,-2.5095142378559463,-0.9961139028475712,8.953886097152427,0.31555555555555553,-0.3922222222222223,-0.6377777777777778,0.0293994426974338,0.05754908932245959,-0.8152087232239638
1589987586.401877,-2.511340751485989,-0.9893852604019246,8.919385260401924,0.31555555555555553,-0.3922222222222223,-0.6377777777777778,0.03155489708081773,0.06312193208553496,-0.8858702047704001
1589987586.411877,-2.5187606142088876,-1.0413242994622134,8.971324299462214,0.31555555555555553,-0.3922222222222223,-0.6377777777777778,0.025079845352789305,0.0623125506195314,-0.9287674224685885
1589987586.421877,-2.5119619166851765,-1.04,8.99,0.33555555555555555,-0.3744444444444445,-0.6522222222222223,0.02399827721492203,0.0687015680712223,-1.0009817053859682
1589987586.431877,-2.5210878810257453,-1.0427197025643637,8.9840166543584,0.33555555555555555,-0.3744444444444445,-0.6522222222222223,0.02423561603703743,0.07338233595490681,-1.042113128056863
1589987586.441877,-2.542866507747318,-1.0938220103297578,8.88095550258244,0.33555555555555555,-0.3744444444444445,-0.6522222222222223,0.028778516996779756,0.07874827466568078,-1.0902197092333172
1589987586.4518769,-2.567862336114422,-1.1271497814858957,8.889287445371474,0.33555555555555555,-0.3744444444444445,-0.6522222222222223,0.03241401286569108,0.08056602260013644,-1.1229391720535191
1589987586.4618769,-2.57,-1.1397498729028976,8.89,0.33555555555555555,-0.3744444444444445,-0.6522222222222223,0.035915561921266374,0.07859438560715594,-1.1650885750416062
1589987586.4718769,-2.5945991547357727,-1.1880485207876028,8.947700422632114,0.3555555555555556,-0.3533333333333333,-0.6755555555555556,0.04182783720180874,0.08050860454510926,-1.1990623673075875
1589987586.4818769,-2.622082036497068,-1.2361435638698686,8.933958981751466,0.3555555555555556,-0.3533333333333333,-0.6755555555555556,0.044076275208078546,0.08575495989307214,-1.220047788699439
1589987586.4918768,-2.6512600516414606,-1.2325201032829214,8.913780154924382,0.3555555555555556,-0.3533333333333333,-0.6755555555555556,0.04335833067625013,0.08631308212902408,-1.2607517990781032
1589987586.5018768,-2.6512972385132247,-1.2537297549229036,8.943729754922904,0.3555555555555556,-0.3533333333333333,-0.6755555555555556,0.04158718745090103,0.08767331574782357,-1.2849809946181923
1589987586.5118768,-2.59428069289626,-1.2781654173301744,8.968165417330175,0.3555555555555556,-0.3533333333333333,-0.6755555555555556,0.04247569320905244,0.0903388330222778,-1.3063051328138267
1589987586.5218768,-2.6063498383847845,-1.3473003232304306,8.956349838384785,0.3888888888888889,-0.3333333333333333,-0.6677777777777778,0.0375818210897314,0.09321419099705065,-1.336976924861633
1589987586.5318768,-2.5869328948228167,-1.3815335525885915,8.932332237057043,0.3888888888888889,-0.3333333333333333,-0.6677777777777778,0.035910292862014206,0.0907062395842271,-1.3579902399640025
1589987586.5418768,-2.5738085671056874,-1.3938085671056872,8.887714859736588,0.3888888888888889,-0.3333333333333333,-0.6677777777777778,0.04161774982430882,0.09212832599803278,-1.377116327577744
1589987586.5518768,-2.617167296558379,-1.447553875844323,8.863776937922161,0.3888888888888889,-0.3333333333333333,-0.6677777777777778,0.04353023129613144,0.09755677040232025,-1.3987354016849067
1589987586.5618768,-2.591871984560952,-1.5150080411707945,8.897504020585398,0.3888888888888889,-0.3333333333333333,-0.6677777777777778,0.04261046779680994,0.09203818940639123,-1.4208097256686227
1589987586.5718768,-2.61,-1.5353679109170952,8.937316044541452,0.4011111111111111,-0.3144444444444445,-0.6822222222222222,0.049021263861405644,0.09796226201209451,-1.4533737864790812
1589987586.5818768,-2.61,-1.566401169028153,8.921799415485923,0.4011111111111111,-0.3144444444444445,-0.6822222222222222,0.05494536967642806,0.10304006699639945,-1.4745313072470185
1589987586.5918767,-2.613188231388497,-1.676376462776994,8.884250975184663,0.4011111111111111,-0.3144444444444445,-0.6822222222222222,0.04955109467104637,0.10202689959555271,-1.5123286478622457
1589987586.6018767,-2.6392959996680223,-1.7285919993360446,8.919061332890696,0.4011111111111111,-0.3144444444444445,-0.6822222222222222,0.05334831564459178,0.1067734258124845,-1.5427064156506087
1589987586.6118767,-2.6490753835890595,-1.7118492328218813,8.910924616410941,0.4011111111111111,-0.3144444444444445,-0.6822222222222222,0.054440679120517255,0.11086129979741632,-1.5702547682436399
1589987586.6218767,-2.614562719812427,-1.8074525205158265,8.954296600234468,0.4424546046632799,-0.27310095089227565,-0.7137220268333985,0.04681032390951146,0.10933193601081068,-1.6058356530249625
1589987586.6318767,-2.546696460211836,-1.854129424735205,8.873392920423672,0.4477777777777778,-0.2677777777777778,-0.7177777777777777,0.04690572364734761,0.11598842323383743,-1.6434022891160713
1589987586.6418767,-2.513666574792298,-1.895416781509627,8.807333149584597,0.4477777777777778,-0.2677777777777778,-0.7177777777777777,0.04690572364734761,0.1195914248096337,-1.6713255513284926
1589987586.6518767,-2.490298878106342,-1.9328352031560965,8.826268162524878,0.4477777777777778,-0.2677777777777778,-0.7177777777777777,0.04547301763325981,0.11927503306756625,-1.6923340763081574
1589987586.6618767,-2.48,-1.9979739306955373,8.847995655115923,0.4477777777777778,-0.2677777777777778,-0.7177777777777777,0.0525737781363613,0.1267502713461203,-1.7269895502018258
1589987586.6718767,-2.4590627282161663,-2.0379163623784446,8.863958181189222,0.4477777777777778,-0.2359841428467711,-0.7340623224985373,0.05606414049570947,0.1325245357617985,-1.7516013298375086
1589987586.6818767,-2.475908776551951,-2.1018175531039023,8.921817553103903,0.4477777777777778,-0.2222222222222222,-0.7411111111111112,0.053896991589846614,0.13511425594705379,-1.7811776552665464
1589987586.6918766,-2.428861919025993,-2.1319163204174316,8.827723838051986,0.4477777777777778,-0.2222222222222222,-0.7411111111111112,0.05823210773240434,0.1392475165212922,-1.803724757724514
1589987586.7018766,-2.390081098385146,-2.2097161556519884,8.839797254037135,0.4477777777777778,-0.2222222222222222,-0.7411111111111112,0.05890928548555504,0.1407171709420428,-1.8368528801861184
1589987586.7118766,-2.373684446611409,-2.2507888834714773,8.880788883471478,0.4477777777777778,-0.2222222222222222,-0.7411111111111112,0.054455485287373775,0.1407171709420428,-1.8583160471677191
1589987586.7218766,-2.34,-2.2797195166605637,8.913057488099597,0.4811111111111111,-0.16111111111111112,-0.7466666666666667,0.05126904677733343,0.14211092595209157,-1.8895155124684624
1589987586.7318766,-2.34,-2.3872262907359945,8.836266935188576,0.4811111111111111,-0.16111111111111112,-0.7466666666666667,0.05126904677733343,0.14546154590890217,-1.9037556472849073
1589987586.7418766,-2.3273191353593363,-2.392680864640664,8.760670216160166,0.4811111111111111,-0.16111111111111112,-0.7466666666666667,0.04908738521234052,0.1488647511124229,-1.932378888339285
1589987586.7518766,-2.2938637632607484,-2.426136236739252,8.769034059184813,0.4811111111111111,-0.16111111111111112,-0.7466666666666667,0.04908738521234052,0.15525122731430016,-1.952450670688042
1589987586.7618766,-2.3072421165152326,-2.4558631747728485,8.778621058257615,0.4811111111111111,-0.16111111111111112,-0.7466666666666667,0.04908738521234052,0.16069085975954472,-1.966994112676283
1589987586.7718766,-2.2278791115858816,-2.5591516446343525,8.819575822317177,0.5155555555555555,-0.15777777777777774,-0.7977777777777778,0.04681318243261319,0.1613966852021083,-1.9848227112568269
1589987586.7818766,-2.1812073263007967,-2.540482930520319,8.81024146526016,0.5155555555555555,-0.15777777777777774,-0.7977777777777778,0.04477674163009175,0.16037846480084753,-1.998059576473216
1589987586.7918766,-2.2259221954435904,-2.5848933654676913,8.72592219544359,0.5155555555555555,-0.15777777777777774,-0.7977777777777778,0.04746277106162777,0.17344209441693648,-2.003856147445989
1589987586.8018765,-2.1790791378318892,-2.642455632448296,8.683376494616406,0.5155555555555555,-0.15777777777777774,-0.7977777777777778,0.04135111925492415,0.17337512743030903,-2.003856147445989
1589987586.8118765,-2.1541284130792566,-2.7089908984553155,8.774862485376058,0.5155555555555555,-0.15777777777777774,-0.7977777777777778,0.038629417394347394,0.17156065952325789,-2.003856147445989
1589987586.8218765,-2.17,-2.82,8.84,0.5288888888888889,-0.17777777777777778,-0.8122222222222222,0.031634092692397225,0.16689710972195776,-2.0082194705759755
1589987586.8318765,-2.17,-2.7978315963454388,8.997641981543547,0.5288888888888889,-0.17777777777777778,-0.8122222222222222,0.028678517712872487,0.16259809156992178,-2.0082194705759755
1589987586.8418765,-2.0880817082201926,-2.7804112564798817,9.996715378918786,0.5288888888888889,-0.17777777777777778,-0.8122222222222222,-0.041541588182307576,0.08001875238188388,-2.0150932393700476
1589987586.8518765,-1.8718893234736909,-2.5269275194035323,9.052232781274828,0.5288888888888889,-0.17777777777777778,-0.8122222222222222,0.03306217904713896,0.2467629824395079,-1.9540817848325838
1589987586.8618765,-1.9295631913463303,-2.7383983682698774,8.815129102242865,0.5288888888888889,-0.17777777777777778,-0.8122222222222222,0.1099551495618272,0.18734568704179425,-1.9331109746922146
1589987586.8718765,-1.994670283988973,-2.8933378549862163,8.872018990942108,0.536593396441994,-0.20089130043709313,-0.8690429654263724,0.022894129065413937,0.1730075377528728,-1.9154254414814686
1589987586.8818765,-2.0,-3.004226147535915,9.03629573139312,0.5377777777777778,-0.20444444444444448,-0.8777777777777778,0.025136548130795813,0.11965177317666492,-1.904787838736625
1589987586.8918765,-1.88,-2.904196200219218,8.49153955060285,0.5377777777777778,-0.20444444444444448,-0.8777777777777778,0.035882982213167,0.1470942167181416,-1.8738793454100318
1589987586.9018764,-1.8804593741027849,-2.9815618719494688,8.70146999712891,0.5377777777777778,-0.20444444444444448,-0.8777777777777778,0.03387588618683007,0.12445492908699585,-1.8507890683080859
1589987586.9118764,-1.923467249087404,-3.127788646897174,8.839095197079693,0.5377777777777778,-0.20444444444444448,-0.8777777777777778,0.039505603857587904,0.13383779187159225,-1.8179490485619987
1589987586.9218764,-1.9005074065885474,-3.140169135529516,8.850169135529516,0.4503923158179183,-0.16949025966050066,-0.7062838086815536,0.04250550086895984,0.12561158840490116,-1.782934093676836
1589987586.9318764,-1.8332278612476633,-3.1495388769646193,8.745072353389185,0.4488888888888889,-0.1688888888888889,-0.7033333333333334,0.03942081033032578,0.1087970589895671,-1.7522421267911943
1589987586.9418764,-1.7274191063174114,-3.0753957136853898,8.497536069477519,0.4488888888888889,-0.1688888888888889,-0.7033333333333334,0.03926990816987242,0.11002676376760302,-1.714162112498642
1589987586.9518764,-1.7573606294693038,-3.1914220457752376,8.52670078683663,0.4488888888888889,-0.1688888888888889,-0.7033333333333334,0.04538302687165654,0.1122116152660701,-1.6738159324092705
1589987586.9618764,-1.728782042344693,-3.22341346824148,8.631458362379748,0.4488888888888889,-0.1688888888888889,-0.7033333333333334,0.0373015155705812,0.108950219679427,-1.6388019250663448
1589987586.9718764,-1.7891872121376322,-3.359414792739095,9.00925223516662,0.4866666666666667,-0.06,-0.6466666666666666,0.0447843518357086,0.09719387978065347,-1.5869885586405208
1589987586.9818764,-1.54,-3.18,8.78,0.4866666666666667,-0.06,-0.6466666666666666,0.06326818538479445,0.1308996938995747,-1.5347989109725135
1589987586.9918764,-1.4658331594541585,-3.078508533989901,8.31157784918416,0.4866666666666667,-0.06,-0.6466666666666666,0.07604241791762237,0.14537715743677967,-1.5105278691601405
1589987587.0018764,-1.4587944971242035,-3.1079177677599876,8.44541077257889,0.4866666666666667,-0.06,-0.6466666666666666,0.03557603940477016,0.08329615564354242,-1.476397623211148
1589987587.0118763,-1.5547341024198087,-3.2847341024198085,9.33508863252673,0.4866666666666667,-0.06,-0.6466666666666666,-0.005086758176227842,0.03003252965833236,-1.4475074335419662
1589987587.0218763,-1.5547728470538633,-3.3487885176206036,9.14302870594849,0.4987038013031478,-0.016775743805363286,-0.6362709594806147,0.046426671823784724,0.08796083670064364,-1.3804460677951744
1589987587.0318763,-1.5125277986790402,-3.3955166792074243,8.945747220132095,0.5111111111111111,0.027777777777777776,-0.6255555555555555,0.04217819746327771,0.07942946221243548,-1.3257227145974002
1589987587.0418763,-1.5038747500098035,-3.386937375004902,8.83990706246814,0.5111111111111111,0.027777777777777776,-0.6255555555555555,0.03836639349249152,0.08208821388887735,-1.2605371632591442
1589987587.0518763,-1.5018234775692698,-3.471765224307302,8.81182347756927,0.5111111111111111,0.027777777777777776,-0.6255555555555555,0.035407038628391174,0.07299573882177526,-1.2083707361896112
1589987587.0618763,-1.4929857660943755,-3.5180569356224973,8.859099637339371,0.5111111111111111,0.027777777777777776,-0.6255555555555555,0.03075521735343597,0.05833615668994504,-1.1628617213421435
1589987587.0718763,-1.44425646106845,-3.514752153689483,8.681777997963284,0.5034871879558528,0.08792206044703775,-0.6187787349731038,0.046085251249690845,0.059272195385126625,-1.102645368856098
1589987587.0818763,-1.4542689916456188,-3.5585379832912376,8.9193175636293,0.5011111111111111,0.10666666666666667,-0.6166666666666667,0.04509192870965569,0.05755674206684282,-1.0480566307724377
1589987587.0918763,-1.4276281853373547,-3.5619070463343387,8.828140926686773,0.5011111111111111,0.10666666666666667,-0.6166666666666667,0.042750427001876146,0.055840396391833615,-0.9907994728455934
1589987587.1018763,-1.3386602067493345,-3.470526227424268,8.700526227424268,0.5011111111111111,0.10666666666666667,-0.6166666666666667,0.04342968002055902,0.05651964941051648,-0.9316529495091668
1589987587.1118762,-1.3269632301985244,-3.45,8.756595532183766,0.5011111111111111,0.10666666666666667,-0.6166666666666667,0.03983537837677863,0.05140620659750424,-0.8811635100269809
1589987587.1218762,-1.3208396843139247,-3.486641262744301,8.909084103918978,0.5265564324613201,0.14839699368100956,-0.6298982337687753,0.032183664790722336,0.0450904434812381,-0.8099792663673104
1589987587.1318762,-1.3476882059917212,-3.5822940199724034,8.892311794008279,0.5288888888888889,0.15222222222222226,-0.6311111111111111,0.03566117901344683,0.0467376052428795,-0.751674223728477
1589987587.1418762,-1.3179502435990464,-3.533912926298331,8.761800974396186,0.5288888888888889,0.15222222222222226,-0.6311111111111111,0.0185169853955465,0.03466942234856203,-0.703518009942981
1589987587.1518762,-1.3267643325302454,-3.5870573301209814,8.713235667469755,0.5288888888888889,0.15222222222222226,-0.6311111111111111,0.026981735152852744,0.03437715018819697,-0.6350733394734548
1589987587.1618762,-1.3035585060089254,-3.580168879506694,8.782714108475455,0.5288888888888889,0.15222222222222226,-0.6311111111111111,0.023683792011272468,0.02985902581327123,-0.5835747337750499
1589987587.1718762,-1.29,-3.5547845257635737,8.82,0.5398778425040857,0.17842665007384523,-0.6311111111111111,0.02321541101753899,0.025611018795673846,-0.5072670330824632
1589987587.1818762,-1.2771245756072083,-3.5886262731783756,8.78781143901802,0.5433333333333333,0.18666666666666668,-0.6311111111111111,0.021189295361849415,0.021577880681077716,-0.4434348207652105
1589987587.1918762,-1.2848395687191478,-3.602580215640426,8.725481293842558,0.5433333333333333,0.18666666666666668,-0.6311111111111111,0.01963495408493621,0.01801620824915441,-0.36436957711534335
1589987587.2018762,-1.257149310336498,-3.698552068990507,8.759276034495253,0.5433333333333333,0.18666666666666668,-0.6311111111111111,0.01963495408493621,0.01566156534438398,-0.2830829069068005
1589987587.2118762,-1.24322679947452,-3.652267994745201,8.74968039842356,0.5433333333333333,0.18666666666666668,-0.6311111111111111,0.015201904707407426,0.009360898451578673,-0.21697745230920068
1589987587.2218761,-1.2346528753960095,-3.6146528753960094,8.788124121435915,0.5653159567052943,0.19617266596264984,-0.6394288604950963,0.009007003708843551,0.004795142260215627,-0.15173984171982474
1589987587.2318761,-1.2521890435563539,-3.6543780871127076,8.778225565035175,0.5844444444444444,0.20444444444444448,-0.6466666666666666,0.0038405211294539198,0.0008520431729468277,-0.06669627745324162
1589987587.2418761,-1.2361985214078375,-3.6779338261973877,8.720330869013063,0.5844444444444444,0.20444444444444448,-0.6466666666666666,0.002407046163580657,-0.006058123287360976,0.004570278189999548
1589987587.251876,-1.2539352628125684,-3.687978420937523,8.678086316249908,0.5844444444444444,0.20444444444444448,-0.6466666666666666,0.0030519722804293204,-0.00937643690834801,0.07337369837493347
1589987587.261876,-1.2361781115499744,-3.713821888450026,8.789109442250128,0.5844444444444444,0.20444444444444448,-0.6466666666666666,-0.0019246374962075923,-0.017613171808013545,0.12559529519698157
1589987587.271876,-1.265780457612906,-3.630809008505371,8.87,0.7158513135185259,0.24344261204062345,-0.6788825442461188,-0.007118778325846675,-0.02207513422574338,0.19989958675457487
1589987587.281876,-1.2632641583974344,-3.5748962375961515,8.727745346378192,0.7566666666666667,0.25555555555555554,-0.6888888888888889,-0.00946141259658153,-0.027293407007248124,0.2660103834867792
1589987587.291876,-1.26,-3.57,8.707480399297374,0.7566666666666667,0.25555555555555554,-0.6888888888888889,-0.012265431988150138,-0.025097660417331805,0.3208593619757739
1589987587.301876,-1.2381566186581747,-3.599124508455767,8.688156618658175,0.7566666666666667,0.25555555555555554,-0.6888888888888889,-0.00991297835509457,-0.024792524973637754,0.38363074653185186
1589987587.311876,-1.2518583868990778,-3.5968849678605532,8.75869019283668,0.7566666666666667,0.25555555555555554,-0.6888888888888889,-0.01444915856842718,-0.032719124408692526,0.42860766142385953
1589987587.321876,-1.2832641383898868,-3.571295630960302,8.850207584830338,0.8398417486015622,0.26425992459525394,-0.7677117863039353,-0.02181661564992912,-0.04194896341169227,0.4708430152501618
1589987587.331876,-1.31,-3.541586626911121,8.83237994036668,1.5211111111111106,0.33555555555555555,-1.413333333333333,-0.027109079140327855,-0.04238071009527823,0.5709713357906392
1589987587.341876,-1.37222016544224,-3.634664198530688,8.748003702203969,1.5211111111111106,0.33555555555555555,-1.413333333333333,-0.025380130822019266,-0.045402778799918865,0.6243418918614233
1589987587.351876,-1.415945413917855,-3.697836241753565,8.72756331134284,1.5211111111111106,0.33555555555555555,-1.413333333333333,-0.020961814277541894,-0.04840906907136272,0.6769019377160408
1589987587.361876,-1.42,-3.692618045308567,8.765793984897144,1.5211111111111106,0.33555555555555555,-1.413333333333333,-0.017106851253286363,-0.0546023959502242,0.7265728576537925
1589987587.371876,-1.4062077398055877,-3.6248309592223515,8.788389680259217,1.1819236752189002,0.08116497863639766,-1.1466829695746978,-0.017277633885652434,-0.05881703293766319,0.7657746131190662
1589987587.381876,-1.4091400694559284,-3.5408599305440713,8.765339837936168,0.7833333333333333,-0.21777777777777774,-0.8333333333333334,-0.022418764343822485,-0.06277950329619135,0.8098503070335314
1589987587.391876,-1.414741987103316,-3.4879358968265284,8.718967948413264,0.7833333333333333,-0.21777777777777774,-0.8333333333333334,-0.021704036285935556,-0.06378545593504428,0.8368254158084932
1589987587.401876,-1.4281898020214254,-3.504569406064277,8.722737252526782,0.7833333333333333,-0.21777777777777774,-0.8333333333333334,-0.02161915368218494,-0.06525238498204318,0.8646386765441046
1589987587.411876,-1.4636755942527975,-3.57,8.791026782758392,0.7833333333333333,-0.21777777777777774,-0.8333333333333334,-0.023501018575592593,-0.06862602579343915,0.8949135690228688
1589987587.421876,-1.4763331311906205,-3.606668688093794,8.83633313119062,0.7128479662197067,-0.10206769534847156,-0.7803674505311862,-0.024507419781484456,-0.07061315675430262,0.9197527060336623
1589987587.431876,-1.47,-3.657545971563981,8.780183886255925,0.5911111111111111,0.09777777777777777,-0.6888888888888889,-0.026591507683206613,-0.07199483164476607,0.9499296178693465
1589987587.441876,-1.4422516662223406,-3.6708112503332444,8.770811250333244,0.5911111111111111,0.09777777777777777,-0.6888888888888889,-0.027693375612297785,-0.07502170530953177,0.9638031743614197
1589987587.451876,-1.4352177637665764,-3.6695644724668472,8.78,0.5911111111111111,0.09777777777777777,-0.6888888888888889,-0.02608492141195736,-0.07237396664208856,0.9653377338253848
1589987587.461876,-1.4430853637083296,-3.6384024540416924,8.786170727416659,0.5911111111111111,0.09777777777777777,-0.6888888888888889,-0.02568108206904374,-0.07074170512222278,0.957226631339556
1589987587.471876,-1.4541553198226724,-3.59,8.779223400886638,0.5832621736682851,0.1199394834986982,-0.7045867637745409,-0.027639330817928725,-0.07164112337330429,0.9277887129733746
1589987587.481876,-1.4533193215339233,-3.54991592920354,8.68987389380531,0.5722222222222222,0.1511111111111111,-0.7266666666666667,-0.027275354913045783,-0.06581192876040805,0.8751395891132625
1589987587.491876,-1.4752670857117474,-3.567900628567621,8.716850942851432,0.5722222222222222,0.1511111111111111,-0.7266666666666667,-0.02216012449727902,-0.06062647684607604,0.8254092879706904
1589987587.5018759,-1.502967887093475,-3.6094518306402126,8.743516056453263,0.5722222222222222,0.1511111111111111,-0.7266666666666667,-0.020665988866264928,-0.05922860851486229,0.7686376566373028
1589987587.5118759,-1.4932796900021748,-3.5921328166702913,8.767867183329708,0.5722222222222222,0.1511111111111111,-0.7266666666666667,-0.01695287462632617,-0.053916016757801395,0.7112238914875963
1589987587.5218759,-1.4759075306626481,-3.6354795093976304,8.802277408012054,0.5699486281459156,0.12610157627173826,-0.741217668755029,-0.013536388542918104,-0.047748127753458616,0.6545376707296864
1589987587.5318758,-1.454152033271719,-3.7194346888478127,8.82,0.5666666666666667,0.09,-0.7622222222222222,-0.010723310183016222,-0.04235740287541345,0.5743149297863217
1589987587.5418758,-1.4504069115379223,-3.7256103673068837,8.783575809617272,0.5666666666666667,0.09,-0.7622222222222222,-0.004230161640590228,-0.03245860049610249,0.48896520410873495
1589987587.5518758,-1.3995979274611399,-3.614162348877375,8.92113920552677,0.5666666666666667,0.09,-0.7622222222222222,0.004399872555167917,-0.029474360782513566,0.387962954431881
1589987587.5618758,-1.245684314784801,-3.410576265081938,8.802088960922024,0.5666666666666667,0.09,-0.7622222222222222,0.009817477042468105,-0.02514411117031584,0.27313986341116464
1589987587.5718758,-14.154410848527641,-9.483872990821116,-1.7483901648876543,0.5086112610928826,0.0674228978324173,-0.686105134914372,-0.07504287843439993,0.12313625162830077,0.11645249488170485
1589987587.5818758,-14.503665235241375,-9.158884903968666,-5.677461658251144,0.4666666666666667,0.05111111111111112,-0.6311111111111111,-0.3277311543273301,-0.7485674518973221,-2.568447531557091
1589987587.5918758,-2.588377613137652,-2.87465928932094,-1.0904717804728428,0.4666666666666667,0.05111111111111112,-0.6311111111111111,-0.57980182281025,-2.030511429728017,-6.013233412195195
1589987587.6018758,0.23262806901482092,-1.2729537233645258,0.06704627663547413,0.4666666666666667,0.05111111111111112,-0.6311111111111111,-0.7077649148613194,-1.8679046845396794,-6.778535698654036
1589987587.6118758,-0.17015791888517806,-1.331133921616748,0.008866078383252068,0.4666666666666667,0.05111111111111112,-0.6311111111111111,-0.7917336625833694,-1.1932255604008823,-6.593999729823019
1589987587.6218758,-0.12061364172763747,-1.003733773896625,0.044127920698607506,0.50150158655233,0.16749141163821363,-0.6524870846773135,-0.8489397644751884,-0.8266164801965238,-6.328337772004938
1589987587.6318758,-0.5334531805610431,-0.6326135914658239,-1.1769577242196758,0.5155555555555555,0.21444444444444444,-0.6611111111111111,-0.6175729208860373,-0.46490337354115646,-6.076466840063654
1589987587.6418757,0.1721885800515991,-1.7395847734021321,3.171860487757387,0.5155555555555555,0.21444444444444444,-0.6611111111111111,0.8787573590358848,1.4025732600330851,-5.785765089764388
1589987587.6518757,0.37412585144339927,-2.0495199481024975,4.6583749594550765,0.5155555555555555,0.21444444444444444,-0.6611111111111111,1.524918099933916,2.171952711061124,-5.634361422206421
1589987587.6618757,-0.3963916167664671,-1.0828131736526947,2.11185628742515,0.5155555555555555,0.21444444444444444,-0.6611111111111111,1.938325957869707,2.9963850483379595,-5.205176293402852
1589987587.6718757,-1.3599321319018403,-0.5082059049079755,2.752163726993865,0.4525421353101568,0.27481024199045667,-0.6499910957736877,0.9173585312929327,2.931993826845469,-4.442893296229556
1589987587.6818757,-1.50370571590266,-0.4742687040181098,4.6824665534804755,0.38333333333333336,0.3411111111111111,-0.6377777777777778,-0.1794473555485191,1.129776787386781,-3.550296784807608
1589987587.6918757,0.26491387843991276,-0.3635507820233617,11.213487428232034,0.38333333333333336,0.3411111111111111,-0.6377777777777778,0.2605627817685466,-0.06331796493248121,-3.076168830221334
1589987587.7018757,1.001978284607619,-1.2867126109977955,10.974006634114183,0.38333333333333336,0.3411111111111111,-0.6377777777777778,0.44568425923303534,-0.9352697097844653,-2.732927173175233
1589987587.7118757,0.9333198027494569,-2.059928964434649,8.419391123725562,0.38333333333333336,0.3411111111111111,-0.6377777777777778,0.2772182455386403,-1.1139640504630637,-2.4425107069842764
1589987587.7218757,0.9599219877273376,-2.1995904355685227,9.61648944773019,0.38333333333333336,0.3411111111111111,-0.6377777777777778,-0.012241114960341748,-0.6699812719533471,-2.1661096635002863
1589987587.7318757,0.7691084642141879,-1.8419175714135132,7.982943607041213,0.3588888888888889,0.3888888888888889,-0.6266666666666667,0.05134610746990528,0.8092340635457484,-1.579154157958638
1589987587.7418756,-0.07488160636484181,-2.1682830081454822,8.302757719265012,0.3588888888888889,0.3888888888888889,-0.6266666666666667,-0.1496623553030882,0.8134174920795171,-1.2942830182665892
1589987587.7518756,0.37668532390888954,-2.535572146033786,8.86678796692426,0.3588888888888889,0.3888888888888889,-0.6266666666666667,-0.034012146961471146,0.0006234320101936031,-1.1365652884537853
1589987587.7618756,0.3095737765809268,-2.081081808895905,6.724179589562634,0.3588888888888889,0.3888888888888889,-0.6266666666666667,0.16102633523111093,-0.2305927541003574,-0.962089553927387
1589987587.7718756,0.22839804041641154,-2.802083894672382,9.620745254133496,0.3380023814383888,0.40649908144519287,-0.6287143634755392,-0.06632358036283412,0.16399795805073125,-0.6007099576486835
1589987587.7818756,0.10966942148760331,-2.9133574380165292,9.421952479338842,0.3022222222222222,0.43666666666666665,-0.6322222222222222,-0.039681223495917045,0.12848589272591004,-0.3172852618369185
1589987587.7918756,0.04199683798434049,-2.719910409556314,8.677586829953825,0.3022222222222222,0.43666666666666665,-0.6322222222222222,0.01809640855018796,0.015075654806288169,0.032542744222295944
1589987587.8018756,0.02360747204129286,-2.840262013026914,8.458823399287207,0.3022222222222222,0.43666666666666665,-0.6322222222222222,-0.021602524859754998,-0.005331892922727233,0.346197194680256
1589987587.8118756,-0.0021826287871391827,-3.0600712681831492,9.153452113638583,0.3022222222222222,0.43666666666666665,-0.6322222222222222,-0.02205470351670655,-0.0517763191220851,0.5879471067427927
1589987587.8218756,-0.02332366705905998,-2.987745556863533,8.940924229808493,0.3024694938126274,0.44235391324598594,-0.6342003949454638,-0.0335856490646197,-0.043765681940967006,0.8288803715260068
1589987587.8318756,-0.010383970567689657,-2.8511575001164253,8.37231500023285,0.3033333333333333,0.4622222222222222,-0.6411111111111111,-0.04967559969706676,-0.0799657246540881,1.138863735205798
1589987587.8418756,-0.05054177410272369,-2.933092676565603,8.474560030823035,0.3033333333333333,0.4622222222222222,-0.6411111111111111,-0.03340946901262463,-0.10111730755548569,1.3997772662384427
1589987587.8518755,-0.07134014953784563,-3.1017518692230706,8.732163588908294,0.3033333333333333,0.4622222222222222,-0.6411111111111111,-0.04029322162819371,-0.11256927555821317,1.615599658582838
1589987587.8618755,-0.06901149742775264,-2.9915402409971343,8.471264371784692,0.3033333333333333,0.4622222222222222,-0.6411111111111111,-0.039989608664390414,-0.12490639546990027,1.7664888758903012
1589987587.8718755,-0.09797465732141009,-3.092911300624935,8.507468321651762,0.3033333333333333,0.4622222222222222,-0.6411111111111111,-0.06684442907920346,-0.14070334865508444,1.8976035873273294
1589987587.8818755,-0.11398131060140025,-3.22650467234965,8.693289685678296,0.31777777777777777,0.4666666666666667,-0.6533333333333333,-0.05780383798666267,-0.14271940798690455,2.130596419883069
1589987587.8918755,-0.14429189588814717,-3.271502750657766,8.534638065624387,0.31777777777777777,0.4666666666666667,-0.6533333333333333,-0.057481461979577306,-0.16003371600690394,2.2858436253810397
1589987587.9018755,-0.17449817536053705,-3.385934078801007,8.90287180688094,0.31777777777777777,0.4666666666666667,-0.6533333333333333,-0.045528002431900215,-0.1594858551391327,2.398659383247632
1589987587.9118755,1.3005482462399043,-7.6164602300293955,8.186383173035761,0.31777777777777777,0.4666666666666667,-0.6533333333333333,-0.0635703205126271,-0.17314724415462812,2.4926066169285956
1589987587.9218755,4.010588293897882,-18.476804483188044,3.8015173100871733,0.3354395461463955,0.454524200913242,-0.660692403486924,-0.25151563833104734,-0.1261413351636736,0.0247249362462707
1589987587.9318755,-10.14253596180502,-11.25867426459264,6.3349727398737095,0.3711111111111111,0.43,-0.6755555555555556,-0.6185010536754905,-0.02399827721492203,-5.118178031473372
1589987587.9418755,-9.060718185064879,-11.353835989183857,6.78365384942433,0.3711111111111111,0.43,-0.6755555555555556,-0.4275426296644296,0.25081778407068583,-3.942348117515049
1589987587.9518754,0.9436273261161819,1.6018173777683435,0.7972709262010896,0.3711111111111111,0.43,-0.6755555555555556,0.23423578501033232,0.5656445405343988,-1.6463533966838115
1589987587.9618754,-0.2838074523965858,1.0645613099146423,2.8649064346684177,0.3711111111111111,0.43,-0.6755555555555556,0.7441557799826176,0.029755937065738425,0.19784889599664277
1589987587.9718754,0.5773826407829296,-0.462291673351516,6.802611904379914,0.3711111111111111,0.4424866570404834,-0.6786772198156764,-0.35303589341744046,-0.18572912274639441,0.428574236268957
1589987587.9818754,0.039486171916711166,-2.1676433529097703,8.519830218900161,0.3711111111111111,0.4566666666666666,-0.6822222222222222,-0.4986916785117964,0.0975878999693121,0.6572091111926721
1589987587.9918754,-0.28895233544379406,-2.5359428981005854,8.608305339863815,0.3711111111111111,0.4566666666666666,-0.6822222222222222,0.05001795990878824,0.045004620997026165,0.8325198900438481
1589987588.0018754,-0.3243192989140789,-2.435117546199276,7.622864926652696,0.3711111111111111,0.4566666666666666,-0.6822222222222222,0.18167251554022593,0.005551370647108273,0.9984274607906423
1589987588.0118754,0.3044257841442331,-3.0634205976784394,7.304778134518811,0.3711111111111111,0.4566666666666666,-0.6822222222222222,-0.10593163965162566,-0.005866437120059569,1.0560324094507167
1589987588.0218754,2.831986169424549,-6.046770560632256,8.161110068329629,0.3711111111111111,0.4566666666666666,-0.6822222222222222,-0.21591593971742512,-0.23110825711782707,0.8420903463090246
1589987588.0318754,-0.24405533624212203,0.08614550869173768,10.516293025832814,0.3655555555555556,0.43666666666666665,-0.7111111111111111,-0.041292202220793967,0.029202519898891364,-0.4305010635912022
1589987588.0418754,-0.3612047427482532,-1.4691403768791023,8.096817700614016,0.3655555555555556,0.43666666666666665,-0.7111111111111111,0.37169591216693015,0.17417632076831402,-0.2552839661658179
1589987588.0518754,-0.7797349584407623,-3.0494603609613615,5.493650902403404,0.3655555555555556,0.43666666666666665,-0.7111111111111111,0.00806024488602275,0.03881886833547847,0.02839177062816603
1589987588.0618753,0.7176081351531651,-5.136665885365018,10.711664713412546,0.3655555555555556,0.43666666666666665,-0.7111111111111111,-0.39532720051923276,-0.08161991904523179,0.385583516764108
1589987588.0718753,1.3438489085298486,-6.875067621623681,8.172424092346375,0.3740731710414365,0.433094763398394,-0.7039673045745658,-0.02184562246490046,-0.13369989047034608,0.22087692231674116
1589987588.0818753,-1.0771629993591114,-3.4072826319162575,9.407173680837428,0.4,0.4222222222222222,-0.6822222222222222,0.12471929043920732,0.106376741293328,-0.13942534858725344
1589987588.0918753,-0.5138844228727438,-3.9172607310784167,7.9535712118914,0.4,0.4222222222222222,-0.6822222222222222,-0.017900180726150322,0.006375643680890296,0.008163196505718397
1589987588.1018753,-0.03805050838747568,-4.61176008515949,8.723583305803325,0.4,0.4222222222222222,-0.6822222222222222,-0.027874304135863986,-0.038761950921891275,0.018948775355734512
1589987588.1118753,-0.0317436630882429,-4.466955697620319,8.60954749883687,0.4,0.4222222222222222,-0.6822222222222222,0.008157067668976739,0.00502748687938237,-0.0018495796902946388
1589987588.1218753,0.011856520742608293,-4.475309420123769,8.850911834364734,0.39652549638797635,0.42117987113861516,-0.6855230006536447,0.010666664929873379,0.002352215862217986,-0.0029313837530392196
1589987588.1318753,-0.10500669627123424,-4.5059892859660255,8.68199196447452,0.37777777777777777,0.4155555555555556,-0.7033333333333334,-0.013799082443568068,0.0021273391608317965,-0.001090830782496456
1589987588.1418753,-0.04328330084470435,-4.596866796621183,8.709108836907083,0.37777777777777777,0.4155555555555556,-0.7033333333333334,-0.01362719823439749,-0.0005372288444400187,-0.001090830782496456
1589987588.1518753,-0.04445179538808189,-4.541661153458938,8.558837432283427,0.37777777777777777,0.4155555555555556,-0.7033333333333334,-0.005762174110425813,-0.002000457832246845,-0.00024280777233477377
1589987588.1618752,-0.02678203118554575,-4.5351325523196655,8.711914583505212,0.37777777777777777,0.4155555555555556,-0.7033333333333334,0.008688893309451289,0.0002466016128348078,0.001090830782496456
1589987588.1718752,-0.04408382146687567,-4.471692654621456,8.665776476088332,0.37777777777777777,0.4155555555555556,-0.7033333333333334,0.00302689568009948,0.0008757124605405644,0.001090830782496456
1589987588.1818752,-0.0323722996893288,-4.458698432194206,8.901812369048479,0.3977777777777778,0.4155555555555556,-0.6966666666666667,0.010618990593366807,0.003013714594846704,0.0020091430632311357
1589987588.1918752,-0.0541355769059375,-4.524813461435625,8.681203365358906,0.3977777777777778,0.4155555555555556,-0.6966666666666667,-0.0035350259427063364,-0.0006397093232586477,-0.00031985466162932387
1589987588.2018752,-0.04088883718224653,-4.444888604502356,8.656889069862137,0.3977777777777778,0.4155555555555556,-0.6966666666666667,0.001090830782496456,-0.0021331830170418157,-0.001139309330447552
1589987588.2118752,-0.05715432493746728,-4.53434878715607,8.599959862718864,0.3977777777777778,0.4155555555555556,-0.6966666666666667,0.001090830782496456,-0.001246038280256117,-0.002026454067233251
1589987588.2218752,-0.029220195558434723,-4.385718565904812,8.838440391116869,0.3974600796719549,0.4154111473256361,-0.696291205268876,0.012721361024643163,0.0020965980960742257,-0.0010057673135777697
1589987588.2318752,-0.0037471911249671065,-4.572520598416908,8.787494382249934,0.3870821889768384,0.4106939242824013,-0.6840264253564656,0.0006804415025419217,-0.0006820756397952921,0.001772906422291748
1589987588.2418752,-0.03403351643236198,-4.519888278558794,8.736301647891256,0.3855555555555555,0.41,-0.6822222222222222,-0.0074005876347772795,-0.0006508423938838831,-0.00021694746462796102
1589987588.2518752,-0.010603854389721633,-4.597987152034261,8.525434689507494,0.3855555555555555,0.41,-0.6822222222222222,-0.019327559371924364,-0.003206622051843972,-0.001068874017281324
1589987588.2618752,-0.034942762149355946,-4.492757570327898,8.65264309462661,0.3855555555555555,0.41,-0.6822222222222222,-0.0024325163773247635,-0.00027582953609443724,0.00027582953609443724
1589987588.2718751,-0.021374361847839623,-4.5393845722824055,8.703743618478395,0.38448660745168023,0.41167977559180396,-0.6800843260144717,0.004471849315419104,-0.000790991540514022,0.000940911161505239
1589987588.2818751,-0.021132569150261647,-4.451381343965446,8.784088379433507,0.37777777777777777,0.4222222222222222,-0.6666666666666666,0.009097278647695026,0.0017356885513333427,0.00032242888441844325
1589987588.2918751,-0.01267674639131809,-4.541548835739121,8.748872089347802,0.37777777777777777,0.4222222222222222,-0.6666666666666666,0.0019511918119004012,0.0030420225943968574,0.0013213005355889665
1589987588.301875,-0.049216972485308125,-4.525096238520568,8.672156605502938,0.37777777777777777,0.4222222222222222,-0.6666666666666666,0.00014983411517388372,0.002416910731823555,0.0012406648976703398
1589987588.311875,-0.011527595564581349,-4.577861366209586,8.679694480887083,0.37777777777777777,0.4222222222222222,-0.6666666666666666,-0.0031391844862853372,0.0032391653821883604,-0.002048353703788881
1589987588.321875,-0.05870382921043714,-4.502073873263301,8.718963063368351,0.37777777777777777,0.4222222222222222,-0.6666666666666666,0.0041653767104579175,0.001147386902361572,0.0010059966026987818
1589987588.331875,-0.03662921348314607,-4.5,8.772584269662921,0.3862172284644195,0.4267665418227216,-0.6841947565543071,0.0005392871284252139,-0.001458526551877284,0.001728170116089891
1589987588.341875,-0.02,-4.497485532181122,8.7747974505357,0.3922222222222223,0.43,-0.6966666666666667,-0.004101662793893523,-0.0029982064576464236,0.0010845180056211342
1589987588.351875,-0.02,-4.497146033374869,8.668213491656283,0.3922222222222223,0.43,-0.6966666666666667,-0.009817477042468105,-0.002181661564992912,-0.0017919059060902227
1589987588.361875,-0.02106465438628488,-4.565741382454861,8.64787069122743,0.3922222222222223,0.43,-0.6966666666666667,-0.009469069709284279,-0.002181661564992912,0.0018332542318090857
1589987588.371875,-0.029207895115977524,-4.529207895115977,8.63950525860827,0.39266228049112367,0.42797573196305366,-0.6960505850902047,-0.005248906109292484,-0.0019224458478556616,-0.001090830782496456
1589987588.381875,-0.026083698830409358,-4.505804702729044,8.75,0.3977777777777778,0.4044444444444445,-0.6888888888888889,0.008932638915048342,0.0006484117187865752,-0.0004272021869316347
1589987588.391875,-0.04925687844615001,-4.4544587293231,8.7455412706769,0.3977777777777778,0.4044444444444445,-0.6888888888888889,0.0053730919258746625,-0.001090830782496456,0.0022627235516005286
1589987588.401875,-0.04171886644242583,-4.513437732884851,8.679686801345445,0.3977777777777778,0.4044444444444445,-0.6888888888888889,0.003050828431507037,-0.0009033315398566293,0.0030849931048495412
1589987588.411875,-0.049605610993355406,-4.5309859725166115,8.631380361523258,0.3977777777777778,0.4044444444444445,-0.6888888888888889,-0.0032294711806167553,2.151058343630631e-05,0.002138640398120299
1589987588.421875,-0.03,-4.577472854188211,8.700758143743537,0.39746890440078136,0.40472523842353214,-0.6892539210617029,-0.0010356970136293263,0.0010081301291957616,2.756688443356478e-05
1589987588.431875,-0.033979462581702105,-4.472041074836596,8.743928119035958,0.3855555555555555,0.4155555555555556,-0.7033333333333334,0.0015249228106878035,-0.002181661564992912,0.0008737847684007822
1589987588.441875,-0.04814724112888244,-4.443705517742235,8.79351534395109,0.3855555555555555,0.4155555555555556,-0.7033333333333334,0.003070387706573526,-0.002181661564992912,0.00010105232045792118
1589987588.451875,-0.04561425911146582,-4.53,8.667309568147557,0.3855555555555555,0.4155555555555556,-0.7033333333333334,-0.0032979518368884166,-0.0014097708601808858,0.0
1589987588.461875,-0.023298217611066777,-4.53,8.704502970648223,0.3855555555555555,0.4155555555555556,-0.7033333333333334,-0.008977991006379275,-0.003032639194321131,0.0
1589987588.471875,-0.029822208787887113,-4.559466626363661,8.670711164848452,0.3855555555555555,0.4155555555555556,-0.7033333333333334,-0.006603166733087763,-0.0011296188079024743,0.0
1589987588.481875,-0.03,-4.500038996058909,8.69569757311761,0.39126612735946903,0.4155555555555556,-0.6852498559542741,-0.0028074241893596827,0.0017123395967178344,0.0028031703792142904
1589987588.491875,-0.04794457671632999,-4.48972288358165,8.69383373014899,0.3922222222222223,0.4155555555555556,-0.6822222222222222,0.005902577710259719,0.002181661564992912,0.0001939831869415779
1589987588.501875,-0.0376235854675402,-4.471387730792138,8.67950565812984,0.3922222222222223,0.4155555555555556,-0.6822222222222222,0.005821229190689843,0.0011447551154012837,-0.0022355858978977397
1589987588.511875,-0.02791692187761011,-4.535833843755221,8.71208307812239,0.3922222222222223,0.4155555555555556,-0.6822222222222222,-0.000454457147649562,-0.00172720441734335,0.00018191648719733191
1589987588.521875,-0.020131967258756055,-4.520263934517511,8.719868032741244,0.3922222222222223,0.4155555555555556,-0.6822222222222222,-0.002152870775366356,-2.8790789626555874e-05,-0.0032149107682362564
1589987588.531875,-0.03,-4.526361758766294,8.732273040205618,0.3922222222222223,0.4155555555555556,-0.6888888888888889,-9.902989204048059e-05,0.0008428805598824621,-0.0004959004452279877
1589987588.541875,-0.035975583327313446,-4.485975583327313,8.724065111127164,0.3922222222222223,0.4155555555555556,-0.6888888888888889,0.002186100641355018,0.00021727834122686998,-0.001964383223766042
1589987588.5518749,-0.05832890838431644,-4.503315633537266,8.663342183231368,0.3922222222222223,0.4155555555555556,-0.6888888888888889,-0.0023639493824688484,0.0009085429650205197,-0.001090830782496456
1589987588.5618749,-0.05025953287929509,-4.47103813151718,8.67948093424141,0.3922222222222223,0.4155555555555556,-0.6888888888888889,-0.0032441817021088663,2.8310645380501785e-05,-0.001090830782496456
1589987588.5718749,-0.022195414305039473,-4.511706878542441,8.70085343927122,0.3922222222222223,0.4155555555555556,-0.6888888888888889,-0.005547249695286135,-0.000758252449265589,-0.001090830782496456
1589987588.5818748,-0.03979754752695251,-4.549865031684635,8.700067484157682,0.3856005449940105,0.42217723278376723,-0.6888888888888889,-0.005461515292135371,-0.001090830782496456,0.0010761080231902738
1589987588.5918748,-0.04,-4.5136071428571425,8.707278571428573,0.3855555555555555,0.4222222222222222,-0.6888888888888889,0.0008975979010256551,0.0004971071708805277,0.001884799759184948
1589987588.6018748,-0.021469252701608644,-4.490734626350805,8.663673131754022,0.3855555555555555,0.4222222222222222,-0.6888888888888889,0.006304578783851617,8.013530370903953e-05,0.00016027060741807906
1589987588.6118748,-0.031395958368153155,-4.485583833472613,8.73418787510446,0.3855555555555555,0.4222222222222222,-0.6888888888888889,0.00454050129704329,0.0009385553465899577,0.0007862799106834593
1589987588.6218748,-0.03936203752943858,-4.517448150117754,8.758086112588316,0.3855555555555555,0.4222222222222222,-0.6888888888888889,-0.0006732853219169237,6.959091009658882e-05,-0.0009516489623032783
1589987588.6318748,-0.04,-4.521366723858321,8.727266552283357,0.3977777777777778,0.43,-0.6966666666666667,-0.0007926578913305974,-0.00014908644558292927,-0.00282523301074058
1589987588.6418748,-0.03903706851947668,-4.525185342597384,8.700370685194768,0.3977777777777778,0.43,-0.6966666666666667,0.0011958703125354284,-0.0007757121923795386,0.00021007906007794485
1589987588.6518748,-0.03128649567595535,-4.486432478379777,8.622864956759553,0.3977777777777778,0.43,-0.6966666666666667,0.002041326656504843,0.001760656839528706,0.0019009917480167743
1589987588.6618748,-0.02598082992009669,-4.508660276640032,8.69535889343987,0.3977777777777778,0.43,-0.6966666666666667,-0.0013831130787129407,0.0020355204168846694,0.0
1589987588.6718748,-0.004858658430134961,-4.501619552810045,8.72352178875982,0.3977777777777778,0.43,-0.6966666666666667,-0.002919160735674227,0.0012674965884040268,0.0
1589987588.6818748,-0.038211378728896475,-4.54,8.719105689364449,0.3977777777777778,0.4155555555555556,-0.6966666666666667,-0.004070660658873675,-0.0018889990938807625,9.755415703738316e-05
1589987588.6918747,-0.02074858962882778,-4.54,8.710374294814414,0.3977777777777778,0.4155555555555556,-0.6966666666666667,-0.001213318474083896,0.000968343090909016,0.001050001551967309
1589987588.7018747,-0.022734479512460982,-4.5186327602437695,8.658203438537383,0.3977777777777778,0.4155555555555556,-0.6966666666666667,0.004661608572615657,0.002974206904859534,0.0004942598972367878
1589987588.7118747,-0.03874469289555618,-4.5074893857911125,8.713765921313332,0.3977777777777778,0.4155555555555556,-0.6966666666666667,0.0064080519318773545,0.001090830782496456,-0.002724761295083845
1589987588.7218747,-0.031324830172657796,-4.492649660345315,8.736025509482026,0.3977777777777778,0.4155555555555556,-0.6966666666666667,0.005598670465873801,0.001090830782496456,0.0005127645689303674
1589987588.7318747,-0.03,-4.498843883156219,8.74884388315622,0.41055227567009484,0.39983309661116534,-0.6838921687743496,0.0006305639206791976,0.0020555487808570725,0.001090830782496456
1589987588.7418747,-0.03,-4.5238723458521966,8.67838296244341,0.4122222222222222,0.3977777777777778,-0.6822222222222222,-0.0008680229901992563,0.00044561558459439926,-0.0015132381881013135
1589987588.7518747,-0.001964293798952658,-4.527053559301571,8.633928587597905,0.4122222222222222,0.3977777777777778,-0.6822222222222222,0.001090830782496456,0.0020745259579046885,0.00010713560708822324
1589987588.7618747,-0.014623847395982674,-4.508064228906026,8.659247694791965,0.4122222222222222,0.3977777777777778,-0.6822222222222222,0.001090830782496456,0.001384054420089485,0.0007976071449034271
1589987588.7718747,-0.028522037010877244,-4.5,8.763742407119649,0.4122222222222222,0.3977777777777778,-0.6822222222222222,-0.0026276093379191366,0.00016122075239255788,-0.0016979993078152387
1589987588.7818747,-0.0541919569442368,-4.508063985648079,8.755808043055763,0.39609425092606443,0.4121137522632515,-0.6875982126542748,-0.004152136724942782,0.0,-0.0013020171875394982
1589987588.7918746,-0.02971032521770037,-4.529420650435401,8.717103252177004,0.3922222222222223,0.4155555555555556,-0.6888888888888889,-0.004205330045263128,0.0021500629480483728,0.00317769649665575
1589987588.8018746,-0.022256442153900834,-4.514512884307802,8.642564421539008,0.3922222222222223,0.4155555555555556,-0.6888888888888889,-0.00013986749770236208,0.0013369704385362197,0.0007384189681192911
1589987588.8118746,-0.020763133729640906,-4.516947465081436,8.639157604755692,0.3922222222222223,0.4155555555555556,-0.6888888888888889,0.004529813082676549,0.0,0.0029395124421079163
1589987588.8218746,-0.027520177855106083,-4.489919288579576,8.720242134261273,0.3922222222222223,0.4155555555555556,-0.6888888888888889,0.006003971428825402,0.0,-8.804250189788001e-06
1589987588.8318746,-0.03,-4.499236342559049,8.759618171279525,0.38581010803587235,0.4155555555555556,-0.6824767747025391,0.0033974455040700737,0.0020983594606057746,0.0010075286781093186
1589987588.8418746,-0.040152519720118456,-4.520152519720118,8.75801724363846,0.3855555555555555,0.4155555555555556,-0.6822222222222222,-0.0011241054236250463,0.001074193461932161,-0.001074193461932161
1589987588.8518746,-0.04909387128240251,-4.528187742564805,8.636342901023182,0.3855555555555555,0.4155555555555556,-0.6822222222222222,-0.003272492347489368,0.00019768661961187668,0.0
1589987588.8618746,-0.040388933856339376,-4.510777867712679,8.697277463005623,0.3855555555555555,0.4155555555555556,-0.6822222222222222,-0.003272492347489368,0.0020968093604229036,0.0
1589987588.8718746,-0.031900998504264866,-4.501900998504265,8.71619800299147,0.3855555555555555,0.4155555555555556,-0.6822222222222222,0.0002613637081237208,-0.00046873047671690477,-0.0008834640139032722
1589987588.8818746,-0.03,-4.514732743202553,8.749465486405107,0.3798261554212291,0.41146312688817954,-0.6822222222222222,0.0002872842926984055,-0.0002872842926984055,-0.001090830782496456
1589987588.8918746,-0.03591633971618746,-4.52,8.718585621986687,0.37777777777777777,0.41,-0.6822222222222222,-0.0012907450964247265,0.0,-0.0017362033307088192
1589987588.9018745,-0.025311113440240368,-4.52734444327988,8.63124445376096,0.37777777777777777,0.41,-0.6822222222222222,-0.0037839705269913397,-0.0008011544809992139,-0.001380507083993698
1589987588.9118745,-0.049718889917442805,-4.5,8.662248880660458,0.37777777777777777,0.41,-0.6822222222222222,0.00012265741252940333,-0.001090830782496456,0.001090830782496456
1589987588.9218745,-0.041795099465361876,-4.5,8.725639204277105,0.37777777777777777,0.41,-0.6822222222222222,0.003580063228201959,-0.001090830782496456,0.001090830782496456
