time,acc_x,acc_y,acc_z,mag_x,mag_y,mag_z,gyr_x,gyr_y,gyr_z
1589987595.0330002,-3.85,-0.81,8.89,0.28,-0.38666666666666666,-0.65,-0.003272492347489368,-0.001090830782496456,0.001090830782496456
1589987595.0430002,-3.822998229844364,-0.7985008850778179,8.975996459688728,0.28,-0.38666666666666666,-0.65,-0.004800041631035866,-0.0020181334946313086,-0.002181661564992912
1589987595.0530002,-3.8370001812579297,-0.79,9.01599963748414,0.28,-0.38600004027954,-0.6465002114675851,-0.0007636013199204845,-0.0009272160512084702,-0.0025088910275688834
1589987595.0630002,-3.8224426751592357,-0.79,9.037786624203822,0.28,-0.38222222222222224,-0.6266666666666667,0.001090830782496456,0.00026645452553337,-0.0032975050278523437
1589987595.0730002,-3.8298635881104035,-0.79,9.000682059447984,0.28,-0.38222222222222224,-0.6266666666666667,0.001090830782496456,0.0010759505536694076,-5.952091530819336e-05
1589987595.0830002,-3.817311811146721,-0.8024372703822403,8.93,0.28,-0.38222222222222224,-0.6266666666666667,0.0016773026125606024,0.001384066697528529,0.0005317299116429218
1589987595.0930002,-3.8369833502696786,-0.808994450089893,8.93,0.28,-0.38222222222222224,-0.6266666666666667,-0.0026143614703205533,-0.0007617653439120488,0.00196228460593664
1589987595.1030002,-3.8363630600777983,-0.7718184699611007,9.0,0.28242462661480094,-0.38303043109382257,-0.6292933454993677,-0.004065949551734881,0.0023800258660542904,0.0026773994443052332
1589987595.1130002,-3.8234088964927286,-0.7765911035072712,9.00340889649273,0.2933333333333333,-0.38666666666666666,-0.6411111111111111,-0.007263962554613911,0.00401619819321193,0.0
1589987595.1230001,-3.840780993244477,-0.7735936644148257,8.974063355851744,0.2933333333333333,-0.38666666666666666,-0.6411111111111111,-0.005368960765282561,0.00545415391248228,-0.0007840159531307831
1589987595.1330001,-3.8632134253682944,-0.7864268507365886,8.93249397757806,0.2933333333333333,-0.38666666666666666,-0.6411111111111111,-0.0029219620165903287,0.00545415391248228,-0.001480600903194833
1589987595.1430001,-3.8613632404924947,-0.7956816202462474,8.98,0.2933333333333333,-0.38666666666666666,-0.6411111111111111,-0.0019461304866977705,0.00545415391248228,0.0
1589987595.153,-3.832713161085401,-0.7813565805427005,8.98,0.2933333333333333,-0.38666666666666666,-0.6411111111111111,-0.0011648207732421298,0.00545415391248228,0.0
1589987595.163,-3.8468731483310292,-0.786253703337942,8.991238889986175,0.2855555555555556,-0.38666666666666666,-0.6411111111111111,0.002522748170274307,0.0,0.001090830782496456
1589987595.173,-3.8433632201449828,-0.8067264402899657,8.933183899275086,0.2855555555555556,-0.38666666666666666,-0.6411111111111111,0.0036393627537353148,-0.0014674816249837862,0.0003570899700045629
1589987595.183,-3.840326096892139,-0.82,8.912898537477147,0.2855555555555556,-0.38666666666666666,-0.6411111111111111,0.004363323129985824,-0.003308064000291526,-0.0007390777392650234
1589987595.193,-3.825063357175217,-0.8183122142749275,8.94675114290029,0.2855555555555556,-0.38666666666666666,-0.6411111111111111,0.003626887680718986,-0.001090830782496456,0.0
1589987595.203,-3.8423378317156547,-0.8125540560947818,8.969783775620874,0.2855555555555556,-0.38666666666666666,-0.6411111111111111,0.0011144172033642629,-0.001090830782496456,0.0
1589987595.213,-3.8212325896708985,-0.7908217264472658,9.04712395743457,0.299406530899197,-0.38666666666666666,-0.6347183532601998,-0.004184050229292047,0.0010011943321495676,-0.0010460125573230118
1589987595.223,-3.844369382774835,-0.8224925103664464,9.025630617225165,0.3,-0.38666666666666666,-0.6344444444444445,-0.002591131604570575,-0.0015674565056264173,0.0015674565056264173
1589987595.233,-3.8411427920821066,-0.82,8.94342837624632,0.3,-0.38666666666666666,-0.6344444444444445,-0.001215490060611973,0.00134014933872749,-0.000841512226265422
1589987595.243,-3.8479648997251186,-0.82,8.963894699175356,0.3,-0.38666666666666666,-0.6344444444444445,-0.0019596665624621195,0.0028285023424277833,0.0006468407774348709
1589987595.253,-3.830611350835008,-0.8103056754175039,8.979694324582496,0.3,-0.38666666666666666,-0.6344444444444445,-0.0011241747979830238,0.00010003204645970317,-0.0010241427515233204
1589987595.263,-3.839917406566178,-0.829752219698534,9.000165186867644,0.2733333333333333,-0.38222222222222224,-0.6344444444444445,0.0011088498745054826,3.603818401805347e-05,0.002154632926979372
1589987595.273,-3.8322126877623615,-0.7977873122376385,8.9912350590893,0.2733333333333333,-0.38222222222222224,-0.6344444444444445,0.002548391970518214,0.004121956337662106,-0.0006080971978490199
1589987595.283,-3.8392836792150646,-0.7907163207849353,8.899312170204158,0.2733333333333333,-0.38222222222222224,-0.6344444444444445,0.00023441542870479472,0.0033506308237243,0.0009345538300265927
1589987595.293,-3.8275731720888824,-0.8127195162666468,8.95970731164447,0.2733333333333333,-0.38222222222222224,-0.6344444444444445,0.0013874839882122817,0.002478314770708738,0.0002647258589268767
1589987595.303,-3.820367982543146,-0.7903679825431462,8.991471930172585,0.27378308977495647,-0.38222222222222224,-0.6341582357997753,-0.0011309714510449767,4.0140668548520647e-05,0.0010506901139479352
1589987595.313,-3.8270023167107388,-0.7970023167107388,9.018009266842954,0.2855555555555556,-0.38222222222222224,-0.6266666666666667,-0.0015276685233726372,0.00010984122006604357,-0.0003269965208101374
1589987595.323,-3.8284831090618234,-0.7956554060412158,8.970206078855744,0.2855555555555556,-0.38222222222222224,-0.6266666666666667,-0.0012338181994549168,-0.0012562979154017242,-0.001090830782496456
1589987595.333,-3.8445052045857917,-0.8045052045857918,8.928242193121312,0.2855555555555556,-0.38222222222222224,-0.6266666666666667,-0.004063628530918886,0.001090830782496456,-0.0016902199806303317
1589987595.343,-3.83,-0.7878104538481685,8.958758184607325,0.2855555555555556,-0.38222222222222224,-0.6266666666666667,-0.0020782801764321485,0.0008519883482850121,-0.0025559650448550367
1589987595.353,-3.83,-0.7800416639682232,8.990208319841116,0.28553240890654275,-0.38222222222222224,-0.6266111147090359,0.002181661564992912,-9.089667811748635e-06,-9.089667811748635e-06
1589987595.363,-3.83,-0.7890961293525894,9.035480646762947,0.2805021503596726,-0.38222222222222224,-0.6145384941965474,0.002181661564992912,-0.001984467579874821,-0.001984467579874821
1589987595.373,-3.8417437297389525,-0.7817437297389525,8.99605016208838,0.28,-0.38222222222222224,-0.6133333333333333,0.003272492347489368,-0.002181661564992912,0.0
1589987595.383,-3.8491588347088075,-0.7916823305823852,8.93,0.28,-0.38222222222222224,-0.6133333333333333,0.002997221649649214,-0.002456932262833066,-0.00018351379856010251
1589987595.393,-3.84,-0.8058615836494921,8.939656304817852,0.28,-0.38222222222222224,-0.6133333333333333,-0.00030095412972804355,-0.0050027227178902145,-0.002181661564992912
1589987595.4029999,-3.84,-0.7801958144657937,8.999543099579816,0.28,-0.38222222222222224,-0.6133333333333333,-0.0021674215351965235,-0.0022030216096874944,-0.002181661564992912
1589987595.4129999,-3.84,-0.7912248049891498,8.99,0.2933333333333333,-0.38222222222222224,-0.62,-0.001090830782496456,-0.0009572252840244751,-0.0019144505680489502
1589987595.4229999,-3.84,-0.7994246446794785,8.99,0.2933333333333333,-0.38222222222222224,-0.62,-0.001090830782496456,-6.276152944980685e-05,-0.0001255230588996137
1589987595.4329998,-3.8317416622551614,-0.8247750132345156,8.93219163578613,0.2933333333333333,-0.38222222222222224,-0.62,0.0025125488272324404,-0.000900844902432224,-0.000900844902432224
1589987595.4429998,-3.838507898120957,-0.7985078981209575,8.984476305637129,0.2933333333333333,-0.38222222222222224,-0.62,0.00561691697851033,-0.0011393414621963522,-0.0007653046504403554
1589987595.4529998,-3.830457572791309,-0.7904575727913092,9.008627281626072,0.2933333333333333,-0.38222222222222224,-0.62,0.006495071246379446,-0.00728642133728017,0.000991003885297878
1589987595.4629998,-3.8515350223546947,-0.79,9.02692995529061,0.28,-0.37666666666666665,-0.65,0.006798590659314723,-0.002349106528625006,0.0003348899272641877
1589987595.4729998,-3.8590661303934066,-0.79,9.011867739213187,0.28,-0.37666666666666665,-0.65,0.0026910084218478188,-0.0031706229761183868,0.001977922822250949
1589987595.4829998,-3.8444108492663407,-0.7918630502445532,8.893041351711872,0.28,-0.37666666666666665,-0.65,0.005732075672540291,-0.00367894685870859,-0.0006843762712772341
1589987595.4929998,-3.8203569005004665,-0.8007138010009331,8.950713801000932,0.28,-0.37666666666666665,-0.65,0.002142729759773183,-0.005337358496823093,0.0011297625877161848
1589987595.5029998,-3.829251420816015,-0.8185028416320298,8.96850284163203,0.28,-0.37666666666666665,-0.65,0.0011724881041991553,-0.00242663353010101,0.0021000042432902126
1589987595.5129998,-3.837743463624085,-0.82,9.008717318120427,0.27483769091727644,-0.38096859090226964,-0.6319319182104677,-0.0005985309143623084,-0.0004922998681341475,0.0013369807165635296
1589987595.5229998,-3.84,-0.7991031282152318,9.039237538582782,0.2733333333333333,-0.38222222222222224,-0.6266666666666667,0.0009929972474186778,-0.00019566707015555615,0.00019566707015555615
1589987595.5329998,-3.839902873221146,-0.789902873221146,8.930097126778854,0.2733333333333333,-0.38222222222222224,-0.6266666666666667,3.178466405358701e-05,-0.002160471788957187,0.0021710666769750495
1589987595.5429997,-3.8310199793712036,-0.7810199793712037,8.945099896856018,0.2733333333333333,-0.38222222222222224,-0.6266666666666667,0.003049967368365287,0.00022252497912408125,0.0008683058033723747
1589987595.5529997,-3.839031401612102,-0.7890314016121023,8.985157008060511,0.2733333333333333,-0.38222222222222224,-0.6266666666666667,0.0013021461699755225,0.001970346177513845,-0.0008795153950173892
1589987595.5629997,-3.8391118077324973,-0.8082236154649949,8.995559038662487,0.2933333333333333,-0.38222222222222224,-0.6344444444444445,0.0029818321076392155,-0.0020847748183761942,0.0008970572892630208
1589987595.5729997,-3.8312854530526943,-0.7925709061053889,8.956427265263471,0.2933333333333333,-0.38222222222222224,-0.6344444444444445,0.0004206635277999378,-0.0012310519584297686,-0.0008103884306298308
1589987595.5829997,-3.8227290452386384,-0.79,8.884561407147746,0.2933333333333333,-0.38222222222222224,-0.6344444444444445,-0.0015862762543664628,0.0012885835990532385,0.0012885835990532385
1589987595.5929997,-3.8399280696395843,-0.78,8.900719303604154,0.2933333333333333,-0.38222222222222224,-0.6344444444444445,-0.004379015900253259,-0.002158122409591759,1.569277026743527e-05
1589987595.6029997,-3.8335226023213194,-0.78,8.964773976786805,0.2933333333333333,-0.38222222222222224,-0.6344444444444445,-0.005776472085660981,-6.193813148017407e-05,0.0014131489556751583
1589987595.6129997,-3.83,-0.7941644781271104,9.021246717190666,0.28782492517279046,-0.38222222222222224,-0.6391659371534812,-0.0057724322570262485,0.0026359356584014313,0.0014091091270404246
1589987595.6229997,-3.822529245839984,-0.8224122624800472,9.044941508320031,0.2855555555555556,-0.38222222222222224,-0.6411111111111111,-0.006269086773103142,0.004902358068731093,0.001090830782496456
1589987595.6329997,-3.86,-0.8283474388566365,8.934131402858409,0.2855555555555556,-0.38222222222222224,-0.6411111111111111,-0.0040027902169581546,0.005273887455968445,0.0010006975542395386
1589987595.6429996,-3.8584694599481173,-0.8089796399654116,8.98,0.2855555555555556,-0.38222222222222224,-0.6411111111111111,0.00022260802699165157,0.003328144354237281,-5.565200674791289e-05
1589987595.6529996,-3.833740861567487,-0.792493907711658,8.98,0.2855555555555556,-0.38222222222222224,-0.6411111111111111,0.0038192368698694796,0.004227301564956738,-0.0009548092174673699
1589987595.6629996,-3.83,-0.7731954115231194,8.97159770576156,0.2855555555555556,-0.3878237517145158,-0.6289744638778085,0.006196419369762482,0.0016136787703208365,-0.001090830782496456
1589987595.6729996,-3.8573028665833182,-0.7991009555277728,8.925504777638864,0.2855555555555556,-0.3888888888888889,-0.6266666666666667,0.0033705628860032375,0.0013850423980380634,-9.807053851386917e-05
1589987595.6829996,-3.83,-0.79,8.881162022194822,0.2855555555555556,-0.3888888888888889,-0.6266666666666667,0.004173187692977563,0.004268255411481694,-0.0010274523034937025
1589987595.6929996,-3.8305012966248757,-0.79,8.924010372999005,0.2855555555555556,-0.3888888888888889,-0.6266666666666667,-0.002181661564992912,0.0009267818456236584,0.0009267818456236584
1589987595.7029996,-3.8386793924386295,-0.79,8.989435139509037,0.2855555555555556,-0.3888888888888889,-0.6266666666666667,-0.002181661564992912,-0.0017494937511308127,-0.0017494937511308127
1589987595.7129996,-3.830432793532791,-0.81,9.02086558706558,0.2933333333333333,-0.37666666666666665,-0.6344444444444445,-4.721045080337395e-05,-0.00317807144588262,-0.002087240663386164
1589987595.7229996,-3.84,-0.81,9.04,0.2933333333333333,-0.37666666666666665,-0.6344444444444445,-0.001090830782496456,-0.001090830782496456,0.0
1589987595.7329996,-3.845744178291558,-0.8157441782915579,8.976814038792863,0.2933333333333333,-0.37666666666666665,-0.6344444444444445,0.0007889471676772986,-0.001090830782496456,0.000626592650057918
1589987595.7429996,-3.8136055491013465,-0.8109013872753366,8.966394450898655,0.2933333333333333,-0.37666666666666665,-0.6344444444444445,0.002181661564992912,-0.002083335466304138,0.002083335466304138
1589987595.7529995,-3.8346256500219282,-0.8017914499926906,8.994625650021929,0.2933333333333333,-0.37666666666666665,-0.6344444444444445,0.0030770754677563817,-0.0030770754677563817,0.0003908337594659731
1589987595.7629995,-3.839339900257101,-0.7903300498714494,9.01,0.3,-0.37666666666666665,-0.6266666666666667,0.0010188250705892618,0.002217664420946509,-3.6002855953597055e-05
1589987595.7729995,-3.826347613294923,-0.7968261933525386,9.01,0.3,-0.37666666666666665,-0.6266666666666667,-0.0003984135847478769,0.0029262837486150784,-0.0007446221836221664
1589987595.7829995,-3.827712580447992,-0.7845748391040162,8.902023873728112,0.3,-0.37666666666666665,-0.6266666666666667,-0.0027734548155264405,0.0015898683144593834,-0.0002495187659814638
1589987595.7929995,-3.83,-0.7941379584376367,8.91241387531291,0.3,-0.37666666666666665,-0.6266666666666667,-0.0025013863342178934,0.0018619367957679305,-0.001542212026542949
1589987595.8029995,-3.845336454396751,-0.8,8.968341135991878,0.3,-0.37666666666666665,-0.6266666666666667,-0.0013451877374764517,-0.00032775991755646825,0.0011642337450729285
1589987595.8129995,-3.8574242691476694,-0.7925757308523304,9.009697076590678,0.28927605567558834,-0.38574077340270735,-0.6217171539015536,-0.001900692914878134,-0.001090830782496456,0.0013717994326112337
1589987595.8229995,-3.8304174406100304,-0.8195825593899696,9.01013914687001,0.2855555555555556,-0.3888888888888889,-0.62,-3.0357137819010498e-05,0.002136125858264396,0.0021664829960834067
1589987595.8329995,-3.844735833318544,-0.805264166681456,8.958424583385096,0.2855555555555556,-0.3888888888888889,-0.62,0.0024111450884407087,0.002181661564992912,0.0029853765944731483
1589987595.8429995,-3.839623560920267,-0.79,8.93150575631893,0.2855555555555556,-0.3888888888888889,-0.62,0.0031082398131264447,0.0023048509657651044,-4.1063133590730874e-05
1589987595.8529994,-3.831822679338628,-0.79,8.96270928264549,0.2855555555555556,-0.3888888888888889,-0.62,-0.00029553689081826887,0.00485768349372364,-0.0008920073095769092
1589987595.8629994,-3.81131330472103,-0.7509849785407725,8.961641630901289,0.2733333333333333,-0.3944444444444444,-0.6344444444444445,-0.007886519290362253,0.00988910670329298,0.0011624604433213305
1589987595.8729994,-3.8440429184549356,-0.7755321888412018,9.00255364806867,0.2733333333333333,-0.3944444444444444,-0.6344444444444445,-0.014134451568390775,0.011674230211301127,0.0029475839513294797
1589987595.8829994,-3.857470008055912,-0.7949400161118249,8.9502399355527,0.2733333333333333,-0.3944444444444444,-0.6344444444444445,-0.014456779481661807,0.014443693027326737,0.003272492347489368
1589987595.8929994,-3.8404430828764915,-0.8097784585617543,8.93,0.2733333333333333,-0.3944444444444444,-0.6344444444444445,-0.01204747145154841,0.009938309152686594,0.0022058279870366096
1589987595.9029994,-3.852715280774209,-0.8163576403871047,8.96814584232263,0.2733333333333333,-0.3944444444444444,-0.6344444444444445,-0.009225094672142407,0.007043433107149496,0.004262194516481868
1589987595.9129994,-3.838223235527359,-0.82,9.026294607454401,0.2822053484888537,-0.3887986166182042,-0.6287986166182042,-0.0036766879724865675,0.004662328411484555,0.0038705029104868305
1589987595.9229994,-3.8595020213156928,-0.79,9.048506063947078,0.2855555555555556,-0.38666666666666666,-0.6266666666666667,0.0010365097347095138,0.005345511816908395,0.004363323129985824
1589987595.9329994,-3.8402338294744576,-0.79,8.990701488423374,0.2855555555555556,-0.38666666666666666,-0.6266666666666667,-0.0010653239436370892,0.0011418444602151892,0.004363323129985824
1589987595.9429994,-3.853253790544431,-0.803253790544431,9.009880685816647,0.2855555555555556,-0.38666666666666666,-0.6266666666666667,-0.001090830782496456,-0.001077815624097404,0.002917558858923251
1589987595.9529994,-3.847584543939033,-0.7975845439390331,9.007584543939032,0.2855555555555556,-0.38666666666666666,-0.6266666666666667,0.0009406434650087775,-0.00015018731748767849,0.0035359777299964006
1589987595.9629993,-3.852821706107038,-0.8028217061070378,8.974356587785925,0.29054177459718133,-0.38025581361314775,-0.6316528857082925,0.002181661564992912,0.0024894619530644196,0.005062638715269806
1589987595.9729993,-3.86,-0.7926211251824942,8.951310562591246,0.2933333333333333,-0.37666666666666665,-0.6344444444444445,-0.0035055619198334485,0.001376751185880581,0.00829776565489546
1589987595.9829993,-3.84661358922985,-0.7699203838447749,8.90984076768955,0.2933333333333333,-0.37666666666666665,-0.6344444444444445,-0.004363323129985824,-0.002559746451308997,0.012377223493777099
1589987595.9929993,-3.857712425808922,-0.751143787095539,9.005130767757993,0.2933333333333333,-0.37666666666666665,-0.6344444444444445,-0.0004990712689744458,-0.008227574990997202,0.02384142982498237
1589987596.0029993,-3.86,-0.756234156958136,9.03246831391627,0.2933333333333333,-0.37666666666666665,-0.6344444444444445,0.004080246187709506,-0.014847015541535906,0.032569559341552576
1589987596.0129993,-3.8453956292388844,-0.7161868877166541,9.018093443858326,0.2876538558151219,-0.37666666666666665,-0.619028719752156,0.012917343569065041,-0.02889920647283,0.04505369519748738
1589987596.0229993,-3.8234260110835985,-0.675139016625398,9.043147977832803,0.2855555555555556,-0.37666666666666665,-0.6133333333333333,0.017983543549765238,-0.04538051558402966,0.05432435048441205
1589987596.0329993,-3.716193262218352,-0.5661932622183521,8.889571405246544,0.2855555555555556,-0.37666666666666665,-0.6133333333333333,0.015455880075091766,-0.053143626475424026,0.07313241486229118
1589987596.0429993,-2.319501253223873,-0.8858981437756548,8.626523665952268,0.2855555555555556,-0.37666666666666665,-0.6133333333333333,0.016851629742456783,-0.03291072410474313,0.10498646956613379
1589987596.0529993,-2.635372315366496,-0.594729388942774,9.049088263821533,0.2855555555555556,-0.37666666666666665,-0.6133333333333333,-0.017329865553477094,0.18199201913736335,0.10943869785128861
1589987596.0629992,-2.8221083316105027,-0.348851560884846,8.960270829026257,0.2855555555555556,-0.38340989594101027,-0.6133333333333333,-0.03386586436693545,0.06806380405477769,0.04364220691803963
1589987596.0729992,-3.253943773510196,-0.37777667788556724,9.167032270837458,0.2855555555555556,-0.38666666666666666,-0.6133333333333333,-0.023742576631576987,-0.0020203369570885657,-0.04252814693754695
1589987596.0829992,-3.2843703256936068,-0.42802472858866103,8.923407117008445,0.2855555555555556,-0.38666666666666666,-0.6133333333333333,0.0022409401256098804,0.005238685226554903,-0.09191802032910622
1589987596.0929992,-3.215950323974082,-0.6742152627789777,9.127273218142548,0.2855555555555556,-0.38666666666666666,-0.6133333333333333,0.003921572003164905,0.0252153506527722,-0.14795639207454991
1589987596.1029992,-2.2273585805400464,-1.39091974805778,9.090908025194222,0.2855555555555556,-0.38666666666666666,-0.6133333333333333,0.035931808622188,0.04485655524878758,-0.18035111562809497
1589987596.1129992,-2.1097267056144173,-1.0807895171139057,8.710546588771166,0.2855555555555556,-0.3822289702317428,-0.6133333333333333,0.09156022487972432,0.10681529372753708,-0.2518858505352832
1589987596.1229992,-2.227670573696824,-0.9701741312162971,8.733534114739365,0.2855555555555556,-0.38222222222222224,-0.6133333333333333,0.05654507877448184,0.08122967988814991,-0.3358429176252571
1589987596.1329992,-2.1833346898436137,-1.03435730480786,8.816665310156386,0.2855555555555556,-0.38222222222222224,-0.6133333333333333,0.02825005035674372,0.049087829129291716,-0.4270730298138861
1589987596.1429992,-1.9894810982888977,-1.1247974532431355,9.027050537206526,0.2855555555555556,-0.38222222222222224,-0.6133333333333333,0.009861665889924586,-0.002629019386099496,-0.5286110410362163
1589987596.1529992,-2.01047337675418,-1.0795266232458203,9.08523668837709,0.2855555555555556,-0.38222222222222224,-0.6133333333333333,0.0011561832142215926,0.021152599053782126,-0.5564786112537458
1589987596.1629992,-2.0848247978436656,-0.9513854447439353,8.857946091644205,0.2855555555555556,-0.3862066486972147,-0.6382359988020365,0.029976970781305564,0.049049162031282685,-0.5866776092246222
1589987596.1729991,-2.1305624722857046,-0.9332395879523826,8.944927004809497,0.2855555555555556,-0.38666666666666666,-0.6411111111111111,0.02275405591153866,0.04206630387454589,-0.6119094657961792
1589987596.1829991,-2.204610464943332,-0.9436526162358331,9.02047892435375,0.2855555555555556,-0.38666666666666666,-0.6411111111111111,0.009262310791531617,0.03371126917187868,-0.6452034178829628
1589987596.1929991,-2.2663998230871294,-0.9354400707651482,9.000880141530295,0.2855555555555556,-0.38666666666666666,-0.6411111111111111,0.013395363412655504,0.04116354409260509,-0.6810011706809244
1589987596.202999,-2.274636247606892,-0.93,9.011455009572432,0.2855555555555556,-0.38666666666666666,-0.6411111111111111,0.018702840225483266,0.05233029216847309,-0.7086338186025389
1589987596.212999,-2.3129632653061227,-0.947185306122449,9.00851836734694,0.2855555555555556,-0.37902875283446713,-0.6291768707482993,0.022131754436807073,0.05703023616230941,-0.7388399917945156
1589987596.222999,-2.340273084688131,-0.9848634576559345,8.942841355860164,0.2855555555555556,-0.3688888888888889,-0.6133333333333333,0.028051656501278537,0.05778424255390801,-0.7840690212677185
1589987596.232999,-2.2780836326321188,-1.0122498717290918,8.811334017444842,0.2855555555555556,-0.3688888888888889,-0.6133333333333333,0.028643402961114606,0.05566874958964982,-0.8173048238636145
1589987596.242999,-2.3428266296809985,-1.0727078552515446,8.83776724246627,0.2855555555555556,-0.3688888888888889,-0.6133333333333333,0.027540238187939964,0.057005625595726465,-0.848757042744918
1589987596.252999,-2.363595449655337,-1.0964045503446629,8.86,0.2855555555555556,-0.3688888888888889,-0.6133333333333333,0.02936665376161331,0.06130717180431535,-0.8737678659197338
1589987596.262999,-2.36,-1.1167875793269793,8.915958597756598,0.3048301836717171,-0.3583189315348648,-0.6170639065171065,0.030543261909900768,0.06265777177501211,-0.8976124468471233
1589987596.272999,-2.338017356052448,-1.159310191930069,9.025947931842657,0.32,-0.35,-0.62,0.02654670446012595,0.059779420132433106,-0.9270462060885121
1589987596.282999,-2.37144606630381,-1.17,8.9907913338517,0.32,-0.35,-0.62,0.026380840709920916,0.0621341940360647,-0.9524812741482517
1589987596.292999,-2.413153856883805,-1.1897307853257078,8.936846143116194,0.32,-0.35,-0.62,0.030857927561763327,0.06794617416664282,-0.9804513061066417
1589987596.302999,-2.396856664325463,-1.205785833918634,8.958929169593171,0.32,-0.35,-0.62,0.03209378690080786,0.07107544322794482,-1.0028088301457632
1589987596.312999,-2.437149167865215,-1.2226998150811588,8.954600369837681,0.34469408488003106,-0.35,-0.6242332716937197,0.03024875777014315,0.07407283402814721,-1.0286204810840025
1589987596.322999,-2.4868771242065133,-1.2637542484130266,8.934374291931162,0.3588888888888889,-0.35,-0.6266666666666667,0.030679770234369703,0.07710833265270355,-1.0514944738842316
1589987596.332999,-2.5183323505948456,-1.3205539176580765,8.875002948215462,0.3588888888888889,-0.35,-0.6266666666666667,0.03096750961425139,0.07853981633974483,-1.0778005929489025
1589987596.342999,-2.4949224938931125,-1.34,8.81193799511449,0.3588888888888889,-0.35,-0.6266666666666667,0.029777989441208758,0.08007036127712885,-1.105159556928883
1589987596.352999,-2.4752713990893307,-1.34,8.842557408196024,0.3588888888888889,-0.35,-0.6266666666666667,0.03099986215685395,0.0791740468752881,-1.1229636050093827
1589987596.362999,-2.4843730301334355,-1.3629968482134966,8.901498424106748,0.355375481522938,-0.3423343839288344,-0.6333740807289365,0.033352065223185706,0.07713541468310237,-1.1401082895309425
1589987596.372999,-2.501300821571519,-1.4324661189523207,8.967398356856963,0.3466666666666667,-0.3233333333333333,-0.65,0.033546742410741195,0.07635815477475191,-1.1656576302289865
1589987596.382999,-2.504766072188845,-1.4547660721888451,8.945701783433464,0.3466666666666667,-0.3233333333333333,-0.65,0.0343356520829094,0.07555279047074406,-1.1839181914398003
1589987596.392999,-2.5389156288041947,-1.4961445360052439,8.958915628804196,0.3466666666666667,-0.3233333333333333,-0.65,0.03727223938950089,0.08078718414135548,-1.1942231337376117
1589987596.402999,-2.5329159967465524,-1.4872213289954035,8.947221328995404,0.3466666666666667,-0.3233333333333333,-0.65,0.0388002692752803,0.08290313946973066,-1.2022320953897512
1589987596.412999,-2.528671594222554,-1.4960147826676613,8.956014782667662,0.3635280998771878,-0.3199610466912291,-0.6524087761729316,0.036905097692052406,0.08290313946973066,-1.2097695801100283
1589987596.422999,-2.5132966407287913,-1.556703359271209,8.93125260960334,0.3855555555555555,-0.31555555555555553,-0.6555555555555556,0.03614606196051789,0.08406829332129453,-1.2216681609537205
1589987596.432999,-2.4987863231305694,-1.6063589693917086,8.840461545912436,0.3855555555555555,-0.31555555555555553,-0.6555555555555556,0.03865829697416526,0.08460558144793427,-1.2311507786117453
1589987596.442999,-2.501209166260361,-1.6312091662603607,8.79879083373964,0.3855555555555555,-0.31555555555555553,-0.6555555555555556,0.03735204576047105,0.08559218892672825,-1.2383365268698907
1589987596.4529989,-2.48,-1.6421280251337687,8.828032006283442,0.3855555555555555,-0.31555555555555553,-0.6555555555555556,0.03447723541473041,0.08857196819479102,-1.2512003642430412
1589987596.4629989,-2.484117556900912,-1.70029389225228,8.858529006054104,0.3924181503904087,-0.3116667518158054,-0.653039270782776,0.037537402386499046,0.08726646259971647,-1.259749093235702
1589987596.4729989,-2.5042168650754215,-1.7610843253771091,8.938433730150843,0.4188888888888889,-0.2966666666666667,-0.6433333333333333,0.03972989679286285,0.08726646259971647,-1.2721452554907862
1589987596.4829988,-2.5278506653695145,-1.803387999027136,8.91429866926097,0.4188888888888889,-0.2966666666666667,-0.6433333333333333,0.04182114309785212,0.08726646259971647,-1.2833216909041238
1589987596.4929988,-2.496287091222031,-1.8558086058519794,8.93564911072863,0.4188888888888889,-0.2966666666666667,-0.6433333333333333,0.046237306602633026,0.08791748142541017,-1.2919660602135858
1589987596.5029988,-2.4346035384583327,-1.88,8.919048492299998,0.4188888888888889,-0.2966666666666667,-0.6433333333333333,0.04910468411048959,0.08946542306285846,-1.2998200212843474
1589987596.5129988,-2.4363351258158534,-1.8988108041541807,8.886335125815853,0.4289213177711187,-0.2866342377844369,-0.6592180123968638,0.04730549940475199,0.09259089536869511,-1.3114698798284277
1589987596.5229988,-2.48,-1.9545870583226905,8.939834823329075,0.4455555555555555,-0.27,-0.6855555555555556,0.039323962109030594,0.09277467045135694,-1.3290421736240359
1589987596.5329988,-2.4971229645411657,-2.0199535839293867,8.84155455790595,0.4455555555555555,-0.27,-0.6855555555555556,0.03848785006359623,0.09256116696622586,-1.3429620163833846
1589987596.5429988,-2.515260314875136,-2.0394793702497283,8.802082519001086,0.4455555555555555,-0.27,-0.6855555555555556,0.04150836163065328,0.09662371209461829,-1.355209375131114
1589987596.5529988,-2.491691109869144,-2.0488725934205707,8.854154445065427,0.4455555555555555,-0.27,-0.6855555555555556,0.04048371993249191,0.09302806896250634,-1.3691383592389008
1589987596.5629988,-2.46,-2.080153201396973,8.873384400465657,0.46059733540292325,-0.25420613116026386,-0.6904441340059501,0.04002498149149336,0.08911236670383388,-1.3814277981812328
1589987596.5729988,-2.450880657881433,-2.1227983552964176,8.86632098682215,0.49,-0.22333333333333333,-0.7,0.04512538016471563,0.09570491424191353,-1.399264757917173
1589987596.5829988,-2.427885148142931,-2.162114851857069,8.841923432095287,0.49,-0.22333333333333333,-0.7,0.04646521520297843,0.0970630589853316,-1.4146394723178513
1589987596.5929987,-2.4126664359861594,-2.186666089965398,8.836666089965398,0.49,-0.22333333333333333,-0.7,0.04596032438751409,0.0949748994759987,-1.4244793816926595
1589987596.6029987,-2.4272807596362758,-2.246315442182345,8.890876961454897,0.49,-0.22333333333333333,-0.7,0.047795592975474754,0.10372458599216973,-1.4400879562053346
1589987596.6129987,-2.420530457873984,-2.2868172527560957,8.917878168504064,0.49,-0.22333333333333333,-0.7,0.050004624061509136,0.1066699607735489,-1.4459787057680928
1589987596.6229987,-2.383428128632313,-2.3009531189461447,8.932190623789229,0.49,-0.17888888888888888,-0.7066666666666667,0.04472406208235469,0.10253809355466686,-1.459978485263641
1589987596.6329987,-2.358769242378509,-2.338769242378509,8.930769317838816,0.49,-0.17888888888888888,-0.7066666666666667,0.04472406208235469,0.10267234838459832,-1.469684701097555
1589987596.6429987,-2.336668553250454,-2.34665157399637,8.799994340248638,0.49,-0.17888888888888888,-0.7066666666666667,0.04290703975002829,0.1039929461867292,-1.4769836447340001
1589987596.6529987,-2.318217641709609,-2.4,8.82,0.49,-0.17888888888888888,-0.7066666666666667,0.03926990816987242,0.10382334946602295,-1.4831475609060858
1589987596.6629987,-2.28,-2.403109338984311,8.826218677968622,0.4924183747655753,-0.1705973182640593,-0.715649201510232,0.040287436973063265,0.10833142373487945,-1.491019075714044
1589987596.6729987,-2.27823136657232,-2.4223804339937587,8.83469409971696,0.4977777777777778,-0.15222222222222226,-0.7355555555555555,0.04196361658160218,0.1096618621854052,-1.4953360748240545
1589987596.6829987,-2.262453517760232,-2.48,8.783587312160812,0.4977777777777778,-0.15222222222222226,-0.7355555555555555,0.04132789195154786,0.11276716735347005,-1.4932033817511392
1589987596.6929986,-2.23897899417911,-2.509389348855707,8.769389348855707,0.4977777777777778,-0.15222222222222226,-0.7355555555555555,0.04472406208235469,0.1126449312193981,-1.489162004272072
1589987596.7029986,-2.2058737527449246,-2.564708749085025,8.82941749817005,0.4977777777777778,-0.15222222222222226,-0.7355555555555555,0.04472406208235469,0.11331931919423752,-1.4846842360703736
1589987596.7129986,-2.1802443298621643,-2.5895113402756715,8.844877835068917,0.5042815578696683,-0.1300009735749297,-0.7501890607623092,0.045788240611377956,0.11616015220913596,-1.4803373286081103
1589987596.7229986,-2.1550319017947093,-2.6199787321368606,8.86496809820529,0.5111111111111111,-0.10666666666666667,-0.7655555555555555,0.04200742496401924,0.11617463831786207,-1.4753521132724252
1589987596.7329986,-2.1266701030927835,-2.6344432989690723,8.822237113402062,0.5111111111111111,-0.10666666666666667,-0.7655555555555555,0.03611886914661976,0.11611275167375419,-1.4683808111322834
1589987596.7429986,-2.1053564458037384,-2.6539306625887846,8.763930662588784,0.5111111111111111,-0.10666666666666667,-0.7655555555555555,0.03288045229689754,0.11722542691286805,-1.4571544498735258
1589987596.7529986,-2.1,-2.674632501889645,8.78,0.5111111111111111,-0.10666666666666667,-0.7655555555555555,0.028521951645421772,0.11806238829267712,-1.4506324525874839
1589987596.7629986,-2.1,-2.6873136810279665,8.78,0.5111111111111111,-0.10666666666666667,-0.7655555555555555,0.022988743420448363,0.11875403932079877,-1.447174197446875
1589987596.7729986,-2.0982908222565033,-2.7565816445130067,8.833163289026015,0.5333333333333333,-0.12,-0.7922222222222223,0.029079546388331542,0.1250726552480197,-1.42911912057045
1589987596.7829986,-2.085214043515117,-2.74287157389093,8.788513704436282,0.5333333333333333,-0.12,-0.7922222222222223,0.026957529442967483,0.12389035866098737,-1.4173958206843738
1589987596.7929986,-2.04,-2.7756820473590875,8.711251260474981,0.5333333333333333,-0.12,-0.7922222222222223,0.023068554389887714,0.12856923268369919,-1.3953582953835884
1589987596.8029985,-2.0397419485244574,-2.7905161029510848,8.790258051475542,0.5333333333333333,-0.12,-0.7922222222222223,0.02058503962093753,0.12567073238148466,-1.3814351732891321
1589987596.8129985,-2.03,-2.842965294694549,8.812361985510456,0.5461531701589912,-0.12549421578242484,-0.7922222222222223,0.015271630954950384,0.13057623042637598,-1.3457561314859408
1589987596.8229985,-1.9769519169230132,-2.8128391518880194,8.690145962797034,0.5644444444444444,-0.13333333333333333,-0.7922222222222223,0.011589218465771801,0.12071100964386283,-1.317623368541593
1589987596.8329985,-1.9299996047196473,-2.8033304346107477,8.89665256833409,0.5644444444444444,-0.13333333333333333,-0.7922222222222223,-0.005090040603677752,0.10871974107199844,-1.2980888898811684
1589987596.8429985,-1.9743514365152919,-2.95,9.290387395736794,0.5644444444444444,-0.13333333333333333,-0.7922222222222223,-0.018921819669761974,0.09789064893894164,-1.2710529310926586
1589987596.8529985,-2.0019789651837523,-2.959340344938749,8.78416827852998,0.5644444444444444,-0.13333333333333333,-0.7922222222222223,0.033107654923281674,0.11388961732015009,-1.2132024926812515
1589987596.8629985,-2.0026529178231387,-3.0244215297052315,8.99102062326529,0.5523507711766152,-0.15812536353238316,-0.8230610890551867,0.013498317139228444,0.08517402051480828,-1.179989518218674
1589987596.8729985,-2.004751612340945,-3.023711289291732,8.76905322177677,0.5422222222222223,-0.17888888888888888,-0.8488888888888889,-0.003401280224430439,0.06842587999885552,-1.15359595361681
1589987596.8829985,-1.97,-2.9674492939152697,8.543175581069727,0.5422222222222223,-0.17888888888888888,-0.8488888888888889,0.02800782328551278,0.08954578705590541,-1.1179431007818645
1589987596.8929985,-1.97,-3.05,8.733590280896074,0.5422222222222223,-0.17888888888888888,-0.8488888888888889,0.011999138607461015,0.0759526104163339,-1.0607771508382504
1589987596.9029984,-1.9739374445848819,-3.089374445848818,8.742686336282517,0.5422222222222223,-0.17888888888888888,-0.8488888888888889,0.014146681486242546,0.07437418815453146,-1.0223813926888703
1589987596.9129984,-1.98,-3.15,8.852082225154806,0.5245256544738831,-0.17247388308011594,-0.8232288656537972,0.018104801198442547,0.07505513741775341,-0.9874588915987739
1589987596.9229984,-1.9817896096440872,-3.1544740241102183,8.786263633754304,0.4533333333333333,-0.14666666666666667,-0.72,0.020530568738590372,0.06922752169324631,-0.9496769974538989
1589987596.9329984,-1.9800929356861017,-3.190046467843051,8.786960963005988,0.4533333333333333,-0.14666666666666667,-0.72,0.018182202660060803,0.061820502815278656,-0.8967338671871213
1589987596.9429984,-1.9449206743634835,-3.1814815735147945,8.686243596605244,0.4533333333333333,-0.14666666666666667,-0.72,0.017095450982188034,0.05836809994817574,-0.8594995728537138
1589987596.9529984,-1.9689723985014145,-3.2376022631699675,8.81451945867421,0.4533333333333333,-0.14666666666666667,-0.72,0.015346360244736821,0.05574446384199891,-0.8271413942108663
1589987596.9629984,-1.9299808901491802,-3.24331740845765,8.8133651830847,0.47038664913217987,-0.1140429320949602,-0.7007223386621735,0.01854308102176359,0.04835842755621594,-0.7661136173514462
1589987596.9729984,-1.8100279812001312,-3.098927751666849,8.826685320800088,0.5044444444444445,-0.048888888888888885,-0.6622222222222223,0.019270326398956247,0.04472406208235469,-0.7186220312297864
1589987596.9829984,-1.7228629262469508,-3.011451704987803,8.528467327554887,0.5044444444444445,-0.048888888888888885,-0.6622222222222223,0.03226163036786256,0.05548137360810723,-0.6708506270259254
1589987596.9929984,-1.744591126877361,-3.08,8.38987169446236,0.5044444444444445,-0.048888888888888885,-0.6622222222222223,0.010668692917982933,0.03575780091540142,-0.6368119695584991
1589987597.0029984,-1.7688115818969177,-3.1176231637938354,8.583729472701027,0.5044444444444445,-0.048888888888888885,-0.6622222222222223,-0.009274182736803568,0.010684862110462184,-0.614897634927415
1589987597.0129983,-1.8074134263592274,-3.199353356589807,8.618498255764486,0.5048036907834407,-0.04378759087514299,-0.6590608544390558,0.033284214404471116,0.042222474225583916,-0.5741952068152858
1589987597.0229983,-1.7524380156198438,-3.1680475195248046,8.977541304586953,0.51,0.03,-0.6133333333333333,0.017001409478816724,0.022774473308108934,-0.5319253745775705
1589987597.0329983,-1.725872860512975,-3.1647628369221503,8.61428851076645,0.51,0.03,-0.6133333333333333,0.023928933381863166,0.027599885851804874,-0.49475176842197893
1589987597.0429983,-1.7328802648945285,-3.225760529789057,8.741467108157547,0.51,0.03,-0.6133333333333333,0.015105709093968623,0.023358130519120286,-0.464367954808558
1589987597.0529983,-1.7432346441910944,-3.2633826779044526,8.864714981324676,0.51,0.03,-0.6133333333333333,0.0035768933734827675,0.008694350313695965,-0.44419178963636174
1589987597.0629983,-1.7433521630654805,-3.279537259332486,9.02329567386904,0.5089403045186127,0.03402684282927187,-0.6156646633923855,0.0010465156214883855,0.005611747457249103,-0.4191818835373014
1589987597.0729983,-1.7840969321835283,-3.313184399507226,8.887281331690755,0.5044444444444445,0.05111111111111112,-0.6255555555555555,0.022759166078469444,0.009669196688511973,-0.38600788156188015
1589987597.0829983,-1.7410956842897203,-3.29,8.761918701411213,0.5044444444444445,0.05111111111111112,-0.6255555555555555,0.021368276563527227,0.00545415391248228,-0.3519500375269699
1589987597.0929983,-1.745738643161967,-3.2928522713676065,8.711374985043673,0.5044444444444445,0.05111111111111112,-0.6255555555555555,0.02524653515756938,0.004520750290136721,-0.3233693524379635
1589987597.1029983,-1.7159877300613497,-3.3134723926380367,8.807963190184049,0.5044444444444445,0.05111111111111112,-0.6255555555555555,0.022744156425720585,0.0031614016052228574,-0.2947531849719657
1589987597.1129982,-1.7414871016691957,-3.375102427921093,8.89084597875569,0.5115385263867813,0.05915107064575958,-0.626974371944023,0.02088800249517872,0.008262339682596449,-0.257410821619948
1589987597.1229982,-1.6946507239837565,-3.3077205791870052,8.832279420812995,0.5377777777777778,0.08888888888888889,-0.6322222222222222,0.015778946243188,0.006879853950329795,-0.21902838666372396
1589987597.1329982,-1.66,-3.2824175661250146,8.833406772624837,0.5377777777777778,0.08888888888888889,-0.6322222222222222,0.010944276388306275,0.0057898065939543985,-0.18738321198654678
1589987597.1429982,-1.6567995934005786,-3.29,8.743599186801157,0.5377777777777778,0.08888888888888889,-0.6322222222222222,0.008683146088021284,0.0006982204070307286,-0.14739154732496015
1589987597.1529982,-1.656563223396209,-3.294922417547157,8.744767252641472,0.5377777777777778,0.08888888888888889,-0.6322222222222222,0.010550339519315267,0.0005708041895710982,-0.11698250720768834
1589987597.1629982,-1.702656399748835,-3.3471208566046466,8.825424171320929,0.5381795682459948,0.0884870984206719,-0.6310168508175713,0.007740504085570955,-0.007241358607714915,-0.08363595972640099
1589987597.1729982,-1.7300900286887195,-3.4808763532041023,8.85543817660205,0.54,0.08666666666666667,-0.6255555555555555,0.005348738000848594,-0.004860940868665358,-0.04138543624921683
1589987597.1829982,-1.656961848758143,-3.5074684186334024,8.8687342093167,0.54,0.08666666666666667,-0.6255555555555555,0.010425040620425742,-0.0034105686916433156,-0.014553550974309042
1589987597.1929982,-1.71378709642838,-3.527929032142793,8.680354839286034,0.54,0.08666666666666667,-0.6255555555555555,0.00545415391248228,-0.012225046156281191,0.0349903331839018
1589987597.2029982,-1.6913051867998357,-3.520435062266612,8.71782468866694,0.54,0.08666666666666667,-0.6255555555555555,0.00545415391248228,-0.01304251145868518,0.06687147997765737
1589987597.2129982,-1.7081369299699256,-3.445095439759406,8.793726140060148,0.553662513553878,0.09059981450793456,-0.6307307500835396,0.003753634888360342,-0.015678089782700706,0.12096588969301235
1589987597.2229981,-1.6964132607988096,-3.3620663039940486,8.82076021760357,0.6133333333333333,0.10777777777777778,-0.6533333333333333,-0.00047417942928159977,-0.01667078741405427,0.16437095926150216
1589987597.2329981,-1.7065950019649998,-3.349914002358,8.803490995677,0.6133333333333333,0.10777777777777778,-0.6533333333333333,-0.004720679465810252,-0.018168005191592153,0.19303483450807057
1589987597.2429981,-1.7368523300431982,-3.39,8.723704660086396,0.6133333333333333,0.10777777777777778,-0.6533333333333333,-0.006949100421071433,-0.022624847102114515,0.2206092257354521
1589987597.252998,-1.738225806451613,-3.3790322580645165,8.756612903225808,0.6133333333333333,0.10777777777777778,-0.6533333333333333,-0.006949647727195163,-0.02142954666259167,0.24587677718367693
1589987597.262998,-1.7580282238442821,-3.35,8.858310462287106,0.6315174912138416,0.10230062178967289,-0.6579341443633414,-0.010047958174224776,-0.02725537584333967,0.2808040487107833
1589987597.272998,-1.7419932951529544,-3.370016762117614,8.810033524235228,0.7055555555555556,0.08,-0.6766666666666666,-0.006544984694978735,-0.031634092692397225,0.3359758810089084
1589987597.282998,-1.711861888111888,-3.2984265734265734,8.790192307692307,0.7055555555555556,0.08,-0.6766666666666666,-0.008919257989048818,-0.03321694155511061,0.35061723298900727
1589987597.292998,-1.706069215000603,-3.146069215000603,8.72820764500181,0.7055555555555556,0.08,-0.6766666666666666,-0.01344543316743467,-0.037063807154814644,0.3997972292747725
1589987597.302998,-1.749624932791961,-3.1766560987819124,8.838124663959805,0.7055555555555556,0.08,-0.6766666666666666,-0.015029608373528814,-0.03842109996879753,0.4582342139519171
1589987597.312998,-1.7219364853502361,-3.115163960933963,8.704200892568398,0.7460783045512365,0.07892417480542441,-0.7004065426269682,-0.01794618068025118,-0.03613824101104243,0.4888341446062994
1589987597.322998,-1.7808745048741728,-3.22396195536159,8.882212945613245,1.3333333333333333,0.06333333333333334,-1.0444444444444445,-0.025089107997418484,-0.03817907738737596,0.5332851801153494
1589987597.332998,-1.85,-3.297132133814336,8.802792802886016,1.3333333333333333,0.06333333333333334,-1.0444444444444445,-0.023212093968176674,-0.04036892708815808,0.5680509426880593
1589987597.342998,-1.8418269541604708,-3.2589424258097885,8.742019299153036,1.3333333333333333,0.06333333333333334,-1.0444444444444445,-0.019435664301291067,-0.04670643386370247,0.6003869470529871
1589987597.352998,-1.8079297859959915,-3.1301331867847675,8.667445529191182,1.3333333333333333,0.06333333333333334,-1.0444444444444445,-0.023133271748618348,-0.050404041311029754,0.6247911562053472
1589987597.362998,-1.9165874018683844,-3.2593174803736766,8.82,1.3033024697751172,0.023519688464486196,-1.0386809453777162,-0.014180800172453925,-0.05141794946094367,0.6661027787436645
1589987597.372998,-1.8731474615241213,-3.250629492304824,8.82,0.9210309947456,-0.4832796155519191,-0.9653157127962936,-0.014180800172453925,-0.05331337442563694,0.688847878319984
1589987597.382998,-1.88,-3.264758710430081,8.822828393870727,0.8933333333333333,-0.52,-0.96,-0.017791801738158156,-0.05747552225409731,0.7160287849720351
1589987597.392998,-1.88,-3.2477039573820394,8.708368340943682,0.8933333333333333,-0.52,-0.96,-0.019312021684334137,-0.05445254592856432,0.7292483545047942
1589987597.402998,-1.9001567398119121,-3.2332810867293627,8.76776036224312,0.8933333333333333,-0.52,-0.96,-0.012618453889756112,-0.05805833805299667,0.7402025858148923
1589987597.412998,-1.970637147905623,-3.2074514083775076,8.767008626961854,0.8749976324937347,-0.49047881370612895,-0.945557980805876,-0.01854412330243975,-0.05869635609027157,0.7464062634469586
1589987597.422998,-1.9940394297275679,-3.1980788594551357,8.831391568249188,0.6055555555555555,-0.05666666666666665,-0.7333333333333333,-0.02084131961976878,-0.05524950385443108,0.7512573104633381
1589987597.432998,-2.011145195114931,-3.2736128130268516,8.771806406513425,0.6055555555555555,-0.05666666666666665,-0.7333333333333333,-0.0247671382060307,-0.055829418290373946,0.7510633909656157
1589987597.442998,-1.9854997062854904,-3.317999216761308,8.781998825141963,0.6055555555555555,-0.05666666666666665,-0.7333333333333333,-0.023016465432109574,-0.05808668576913158,0.7468918154158014
1589987597.452998,-1.9608611709418444,-3.2522964558449186,8.683444683767378,0.6055555555555555,-0.05666666666666665,-0.7333333333333333,-0.017641170874414393,-0.0536072736377189,0.7451000505632364
1589987597.462998,-1.968885693587689,-3.3210855487015127,8.831056790990713,0.6055555555555555,-0.05666666666666665,-0.7333333333333333,-0.024238244182441117,-0.0544199871512546,0.7363139151647251
1589987597.472998,-1.8989074012056262,-3.4678148024112527,8.811092598794374,0.5811111111111111,0.027777777777777776,-0.7266666666666667,-0.017691660599507573,-0.05368907642189061,0.7200028397210325
1589987597.482998,-1.8918841259209644,-3.4537682518419293,8.818115874079036,0.5811111111111111,0.027777777777777776,-0.7266666666666667,-0.019223901574398697,-0.05522131739678173,0.6993175865600023
1589987597.492998,-1.85918279054917,-3.5067311621966795,8.725720466155812,0.5811111111111111,0.027777777777777776,-0.7266666666666667,-0.013446544279842487,-0.0527375585625563,0.6392643314975004
1589987597.5029979,-1.8524869093231162,-3.479947637292465,8.772591634738186,0.5811111111111111,0.027777777777777776,-0.7266666666666667,-0.016368173622770255,-0.04689429987670076,0.5859445959890686
1589987597.5129979,-1.9072467701661058,-3.4604588716389824,8.837705641805089,0.5811111111111111,0.027777777777777776,-0.7266666666666667,-0.012249414261969304,-0.0416017351275703,0.46622671356256007
1589987597.5229979,-1.8935981289568127,-3.4353971934352194,8.790794386870438,0.5747326057054272,0.017754412140274473,-0.7576479786371315,-0.007526222151349544,-0.029821986948975504,0.36391184225277085
1589987597.5329978,-1.9147761850320992,-3.3373880925160493,8.804328555096298,0.5733333333333334,0.015555555555555557,-0.7644444444444445,-0.007965530137526228,-0.01915875287094338,0.19011412531585692
1589987597.5429978,-1.8852674347023128,-3.3226337173511564,8.715802304106939,0.5733333333333334,0.015555555555555557,-0.7644444444444445,0.00249591215661211,-0.010306763237441714,0.08710915503511023
1589987597.5529978,-1.8983986167871738,-3.33564948129519,8.811450172901603,0.5733333333333334,0.015555555555555557,-0.7644444444444445,0.009059519394385138,0.005170764236702628,-0.09943730160730196
1589987597.5629978,-1.8456567117258724,-3.315871266897202,8.818042911034267,0.5733333333333334,0.015555555555555557,-0.7644444444444445,0.01553192492082713,0.01380063827195862,-0.19940000918235054
1589987597.5729978,-3.975523261865112,-4.930894827227311,7.549045326810991,0.5222222222222223,-0.05333333333333334,-0.7122222222222222,-0.05615723571783976,0.28835858555376565,-0.39721686728495337
1589987597.5829978,-17.433554087399507,-15.072869537530845,-2.777560296107618,0.5222222222222223,-0.05333333333333334,-0.7122222222222222,-0.6579256908475446,1.822779800470792,-0.7846074999328767
1589987597.5929978,2.6214519090438304,1.196268066475213,-0.6383108139918083,0.5222222222222223,-0.05333333333333334,-0.7122222222222222,-0.29580043076532203,-0.9360797892878725,-1.679944882623172
1589987597.6029978,0.8117569060773481,0.310233595037317,-0.9703830570902394,0.5222222222222223,-0.05333333333333334,-0.7122222222222222,0.049255603858744695,-0.26074829087417567,-1.7180217724922375
1589987597.6129978,-0.0933373695976155,-0.13778315946348732,0.07345783656234477,0.5222222222222223,-0.04553947949439753,-0.7086546130705966,0.10940770607659009,-0.0462472896793113,-1.6334297182975397
1589987597.6229978,-0.25537108209400583,-0.36644529851280705,0.1427036833687427,0.5222222222222223,0.10444444444444444,-0.64,0.21082922516689478,-0.1102226033474668,-1.4717209458943754
1589987597.6329978,-0.002303005768646898,-0.053090982694059305,0.11084890193300273,0.5222222222222223,0.10444444444444444,-0.64,0.23881263230548055,-0.013215799662793164,-1.3110930871993272
1589987597.6429977,-0.012244447628600085,-0.014288866599799395,0.00020002865740077064,0.5222222222222223,0.10444444444444444,-0.64,0.22648191639144127,0.062120398199211335,-1.1532686923236315
1589987597.6529977,0.7429665468620402,-0.10651724001737826,2.797179983411667,0.5222222222222223,0.10444444444444444,-0.64,0.19249266409752094,0.09785827913639084,-0.9351415831612337
1589987597.6629977,3.5359488171403064,-0.630049099836334,11.801192679660765,0.5208718279356578,0.10429440063482616,-0.641050306667328,0.301989028133618,0.022743813699958242,-0.7888954762775837
1589987597.6729977,2.4729758335604615,2.454078768056691,3.0879694739711097,0.5022222222222222,0.10222222222222224,-0.6555555555555556,1.5328331956485546,-0.1270841398658507,-0.668058312736065
1589987597.6829977,-0.5196569519212919,0.8884752181176907,-0.8788691293855578,0.5022222222222222,0.10222222222222224,-0.6555555555555556,1.0370488358036547,0.18072585524461623,-0.47449199153892596
1589987597.6929977,0.3679431965843696,1.0286226099870057,-0.6764340077965473,0.5022222222222222,0.10222222222222224,-0.6555555555555556,0.03145731614271852,0.01256105719320963,-0.275751775659991
1589987597.7029977,1.6442538080004696,0.10016538021307186,8.570072931646758,0.5022222222222222,0.10222222222222224,-0.6555555555555556,-1.577777589378188,0.03735916949094402,0.0030107256145018918
1589987597.7129977,3.0229454406714993,-3.463506295307135,20.024292254864555,0.5022222222222222,0.10222222222222224,-0.6555555555555556,-1.513995298803926,-0.03582261653636683,0.04128009995905894
1589987597.7229977,0.05564532178683807,-2.1427101094586236,8.839624828550683,0.4955555555555556,0.07111111111111111,-0.6322222222222222,0.1536554396629771,-0.24730031252357568,0.02875667922901833
1589987597.7329977,-0.2155543700340522,-3.043693757094211,11.977408853575483,0.4955555555555556,0.07111111111111111,-0.6322222222222222,0.3022185190099775,0.4730229573550223,0.20906253596004726
1589987597.7429976,-0.4678302358232397,-1.9022106941436832,7.148045832044357,0.4955555555555556,0.07111111111111111,-0.6322222222222222,0.14283661130946193,0.5952920278215328,0.2640876326921515
1589987597.7529976,-0.9827463956511463,-2.4505537053350808,9.536937968672785,0.4955555555555556,0.07111111111111111,-0.6322222222222222,-0.07476298380236357,-0.3306062916193897,0.11385108293547642
1589987597.7629976,-0.623891041582326,-2.1618795905384305,8.533183737204327,0.49514956399925464,0.07145464242798116,-0.6322222222222222,-0.2813922000205319,-0.595239628206538,0.049213369196647115
1589987597.7729976,-1.3111763345092822,-3.366650280492742,12.939895321265398,0.4834702060802344,0.08133717605176745,-0.6322222222222222,-0.029136177890885073,0.1994550429081886,0.20973992873369515
1589987597.7829976,-0.8008904641677996,-1.9106292483977472,7.319795105845795,0.4811111111111111,0.08333333333333333,-0.6322222222222222,0.17027192703894523,0.15064830708624122,0.23667013366980566
1589987597.7929976,-1.059189751906724,-2.478520645217849,9.862498685017972,0.4811111111111111,0.08333333333333333,-0.6322222222222222,-0.1109955942691545,-0.14659385801946423,0.14054439470672456
1589987597.8029976,-1.208008650841284,-2.646017301682568,10.25107431859103,0.4811111111111111,0.08333333333333333,-0.6322222222222222,-0.19309291915399912,-0.1149811137583001,0.11769811070575825
1589987597.8129976,-1.017039052960533,-2.264078105921066,8.610471864070036,0.4811111111111111,0.08333333333333333,-0.6322222222222222,0.15725590302344822,0.0516712989531343,0.1735645445124323
1589987597.8229976,-1.0699649356006784,-2.345585094192602,8.54402919741486,0.5155555555555555,0.09222222222222222,-0.6411111111111111,-0.004254000055964255,0.03161194308261376,0.14167270410811927
1589987597.8329976,-1.25,-2.69,10.18,0.5155555555555555,0.09222222222222222,-0.6411111111111111,-0.07853981633974483,-0.09817477042468103,0.10581058590215622
1589987597.8429976,-1.1828379549393413,-2.4064269208549973,8.948695840554592,0.5155555555555555,0.09222222222222222,-0.6411111111111111,-0.033768333681779006,-0.00863180510874939,0.13267347549693573
1589987597.8529975,-1.095600144831332,-2.314700380182246,7.941200289662663,0.5155555555555555,0.09222222222222222,-0.6411111111111111,0.04676379913059772,-0.020136692798603938,0.16467187022093124
1589987597.8629975,-1.1462223160943816,-2.447583579747752,8.042444632188763,0.5155555555555555,0.09222222222222222,-0.6411111111111111,0.0060388848963227465,-0.004951131558704795,0.18399894816262105
1589987597.8729975,-1.3259040118748198,-2.803466375293778,9.337232094998557,0.5104606532067052,0.11667775349670373,-0.6737184861437531,-0.017091496337433853,-0.028830172277949054,0.2240888823448146
1589987597.8829975,-1.1804547518297224,-2.786487659589924,8.790062837113851,0.51,0.11888888888888888,-0.6766666666666666,-0.015871139175350792,-0.01660363591876845,0.26723771304637167
1589987597.8929975,-1.108928623916132,-2.7124998775290257,8.389285749277422,0.51,0.11888888888888888,-0.6766666666666666,0.04063354016456915,-0.011765347167034718,0.3404170633683116
1589987597.9029975,-2.2550821957715996,-4.196207133344432,8.156202555352088,0.51,0.11888888888888888,-0.6766666666666666,-0.020552612983803866,-0.006733523909216613,0.3645501043757
1589987597.9129975,-21.39545988013984,-27.26415889795239,4.673753537539538,0.51,0.11888888888888888,-0.6766666666666666,-0.17764429891669592,0.4521646131795954,0.24363710974856495
1589987597.9229975,-7.1834669479606195,-8.815301386377335,2.744102873216797,0.5262903801933337,0.12403321947625745,-0.6826683856852633,-0.32473190765382665,-0.2607991856139129,-0.9559395947661734
1589987597.9329975,2.068218103551357,-0.8423764199449959,14.485038622503888,0.5311111111111111,0.12555555555555556,-0.6844444444444444,0.22328136112666103,-0.1244742923280436,-1.5927438995302765
1589987597.9429975,-0.1097463743212592,0.5593591770339312,2.6212548399660918,0.5311111111111111,0.12555555555555556,-0.6844444444444444,0.8747239761581772,0.6520401202431652,-1.5484787192356513
1589987597.9529974,1.113250122369065,-0.4892723119595367,7.64806493718388,0.5311111111111111,0.12555555555555556,-0.6844444444444444,0.11359732722455831,-0.0681275348471049,-1.426853115917541
1589987597.9629974,0.16373286833088607,-2.123126325664872,10.582158794256813,0.5311111111111111,0.12555555555555556,-0.6844444444444444,-0.48173291619889513,-0.12131534656362035,-1.2840858318363684
1589987597.9729974,-0.5066412071967499,-2.499944979686593,8.911690075449798,0.5044444444444445,0.15777777777777774,-0.6911111111111111,0.011401720406883559,0.1839313408887089,-1.0415493648881669
1589987597.9829974,-0.8765056834573886,-2.170873579135653,7.976413363337373,0.5044444444444445,0.15777777777777774,-0.6911111111111111,0.19378129555197676,0.23239422537624313,-0.9088425566590955
1589987597.9929974,-0.8442374935087416,-2.178940626622815,7.758603081184006,0.5044444444444445,0.15777777777777774,-0.6911111111111111,-0.011253665190584405,0.0414389185902527,-0.8903630108410963
1589987598.0029974,-1.1028949761490723,-2.8102954643352853,9.699624926213685,0.5044444444444445,0.15777777777777774,-0.6911111111111111,-0.06095426182738002,-0.03841304189081213,-0.8176907293802735
1589987598.0129974,-1.7653536159282717,-3.941159202948262,8.94348526666773,0.5044444444444445,0.15777777777777774,-0.6911111111111111,0.04999503313533318,0.054288013768823244,-0.7439678425958391
1589987598.0229974,-11.58988934202665,-18.86270696417903,7.443673273242071,0.51,0.16444444444444445,-0.6977777777777778,0.030552215920012435,0.15435401500021292,-0.7789330847420737
1589987598.0329974,-1.6769954721862872,-5.3049902975420435,9.145637128072446,0.51,0.16444444444444445,-0.6977777777777778,0.03979803678610695,-0.08845254704045162,-1.3582984685434611
1589987598.0429974,-0.0944113842173353,-1.9137386804657175,8.141826649417851,0.51,0.16444444444444445,-0.6977777777777778,0.09800006815964474,0.17000393126237717,-1.4776619566146152
1589987598.0529974,-0.6071375934308876,-2.0559753658279822,8.523154016212233,0.51,0.16444444444444445,-0.6977777777777778,0.008169804648820445,0.179550298937031,-1.4017265127456586
1589987598.0629973,-0.9521170899151383,-2.7180122683787307,9.233240314019643,0.51,0.16444444444444445,-0.6977777777777778,-0.003851693919252573,0.048670059142706,-1.2792994583825759
1589987598.0729973,-1.7682786711194334,-4.184296662355462,8.737676389398297,0.5060898875440505,0.18712309668895194,-0.6930856428306383,0.02489104312974361,0.0752359486304826,-1.207702636376542
1589987598.0829973,-1.5935863793635026,-5.029148367647562,8.526018293309582,0.5044444444444445,0.19666666666666666,-0.6911111111111111,0.036796471511537976,0.08119561243141771,-1.3143583063358977
1589987598.0929973,-1.0260318248775309,-3.721617621869754,8.65533452091398,0.5044444444444445,0.19666666666666666,-0.6911111111111111,0.030527043878329267,0.09138343233538186,-1.4295590390961077
1589987598.1029973,-0.9393513970861365,-3.257524866895043,8.804411036361385,0.5044444444444445,0.19666666666666666,-0.6911111111111111,0.06500717107918202,0.11639169851841248,-1.4555277171074208
1589987598.1129973,-1.39809484502043,-4.607788600437493,9.020799455198317,0.5044444444444445,0.19666666666666666,-0.6911111111111111,0.04329120144082049,0.10034076443788441,-1.4196491585744755
1589987598.1229973,-1.3514295575776594,-4.6891032318795105,8.771004706620646,0.49,0.22333333333333333,-0.6844444444444444,0.04566483945567436,0.0893326405418621,-1.4386785442261192
1589987598.1329973,-1.114537809852526,-4.03984436774396,8.911385001568874,0.49,0.22333333333333333,-0.6844444444444444,0.04375070011835613,0.10177454623443057,-1.5066304907009163
1589987598.1429973,-1.0002027934801896,-3.8802433521762274,8.800243352176228,0.49,0.22333333333333333,-0.6844444444444444,0.03601290075833066,0.11233566139377374,-1.5325730067333843
1589987598.1529973,-1.038902518353313,-4.48298903447635,8.663841185763404,0.49,0.22333333333333333,-0.6844444444444444,0.022205694848044258,0.10705106253008158,-1.5326172494075203
1589987598.1629972,-1.0026036697247707,-4.362880122324159,8.684930886850152,0.49,0.22333333333333333,-0.6844444444444444,0.03677407399602471,0.10554164774409854,-1.556413205867218
1589987598.1729972,-0.9167853881278538,-4.21046392694064,8.756893150684931,0.4696308472856418,0.25353587011669204,-0.6977897513952309,0.05340010176355847,0.10747801290100789,-1.6080328068430962
1589987598.1829972,-0.8195477822635273,-4.239088248841683,8.703639688947895,0.4577777777777778,0.27111111111111114,-0.7055555555555556,0.051219717474599885,0.11285125767690973,-1.651368220756474
1589987598.1929972,-0.7881271358868499,-4.257290954704383,8.704581909408768,0.4577777777777778,0.27111111111111114,-0.7055555555555556,0.04699693686470548,0.11821832007482866,-1.671492012480314
1589987598.2029972,-0.6997811878374539,-4.3081312872975275,8.573628019323671,0.4577777777777778,0.27111111111111114,-0.7055555555555556,0.049315098850539404,0.12174148906745429,-1.7039492883722112
1589987598.2129972,-0.6880116342982777,-4.368069805789666,8.692221051667278,0.4577777777777778,0.27111111111111114,-0.7055555555555556,0.05280001718803669,0.12217304763960307,-1.733144943962174
1589987598.2229972,-0.576908076323053,-4.340085203408137,8.769914796591863,0.45482112617838044,0.2925468352067416,-0.6915114604584184,0.06215876610222424,0.12435006207957756,-1.7598287402191042
1589987598.2329972,-0.5592723873329958,-4.300363806333502,8.956907646165233,0.4533333333333333,0.3033333333333333,-0.6844444444444444,0.055830795481044894,0.12437455176196852,-1.7886251598188538
1589987598.2429972,-0.49372429331586265,-4.346392994678896,8.708152314600278,0.4533333333333333,0.3033333333333333,-0.6844444444444444,0.048402811809042934,0.12652357663407887,-1.7918543065334982
1589987598.2529972,-0.41013639626704956,-4.353378798755683,8.621553003110792,0.4533333333333333,0.3033333333333333,-0.6844444444444444,0.03384551130673318,0.12037483436833765,-1.8014847195058896
1589987598.2629972,-0.3459000340752166,-4.458199931849567,8.616475008518805,0.4533333333333333,0.3033333333333333,-0.6844444444444444,0.03974850506477715,0.12332659840432095,-1.8119953696910562
1589987598.2729971,-0.28220526003559426,-4.462756575044493,8.817871069804232,0.43443596335113044,0.3285298266429372,-0.6844444444444444,0.0518787644537828,0.126476231631333,-1.8471540021838162
1589987598.2829971,-0.24565390479417246,-4.34837519058106,8.71837519058106,0.43333333333333335,0.33,-0.6844444444444444,0.06359961093255107,0.13215623745594948,-1.8714376430769355
1589987598.2929971,-0.1350413938639684,-4.37770845733456,8.709541691466912,0.43333333333333335,0.33,-0.6844444444444444,0.05712315033443428,0.12995884423381024,-1.8834648117267612
1589987598.302997,-0.07184270822582309,-4.429849107235009,8.66845907730416,0.43333333333333335,0.33,-0.6844444444444444,0.052191788968822844,0.13343399249387256,-1.8893024554365712
1589987598.312997,-0.028766514727319007,-4.44,8.699041856590853,0.43333333333333335,0.33,-0.6844444444444444,0.052972569136337924,0.1341721862470641,-1.9159625814514258
1589987598.322997,-0.17,-4.76,8.58,0.4133333333333333,0.3688888888888889,-0.6844444444444444,0.062177354602297986,0.14180800172453928,-1.9656770700586137
1589987598.332997,0.8885181056492503,-3.490694739113237,9.66601208241936,0.4133333333333333,0.3688888888888889,-0.6844444444444444,0.0016949476109055228,0.12531279981779586,-1.483317377937178
1589987598.342997,2.3376785506909767,-1.7090883753338753,9.274934386250145,0.4133333333333333,0.3688888888888889,-0.6844444444444444,0.05843222380985515,-0.032081585403948565,-0.028926587604219622
1589987598.352997,1.2259329931218106,-2.1350942977590415,7.349392056800532,0.4133333333333333,0.3688888888888889,-0.6844444444444444,0.158031538041717,-0.008412974927796024,0.5180066643869431
1589987598.362997,0.3173953760608721,-3.5306438396254025,8.831094527363184,0.4133333333333333,0.3688888888888889,-0.6844444444444444,-0.07377329763519272,-0.0019607499754443203,0.05215971633635158
1589987598.372997,0.2975122293504411,-4.3853344025661585,9.129592221331194,0.3991480887463245,0.38358074935400516,-0.6844444444444444,-0.15991170319200113,-0.025309767231488037,-0.21474596024031462
1589987598.382997,-1.126654272382619,-6.249833041703121,8.421125692621755,0.38222222222222224,0.4011111111111111,-0.6844444444444444,-0.006396979730978594,0.039688871173823366,-0.3691739272838219
1589987598.392997,0.4123085585585584,-4.608682432432433,8.984403153153155,0.38222222222222224,0.4011111111111111,-0.6844444444444444,-0.00026410880432065076,-0.00789992428179584,-0.04452935861498347
1589987598.402997,-0.029314239191699842,-4.622067928939733,8.783723566373714,0.38222222222222224,0.4011111111111111,-0.6844444444444444,0.023027225358921443,0.006848394279889546,0.04702550257384347
1589987598.412997,-0.11479807639761735,-4.583301637612256,8.652517806073192,0.38222222222222224,0.4011111111111111,-0.6844444444444444,0.003881384047728708,-0.0027491034043602997,0.01094975768583651
1589987598.422997,0.006656885198969367,-4.479970655596908,8.81636344116805,0.39035841524318476,0.40702834239908386,-0.688882367910424,-0.0036563754678397165,-0.001474713902846805,-0.006932068793147745
1589987598.432997,-0.026266315633343224,-4.441644912488876,8.811201053099971,0.3944444444444444,0.41,-0.6911111111111111,0.00195381189880326,0.0028167930151100635,0.00043149055815340195
1589987598.442997,-0.04235523240716697,-4.5170267462996625,8.709420929628667,0.3944444444444444,0.41,-0.6911111111111111,0.006094319471672618,-0.0005769987805622646,0.0008339147815293603
1589987598.452997,-0.0337667022748367,-4.500133618198693,8.656366915923858,0.3944444444444444,0.41,-0.6911111111111111,0.001516289745909256,-0.0017707780860037824,-0.0009490111280255232
1589987598.462997,-0.02484991304786148,-4.480300173904277,8.712401391234216,0.3944444444444444,0.41,-0.6911111111111111,-0.003867023578970726,-0.002181661564992912,-0.001619874227000307
1589987598.472997,-0.025097686952616213,-4.495097686952616,8.76451156523692,0.3916123961374354,0.40660154203158916,-0.6911111111111111,-0.007678439451460008,-0.002181661564992912,-0.0005347593977520241
1589987598.482997,-0.023254745455764975,-4.520235763632705,8.72650949091153,0.3888888888888889,0.4033333333333333,-0.6911111111111111,-0.003195338879105003,-0.0007100753064677784,0.0
1589987598.492997,-0.0367596371292662,-4.5048605443061005,8.652961451482936,0.3888888888888889,0.4033333333333333,-0.6911111111111111,0.0036563856168148213,0.0,0.0
1589987598.502997,-0.04,-4.5,8.694951746576097,0.3888888888888889,0.4033333333333333,-0.6911111111111111,0.005219652511659381,-0.0008563293816735572,0.0008563293816735572
1589987598.512997,-0.02704866214338924,-4.5,8.748854013569833,0.3888888888888889,0.4033333333333333,-0.6911111111111111,0.002628610310781741,0.00032194101835381333,0.0003844448820713213
1589987598.522997,-0.030581740241182966,-4.5264543506029575,8.738254779276451,0.3853616421418279,0.4033333333333333,-0.6834687431591456,0.001090830782496456,0.001090830782496456,-0.0011542887987463853
1589987598.532997,-0.04458783968008725,-4.527060801599563,8.719175679360175,0.38222222222222224,0.4033333333333333,-0.6766666666666666,-0.00041053624196290325,0.001090830782496456,-0.0016812058901731256
1589987598.542997,-0.037599726308587066,-4.506200136845706,8.674198768388642,0.38222222222222224,0.4033333333333333,-0.6766666666666666,0.0018763185111993438,-0.0016144892682983813,-0.00041450076979774664
1589987598.5529969,-0.023901831270023335,-4.47341098762014,8.707079856029743,0.38222222222222224,0.4033333333333333,-0.6766666666666666,0.0036981161132342375,-0.0006116642804830227,-0.0013304140335031727
1589987598.5629969,-0.02370278379729955,-4.479622270378397,8.75,0.38222222222222224,0.4033333333333333,-0.6766666666666666,0.0012529370739776343,0.00028300867309176273,-0.0017777505102905653
1589987598.5729969,-0.03,-4.528390573691327,8.745171721073982,0.38222222222222224,0.40243920760629276,-0.678991393556972,-0.0032350286207889875,-0.0012663919584624686,-0.0007397084305644308
1589987598.5829968,-0.03,-4.538422858530956,8.701577141469043,0.38222222222222224,0.3977777777777778,-0.6911111111111111,-0.006047150101685633,-0.0008419134858499047,0.0017607048220679596
1589987598.5929968,-0.023049287905085713,-4.536098575810172,8.627443591145772,0.38222222222222224,0.3977777777777778,-0.6911111111111111,-0.002088707915964944,0.0007582050713402932,0.0006652514223123255
1589987598.6029968,-0.030374830756074965,-4.53,8.6414993230243,0.38222222222222224,0.3977777777777778,-0.6911111111111111,0.0023043246430788098,0.001090830782496456,0.0
1589987598.6129968,-0.035878699204947,-4.517636097614841,8.717091707155477,0.38222222222222224,0.3977777777777778,-0.6911111111111111,0.00545415391248228,0.001090830782496456,-0.0004495641771170934
1589987598.6229968,-0.03,-4.510368845255731,8.764815577372135,0.3781898935116602,0.4006580125710364,-0.6911111111111111,0.003192022795703529,0.0016563635616911436,-0.0005252980033017684
1589987598.6329968,-0.036454393376619695,-4.5264543933766195,8.734182426493522,0.3744444444444445,0.4033333333333333,-0.6911111111111111,-0.0010213645107709452,0.000773531369481311,-0.0007040650977558004
1589987598.6429968,-0.04,-4.5228595338006645,8.677157202803988,0.3744444444444445,0.4033333333333333,-0.6911111111111111,-0.0006238534986708088,0.0007789040331610516,0.0012458813169866987
1589987598.6529968,-0.04,-4.498830384723393,8.716452307404287,0.3744444444444445,0.4033333333333333,-0.6911111111111111,0.0007697489332443633,0.00032108184925209267,-0.0001275852347401782
1589987598.6629968,-0.046000572164211134,-4.496000572164212,8.74,0.3744444444444445,0.4033333333333333,-0.6911111111111111,0.0017453916654277437,0.0006545608829312878,-0.0004362698995651682
1589987598.6729968,-0.04051413064218627,-4.514228804036721,8.735257065321093,0.3712824879918399,0.4064952897859379,-0.6842602054638012,-0.00040520800856786365,5.608295307214578e-05,-0.0010347478294243102
1589987598.6829967,-0.03839633728332191,-4.5341981686416615,8.696414650866712,0.36777777777777776,0.41,-0.6766666666666666,-0.004188390664376388,-0.001090830782496456,-0.0017237124065494019
1589987598.6929967,-0.04457368029739777,-4.545426319702602,8.617442081784386,0.36777777777777776,0.41,-0.6766666666666666,-0.004270314599029174,-0.001090830782496456,9.300853095664963e-05
1589987598.7029967,-0.020366592756836662,-4.523822123675782,8.64890022172949,0.36777777777777776,0.41,-0.6766666666666666,0.0010108526497369227,0.0010508417161166894,0.00037693994962540746
1589987598.7129967,-0.01820027023851486,-4.5058998648807425,8.696400540477029,0.36777777777777776,0.41,-0.6766666666666666,0.004614258427633603,0.002181661564992912,0.0004472553600480784
1589987598.7229967,-0.03071944782785221,-4.499280552172148,8.721438895655705,0.36825740966301257,0.41,-0.6777058690846753,0.006388025527574454,0.002181661564992912,0.001090830782496456
1589987598.7329967,-0.03526720396776194,-4.5041983880967145,8.730534407935524,0.3744444444444445,0.41,-0.6911111111111111,0.0022982512902888753,0.002181661564992912,0.0021233667023449303
1589987598.7429967,-0.024379530337993754,-4.52,8.663795303379937,0.3744444444444445,0.41,-0.6911111111111111,0.0,-0.0008838290947090197,0.0026593942155489817
1589987598.7529967,-0.02899071703502447,-4.5244953585175125,8.633486075552536,0.3744444444444445,0.41,-0.6911111111111111,0.001961470179703992,-0.002291757257637372,0.002181661564992912
1589987598.7629967,-0.04,-4.527070011337869,8.676369897959184,0.3744444444444445,0.41,-0.6911111111111111,0.00372409876498209,-0.001090830782496456,0.002820885929996646
1589987598.7729967,-0.046558262446231895,-4.52,8.74,0.3744444444444445,0.41,-0.686374588233277,0.0003931729259828475,-0.001090830782496456,0.0029325322187777727
1589987598.7829967,-0.054317727090836335,-4.5228411364545815,8.74,0.3744444444444445,0.41,-0.6766666666666666,-0.003582412257682439,-0.001090830782496456,0.0
1589987598.7929966,-0.04,-4.535692613542234,8.660303410408728,0.3744444444444445,0.41,-0.6766666666666666,-0.0031213875130408847,0.0007720726429209528,0.0012419356169449391
1589987598.8029966,-0.04,-4.534180637254902,8.634916176470588,0.3744444444444445,0.41,-0.6766666666666666,-0.002181661564992912,-0.0003575144417534955,0.002181661564992912
1589987598.8129966,-0.03522717247463608,-4.520454344949272,8.688636965152185,0.3744444444444445,0.41,-0.6766666666666666,-9.912269130757378e-05,-0.0011403921281502429,0.002181661564992912
1589987598.8229966,-0.025035154137371552,-4.505035154137372,8.744824229313142,0.3711345472026922,0.40393185505678747,-0.680528213448711,0.0032648229044539684,-0.0005415806697305283,0.0016400808952623837
1589987598.8329966,-0.032632881830920134,-4.51894932274638,8.725784913591779,0.36777777777777776,0.3977777777777778,-0.6844444444444444,0.004363323129985824,-0.0024688644197772428,0.0017798476011368493
1589987598.8429966,-0.03351376806206161,-4.53,8.648110144496492,0.36777777777777776,0.3977777777777778,-0.6844444444444444,0.000825632399828408,0.0009727365286995313,5.904712689846223e-05
1589987598.8529966,-0.024093597106998512,-4.512280791320996,8.649532014465008,0.36777777777777776,0.3977777777777778,-0.6844444444444444,-0.001090830782496456,0.0026282037385381533,0.0008420350443571877
1589987598.8629966,-0.0265244822580877,-4.503262241129044,8.68631120564522,0.36777777777777776,0.3977777777777778,-0.6844444444444444,-0.001090830782496456,0.001114095651946805,0.0014699509562955074
1589987598.8729966,-0.038580359580920084,-4.50929017979046,8.716450898952301,0.36777777777777776,0.3977777777777778,-0.6844444444444444,-0.001090830782496456,-0.0008585426621151742,0.00015485874692085493
1589987598.8829966,-0.01,-4.506632067011391,8.767789310996202,0.3744444444444445,0.4177777777777778,-0.6911111111111111,-0.0002411487615868255,-0.0025490460627288916,0.0
1589987598.8929965,-0.010906735751295337,-4.529546632124353,8.754106217616581,0.3744444444444445,0.4177777777777778,-0.6911111111111111,-0.0012886498363170568,9.890952691030042e-05,0.0
1589987598.9029965,-0.03666969410738938,-4.523334847053695,8.646674235268474,0.3744444444444445,0.4177777777777778,-0.6911111111111111,-0.0043628277661559465,0.0014541108007753564,0.0
1589987598.9129965,-0.04665562492037202,-4.53,8.686688750159256,0.3744444444444445,0.4177777777777778,-0.6911111111111111,-0.002181661564992912,-0.00018240736425361175,0.0
1589987598.9229965,-0.03313301997183713,-4.523733960056326,8.73253207988735,0.37896991773709815,0.41151173783410355,-0.6931997910923359,-0.00047286425126485043,-0.0007490713197508437,0.0
1589987598.9329965,-0.04,-4.5072354007705675,8.740647805393971,0.3888888888888889,0.3977777777777778,-0.6977777777777778,0.0038756343356355916,0.0,-0.0003015709940731118
1589987598.9429965,-0.03477674887686807,-4.515669753369396,8.658660493261209,0.3888888888888889,0.3977777777777778,-0.6977777777777778,0.00374484897953583,0.0,4.8705839467843995e-05
1589987598.9529965,-0.03,-4.53,8.655279714415775,0.3888888888888889,0.3977777777777778,-0.6977777777777778,0.001078625938695075,0.0,0.001090830782496456
1589987598.9629965,-0.02625674180003865,-4.53,8.691229774599885,0.3888888888888889,0.3977777777777778,-0.6977777777777778,-0.0008166522542700229,-0.00040832612713501143,0.0014991569096314673
1589987598.9729965,-0.024486902272163342,-4.525513097727837,8.716730353408245,0.3888888888888889,0.40051977361076646,-0.6947865095963356,-0.0019369390091664588,-0.0013355533383229091,0.0016922164533400056
1589987598.9829965,-0.03628141914436124,-4.502562838288722,8.74,0.3888888888888889,0.41,-0.6844444444444444,-0.001090830782496456,-0.0017760273185396347,0.0008112684929065546
1589987598.9929965,-0.033029938318038216,-4.4990898149541145,8.70667067850158,0.3888888888888889,0.41,-0.6844444444444444,-0.001421345781134618,-0.001090830782496456,0.0008596015704402642
1589987599.0029964,-0.04,-4.52,8.652803847558749,0.3888888888888889,0.41,-0.6844444444444444,-0.0028035400369038955,0.00015292616132551074,-0.0015597830930819286
1589987599.0129964,-0.030674933773563173,-4.52,8.683987599339655,0.3888888888888889,0.41,-0.6844444444444444,-0.0027638888830586,7.362385363492044e-05,-0.0021080377113579917
1589987599.0229964,-0.02286926167958761,-4.522869261679587,8.71147704671835,0.38474439979615127,0.4048990903473998,-0.6882701266838945,-0.001242697876053417,0.00047410869906936923,-0.0017075528659235427
1589987599.0329964,-0.02816631647001778,-4.53,8.741833683529983,0.3744444444444445,0.3922222222222223,-0.6977777777777778,0.001090830782496456,0.003763251598027413,0.001781613877020638
1589987599.0429964,-0.028863705661144427,-4.518181725785141,8.723408883016567,0.3744444444444445,0.3922222222222223,-0.6977777777777778,0.002380004513451715,0.00044624391701882657,0.0
1589987599.0529964,-0.04750605284395944,-4.4999757886241625,8.66249394715604,0.3744444444444445,0.3922222222222223,-0.6977777777777778,0.004910059046936572,-0.0008187833497236021,-0.0008161422983185615
1589987599.0629964,-0.04014737359205586,-4.529410505631777,8.669852626407945,0.3744444444444445,0.3922222222222223,-0.6977777777777778,0.00330464427763769,-1.607596507416072e-05,-0.0032242644522668855
1589987599.0729964,-0.041665623043206014,-4.521665623043206,8.726668753913588,0.3804637166910179,0.3922222222222223,-0.6889803798789397,0.0,-0.001727091818122911,0.0015454005293664569
1589987599.0829964,-0.03495571040510216,-4.505044289594898,8.730177158379592,0.3888888888888889,0.3922222222222223,-0.6766666666666666,0.0,-0.001090830782496456,0.0005599091272858862
1589987599.0929964,-0.03392358395709977,-4.50303820802145,8.6917707518713,0.3888888888888889,0.3922222222222223,-0.6766666666666666,0.0,-9.657953246882366e-05,-0.00042799661581136787
1589987599.1029963,-0.02,-4.515225073622212,8.651741691207405,0.3888888888888889,0.3922222222222223,-0.6766666666666666,-0.00037997807652800404,0.0010417273354089,0.001090830782496456
1589987599.1129963,-0.02820085030929497,-4.535899574845352,8.684602550927885,0.3888888888888889,0.3922222222222223,-0.6766666666666666,-0.0030762355609953653,-0.0025741751379809172,0.00019625678649400253
1589987599.1229963,-0.04,-4.53,8.716076827757126,0.38627344072697234,0.39658130249208323,-0.6709998623158474,-0.0030794680157167605,0.0004279517047563544,-0.0015187824872528104
1589987599.1329963,-0.025271941686731095,-4.526317985421683,8.732092087469903,0.38222222222222224,0.4033333333333333,-0.6622222222222223,0.00011410567059228589,-0.0005157511549551996,-0.00097672511190417
1589987599.1429963,-0.0029224332153202446,-4.517077566784679,8.752465400708079,0.38222222222222224,0.4033333333333333,-0.6622222222222223,0.0023410555705459827,-0.0027943103308301557,0.0006126487658372435
1589987599.1529963,-0.02,-4.510639860319416,8.681919580958251,0.38222222222222224,0.4033333333333333,-0.6622222222222223,0.0026921779895952565,-0.001160628715788223,0.0007199102244776464
1589987599.1629963,-0.02593270794246404,-4.522966353971232,8.71,0.38222222222222224,0.4033333333333333,-0.6622222222222223,0.002181661564992912,-0.001534503520272813,0.00230175528040922
1589987599.1729963,-0.03642501563477173,-4.528212507817386,8.71,0.38222222222222224,0.4033333333333333,-0.6622222222222223,0.002181661564992912,-0.0003899702992534548,0.0005849554488801824
1589987599.1829963,-0.014023370497427102,-4.527317753001715,8.723294382504289,0.3888888888888889,0.4033333333333333,-0.6766666666666666,-0.003272492347489368,0.004363323129985824,0.003272492347489368
1589987599.1929963,-0.048408659323965056,-4.501591340676035,8.658978351690088,0.3888888888888889,0.4033333333333333,-0.6766666666666666,-0.0023552499044786753,0.003446080686975131,0.0023552499044786753
1589987599.2029963,-0.05724738511794453,-4.492752614882056,8.646515689292332,0.3888888888888889,0.4033333333333333,-0.6766666666666666,-0.0016913581916372477,0.0015811341558521204,0.0004903033733556643
1589987599.2129962,-0.05066023808775953,-4.499339761912241,8.686038571473443,0.3888888888888889,0.4033333333333333,-0.6766666666666666,-0.0031284507415084307,0.00014404160598093744,-0.0009467891765155185
1589987599.2229962,-0.030167855644146035,-4.526722618548049,8.71,0.38415489345829257,0.4033333333333333,-0.6792157411292954,0.0007333239251193129,0.0007150137147542863,-0.0007333239251193129
1589987599.2329962,-0.023503632798985125,-4.5245012109329945,8.71,0.3744444444444445,0.4033333333333333,-0.6844444444444444,0.0019640237776882333,0.0016906556205708535,-0.0004910059444220583
1589987599.2429962,-0.04,-4.516940870945247,8.683881741890495,0.3744444444444445,0.4033333333333333,-0.6844444444444444,0.004363323129985824,0.0015656741146803919,-0.0015656741146803919
1589987599.2529962,-0.04,-4.503625098193244,8.646374901806755,0.3744444444444445,0.4033333333333333,-0.6844444444444444,0.0031770125203568716,0.0017862246951165946,-0.0005999140854876426
1589987599.2629962,-0.03461025427261359,-4.508203418090871,8.65616923718216,0.3744444444444445,0.4033333333333333,-0.6844444444444444,0.000698877412545666,0.001482784152447246,0.0017897081950421219
1589987599.2729962,-0.010769070446019179,-4.500256356815339,8.727692788661942,0.3744444444444445,0.4033333333333333,-0.6844444444444444,-0.0010349024014013896,0.003216563966394302,5.592838109506632e-05
1589987599.2829962,-0.037486060646652046,-4.522495353548884,8.729981414195537,0.3888888888888889,0.3977777777777778,-0.6844444444444444,-0.0016352324753633476,0.0,0.0016372598721260203
1589987599.2929962,-0.05855482812316863,-4.529518276041056,8.758073104164225,0.3888888888888889,0.3977777777777778,-0.6844444444444444,-0.003167396482872979,0.0,0.00010509586461638926
1589987599.3029962,-0.03,-4.514028144422041,8.653887422311834,0.3888888888888889,0.3977777777777778,-0.6844444444444444,-0.001090830782496456,-0.001530233175686895,0.00032571419465300856
1589987599.3129961,-0.03195386411839001,-4.50390772823678,8.708046135881611,0.3888888888888889,0.3977777777777778,-0.6844444444444444,-0.0013039642950119683,-0.0002131335125155123,0.0008776972699809436
1589987599.3229961,-0.04,-4.52163665105855,8.706546604234202,0.3888888888888889,0.4010510798948787,-0.6844444444444444,-0.0018245996940184648,-0.001090830782496456,0.0
1589987599.3329961,-0.03988479352352781,-4.529827190285292,8.739769587047055,0.3888888888888889,0.4177777777777778,-0.6844444444444444,0.0,-0.001090830782496456,-1.2567077087881951e-05
