time,acc_x,acc_y,acc_z,mag_x,mag_y,mag_z,gyr_x,gyr_y,gyr_z
1589987628.6307664,-3.76,-0.76,8.96,0.2888888888888889,-0.4033333333333333,-0.6622222222222223,-0.003272492347489368,0.002181661564992912,0.001090830782496456
1589987628.6407664,-3.77212584871378,-0.74,8.99787415128622,0.2888888888888889,-0.4033333333333333,-0.6622222222222223,-0.001786513147273052,-0.0017178733218085145,0.0011594706079609933
1589987628.6507664,-3.77921753213888,-0.7407824678611196,8.99,0.288541125395058,-0.403014550130655,-0.6614977149434079,-0.004391774464293269,-8.535400292233632e-05,0.0053687999095599435
1589987628.6607664,-3.756068859913693,-0.7669655700431535,9.002137719827386,0.27555555555555555,-0.3911111111111111,-0.6344444444444445,-0.005123148952056519,-0.00393450226834089,0.001188646683715629
1589987628.6707664,-3.7677255380857884,-0.7622744619142116,9.009529842772094,0.27555555555555555,-0.3911111111111111,-0.6344444444444445,-0.003867112516058265,-0.004461732684627162,-0.001090830782496456
1589987628.6807663,-3.76,-0.77,8.943987636651542,0.27555555555555555,-0.3911111111111111,-0.6344444444444445,-0.002181661564992912,-0.001139162302595495,-0.0010424992623974168
1589987628.6907663,-3.764575947995666,-0.7684746840014446,9.037626579992777,0.27555555555555555,-0.3911111111111111,-0.6344444444444445,-0.002181661564992912,-0.002015275400567053,0.0
1589987628.7007663,-3.7827527627302273,-0.7624157457565909,9.067921271217045,0.27555555555555555,-0.3911111111111111,-0.6344444444444445,-0.002181661564992912,-0.0013543477658939024,0.0
1589987628.7107663,-3.780010298661174,-0.7500102986611741,9.08,0.28887515734065683,-0.4033207460807873,-0.6411042453369951,-0.002181661564992912,-0.001090830782496456,0.0
1589987628.7207663,-3.7683573738405243,-0.7716426261594758,9.028501616883668,0.2888888888888889,-0.4033333333333333,-0.6411111111111111,0.0007324653467184313,-0.0020024788471038994,-0.00017918271788901235
1589987628.7307663,-3.76,-0.7784701506844063,8.97,0.2888888888888889,-0.4033333333333333,-0.6411111111111111,-0.001090830782496456,-0.0011464576733641483,-0.0010352038916287636
1589987628.7407663,-3.76,-0.7543474176603658,8.97,0.2888888888888889,-0.4033333333333333,-0.6411111111111111,-0.001090830782496456,-0.002023584998049721,-0.00015807656694319069
1589987628.7507663,-3.759605865102639,-0.7507882697947215,9.000788269794722,0.2891954382535028,-0.40263264907135876,-0.6414176604757249,0.0010048438867970287,-0.001090830782496456,0.002052681221443771
1589987628.7607663,-3.7514058651026394,-0.7671882697947214,9.01718826979472,0.29557321603128056,-0.3880548712935809,-0.6477954382535027,-0.0007841185964971593,-0.001090830782496456,-0.0006307625034975106
1589987628.7707663,-3.7529948145973977,-0.764010370805205,9.001015556207808,0.2966666666666667,-0.3855555555555555,-0.6488888888888888,0.000326683595071094,0.0020183197674573648,0.001090830782496456
1589987628.7807662,-3.7666735153116133,-0.7366529693767733,8.95997945406516,0.2966666666666667,-0.3855555555555555,-0.6488888888888888,0.0018187983754333827,0.0012722623772762206,0.001090830782496456
1589987628.7907662,-3.7677462346949833,-0.75,9.02676129591505,0.2966666666666667,-0.3855555555555555,-0.6488888888888888,0.0012137546110581976,-0.0007220592968112308,0.0
1589987628.8007662,-3.7525972478058294,-0.75,9.072208256582512,0.2966666666666667,-0.3855555555555555,-0.6488888888888888,0.002040003672174405,0.0017566878865373909,0.0
1589987628.8107662,-3.76,-0.77,9.072150230373914,0.2888888888888889,-0.3911111111111111,-0.6266666666666667,0.0,-0.003272492347489368,0.001090830782496456
1589987628.8207662,-3.76,-0.77,9.054409125550066,0.2888888888888889,-0.3911111111111111,-0.6266666666666667,0.0,-0.002574609507464593,0.0009163600724902622
1589987628.8307662,-3.76,-0.768419939822721,8.921580060177279,0.2888888888888889,-0.3911111111111111,-0.6266666666666667,-0.00017235782795727527,0.0004013994706673549,-0.00017235782795727527
1589987628.8407662,-3.7602444057971014,-0.7598777971014493,8.930488811594202,0.2888888888888889,-0.3911111111111111,-0.6266666666666667,-0.0011441518558762249,-0.0032191712741095994,-0.0010641702458065716
1589987628.8507662,-3.7796962318840577,-0.7501518840579711,8.969392463768116,0.2888888888888889,-0.3911111111111111,-0.6266666666666667,-0.005387881990160177,0.0010245588601743528,0.0010576948213354045
1589987628.8607662,-3.7661476969927676,-0.74,8.996147696992768,0.2888888888888889,-0.3911111111111111,-0.6266666666666667,-0.004783544200365121,-0.0008807202473068074,-0.0019715510298032634
1589987628.8707662,-3.7539408406339208,-0.7439408406339206,8.970147898415199,0.2888888888888889,-0.3911111111111111,-0.6266666666666667,-0.005470287126880359,-0.0008597580544787009,-0.0013057702961161311
1589987628.8807662,-3.77,-0.7635553010783472,8.944221204313388,0.2888888888888889,-0.3911111111111111,-0.6266666666666667,-0.0016725655610920467,-0.00397549994425543,-0.0017938383792625182
1589987628.8907661,-3.77,-0.7795656074052868,9.008262429621146,0.2888888888888889,-0.3911111111111111,-0.6266666666666667,-0.004292245807885568,-0.0022290464463930824,-4.738488140017044e-05
1589987628.9007661,-3.77,-0.78,9.078165763787796,0.2888888888888889,-0.3911111111111111,-0.6266666666666667,-0.003301075794955686,-5.7166894932635364e-05,0.0010622473350301383
1589987628.9107661,-3.77,-0.7633210829351954,9.096678917064803,0.311127444975295,-0.39667075013271264,-0.6331529121918685,-0.0005434109245402228,0.0,0.001090830782496456
1589987628.920766,-3.7686092442954506,-0.7758277328863518,9.044701687249956,0.31555555555555553,-0.3977777777777778,-0.6344444444444445,0.0,-0.0015748299116108957,0.00296907652079836
1589987628.930766,-3.7619767864766995,-0.7559303594300986,8.971744651243695,0.31555555555555553,-0.3977777777777778,-0.6344444444444445,0.0,0.0013191257493102987,0.0015220986903377624
1589987628.940766,-3.769363518190788,-0.7606364818092121,8.989363518190789,0.31555555555555553,-0.3977777777777778,-0.6344444444444445,-0.003272492347489368,6.942939499875644e-05,0.00027771757999502577
1589987628.950766,-3.762794631250881,-0.767205368749119,8.982794631250881,0.31555555555555553,-0.3977777777777778,-0.6344444444444445,-0.003272492347489368,0.0007859838030777036,0.0031439352123108144
1589987628.960766,-3.76,-0.77,9.017588613764866,0.2779669417906891,-0.40299841857845364,-0.6407092134052554,-0.00224742192333721,0.002115901206648614,0.0012881118575293494
1589987628.970766,-3.7708958343579404,-0.7691041656420597,8.96820833128412,0.27555555555555555,-0.4033333333333333,-0.6411111111111111,-0.0006999493050327675,0.005258713173750436,-0.0027838905006597574
1589987628.980766,-3.7788301590698334,-0.76,8.954679363720665,0.27555555555555555,-0.4033333333333333,-0.6411111111111111,0.00314488249776441,0.0034001021972143264,0.00230927141471787
1589987628.990766,-3.77,-0.76,8.994026305868555,0.27555555555555555,-0.4033333333333333,-0.6411111111111111,0.002328062177698422,0.004143722210927558,0.003126091734783858
1589987629.000766,-3.77,-0.76,9.02916474678507,0.27555555555555555,-0.4033333333333333,-0.6411111111111111,0.0036057319443873973,0.002227217560894096,0.0018484219680948827
1589987629.010766,-3.77,-0.7669225155090622,9.063845031018126,0.2986306072524294,-0.3948724810444796,-0.6411111111111111,0.0028530645280669988,-0.00041942781942236936,0.001090830782496456
1589987629.020766,-3.7711595255386103,-0.78,9.026085693536674,0.3088888888888889,-0.3911111111111111,-0.6411111111111111,0.004363323129985824,0.002893038502307231,-0.001090830782496456
1589987629.030766,-3.7765638068685843,-0.7788546022895282,8.92,0.3088888888888889,-0.3911111111111111,-0.6411111111111111,0.003988492605750728,0.0002498870161567305,-0.0008409437663397254
1589987629.040766,-3.7500042047724165,-0.7699873856827499,8.920046252496583,0.3088888888888889,-0.3911111111111111,-0.6411111111111111,0.0010899134434593518,0.0021812028954743597,0.0010917481215335601
1589987629.050766,-3.758822243246084,-0.7435332702617471,9.017044675706927,0.3088888888888889,-0.3911111111111111,-0.6411111111111111,-0.0008338841182035876,0.0012193041146428903,0.0030155456831965
1589987629.060766,-3.7740982271016796,-0.74,9.04409822710168,0.28147566952451153,-0.3997266943399154,-0.6411111111111111,-0.0018597697875533613,0.0018597697875533613,0.0017346143373755567
1589987629.070766,-3.78,-0.7493967517401392,9.05,0.27,-0.4033333333333333,-0.6411111111111111,-0.00013160835426871383,0.00013160835426871383,0.001090830782496456
1589987629.080766,-3.77280195397774,-0.7715941380667788,8.942029309666106,0.27,-0.4033333333333333,-0.6411111111111111,0.0015703700349813884,0.0,0.00030564576500576176
1589987629.090766,-3.76998771708349,-0.7699815756252346,8.97001228291651,0.27,-0.4033333333333333,-0.6411111111111111,1.3398583428254943e-06,1.3398583428254943e-06,-0.0010888209949822178
1589987629.100766,-3.7556770957726298,-0.7485156436589444,8.984322904227371,0.27,-0.4033333333333333,-0.6411111111111111,0.0015623864825964286,0.0015623864825964286,0.0012527489413981872
1589987629.110766,-3.75,-0.7592990885863555,9.038247721465888,0.28179388746943945,-0.4033333333333333,-0.6411111111111111,0.003234263560199041,-0.0009761444206254754,0.0011290595697867828
1589987629.120766,-3.773276028368794,-0.7289652955082742,9.008965295508274,0.2822222222222222,-0.4033333333333333,-0.6411111111111111,0.004118832622120755,-0.00024449050786506856,0.001090830782496456
1589987629.130766,-3.770416521814705,-0.76,8.95166608725882,0.2822222222222222,-0.4033333333333333,-0.6411111111111111,0.0009545243373778848,0.0011362662642026464,0.002090790601580531
1589987629.140766,-3.7795298105336346,-0.76,8.98811924213454,0.2822222222222222,-0.4033333333333333,-0.6411111111111111,-0.0020277924219378324,0.0021303718506412187,0.0001025794287033868
1589987629.150766,-3.7710144567427153,-0.76,9.043913259543709,0.2822222222222222,-0.4033333333333333,-0.6411111111111111,-0.002181661564992912,0.001201490846742934,0.0
1589987629.160766,-3.779658800773694,-0.7793176015473888,9.059658800773695,0.2961738233397808,-0.39152813238770684,-0.6346719105953149,-0.0011280498443982693,3.721906190181333e-05,0.0
1589987629.1707659,-3.7691915796500264,-0.77,9.031107376150288,0.2966666666666667,-0.3911111111111111,-0.6344444444444445,-0.004186953169396233,-0.0030961223868997776,0.001090830782496456
1589987629.1807659,-3.7592346270275154,-0.768469254055031,8.933061491889937,0.2966666666666667,-0.3911111111111111,-0.6344444444444445,-0.001931193845449832,-0.0012578092621918426,0.001090830782496456
1589987629.1907659,-3.75,-0.7498055646839742,8.970388870632052,0.2966666666666667,-0.3911111111111111,-0.6344444444444445,0.0010696211797039134,-0.0031664443335266555,0.0010696211797039134
1589987629.2007658,-3.75,-0.742148099463249,8.985703801073502,0.2966666666666667,-0.3911111111111111,-0.6344444444444445,0.0002343213018376109,0.0010100550558048574,0.0002343213018376109
1589987629.2107658,-3.75,-0.7458980924087248,9.007694277226175,0.2966666666666667,-0.3983198907217748,-0.6259249776318419,0.0012867641514891545,0.0008948974135037575,0.0006433820757445772
1589987629.2207658,-3.7738479629770123,-0.7658986419846749,9.004101358015324,0.2966666666666667,-0.4033333333333333,-0.62,0.002181661564992912,0.0,0.000223694378657759
1589987629.2307658,-3.769719682774024,-0.7594393655480476,8.951962220581832,0.2966666666666667,-0.4033333333333333,-0.62,0.0009990971848088032,0.0011214086483923402,-0.0011214086483923402
1589987629.2407658,-3.7617808945166846,-0.7435617890333693,9.007533738383207,0.2966666666666667,-0.4033333333333333,-0.62,-0.0015988651972392834,0.0019873961090750357,-0.0019873961090750357
1589987629.2507658,-3.76,-0.7642108984018902,9.038158173801419,0.2966666666666667,-0.4033333333333333,-0.62,-0.0035021612274267156,0.00020091207134220572,-0.0015214117337760099
1589987629.2607658,-3.76,-0.7549716217848086,9.066685585476794,0.2966666666666667,-0.4033333333333333,-0.6255618618255981,-0.0016331505906763744,-0.0029109458087027557,-0.001090830782496456
1589987629.2707658,-3.7529331539812425,-0.7641336920375145,9.055866307962486,0.2966666666666667,-0.4033333333333333,-0.6266666666666667,-0.004174324051465626,-0.0009598723957624906,-0.0003199574652541635
1589987629.2807658,-3.7693955670803234,-0.77,8.920604432919676,0.2966666666666667,-0.4033333333333333,-0.6266666666666667,-0.0043303564282489585,-0.001090830782496456,0.003107658838805039
1589987629.2907658,-3.756447798975119,-0.77,8.933552201024881,0.2966666666666667,-0.4033333333333333,-0.6266666666666667,-0.003624165227559805,-0.001090830782496456,-0.00042329716464072726
1589987629.3007658,-3.75,-0.762868175044032,8.997054599647743,0.2966666666666667,-0.4033333333333333,-0.6266666666666667,-0.001716569508020097,-0.0003128693627618205,0.0001522226942109947
1589987629.3107657,-3.757184247236828,-0.76,9.041552741710484,0.3006579151315711,-0.4033333333333333,-0.632254414517533,-0.001090830782496456,0.0,-0.0004765288245029587
1589987629.3207657,-3.7791865535030786,-0.76,9.069186553503078,0.3022222222222222,-0.4033333333333333,-0.6344444444444445,-0.0021372949410551297,-0.003139392475676021,0.0010020975346208916
1589987629.3307657,-3.770540559375581,-0.76,8.975405593755807,0.3022222222222222,-0.4033333333333333,-0.6344444444444445,-0.0011497966631615103,0.0008549672598362383,5.896588066505435e-05
1589987629.3407657,-3.7601562840613734,-0.7701562840613734,9.02046885218412,0.3022222222222222,-0.4033333333333333,-0.6344444444444445,0.0010567348895045318,1.7047946495962052e-05,3.4095892991924104e-05
1589987629.3507657,-3.7671895698834574,-0.7771895698834578,9.041568709650374,0.3022222222222222,-0.4033333333333333,-0.6344444444444445,-0.00047769004586056753,0.0007842604141785117,0.0015685208283570235
1589987629.3607657,-3.7698895417691536,-0.75,9.069447708845768,0.2966666666666667,-0.3977777777777778,-0.6411111111111111,-4.8196495354904e-05,4.8196495354904e-05,0.004339224882308372
1589987629.3707657,-3.760337068415778,-0.75,9.021685342078891,0.2966666666666667,-0.3977777777777778,-0.6411111111111111,-0.004216249288490447,0.004216249288490447,0.0022551984857406004
1589987629.3807657,-3.76,-0.788507768075944,8.952611405867097,0.2966666666666667,-0.3977777777777778,-0.6411111111111111,-0.0033131866604239743,0.00016277725173842548,0.003231798034554762
1589987629.3907657,-3.76,-0.7585632530706792,8.95,0.2966666666666667,-0.3977777777777778,-0.6411111111111111,-0.002415188066188015,0.002571912843904059,0.004129796628790721
1589987629.4007657,-3.76,-0.7450851307137638,8.969659477144944,0.2966666666666667,-0.3977777777777778,-0.6411111111111111,-0.0011094034231183582,0.003272492347489368,0.003827194059048547
1589987629.4107656,-3.7642053976189467,-0.7442053976189468,8.998410795237893,0.2966666666666667,-0.4029177082009349,-0.6411111111111111,0.00045873771753844096,0.002355016912412486,0.003272492347489368
1589987629.4207656,-3.775881520630891,-0.7617630412617824,9.004118479369108,0.2966666666666667,-0.41,-0.6411111111111111,-0.00019231796791636274,0.0017324051577028653,0.0026309179722829585
1589987629.4307656,-3.7723948497854076,-0.7547896995708154,8.939158798283263,0.2966666666666667,-0.41,-0.6411111111111111,0.0005683556094209,0.002181661564992912,0.0013520683690342338
1589987629.4407656,-3.764002778397105,-0.75,8.985969437631844,0.2966666666666667,-0.41,-0.6411111111111111,0.0017450261758855186,0.0008732707782147869,0.001090830782496456
1589987629.4507656,-3.7658414971112784,-0.7616829942225571,9.059207485556392,0.2966666666666667,-0.41,-0.6411111111111111,0.0009072445920235532,0.0006372084864846794,-0.00018358619047290276
1589987629.4607656,-3.7644708602254116,-0.7644708602254118,9.085529139774588,0.2966666666666667,-0.4063139068169412,-0.6503263440687581,-0.0006031355866846314,0.0022971019558657192,0.00011544039087280685
1589987629.4707656,-3.752586745796241,-0.7674132542037587,9.060346983184965,0.2966666666666667,-0.4033333333333333,-0.6577777777777778,-0.001090830782496456,3.784999391689015e-05,0.0002821701941033365
1589987629.4807656,-3.758315131872519,-0.77,8.950218417529769,0.2966666666666667,-0.4033333333333333,-0.6577777777777778,0.0007232495789158376,-0.001090830782496456,-0.0009070401807061468
1589987629.4907656,-3.770137642038937,-0.7601376420389374,8.990550568155749,0.2966666666666667,-0.4033333333333333,-0.6577777777777778,0.004333294295378124,-0.001090830782496456,0.0
1589987629.5007656,-3.776552219860217,-0.7665522198602168,9.016208879440867,0.2966666666666667,-0.4033333333333333,-0.6577777777777778,0.002933850506543988,-0.001090830782496456,0.0
1589987629.5107656,-3.7721126245171783,-0.7621126245171783,8.998450498068713,0.28527379096925753,-0.4033333333333333,-0.6279810259537847,0.001321282368015935,-0.001090830782496456,0.0
1589987629.5207655,-3.77,-0.7525504784301006,8.9974495215699,0.2822222222222222,-0.4033333333333333,-0.62,0.0019034475268282203,0.002159636194830601,0.0
1589987629.5307655,-3.7500042616663114,-0.7599971588891257,8.900007102777186,0.2822222222222222,-0.4033333333333333,-0.62,0.0010909857410563674,-3.0991711982284427e-07,-3.0991711982284427e-07
1589987629.5407655,-3.7797954400170464,-0.7401363733219689,8.949659066695077,0.2822222222222222,-0.4033333333333333,-0.62,0.002174223554117164,-0.0021667855432414155,-0.0021667855432414155
1589987629.5507655,-3.764559927349556,-0.7477200363252219,9.02720036325222,0.2822222222222222,-0.4033333333333333,-0.62,-0.000344714414669961,0.000344714414669961,-0.003023786891547203
1589987629.5607655,-3.76,-0.75,9.057218420475854,0.29264882957623384,-0.4033333333333333,-0.6408532147080231,-0.00030342325689001093,-0.0004839842687164341,-0.003272492347489368
1589987629.5707655,-3.7681402357710567,-0.7662804715421134,9.076280471542114,0.2966666666666667,-0.4033333333333333,-0.6488888888888888,0.0008879619755847425,-0.00020286880691171348,-0.0014965683963198827
1589987629.5807655,-3.7605476267704616,-0.77,8.976023894475079,0.2966666666666667,-0.4033333333333333,-0.6488888888888888,0.0021219247511390406,-0.0020621879372851692,-0.001090830782496456
1589987629.5907655,-3.753897976030329,-0.7822040479393421,8.988306071909014,0.2966666666666667,-0.4033333333333333,-0.6488888888888888,0.001516034006828074,-0.00018477889049839814,0.00024042433383321968
1589987629.6007655,-3.755373680598673,-0.79,9.021494722394692,0.2966666666666667,-0.4033333333333333,-0.6488888888888888,0.001677008403730132,-0.0006677020812045724,-8.152445997089614e-05
1589987629.6107655,-3.7681723529411766,-0.7818276470588236,9.048172352941178,0.30120686274509806,-0.3888047058823529,-0.6198316339869281,0.0030731269803589865,0.0004927346811053109,-0.001090830782496456
1589987629.6207654,-3.762351379701582,-0.749405518806328,8.996459657911075,0.3022222222222222,-0.3855555555555555,-0.6133333333333333,0.0007694872079468933,0.0019251658290106142,-0.002759500875524773
1589987629.6307654,-3.76,-0.7490653275160317,8.898412052355715,0.3022222222222222,-0.3855555555555555,-0.6133333333333333,0.0029666214923698675,0.0051482830573627795,0.0016718768064604107
1589987629.6407654,-3.768616886437927,-0.7413831135620733,8.958935091503413,0.3022222222222222,-0.3855555555555555,-0.6133333333333333,0.0023325358499127037,0.0007543714245989586,-0.0006382079277370807
1589987629.6507654,-3.7627486602793114,-0.7617540191620656,9.020759378044819,0.3022222222222222,-0.3855555555555555,-0.6133333333333333,0.0013906631068262812,-0.0007909984581666307,-0.001090830782496456
1589987629.6607654,-3.7688499049636994,-0.7788499049636993,9.04,0.3209053549233651,-0.39440546051925485,-0.6192332699757995,0.001090830782496456,-0.0020562056581535882,-0.0001254559068393238
1589987629.6707654,-3.7765197457006017,-0.7865197457006017,9.046519745700602,0.3233333333333333,-0.3955555555555556,-0.62,0.0018020247129229773,-0.0028928554954194335,-0.0021335817912795643
1589987629.6807654,-3.78,-0.7820322795587473,8.970322795587473,0.3233333333333333,-0.3955555555555556,-0.62,0.0030508050373573795,0.0010732250143329685,-0.002403348875124901
1589987629.6907654,-3.771326702990792,-0.7279602179447524,8.993366485046039,0.3233333333333333,-0.3955555555555556,-0.62,0.004218602283827214,-0.0025488881166963163,-0.0002894416923172208
1589987629.7007654,-3.7631547047640557,-0.7405358857078321,9.041071771415664,0.3233333333333333,-0.3955555555555556,-0.62,0.0013764996265281763,-0.0010323747198961323,0.0
1589987629.7107654,-3.76,-0.7603597507044861,9.054820124647758,0.30952033239401855,-0.39325338873233645,-0.628057583881267,0.0011300734967442767,0.0,0.0
1589987629.7207654,-3.76,-0.7548838253909919,9.057558087304505,0.2966666666666667,-0.3911111111111111,-0.6355555555555555,0.0005327427072831725,-0.0016489188577097395,-0.0024733782865646093
1589987629.7307653,-3.76,-0.75,8.942653798850431,0.2966666666666667,-0.3911111111111111,-0.6355555555555555,0.0009846526801767035,0.0007722964755371986,-0.002287839667312664
1589987629.7407653,-3.7689712467593686,-0.7589712467593683,8.938971246759367,0.2966666666666667,-0.3911111111111111,-0.6355555555555555,-0.001845002854250723,0.00011221957024739639,-0.00022443914049479277
1589987629.7507653,-3.7629579101233084,-0.7529579101233087,8.982252539260147,0.2966666666666667,-0.3911111111111111,-0.6355555555555555,0.0001228569581875438,-0.0023045185231804557,-0.0007681728410601519
1589987629.7607653,-3.7686128671144474,-0.75,9.06890293691558,0.30145159284135975,-0.3911111111111111,-0.6278996736760467,0.0020303488398955337,-0.0013934562326912122,-0.0020303488398955337
1589987629.7707653,-3.761984959850448,-0.7419849598504482,9.063969919700897,0.3022222222222222,-0.3911111111111111,-0.6266666666666667,0.0004330510613776981,-0.001090830782496456,-0.002181661564992912
1589987629.7807653,-3.7514548218826183,-0.7485451781173819,8.948912684474037,0.3022222222222222,-0.3911111111111111,-0.6266666666666667,0.002796402999706569,-0.001090830782496456,-0.00031739289852186596
1589987629.7907653,-3.756542561797753,-0.7434574382022472,8.949627685393258,0.3022222222222222,-0.3911111111111111,-0.6266666666666667,0.004699857908564191,-0.0018045135630338676,-0.0014273655610748232
1589987629.8007653,-3.763983966600007,-0.7519518998000211,8.99983966600007,0.3022222222222222,-0.3911111111111111,-0.6266666666666667,0.00415040389136466,-0.0008779115438752921,-0.0004433282035027522
1589987629.8107653,-3.773049441786284,-0.77,9.056950558213718,0.2981562998405104,-0.39483820662768027,-0.6266666666666667,0.002181661564992912,0.0004255457885145664,0.0018490190680019673
1589987629.8207653,-3.7705848234006183,-0.7652924117003093,9.05,0.2888888888888889,-0.4033333333333333,-0.6266666666666667,0.0026951797878551976,-0.002117867228221028,6.379433677188451e-05
1589987629.8307652,-3.754813252577691,-0.7548132525776913,8.977385536087677,0.2888888888888889,-0.4033333333333333,-0.6266666666666667,0.0010093468477739577,-0.0027067059725605154,-0.0005250444075676034
1589987629.8407652,-3.75,-0.7661664593463757,8.931555279128501,0.2888888888888889,-0.4033333333333333,-0.6266666666666667,-0.0005030017325296523,-0.0010060034650593045,0.0005878290499668037
1589987629.8507652,-3.7599917102592686,-0.7700082897407312,8.979975130777806,0.2888888888888889,-0.4033333333333333,-0.6266666666666667,0.0010899265120596039,0.0,0.000545867526466654
1589987629.8607652,-3.7561766036882,-0.7530883018441,9.0238233963118,0.2981044864300889,-0.3994935010245,-0.6266666666666667,0.0006737629434369727,0.0,-0.0007539493107779696
1589987629.8707652,-3.7580537888424494,-0.75,9.03,0.3022222222222222,-0.3977777777777778,-0.6266666666666667,0.0,-0.0008785320785070494,-0.00021229870398940657
1589987629.8807652,-3.766093832926441,-0.75,8.981249336588473,0.3022222222222222,-0.3977777777777778,-0.6266666666666667,0.0013294681079104454,-0.001090830782496456,-0.002658936215820891
1589987629.8907652,-3.77,-0.7648652896273013,8.994595868881904,0.3022222222222222,-0.3977777777777778,-0.6266666666666667,0.002181661564992912,0.0013414965449313739,-0.0027417715783672712
1589987629.9007652,-3.776522151369239,-0.7308670917845657,9.016522151369239,0.3022222222222222,-0.3977777777777778,-0.6266666666666667,0.00289311791315965,0.0036045742613263878,-0.00289311791315965
1589987629.9107652,-3.78,-0.7377064329577296,9.040779824718298,0.2883690057433574,-0.3931600389514895,-0.6420591294209609,0.003272492347489368,0.0013410201356392369,-0.0017613408503160742
1589987629.9207652,-3.7648348434728414,-0.7651651565271586,9.04241742173642,0.2822222222222222,-0.3911111111111111,-0.6488888888888888,-0.0008631625428110294,-0.002481392934180238,-0.0002636998044363766
1589987629.9307652,-3.7836055127445167,-0.7463944872554831,8.953446453270104,0.2822222222222222,-0.3911111111111111,-0.6488888888888888,-0.003898302894215007,-0.003272492347489368,0.0017166413292220952
1589987629.9407651,-3.766039846081922,-0.7040597691228827,8.971930269356637,0.2822222222222222,-0.3911111111111111,-0.6488888888888888,-0.0037099112938060053,-0.003272492347489368,0.0008748378926332744
1589987629.9507651,-3.7465977274301947,-0.6834022725698053,9.027218180558442,0.2822222222222222,-0.3911111111111111,-0.6488888888888888,-0.0047570138073241485,-0.0025302316175719775,0.0011133910948760855
1589987629.9607651,-3.744019543067775,-0.695359390757033,9.08,0.28058463060201766,-0.3903667512837454,-0.6488888888888888,-0.007343506056815259,-0.001090830782496456,0.0031263376371594015
1589987629.970765,-3.77,-0.7528476288383319,9.091423814419166,0.27,-0.3855555555555555,-0.6488888888888888,-0.005038772298417177,-0.0015062123965615592,0.002181661564992912
1589987629.980765,-3.764392626437687,-0.8012147471246258,9.065141011501495,0.27,-0.3855555555555555,-0.6488888888888888,-0.0013049752846219617,-0.0015699919959201395,0.004016670272211229
1589987629.990765,-3.749330168410839,-0.8046650842054197,9.040669831589161,0.27,-0.3855555555555555,-0.6488888888888888,0.004582525004949333,-0.0005088817454209764,0.004290255838331321
1589987630.000765,-3.7318799675588,-0.775639902676399,9.0459399837794,0.27,-0.3855555555555555,-0.6488888888888888,0.008078694544561749,0.0022143953354327893,0.003272492347489368
1589987630.010765,-3.7242635725112616,-0.7101549924211695,9.04426357251126,0.28373817809184265,-0.3879242069507008,-0.6337295199599591,0.007331395418364719,0.008709739209565115,0.003272492347489368
1589987630.020765,-3.724670273328383,-0.6273621866270641,9.05,0.3022222222222222,-0.3911111111111111,-0.6133333333333333,-0.0015224419863483487,0.021229331271926534,0.0073421732884739
1589987630.030765,-3.693108417949558,-0.5698313134621684,8.92898788077301,0.3022222222222222,-0.3911111111111111,-0.6133333333333333,-0.01716941926193693,0.042295328952967316,0.018975203334893723
1589987630.040765,-3.6499297650762896,-0.5299297650762896,8.892552676192782,0.3022222222222222,-0.3911111111111111,-0.6133333333333333,-0.030017000122849927,0.06630819260547419,0.04094829227285134
1589987630.050765,-3.095786318008626,-0.8490594356226913,8.735470282188654,0.3022222222222222,-0.3911111111111111,-0.6133333333333333,-0.04791119185231508,0.08856166987468035,0.07175598099221901
1589987630.060765,-2.9139118202092984,-0.6461417052667697,8.372176359581404,0.29171933436266945,-0.3867349078362974,-0.6299629057776253,-0.11773105145060858,0.3207245358760241,0.12656111048985755
1589987630.070765,-2.95,-0.54,8.3,0.2888888888888889,-0.3855555555555555,-0.6344444444444445,-0.1341721862470641,0.3806999430912632,0.13744467859455345
1589987630.080765,-2.227703960232761,-1.1738516267345158,8.92648125898179,0.2888888888888889,-0.3855555555555555,-0.6344444444444445,-0.20090272563791228,0.3405008229762944,0.09081369926118962
1589987630.090765,-2.050212025016583,-1.049983890836729,8.938531934047191,0.2888888888888889,-0.3855555555555555,-0.6344444444444445,0.0011921303339838818,0.17741223574185072,0.0662221526629895
1589987630.100765,-1.9201911714159452,-0.9150059741067483,8.720167274988952,0.2888888888888889,-0.3855555555555555,-0.6344444444444445,0.07582381784071991,0.06388332988910943,0.05400720219079078
1589987630.110765,-1.7273092282784672,-0.8609638424177011,8.567740960604425,0.2920671583618157,-0.3855555555555555,-0.6258177130179289,0.02731456762513009,-0.022182423663012388,0.043386808328701724
1589987630.120765,-1.9941922670823067,-0.8925933933329981,9.13991201166474,0.2966666666666667,-0.3855555555555555,-0.6133333333333333,-0.04414088526550695,-0.018111992187990075,0.05334222308475794
1589987630.130765,-2.1297688281477174,-0.8982742076184937,9.21137103809247,0.2966666666666667,-0.3855555555555555,-0.6133333333333333,-0.006593674001496089,-0.0009782268488569548,0.07629598471561574
1589987630.140765,-2.193446506855704,-0.8533252495103069,8.953252495103069,0.2966666666666667,-0.3855555555555555,-0.6133333333333333,0.0207178485927349,0.016026187533906982,0.09927882833167376
1589987630.150765,-2.2826485727655594,-0.8439073467477772,8.938277959756668,0.2966666666666667,-0.3855555555555555,-0.6133333333333333,0.0034965797192797014,0.0033449761898452397,0.10737817660550045
1589987630.160765,-2.3205363671348858,-0.861072734269771,8.971072734269772,0.30310555769354114,-0.3855555555555555,-0.6133333333333333,-0.009476841674728266,-0.00797645084521503,0.11310576601189157
1589987630.170765,-2.33,-0.8674778599342123,8.952433579802637,0.3088888888888889,-0.3855555555555555,-0.6133333333333333,0.001935520041185199,-0.004363323129985824,0.12218270806571813
1589987630.180765,-2.343835453228144,-0.86,8.856210916116567,0.3088888888888889,-0.3855555555555555,-0.6133333333333333,0.007386808895053122,-0.002854109302880922,0.12443939743568919
1589987630.190765,-2.376254410185611,-0.8502473538886332,8.822014112593957,0.3088888888888889,-0.3855555555555555,-0.6133333333333333,8.094637076739696e-05,-0.004282376759218427,0.12184541354355642
1589987630.200765,-2.4203710646274446,-0.8248144676862778,8.909257870745112,0.3088888888888889,-0.3855555555555555,-0.6133333333333333,-0.0031510617321158217,-0.008645692516389284,0.11550663232925078
1589987630.210765,-2.442220256523662,-0.813889871738169,8.938881026094649,0.30142095434665095,-0.39302349009779347,-0.617406752174554,0.001999534797902062,-0.0038789382977759868,0.10435743140552671
1589987630.2207649,-2.456782959045853,-0.81,8.997131836183412,0.2966666666666667,-0.3977777777777778,-0.62,0.0010527741904005697,-0.005141285774444643,0.0837275741075559
1589987630.2307649,-2.447988026788983,-0.8280179598165256,9.040029933027544,0.2966666666666667,-0.3977777777777778,-0.62,0.0006551515068550113,-0.005889833188123724,0.058669064089666614
1589987630.2407649,-2.473547462001721,-0.828817512666093,9.054408756333046,0.2966666666666667,-0.3977777777777778,-0.62,0.005360201275542283,0.0012548568623040194,0.024948961111683356
1589987630.2507648,-2.4759331721707776,-0.8344400966975334,9.030746537736622,0.2966666666666667,-0.3977777777777778,-0.62,0.007151476061982164,0.007595098160305058,-0.012841397096388103
1589987630.2607648,-2.392583170254403,-0.8595694716242661,8.971722113502935,0.29932485322896285,-0.4036257882148293,-0.6274429223744292,0.0033664190684871056,0.006638911415976474,-0.05682780090183592
1589987630.2707648,-2.3357574805433363,-0.8469700778266543,8.924242519456664,0.3022222222222222,-0.41,-0.6355555555555555,0.002974961884385184,0.007503541633133704,-0.10961148813369823
1589987630.2807648,-2.360406199669518,-0.8402030998347592,8.879187600660963,0.3022222222222222,-0.41,-0.6355555555555555,0.00714578697414577,0.013156433655460037,-0.15705485403467817
1589987630.2907648,-2.3699650586418914,-0.8349475879628375,8.850034941358109,0.3022222222222222,-0.41,-0.6355555555555555,0.008175513602372408,0.016362461737446838,-0.21117676145193212
1589987630.3007648,-2.4127702399869615,-0.8104054109114616,8.907972945442692,0.3022222222222222,-0.41,-0.6355555555555555,0.007068288351137856,0.0179323727059242,-0.26876447323797187
1589987630.3107648,-2.4891552091543336,-0.7952111977114167,8.964788802288584,0.3054147570812778,-0.4137246240022315,-0.6382160012714352,0.010770079246080911,0.02224684055877431,-0.33027634828304736
1589987630.3207648,-2.5192320367886567,-0.7853839816056716,8.979232036788657,0.3088888888888889,-0.4177777777777778,-0.6411111111111111,0.014180800172453925,0.027103225980259806,-0.3934584203139396
1589987630.3307648,-2.5647729984301413,-0.7915909994767137,9.001590999476713,0.3088888888888889,-0.4177777777777778,-0.6411111111111111,0.015129086599636401,0.03071681303031428,-0.4482944170162117
1589987630.3407648,-2.636128328543232,-0.8310973371654142,9.035548668582708,0.3088888888888889,-0.4177777777777778,-0.6411111111111111,0.019571722992104076,0.035328918880362124,-0.5144859815115512
1589987630.3507648,-2.6031234346518075,-0.8537531306963854,9.05,0.3088888888888889,-0.4177777777777778,-0.6411111111111111,0.02406696639782624,0.04063276363599541,-0.5835835404436427
1589987630.3607647,-2.6093393304385195,-0.8413213391229604,9.05,0.3088888888888889,-0.4177777777777778,-0.6411111111111111,0.02203281925834543,0.04334495982196982,-0.6269786794192334
1589987630.3707647,-2.5893424428665193,-0.8823945342800883,8.933895817172862,0.3022222222222222,-0.3955555555555556,-0.6577777777777778,0.021365937665681522,0.05243160591607495,-0.7308877369353162
1589987630.3807647,-2.5753858021137948,-0.9,8.829742798590804,0.3022222222222222,-0.3955555555555556,-0.6577777777777778,0.021844671971374432,0.05563236990731925,-0.807021750551131
1589987630.3907647,-2.6057096432889963,-0.8895269044740024,8.846182738814994,0.3022222222222222,-0.3955555555555556,-0.6577777777777778,0.023478665181814778,0.05734602615548687,-0.8770173145162874
1589987630.4007647,-2.629045711592837,-0.8935685673892554,8.892614278982093,0.3022222222222222,-0.3955555555555556,-0.6577777777777778,0.02547837831317977,0.06137169741857152,-0.9403416286327043
1589987630.4107647,-2.661553496364027,-0.944485594182443,8.958796293455249,0.3165912197982401,-0.39890832165662643,-0.6606515772929813,0.029151666946755878,0.06765058658989372,-1.002776495805475
1589987630.4207647,-2.6957584034647377,-1.0187920173236873,8.98696638614105,0.33555555555555555,-0.4033333333333333,-0.6644444444444444,0.03728739207403008,0.07450740914771402,-1.0695808952856933
1589987630.4307647,-2.690782203152691,-1.0538266952709636,8.92851991418711,0.33555555555555555,-0.4033333333333333,-0.6644444444444444,0.0419543225622575,0.07786641325692843,-1.122257433177907
1589987630.4407647,-2.6761051060017915,-1.097264257987459,8.9267387279785,0.33555555555555555,-0.4033333333333333,-0.6644444444444444,0.04211753349058114,0.08005551414902193,-1.177707751083121
1589987630.4507647,-2.6786290015052683,-1.161572503763171,9.012943502257903,0.33555555555555555,-0.4033333333333333,-0.6644444444444444,0.04098093071165757,0.08448659009039977,-1.2374770593428623
1589987630.4607646,-2.6858784888296907,-1.1817569776593813,9.03,0.34379857789617435,-0.3928005825647649,-0.6635285530732645,0.04170950032886181,0.09079688554120233,-1.2913072128497616
1589987630.4707646,-2.6544845711178575,-1.1853092573292854,8.994278399565001,0.3555555555555556,-0.37777777777777777,-0.6622222222222223,0.04307657099479344,0.09327727681726357,-1.3504765839440094
1589987630.4807646,-2.639517619151659,-1.2253803177377571,8.912411904241706,0.3555555555555556,-0.37777777777777777,-0.6622222222222223,0.04254240051736178,0.09450358809114237,-1.3943306574077556
1589987630.4907646,-2.659154467992135,-1.2777452479790257,8.814227660039327,0.3555555555555556,-0.37777777777777777,-0.6622222222222223,0.04254240051736178,0.09593162003690374,-1.4286034241060286
1589987630.5007646,-2.6862131418120176,-1.3035109515100147,8.876213141812018,0.3555555555555556,-0.37777777777777777,-0.6622222222222223,0.04690572364734761,0.09935382336931632,-1.4954086158036717
1589987630.5107646,-2.727092605434029,-1.360351761961798,8.931629578263884,0.3668620899787766,-0.37002472560185473,-0.6712674497607991,0.04722287119629003,0.10412383129937898,-1.5443900799959944
1589987630.5207646,-2.736807587232424,-1.423446069785939,8.949915447660546,0.3944444444444444,-0.3511111111111111,-0.6933333333333334,0.0490966084418014,0.10945898614975895,-1.5952996371223844
1589987630.5307646,-2.77,-1.4609420150260066,8.919057984973993,0.3944444444444444,-0.3511111111111111,-0.6933333333333334,0.0520150397031401,0.11280316635261897,-1.634429103088501
1589987630.5407646,-2.7483358836183,-1.52566717672366,8.86299846982902,0.3944444444444444,-0.3511111111111111,-0.6933333333333334,0.05719583839031059,0.11562806294462433,-1.6914761799058504
1589987630.5507646,-2.7234769694269407,-1.5547696942694078,8.914769694269408,0.3944444444444444,-0.3511111111111111,-0.6933333333333334,0.05781403147231216,0.11676589852883613,-1.7309539523863187
1589987630.5607646,-2.726791220127228,-1.6392526792366324,8.98,0.4090622194204061,-0.34255436478371887,-0.7001074241758521,0.05711398430041719,0.11890055529211367,-1.767747578130907
1589987630.5707645,-2.705479172194216,-1.6896805518705227,8.955798620323693,0.44,-0.3244444444444444,-0.7144444444444444,0.054576385510127265,0.1231244928808816,-1.8160643173491056
1589987630.5807645,-2.6592971202402076,-1.7204685865065283,8.868594240480416,0.44,-0.3244444444444444,-0.7144444444444444,0.052892514236438516,0.12818539565797316,-1.857561104783323
1589987630.5907645,-2.6399328175402004,-1.7846976789309015,8.8397984526206,0.44,-0.3244444444444444,-0.7144444444444444,0.053443379872807006,0.1303432858040475,-1.8935576544320192
1589987630.6007645,-2.637797635044343,-1.838134909970438,8.86593254501478,0.44,-0.3244444444444444,-0.7144444444444444,0.055872610656111474,0.13509635825507807,-1.9277555295813222
1589987630.6107645,-2.611222731730591,-1.8529257560898031,8.865851512179606,0.4465016801995623,-0.3114410840453197,-0.7163949485043132,0.056856580030862074,0.13771143727664617,-1.9612565554400978
1589987630.6207645,-2.59,-1.902489174748677,8.88772530449976,0.4622222222222222,-0.28,-0.7211111111111111,0.056226939115322,0.13603080544794122,-2.0005555356349114
1589987630.6307645,-2.576895769088442,-1.987472307882077,8.865055384235847,0.4622222222222222,-0.28,-0.7211111111111111,0.062240245228638046,0.14405255391587224,-2.035603938425202
1589987630.6407645,-2.5564056564744817,-2.02797171762759,8.82,0.4622222222222222,-0.28,-0.7211111111111111,0.066932759788334,0.1491371505316184,-2.0634443327860312
1589987630.6507645,-2.55,-2.0654102863420998,8.8308205726842,0.4622222222222222,-0.28,-0.7211111111111111,0.06718888049847407,0.15082973332871508,-2.084050411695395
1589987630.6607645,-2.55,-2.0942113575499555,8.88842271509991,0.4622222222222222,-0.28,-0.7211111111111111,0.06483259837029398,0.15240058808083512,-2.104471523472956
1589987630.6707644,-2.468287472845764,-2.222762490948588,8.902762490948588,0.4866666666666667,-0.22666666666666666,-0.7511111111111111,0.06443129061812249,0.15561518642985284,-2.1338218026777134
1589987630.6807644,-2.4859060127231687,-2.2668458854914837,8.85677816540119,0.4866666666666667,-0.22666666666666666,-0.7511111111111111,0.059798031723751956,0.161691879230394,-2.1505765812497173
1589987630.6907644,-2.4637586905163684,-2.3470688491393856,8.788120654741816,0.4866666666666667,-0.22666666666666666,-0.7511111111111111,0.060791248480921586,0.16332934203558844,-2.160320765827909
1589987630.7007644,-2.421291933850827,-2.4178467769152885,8.809354033074587,0.4866666666666667,-0.22666666666666666,-0.7511111111111111,0.06001918105752893,0.16255727461219577,-2.1672693726384433
1589987630.7107644,-2.371136552641792,-2.399431723679104,8.84,0.49295448245273604,-0.22037885088059728,-0.7563509575995022,0.05916207261783781,0.16092853508341712,-2.1763406427826992
1589987630.7207644,-2.31,-2.4316491680909693,8.840618438034113,0.5133333333333333,-0.2,-0.7733333333333333,0.06001818007879433,0.1594187035349073,-2.184023122889819
1589987630.7307644,-2.307320876487865,-2.5260747410728084,8.835171394342247,0.5133333333333333,-0.2,-0.7733333333333333,0.061671017899230865,0.1689428389999604,-2.195492343215023
1589987630.7407644,-2.301375521416217,-2.575502085664869,8.749628649913522,0.5133333333333333,-0.2,-0.7733333333333333,0.06326818538479445,0.17423283297887435,-2.2043784573045166
1589987630.7507644,-2.2878226332553053,-2.6258409762462103,8.829009171495454,0.5133333333333333,-0.2,-0.7733333333333333,0.062231395913944755,0.1740792460858562,-2.2107143583183864
1589987630.7607644,-2.2225864733967646,-2.668706763301618,8.863469927523786,0.5147844605502696,-0.19153509123453824,-0.7791378422010785,0.05880849235914068,0.17804285768255518,-2.213154587445344
1589987630.7707644,-2.142216139732319,-2.7266757904015217,8.83110806986616,0.52,-0.16111111111111112,-0.8,0.05260162090366258,0.17695633010825856,-2.2170531295880886
1589987630.7807643,-2.1126477676565503,-2.7673522323434496,8.78323883828275,0.52,-0.16111111111111112,-0.8,0.049777213926821905,0.17613693347149323,-2.214049962203159
1589987630.7907643,-2.0977426915011717,-2.7822573084988282,8.713228074503515,0.52,-0.16111111111111112,-0.8,0.04760998025467293,0.17988118496786384,-2.205132928017103
1589987630.8007643,-2.084319418274462,-2.8036333961412914,8.707041745176614,0.52,-0.16111111111111112,-0.8,0.040931296631098804,0.1827638471867083,-2.1941073302109286
1589987630.8107643,-2.04,-2.91177616532912,8.829343008025281,0.5257231993938302,-0.16249257303375977,-0.8023682204388263,0.02952409783439189,0.1781212500030961,-2.1763082434156407
1589987630.8207643,-2.0370366693553392,-2.9259266612893216,8.777777502016503,0.5522222222222222,-0.1688888888888889,-0.8133333333333334,0.03506820965418215,0.17485617442802406,-2.154309712395355
1589987630.8307643,-2.0,-3.0218116252338345,8.728188374766166,0.5522222222222222,-0.1688888888888889,-0.8133333333333334,0.03530378718827877,0.17621955920451768,-2.115619848488755
1589987630.8407643,-2.0,-3.087920556920557,8.69574180999181,0.5522222222222222,-0.1688888888888889,-0.8133333333333334,0.029895262862141357,0.16799877287401832,-2.079210130394758
1589987630.8507643,-1.9978541038137232,-3.122861194915036,8.798569402542483,0.5522222222222222,-0.1688888888888889,-0.8133333333333334,0.027504850524014645,0.16268829352805542,-2.0407836989615107
1589987630.8607643,-1.9721352133954424,-3.1653380334886063,8.783202820093162,0.5549505504497321,-0.16793990515758112,-0.8179596290234589,0.031242008859585012,0.1498359010348267,-1.9909797298458825
1589987630.8707643,-1.987222352115969,-3.2030558802899227,8.805833528173954,0.5742285610370716,-0.16123451017068038,-0.8506484295845999,0.03617926346042839,0.14489864643398326,-1.953950320339557
1589987630.8807642,-1.907907511546563,-3.23,8.851751405878602,0.5777777777777777,-0.16,-0.8566666666666667,0.03702456369004536,0.13824357138051305,-1.8944067185254065
1589987630.8907642,-1.8916967167178773,-3.23,8.632905675691344,0.5777777777777777,-0.16,-0.8566666666666667,0.044982018993584505,0.14443270328326568,-1.8493144718053511
1589987630.9007642,-1.8240681493042008,-3.2298864178263322,8.64118220834959,0.5777777777777777,-0.16,-0.8566666666666667,0.04217297362730836,0.12657354044900287,-1.7827323059221845
1589987630.9107642,-1.8106082119368123,-3.2942473415698568,8.896659905341448,0.5607709618155865,-0.15915807841771332,-0.8391546977551034,0.022511585289155606,0.11493419962464985,-1.7388484002911422
1589987630.9207642,-1.8577527657938577,-3.439185425654607,8.743679894066892,0.4655555555555556,-0.15444444444444444,-0.7411111111111112,0.04171813856604136,0.11725203138947286,-1.6652052125712105
1589987630.9307642,-1.8321631327340517,-3.468652530936206,8.800531805393536,0.4655555555555556,-0.15444444444444444,-0.7411111111111112,0.035378507394472423,0.10386488551445623,-1.6081436641119482
1589987630.9407642,-1.826468263955303,-3.50773242059697,8.73,0.4655555555555556,-0.15444444444444444,-0.7411111111111112,0.03814259190617754,0.10429801699914056,-1.5444216066085839
1589987630.9507642,-1.763863368425407,-3.54,8.740227719290989,0.4655555555555556,-0.15444444444444444,-0.7411111111111112,0.041426729413627475,0.10075301978869199,-1.4744802937591164
1589987630.9607642,-1.7365788633852952,-3.5417105683073524,8.789408125690438,0.46755121858080007,-0.14427606617296074,-0.7332234905827639,0.036901652548357214,0.09297177404034493,-1.412295601493202
1589987630.9707642,-1.698296791055612,-3.566812835777552,8.888296791055613,0.4888888888888889,-0.03555555555555556,-0.6488888888888888,0.03509237631444276,0.08325080515400242,-1.3372573282371245
1589987630.9807642,-1.6256717361081856,-3.6120615494797153,9.298133715296794,0.4888888888888889,-0.03555555555555556,-0.6488888888888888,0.0377516970833267,0.07919207680700537,-1.2401067495306703
1589987630.9907641,-1.4444870593324202,-3.3954502198832093,9.458230120395068,0.4888888888888889,-0.03555555555555556,-0.6488888888888888,0.05635162146356701,0.10305916952358198,-1.1656018024682127
1589987631.0007641,-1.1799409913453973,-2.6701433067326064,8.029641733168484,0.4888888888888889,-0.03555555555555556,-0.6488888888888888,0.10582483891760697,0.17885027086022284,-1.086445390181256
1589987631.0107641,-1.0786729282359875,-3.0395734157098726,7.463222327375319,0.49027909219148974,-0.025444986082094813,-0.644591896862668,0.10401671338504864,0.05293892185213663,-1.0341075818066403
1589987631.020764,-1.3333132153634626,-3.234298341160295,9.328087959573594,0.49943282800326166,0.041127638003519665,-0.616298531626282,-0.13045339270643605,-0.0581688636128178,-1.0341075818066403
1589987631.030764,-1.42,-3.3489405435232444,8.298345978755691,0.5011111111111111,0.05333333333333334,-0.6111111111111112,0.04984565480994013,0.06000983817367625,-0.8985568466840829
1589987631.040764,-1.42,-3.3417079942060974,8.21878793626707,0.5011111111111111,0.05333333333333334,-0.6111111111111112,0.06246883469964874,0.07499986429270522,-0.8370188447217535
1589987631.050764,-1.5150372516556292,-3.5690521523178806,9.337379966887417,0.5011111111111111,0.05333333333333334,-0.6111111111111112,-0.016171927552755816,0.009526483483147339,-0.7674877242850888
1589987631.060764,-1.4368068177921054,-3.46871874892829,8.565295449089476,0.5071616158152047,0.06240909038947381,-0.6135691286471492,0.0413369088634928,0.04718524926917324,-0.6799151372309324
1589987631.070764,-1.475007548287879,-3.5675113224318187,8.972413194689391,0.5366666666666666,0.10666666666666667,-0.6255555555555555,0.018277591035395807,0.026997650171548607,-0.6108388897027399
1589987631.080764,-1.4868429815031674,-3.585264472254751,8.836305712713575,0.5366666666666666,0.10666666666666667,-0.6255555555555555,0.027960432191959046,0.026352127427777722,-0.5695254341014034
1589987631.090764,-1.5117997754957802,-3.6987246913066976,8.808724691306699,0.5366666666666666,0.10666666666666667,-0.6255555555555555,0.030990514775530005,0.022572006783203646,-0.48206790940880434
1589987631.100764,-1.442048808880389,-3.602817112210535,8.712817112210535,0.5366666666666666,0.10666666666666667,-0.6255555555555555,0.03479483985017756,0.01971876297721798,-0.41644330187113404
1589987631.110764,-1.41,-3.577801591563736,8.824396816872529,0.5366666666666666,0.10809156102350459,-0.6255555555555555,0.021936520229667963,0.007715751863967756,-0.345217214282376
1589987631.120764,-1.4127490570224095,-3.5227490570224096,8.939312735744398,0.5366666666666666,0.14555555555555555,-0.6255555555555555,0.024714263494558183,0.009667539241323984,-0.2674598725840697
1589987631.130764,-1.443862952727984,-3.553862952727984,8.878857939399868,0.5366666666666666,0.14555555555555555,-0.6255555555555555,0.01807290873341436,0.006296919461885034,-0.18117538600600697
1589987631.140764,-1.42,-3.528100607111882,8.676201214223763,0.5366666666666666,0.14555555555555555,-0.6255555555555555,0.012206330230502407,0.0002620642903308918,-0.10684086753454014
1589987631.150764,-1.4216834841789352,-3.5237878394026043,8.672626131342014,0.5366666666666666,0.14555555555555555,-0.6255555555555555,0.01281450993532323,-0.003547951802123608,-0.03842151573388869
1589987631.160764,-1.46,-3.6111910943055476,8.959205937129635,0.5375048441409409,0.14652607684155738,-0.6261290454063748,0.006631603517201915,-0.009990714686914464,0.03357492068771204
1589987631.170764,-1.4583926539899237,-3.64,8.907853079798471,0.5577777777777778,0.17,-0.64,0.007674640756423139,-0.014882137174819596,0.1186488114742777
1589987631.180764,-1.449650231423741,-3.639300462847482,8.74017488428813,0.5577777777777778,0.17,-0.64,0.0022388923144528988,-0.018677661717846385,0.18124615560003493
1589987631.190764,-1.4326402358442614,-3.6026402358442615,8.755280471688522,0.5577777777777778,0.17,-0.64,0.004878143806088095,-0.02704395393950622,0.2611980724589883
1589987631.200764,-1.4496954356002847,-3.619695435600285,8.789390871200569,0.5577777777777778,0.17,-0.64,0.00115727642698887,-0.03262525500815506,0.32073195052457587
1589987631.210764,-1.4281973113157616,-3.569127059736777,8.79,0.5577777777777778,0.17,-0.64,-0.0004947054813671694,-0.03193215534296187,0.37491054567588594
1589987631.220764,-1.3530674432645524,-3.57255620272046,8.736646127073197,0.5733333333333334,0.16333333333333333,-0.6344444444444445,-0.0034397954243161233,-0.03856945123330506,0.47033317182956946
1589987631.230764,-1.3977557978477821,-3.609796498206485,8.83347089533686,0.5733333333333334,0.16333333333333333,-0.6344444444444445,-0.005877167064241302,-0.04425665172646381,0.5207055190546899
1589987631.240764,-1.4365618525512915,-3.5331237051025832,8.803983241964762,0.5733333333333334,0.16333333333333333,-0.6344444444444445,-0.016409342200844498,-0.04813719582003704,0.5975157062423688
1589987631.250764,-1.3750404283016446,-3.4100808566032894,8.696320749527878,0.5733333333333334,0.16333333333333333,-0.6344444444444445,-0.017248210492776233,-0.05065380069583225,0.6319093062115702
1589987631.260764,-1.40339056851791,-3.501493591850148,8.791493591850148,0.5733333333333334,0.16333333333333333,-0.6344444444444445,-0.015560021807568984,-0.05032241142114627,0.679129718929093
1589987631.2707639,-1.41,-3.5360744911216977,8.721590298830662,0.6420964342428179,0.157082142341562,-0.6442677445743707,-0.01702508592780177,-0.05280839845411404,0.7218642858376535
1589987631.2807639,-1.4352997942240828,-3.578249485560207,8.852973816788477,0.6588888888888889,0.15555555555555556,-0.6466666666666666,-0.020147666999380014,-0.05749227006148141,0.7821831809677475
1589987631.2907639,-1.4092326091289615,-3.480767390871039,8.663848913693442,0.6588888888888889,0.15555555555555556,-0.6466666666666666,-0.02399827721492203,-0.0637717460968259,0.8287387380831467
1589987631.3007638,-1.4850853949888443,-3.402371907516734,8.756015163780678,0.6588888888888889,0.15555555555555556,-0.6466666666666666,-0.02510773829391896,-0.0686022869589026,0.874125973531913
1589987631.3107638,-1.518211147748139,-3.3526832783777913,8.664919343692617,0.6588888888888889,0.15555555555555556,-0.6466666666666666,-0.03233465645456009,-0.07492584034946358,0.9120672938752787
1589987631.3207638,-1.5459656278643448,-3.339914069660862,8.889742208982584,1.002222222222222,0.16,-0.7711111111111111,-0.032944964340574624,-0.0726549542418089,0.9746363324138715
1589987631.3307638,-1.5316322874075436,-3.3,8.761838562962282,1.002222222222222,0.16,-0.7711111111111111,-0.03310353451737821,-0.07615759866727038,1.0235759305793348
1589987631.3407638,-1.5420964400433352,-3.2979035599566644,8.726289320130006,1.002222222222222,0.16,-0.7711111111111111,-0.030252832593929236,-0.08037844870479849,1.0697962817156297
1589987631.3507638,-1.5580404082641173,-3.2819595917358826,8.774121224792351,1.002222222222222,0.16,-0.7711111111111111,-0.036340092559560194,-0.07776962300524236,1.1089286672089718
1589987631.3607638,-1.604053716534086,-3.298880164228894,8.817760328457787,1.002222222222222,0.16,-0.7711111111111111,-0.03846125089284391,-0.07950849198919498,1.1377658039682583
1589987631.3707638,-1.6545521695257315,-3.359104339051463,8.790895660948536,1.3459525955824647,-0.30103518331651524,-1.2339649736517548,-0.03569893986377383,-0.08250696205778704,1.1760213423824228
1589987631.3807638,-1.730761206440396,-3.426608965152317,8.79415224128808,1.4222222222222225,-0.4033333333333333,-1.336666666666667,-0.03259092997413347,-0.08521879453548378,1.1960355528600983
1589987631.3907638,-1.7107005283790693,-3.343152377705812,8.721751320947675,1.4222222222222225,-0.4033333333333333,-1.336666666666667,-0.03584458423840279,-0.08944812416470939,1.2118747914575678
1589987631.4007638,-1.7249984659962503,-3.407493096983126,8.757496164990625,1.4222222222222225,-0.4033333333333333,-1.336666666666667,-0.032725258142595824,-0.08944812416470939,1.2110949599336158
1589987631.4107637,-1.7045788149022776,-3.3283152596091106,8.80389491346363,1.4222222222222225,-0.4033333333333333,-1.336666666666667,-0.02793673119477912,-0.08759944341590034,1.198805743703807
1589987631.4207637,-1.6534825391508248,-3.278988359433883,8.81,0.8553983474304219,-0.19917336627306478,-0.8964736575198429,-0.0289621921696732,-0.08811217390334737,1.182264276236887
1589987631.4307637,-1.6506624356978141,-3.3,8.788012692906557,0.6911111111111111,-0.14,-0.7688888888888888,-0.02639672035509502,-0.08377718867704702,1.1471342658491035
1589987631.4407637,-1.6589291838303406,-3.3,8.763212448508977,0.6911111111111111,-0.14,-0.7688888888888888,-0.029102007355326545,-0.08107190167681551,1.1146708218463253
1589987631.4507637,-1.712226716412706,-3.306103246277764,8.782783395515882,0.6911111111111111,-0.14,-0.7688888888888888,-0.02951315539757606,-0.07805402217837083,1.0487653518180882
1589987631.4607637,-1.7414766902611667,-3.2549157920429583,8.819345862826458,0.6911111111111111,-0.14,-0.7688888888888888,-0.03031082469410399,-0.07167266780614742,0.9977145168403008
1589987631.4707637,-1.7328357766039528,-3.203781035471937,8.83,0.5911111111111111,0.004444444444444445,-0.7111111111111111,-0.026652099080036414,-0.07127304941532858,0.8967715611539997
1589987631.4807637,-1.7577292420915187,-3.236972322788692,8.83,0.5911111111111111,0.004444444444444445,-0.7111111111111111,-0.021221187392666378,-0.06493698578006356,0.8306954689576642
1589987631.4907637,-1.7397580328384006,-3.209576557467201,8.7104234425328,0.5911111111111111,0.004444444444444445,-0.7111111111111111,-0.023958685430688124,-0.05885867183986907,0.7434648936210705
1589987631.5007637,-1.7068072904391547,-3.1519127582685207,8.768087241731479,0.5911111111111111,0.004444444444444445,-0.7111111111111111,-0.01856713281340686,-0.05256852711970759,0.6778676701108151
1589987631.5107636,-1.7283091738124405,-3.14,8.813971008574928,0.5911111111111111,0.004444444444444445,-0.7111111111111111,-0.01683568215551024,-0.04879860531960122,0.6198480003011619
1589987631.5207636,-1.7646132314391079,-3.1619198471586616,8.818080152841338,0.596794034448542,0.012562906355059909,-0.7395257277982652,-0.011580292931789696,-0.04610869551307142,0.5315782170698159
1589987631.5307636,-1.7927565430637182,-3.207927571772864,8.847927571772864,0.5988888888888889,0.015555555555555557,-0.75,-0.010644928298371773,-0.03588547779400713,0.448713341542159
1589987631.5407636,-1.7505900208689054,-3.200885031303358,8.710590020868906,0.5988888888888889,0.015555555555555557,-0.75,-0.008683738731563832,-0.03153755075347964,0.3405075230606227
1589987631.5507636,-1.7903765888825651,-3.2605648833238474,8.750376588882565,0.5988888888888889,0.015555555555555557,-0.75,-0.005790377856951244,-0.025027488785601314,0.27830026425645205
1589987631.5607636,-1.738310286677909,-3.2103447629754545,8.833724189619636,0.5988888888888889,0.015555555555555557,-0.75,-0.0008877077486487929,-0.01747209642325783,0.16246601078393824
1589987631.5707636,-1.7135627713458754,-3.224750361794501,8.806626266280752,0.5911111111111111,-0.031111111111111114,-0.7644444444444445,0.004049768478504842,-0.005508616520291437,0.009489122769299849
1589987631.5807636,-1.7389959445758703,-3.25899594457587,8.916947279486312,0.5911111111111111,-0.031111111111111114,-0.7644444444444445,0.010200816139858758,0.0023459497495889057,-0.10452724689572612
1589987631.5907636,-1.7248212233862792,-3.244821223386279,8.73267590402163,0.5911111111111111,-0.031111111111111114,-0.7644444444444445,0.015612593912277511,0.004665283080625515,-0.19420813569580836
1589987631.6007636,-4.4853465136054425,-5.779804067460318,5.728142006802721,0.5911111111111111,-0.031111111111111114,-0.7644444444444445,0.012104843758755226,0.02042981044380887,-0.3541436012150212
1589987631.6107635,-10.897037322211528,-7.26431761308951,-5.069674473318361,0.5911111111111111,-0.031111111111111114,-0.7644444444444445,-0.5365758939884716,1.9938574602080845,-0.5083324407312028
1589987631.6207635,-3.7527432074275215,-0.3846295182192159,-0.5303734898619534,0.5133333333333333,0.012222222222222223,-0.62,-0.25284159559427455,-0.4964936854612513,-1.8543562287535107
1589987631.6307635,-0.8815698931724687,-0.4119090746491927,0.2334540901773956,0.5133333333333333,0.012222222222222223,-0.62,0.03134138232340261,-0.73529665905176,-1.9890083727406824
1589987631.6407635,-0.2833603094846369,-0.3457692649739873,0.033279381030726134,0.5133333333333333,0.012222222222222223,-0.62,0.15429738119280742,-0.1406906871674311,-1.8950115201780127
1589987631.6507635,-0.20614110442492928,-0.5127274660315976,0.17851580939420358,0.5133333333333333,0.012222222222222223,-0.62,0.3051836687324565,-0.2110282417549183,-1.738067917432532
1589987631.6607635,0.025740925811733206,-0.07571902443173362,0.0893304131493334,0.5133333333333333,0.012222222222222223,-0.62,0.35577248003044154,-0.10985061915894814,-1.5639256631567757
1589987631.6707635,-0.017608803276475085,0.1559242090103065,0.012391196723524914,0.5283575118392166,0.08264805896855044,-0.642536267758825,0.3748930697154006,-0.00523465238547649,-1.3604109372958908
1589987631.6807635,-0.10308319120712527,-0.022605647148000757,0.5248701913966269,0.5311111111111111,0.09555555555555556,-0.6466666666666666,0.3411904531747708,0.03229185724610269,-1.187300160850719
1589987631.6907635,10.99685130958191,5.842506100536847,20.018315845127706,0.5311111111111111,0.09555555555555556,-0.6466666666666666,0.21430268656705986,0.07264468072976724,-0.9213458998957356
1589987631.7007635,3.239300965897259,2.112875907030386,7.043321212897851,0.5311111111111111,0.09555555555555556,-0.6466666666666666,-0.14045108993552574,0.8869594558943711,-0.7818649892443228
1589987631.7107635,-0.1855266299534024,0.004964762968382941,1.911523086995032,0.5311111111111111,0.09555555555555556,-0.6466666666666666,0.06108673386154345,1.1060001231230905,-0.587525987952547
1589987631.7207634,1.72,0.09,17.96,0.5044444444444445,0.09555555555555556,-0.67,0.01308996938995747,-0.3643374813538163,-0.36979163526629855
1589987631.7307634,1.7229173472721333,0.0739545900032669,16.42109931394969,0.5044444444444445,0.09555555555555556,-0.67,0.019931983636458844,-0.5320463886982918,-0.35022029218909695
1589987631.7407634,1.254718876384737,-0.47292904870757874,6.296164278178302,0.5044444444444445,0.09555555555555556,-0.67,0.020671837943293907,-1.3260244344375658,-0.16100495473829024
1589987631.7507634,0.4968837851839061,-1.645732343291314,7.100138836125022,0.5044444444444445,0.09555555555555556,-0.67,0.13158711884477287,-0.10525535661283025,0.06867536067576842
1589987631.7607634,-0.12618150087260033,-1.906968935427574,8.600501221640489,0.5044444444444445,0.09555555555555556,-0.67,-0.12965534724569872,1.0254851831795648,0.28006236993237615
1589987631.7707634,-1.146051082207264,-3.784796295359077,14.750872513791183,0.4922222222222222,0.06888888888888889,-0.6555555555555556,-0.09006874039258349,-0.08551749338063917,0.1753789875179723
1589987631.7807634,-0.7144295426556675,-2.320113366061036,9.040731818411862,0.4922222222222222,0.06888888888888889,-0.6555555555555556,-0.19503979677859903,-0.14649332760486877,0.15839837545552862
1589987631.7907634,-0.9197636035753489,-2.5596060059589147,8.932285165438294,0.4922222222222222,0.06888888888888889,-0.6555555555555556,0.050393106408904896,0.09460061897652795,0.21350198678961024
1589987631.8007634,-0.8950989885526109,-2.5184983142543516,9.170709777324761,0.4922222222222222,0.06888888888888889,-0.6555555555555556,0.07281387416326082,-0.050685956071698374,0.18211291193351198
1589987631.8107634,-1.1095312920016616,-2.8514931208914738,10.455879866083428,0.4922222222222222,0.06888888888888889,-0.6555555555555556,-0.11501513872033993,0.01063246126849543,0.16231978425767213
1589987631.8207633,-0.7461637131556011,-2.056345616661825,7.375664260653869,0.508401007098855,0.08932524873305674,-0.6504464655945136,0.035520389127201624,-0.03607971139818826,0.14755767378438134
1589987631.8307633,-1.2397441351068221,-2.809579060982191,10.198411161550426,0.5133333333333333,0.09555555555555556,-0.6488888888888888,0.03929286683178141,0.07630323405410688,0.14398966328953214
1589987631.8407633,-1.0604090373701682,-2.549593104186744,9.36490202377128,0.5133333333333333,0.09555555555555556,-0.6488888888888888,-0.02537819742740873,-0.08428259246697695,0.09011624195846457
1589987631.8507633,-1.2813071046981876,-2.798431274651755,9.799019421838334,0.5133333333333333,0.09555555555555556,-0.6488888888888888,-0.038799351578890875,0.03008692004927177,0.09614282646022149
1589987631.8607633,-1.0367556070338002,-2.3593223123091502,8.342797515004738,0.5133333333333333,0.09555555555555556,-0.6488888888888888,0.0047007145525935,-0.006301962712288833,0.09528922034739004
1589987631.8707633,-1.2249076509439476,-2.769407913963411,9.440464375474896,0.5133333333333333,0.11841360297699066,-0.6554197595807275,-0.024289203678218026,0.0039411514059633605,0.10772561269408235
1589987631.8807633,-1.2048949034247687,-2.436897013471839,8.214745171238436,0.5133333333333333,0.11888888888888888,-0.6555555555555556,0.03881018700013503,-0.012980771226492986,0.13537765960895778
1589987631.8907633,-1.3281403192510104,-2.981130753350973,9.823106155322304,0.5133333333333333,0.11888888888888888,-0.6555555555555556,-0.005717941299974591,0.016969550156827665,0.18157576616728252
1589987631.9007633,-1.049638259165967,-2.7966470752868737,8.612541281835993,0.5133333333333333,0.11888888888888888,-0.6555555555555556,-0.03501855318695643,-0.059530800069477904,0.20853315594725788
1589987631.9107633,-1.0699534264803727,-2.6821676646706587,8.342353958749168,0.5133333333333333,0.11888888888888888,-0.6555555555555556,-0.0033232961763481478,-0.007284833596959361,0.2577972073154512
1589987631.9207633,-1.1151902949571837,-2.756103710751665,8.552740247383444,0.5194909609895337,0.12504651654508933,-0.665631673538429,0.01469715442011519,-0.0029720208807598493,0.3099453995388693
1589987631.9307632,-1.1929474418064216,-2.9211789767225684,9.015894883612843,0.5255555555555556,0.13111111111111112,-0.6755555555555556,-0.0012205990441811788,-0.03837198700249966,0.3450252051456885
1589987631.9407632,-5.985014918934465,-11.389678973289715,5.195997052162347,0.5255555555555556,0.13111111111111112,-0.6755555555555556,0.010144212566779155,-0.02968791442355024,0.3741068813736241
1589987631.9507632,0.2693523685918233,-1.514163270603504,2.2719839065541856,0.5255555555555556,0.13111111111111112,-0.6755555555555556,-0.3423384329269468,0.41610730511282995,-0.17668227948544268
1589987631.9607632,2.233964115933139,-1.0627874778189148,12.529656056257803,0.5255555555555556,0.13111111111111112,-0.6755555555555556,-0.2871015145183935,-0.4055234826507582,-1.5561824634323007
1589987631.9707632,0.426018241765014,0.8565685760946595,7.412082087942563,0.5395695997973138,0.13650112812717194,-0.7046616474422841,0.56306017493903,0.11210629930995053,-1.9117205924257987
1589987631.9807632,0.6798250989911854,0.010524703026444149,4.567253118968502,0.54,0.13666666666666666,-0.7055555555555556,0.7996317068454949,0.5908301948953829,-1.8141924353719854
1589987631.9907632,-0.7636142638337982,-1.591755488355653,9.066000471272043,0.54,0.13666666666666666,-0.7055555555555556,0.18573747050077338,0.11448518175955413,-1.6774977242782187
1589987632.0007632,-0.7185385136661397,-2.646353060763497,9.913126270612153,0.54,0.13666666666666666,-0.7055555555555556,-0.46538372151507335,0.0735386762952589,-1.4451077092006361
1589987632.0107632,-0.46753480172640877,-2.3000928046037568,7.6200840915077706,0.54,0.13666666666666666,-0.7055555555555556,0.06762929816284718,0.1295763340937178,-1.2545423993230105
1589987632.0207632,-1.06,-2.72,9.96,0.5188888888888888,0.16333333333333333,-0.6911111111111111,-0.08835729338221293,-0.02072578486743266,-1.0384709049366259
1589987632.0307631,-1.06,-2.72,9.96,0.5188888888888888,0.16333333333333333,-0.6911111111111111,-0.08835729338221293,-0.02072578486743266,-1.0384709049366259
1589987632.0407631,-0.920615241035213,-2.614237409813705,9.03383000107685,0.5188888888888888,0.16333333333333333,-0.6911111111111111,0.015288663561662252,0.053475297944659786,-0.9242247933053089
1589987632.0507631,-2.292555922972184,-5.838671464695585,8.074870647733905,0.5188888888888888,0.16333333333333333,-0.6911111111111111,0.02466728897473751,0.11259915622995073,-0.9099311059919094
1589987632.0607631,-1.432896996081846,-5.5774242925555075,8.741617414018284,0.5188888888888888,0.16333333333333333,-0.6911111111111111,-0.02040344603333284,0.03103641050275041,-1.279158704242875
1589987632.070763,0.8217570355377369,-2.096074111556576,9.42188743139621,0.5176801646923479,0.17501766723322912,-0.6886936627180292,0.05423782527222083,0.06694047776529097,-1.752818326932927
1589987632.080763,-0.009085072231139635,-1.848143392188336,7.699502407704655,0.5155555555555555,0.1955555555555556,-0.6844444444444444,0.06981025185938126,0.15506430967683568,-1.7541813817311533
1589987632.090763,-0.7313520295852778,-2.405480760764286,9.137129083384696,0.5155555555555555,0.1955555555555556,-0.6844444444444444,-0.01752821089718616,0.042059705254754054,-1.6232540304665497
1589987632.100763,-1.3095608277243145,-3.9991244367803302,8.747790231963064,0.5155555555555555,0.1955555555555556,-0.6844444444444444,0.06012445439462041,0.12064954350256521,-1.4537720040894313
1589987632.110763,-1.818362695483429,-6.374506297325064,8.177086107834558,0.5155555555555555,0.1955555555555556,-0.6844444444444444,0.04550737164162842,0.10818118478772004,-1.4932700977504816
1589987632.120763,-1.7662922213882195,-6.659827558961799,8.321920949709636,0.5113117765575,0.21374317983293611,-0.6844444444444444,0.023498454956367716,0.10045597843251228,-1.6771548059759473
1589987632.130763,-0.8275344706707175,-3.790306925294072,8.464589078445119,0.5077777777777778,0.2288888888888889,-0.6844444444444444,0.09275707101135673,0.141683172681968,-1.8733146253738062
1589987632.140763,-0.7565987890209217,-3.1327425011778254,8.561305379608788,0.5077777777777778,0.2288888888888889,-0.6844444444444444,0.08355241495563577,0.1412449511499868,-1.8485309918534605
1589987632.150763,-0.8643583477849598,-4.120290871827211,8.861162304903043,0.5077777777777778,0.2288888888888889,-0.6844444444444444,0.04378641709829884,0.11407500917053795,-1.7751435163183873
1589987632.160763,-0.9100865020173615,-4.73843134857562,8.83652249663773,0.5077777777777778,0.2288888888888889,-0.6844444444444444,0.03805577709902555,0.11940319235184392,-1.8046700664584896
1589987632.170763,-0.8164439693568502,-4.570251202565473,8.673287012292892,0.4867977116614209,0.2478221192865768,-0.6844444444444444,0.04211193727431356,0.1336556303554062,-1.8817559773306045
1589987632.180763,-0.6541757931334202,-4.02582420686658,8.577472620599739,0.4622222222222222,0.27,-0.6844444444444444,0.0486318768432133,0.13690523646182737,-1.9373994034773045
1589987632.190763,-0.588915900131406,-4.287910643889619,8.739316688567675,0.4622222222222222,0.27,-0.6844444444444444,0.06019278795529885,0.13269146588133632,-1.9383668815126034
1589987632.200763,-0.5524742989526522,-4.364845793715912,8.877731309426132,0.4622222222222222,0.27,-0.6844444444444444,0.06627077358601864,0.13281145131830244,-1.9545549290745623
1589987632.210763,-0.45215900319770647,-4.301079501598854,8.788181717940237,0.4622222222222222,0.27,-0.6844444444444444,0.06730302038301296,0.13994243932112985,-1.9701333706056097
1589987632.220763,-0.39199478072687927,-4.3160104385462414,8.697987821696051,0.4628890821953007,0.2973412588962204,-0.6844444444444444,0.05519243180992518,0.14158945601178782,-1.986188104775816
1589987632.230763,-0.3456279761904762,-4.436241666666667,8.807488095238094,0.4633333333333333,0.31555555555555553,-0.6844444444444444,0.05740406090322391,0.14446657710485578,-2.0105360575198987
1589987632.240763,-0.2914627509621749,-4.34126590346383,8.754388252886525,0.4633333333333333,0.31555555555555553,-0.6844444444444444,0.06890337340600865,0.14280831545266978,-2.046622527534214
1589987632.250763,-0.1906851192107427,-4.3,8.744358603851616,0.4633333333333333,0.31555555555555553,-0.6844444444444444,0.07621822384226545,0.1471222247045351,-2.0666393440133137
1589987632.260763,-0.1767389643214013,-4.340433785928408,8.790433785928409,0.4633333333333333,0.31555555555555553,-0.6844444444444444,0.06421706005417463,0.14614766550233904,-2.080332598981672
1589987632.270763,-0.1422975087553712,-4.416553736866944,8.835134994163086,0.4423875048640951,0.3413887440009494,-0.688633610138292,0.053701327669667745,0.14713684597335086,-2.1021192713438017
1589987632.280763,-6.850694000863185,-13.090441087613293,8.011574449719465,0.43,0.3566666666666667,-0.6911111111111111,0.02247670088044798,0.1669833278822086,-2.077128213096307
1589987632.290763,-5.043141965321698,-13.938306613717703,6.960321289078459,0.43,0.3566666666666667,-0.6911111111111111,-0.046731093745150616,0.05661866519099139,-1.0042117839685847
1589987632.300763,0.41636076060595384,-5.795985729851323,9.06809461881832,0.43,0.3566666666666667,-0.6911111111111111,0.11161908441032344,-0.05607359449151557,0.37413183896421354
1589987632.310763,1.1889620373133019,-0.9663427347877216,9.819624585359005,0.43,0.3566666666666667,-0.6911111111111111,0.1982531963102668,-0.008359021908294711,0.5516934548562846
1589987632.3207629,-0.029097180563887215,-3.1239159310994946,8.895510326506127,0.418534578798526,0.3751387341579303,-0.6911111111111111,-0.08238913372308941,-0.005505334806596325,0.008606336103396728
1589987632.3307629,0.27279690522243716,-4.194916827852998,9.6584750483559,0.41,0.3888888888888889,-0.6911111111111111,-0.13837810903590053,-0.005537200526793802,-0.2601264711437804
1589987632.3407629,0.3761086415362731,-4.36167407539118,8.761957681365576,0.41,0.3888888888888889,-0.6911111111111111,0.02442498911419161,0.04986516462873647,-0.4331403140320916
1589987632.3507628,0.7206038254495476,-4.582725231932196,8.758784331691674,0.41,0.3888888888888889,-0.6911111111111111,0.005686088200035411,0.023734109008930686,-0.2038220877818176
1589987632.3607628,0.3217572309771355,-4.002774036051353,8.792240894526907,0.41,0.3888888888888889,-0.6911111111111111,0.023524464014250932,0.004496850575538257,0.03274213748318783
1589987632.3707628,-0.2725264724276995,-4.135740257499623,8.770842157475899,0.3999064269471222,0.3924513264369634,-0.6946735486591856,0.01432126795485783,-0.005471044863372582,0.02523698615521297
1589987632.3807628,-0.2392025868737816,-4.506642943342514,8.68626202927252,0.3911111111111111,0.3955555555555556,-0.6977777777777778,-0.02072578486743266,-0.01240300624098424,-0.013165308508889677
1589987632.3907628,-0.028636536704233932,-4.502777566250381,8.555757691136156,0.3911111111111111,0.3955555555555556,-0.6977777777777778,-0.015745442924441685,-0.005151168435848421,0.0003140333363712954
1589987632.4007628,0.0033909279896397783,-4.523563711958559,8.629136080155403,0.3911111111111111,0.3955555555555556,-0.6977777777777778,-0.00262694565703335,-0.0014418758385273333,-0.0003698928632327893
1589987632.4107628,0.0,-4.515351163296368,8.717458143074582,0.3911111111111111,0.3955555555555556,-0.6977777777777778,0.0062677111170839,-0.002181661564992912,0.0011674427291688532
1589987632.4207628,-0.00864078658089732,-4.499838164644573,8.778802621936324,0.38727076151960116,0.39779575948393636,-0.6958576029820228,0.010760040641210614,-0.0015532858324979052,0.0015532858324979052
1589987632.4307628,-0.03245706830283155,-4.467199478119821,8.813143975457526,0.37777777777777777,0.4033333333333333,-0.6911111111111111,0.010141699076589992,0.00026802457394249814,0.00026802457394249814
1589987632.4407628,-0.043988124114644984,-4.523988124114645,8.676071255312129,0.37777777777777777,0.4033333333333333,-0.6911111111111111,0.0006557939276293386,0.001090830782496456,-0.00021427978210489642
1589987632.4507627,-0.03666855845629966,-4.534443813847901,8.635556186152101,0.37777777777777777,0.4033333333333333,-0.6911111111111111,0.00048474489369734676,0.001090830782496456,-0.0012121717775982184
1589987632.4607627,-0.04144527986633249,-4.486386800334169,8.721142439431913,0.37777777777777777,0.4033333333333333,-0.6911111111111111,0.005184635780549675,0.0016756600679326303,0.0011696585708723486
1589987632.4707627,-0.05443692620477143,-4.495630737952286,8.772184631023858,0.3901401639893968,0.3990064981592667,-0.6948198269745969,0.005085622975290825,-0.001459361719687911,0.002181661564992912
1589987632.4807627,-0.03143350146004778,-4.478111671533493,8.787132997079905,0.4,0.3955555555555556,-0.6977777777777778,0.00015637075193737334,-0.0016629353792451057,0.0015065646273077324
1589987632.4907627,-0.026480753094189218,-4.517769037130271,8.64798117264527,0.4,0.3955555555555556,-0.6977777777777778,-0.008867176248287282,-0.0007069404968900752,0.001090830782496456
1589987632.5007627,-0.023782399232664096,-4.541347197697992,8.615958406906024,0.4,0.3955555555555556,-0.6977777777777778,-0.008342324172758958,-0.001090830782496456,0.001769065813524815
1589987632.5107627,-0.03524581017131285,-4.545245810171313,8.64491806327623,0.4,0.3955555555555556,-0.6977777777777778,-0.00046497420079259343,-0.0021995373850941646,0.001072954962395204
1589987632.5207627,-0.05498365698904057,-4.540065372043838,8.684852912901366,0.3961238223418574,0.3955555555555556,-0.6977777777777778,0.008168751647120163,-0.0005543291209648398,0.0
1589987632.5307627,-0.03495703672368665,-4.501217777542765,8.717478518361844,0.3922222222222223,0.3955555555555556,-0.6977777777777778,0.006535611562114835,0.002864602445661185,0.0013658817613365452
1589987632.5407627,-0.02,-4.496554748656041,8.71,0.3922222222222223,0.3955555555555556,-0.6977777777777778,0.0025574801869357165,0.0018424680263820646,0.0014666494044392603
1589987632.5507627,-0.026437033373371957,-4.519311100120116,8.63919263289291,0.3922222222222223,0.3955555555555556,-0.6977777777777778,-0.0006270240956595423,0.0017930021976595694,0.0017930021976595694
1589987632.5607626,-0.0351020796468596,-4.519795840706281,8.676531194702894,0.3922222222222223,0.3955555555555556,-0.6977777777777778,4.454064842432772e-05,0.0010685604582842921,0.0010685604582842921
1589987632.5707626,-0.03538984690683512,-4.51,8.745389846906836,0.3978568537805349,0.3991412301835727,-0.6947043423823346,0.00419322032741111,-0.0010057793812090993,0.0005028896906045496
1589987632.5807626,-0.04654344073647871,-4.498971039509014,8.784115841963944,0.4044444444444445,0.4033333333333333,-0.6911111111111111,0.004740375254603054,-0.002181661564992912,0.003496976702997365
1589987632.5907626,-0.047473896087558184,-4.494175367970814,8.753194112466977,0.4044444444444445,0.4033333333333333,-0.6911111111111111,-0.0003712035811615187,-0.0012707375828301902,0.003632305948156836
1589987632.6007626,-0.02269445934554372,-4.521916621963369,8.656347229672772,0.4044444444444445,0.4033333333333333,-0.6911111111111111,-0.006649520206781312,0.0007969108628660214,0.0006923753510634453
1589987632.6107626,-0.024668798890216177,-4.555110400369927,8.65,0.4044444444444445,0.4033333333333333,-0.6911111111111111,-0.007126528522801882,0.0016482889859363234,-0.001066745158113177
1589987632.6207626,-0.03502628947453308,-4.545026289474533,8.684815973678269,0.3950496578963403,0.40664914035031124,-0.6911111111111111,0.000513870286364254,-0.0005368121808253261,-0.0005540186016711299
1589987632.6307626,-0.02569531989940886,-4.518476599497045,8.728609360201183,0.3855555555555555,0.41,-0.6911111111111111,0.008423255719988636,-0.0007729582962354862,0.0020299662950014064
1589987632.6407626,-0.02555983948383036,-4.49,8.723320481548509,0.3855555555555555,0.41,-0.6911111111111111,0.009998581216759356,0.0007875885797613881,0.002666007942019232
1589987632.6507626,-0.04,-4.494046275491828,8.671907449016345,0.3855555555555555,0.41,-0.6911111111111111,0.003663393802623726,0.0004413801860946074,0.001090830782496456
1589987632.6607625,-0.038148840305155904,-4.503702319389688,8.669255798474222,0.3855555555555555,0.41,-0.6911111111111111,-0.002181661564992912,0.001090830782496456,0.0006869703868059192
1589987632.6707625,-0.027566188504861845,-4.52,8.714867622990276,0.38907106104853284,0.4083774590032412,-0.6981421220970658,-0.000854223316147701,0.0002943678331893295,-0.0008253431327274138
1589987632.6807625,-0.03097031288065987,-4.50902968711934,8.7482838548011,0.4,0.4033333333333333,-0.72,0.004070276013078778,-0.0017827697321982068,-0.0003988918327947051
1589987632.6907625,-0.044274575125531096,-4.495725424874469,8.717020326380842,0.4,0.4033333333333333,-0.72,0.002331419064511484,-0.001090830782496456,0.00015826315669186224
1589987632.7007625,-0.023095094164147872,-4.516904905835852,8.686904905835851,0.4,0.4033333333333333,-0.72,-0.002458718888126864,-0.0023201902265598882,0.00047615106046473995
1589987632.7107625,-0.02293707074655201,-4.542937070746552,8.691375286168965,0.4,0.4033333333333333,-0.72,-0.005774538630553158,-0.00280208718063359,0.0
1589987632.7207625,-0.03646043836468211,-4.556460438364682,8.690618684905953,0.39488729986009635,0.4033333333333333,-0.7042686149541427,-0.005319177804466241,-0.0017955552861580867,0.0
1589987632.7307625,-0.03493011228626008,-4.55493011228626,8.719860224572521,0.3855555555555555,0.4033333333333333,-0.6755555555555556,0.0032115038119167197,-0.001090830782496456,-0.0005377918243016469
1589987632.7407625,-0.04515716841298237,-4.523899821109123,8.704214157935088,0.3855555555555555,0.4033333333333333,-0.6755555555555556,0.007073255671935235,3.428882858345613e-05,0.0005968486341234125
1589987632.7507625,-0.04451855913414547,-4.500962881731709,8.696444322597564,0.3855555555555555,0.4033333333333333,-0.6755555555555556,0.006544984694978735,-0.00010503410328517376,0.001583729122102097
1589987632.7607625,-0.04,-4.5132316516018385,8.71323165160184,0.3855555555555555,0.4033333333333333,-0.6755555555555556,0.0037248366585070232,-0.00038579377337852794,0.0017958677916143843
1589987632.7707624,-0.04,-4.519127739432363,8.719127739432363,0.3855555555555555,0.4033333333333333,-0.6755555555555556,-0.0014204706229638117,0.0009005330469891808,0.0030821946119820934
1589987632.7807624,-0.02,-4.522366188828473,8.71,0.4044444444444445,0.3911111111111111,-0.72,0.0008327196213667458,0.0004662910664713965,0.0
1589987632.7907624,-0.021115648242671724,-4.49,8.708140586262214,0.4044444444444445,0.3911111111111111,-0.72,0.004363323129985824,-0.0019788309907355136,0.0
1589987632.8007624,-0.05,-4.495834632213479,8.674586580533699,0.4044444444444445,0.3911111111111111,-0.72,0.0030904038453840365,0.0016813432417371339,0.0009546894634513404
1589987632.8107624,-0.04777906213056614,-4.512220937869434,8.711110468934718,0.4044444444444445,0.3911111111111111,-0.72,-0.0004845334787981105,-0.0019393948255938566,0.0027879588686912575
1589987632.8207624,-0.03,-4.531744886975242,8.72,0.4036689391221146,0.39188661643344097,-0.7161224733883507,-0.004172985487528692,-0.00019033764245713188,-0.0009004931400393241
1589987632.8307624,-0.03149654770817736,-4.54,8.718503452291824,0.4,0.3955555555555556,-0.6977777777777778,-0.002619500224467615,-0.0007643347209855793,-0.00016324803075543835
1589987632.8407624,-0.035557231716641526,-4.535557231716641,8.687786158583208,0.4,0.3955555555555556,-0.6977777777777778,0.0039986158242882736,0.0006061999421978197,-0.00012156910189918351
1589987632.8507624,-0.03,-4.51760486439003,8.68065855934995,0.4,0.3955555555555556,-0.6977777777777778,0.008086515326694313,0.0,-0.00026126876516090864
1589987632.8607624,-0.02233227075294074,-4.492332270752941,8.71766772924706,0.4,0.3955555555555556,-0.6977777777777778,0.005799177976882432,0.0004182097547270308,-0.0013452420555388504
1589987632.8707623,-0.0148566185533127,-4.489713237106626,8.732428309276656,0.4,0.3955555555555556,-0.6977777777777778,3.128097913707639e-05,0.000825943331656611,-0.0002648874508398449
1589987632.8807623,-0.03,-4.52741193851896,8.7214701537026,0.4,0.3955555555555556,-0.6977777777777778,-0.002059716743321436,0.000404258534722644,-0.000282313713051168
1589987632.8907623,-0.03,-4.523003705307733,8.668754631634666,0.4,0.3955555555555556,-0.6977777777777778,0.0018540081438705946,0.00016382671056115869,0.0006273287465288073
1589987632.9007623,-0.033525216405807294,-4.503525216405807,8.657626082029036,0.4,0.3955555555555556,-0.6977777777777778,0.005132406044069047,-0.001090830782496456,0.0
1589987632.9107623,-0.04,-4.51,8.695594054689236,0.4,0.3955555555555556,-0.6977777777777778,0.005629659636880509,-0.0007857224297970471,0.00015255417634970443
1589987632.9207623,-0.04,-4.51,8.722235525772541,0.4,0.3955555555555556,-0.6977777777777778,0.0012704591245818924,0.0006673444076358251,0.0008790875950661405
1589987632.9307623,-0.011521274242312514,-4.546957451515375,8.7,0.4044444444444445,0.4033333333333333,-0.6911111111111111,-0.00545415391248228,0.0047903728036288945,0.0029406017930626756
1589987632.9407623,-0.03299965694682676,-4.534333218982276,8.669667467124071,0.4044444444444445,0.4033333333333333,-0.6911111111111111,0.00021801647131473,0.0006181499171800386,-0.00032721181345279644
1589987632.9507623,-0.04726157429565107,-4.529046297182604,8.657384257043491,0.4044444444444445,0.4033333333333333,-0.6911111111111111,0.00703838366669852,0.0008961477161650076,-0.0015842297542162402
1589987632.9607623,-0.04057017963689735,-4.502280718547589,8.724298203631028,0.4044444444444445,0.4033333333333333,-0.6911111111111111,0.005578547812378337,0.003085901497645282,-0.0001243938998960574
1589987632.9707623,-0.03,-4.501396636712173,8.742793273424347,0.40382371701681197,0.4022470603349764,-0.6920422022525599,0.004844756185441032,0.002181661564992912,0.000938481350736144
1589987632.9807622,-0.03,-4.509904862364849,8.759809724729699,0.4000422833934001,0.39562955149400575,-0.6977143526876777,0.0011323424068947633,0.002181661564992912,1.0377906099576879e-05
1589987632.9907622,-0.03272762754390856,-4.517272372456091,8.716357959297463,0.4,0.3955555555555556,-0.6977777777777778,-0.003668925859633884,0.0,0.0018841235561848461
1589987633.0007622,-0.03800361817601362,-4.510998190911993,8.60998190911993,0.4,0.3955555555555556,-0.6977777777777778,0.0013086022572185324,0.0,0.0013086022572185324
1589987633.0107622,-0.02294083186877563,-4.514118336262449,8.708822495606327,0.4,0.3955555555555556,-0.6977777777777778,0.0029516973546286646,-0.00032079499286070354,0.0023101073689072577
1589987633.0207622,-0.03,-4.5016041244706315,8.73,0.4003564721045848,0.3951990834509708,-0.6984016039608012,0.0020066787298408384,-0.0011783222000724927,0.00017498283515207373
1589987633.0307622,-0.033810957119432154,-4.531432871358296,8.718567128641704,0.4044444444444445,0.3911111111111111,-0.7055555555555556,-0.0012471328009951844,-0.0009345287639977275,0.002181661564992912
1589987633.0407622,-0.04,-4.55,8.665415304749086,0.4044444444444445,0.3911111111111111,-0.7055555555555556,-0.002140710842000712,0.00033630977883735195,0.0010498800595042557
1589987633.0507622,-0.043126061480978264,-4.540621815557065,8.628134553328804,0.4044444444444445,0.3911111111111111,-0.7055555555555556,0.0013640016365710184,-0.0007498303733537014,-0.0007498303733537014
1589987633.0607622,-0.047202936273506274,-4.517202936273506,8.696992659316233,0.4044444444444445,0.3911111111111111,-0.7055555555555556,0.004515879290659004,-0.00015255616067318025,0.00015255616067318025
1589987633.0707622,-0.03493639048928143,-4.504936390489282,8.727659023776797,0.4044444444444445,0.3911111111111111,-0.7055555555555556,0.005184915577475733,-0.0008215924474899095,0.0008215924474899095
1589987633.0807621,-0.03077172637537102,-4.5,8.778842410436942,0.3922222222222223,0.4033333333333333,-0.7055555555555556,0.0031883100588974557,-0.004279140841393911,0.0020974792764009995
1589987633.0907621,-0.04659034249062084,-4.510228972528138,8.705674452378071,0.3922222222222223,0.4033333333333333,-0.7055555555555556,-2.49770282038399e-05,-0.001065853754292616,0.0
1589987633.1007621,-0.04,-4.5209621349384275,8.631297331326966,0.3922222222222223,0.4033333333333333,-0.7055555555555556,-0.0016887224941322617,0.0008443612470661309,-0.00024646953543032505
1589987633.1107621,-0.04,-4.495200994994319,8.663498756257102,0.3922222222222223,0.4033333333333333,-0.7055555555555556,-0.0002836702719706413,0.00014183513598532065,-0.0009489956465111353
1589987633.120762,-0.020867537135101033,-4.5017350742702025,8.7308675371351,0.3928969733273009,0.40111629398807513,-0.706133913645623,0.001280098024881855,0.003083225105103969,-0.0008069299189183575
1589987633.130762,-0.028885851383127187,-4.517771702766254,8.738885851383127,0.3991334399646545,0.3806250464653416,-0.7114794564776403,0.0030294228259772253,0.001333900304008599,0.0018170572827246976
1589987633.140762,-0.03,-4.5280805093591265,8.67080509359126,0.4,0.37777777777777777,-0.7122222222222222,-0.000462678939162699,-0.001762893669437074,-0.000881446834718537
1589987633.150762,-0.03,-4.520784044255793,8.59784044255793,0.4,0.37777777777777777,-0.7122222222222222,0.0019250836822753807,-0.00017105192181168793,-8.552596090584397e-05
1589987633.160762,-0.033568128692643244,-4.5135681286926435,8.652488450424253,0.4,0.37777777777777777,-0.7122222222222222,0.002063886935957477,0.0017924391036085036,-0.0019870503343007075
1589987633.170762,-0.049007932856012223,-4.529007932856013,8.706527764996043,0.4,0.37777777777777777,-0.7122222222222222,0.006274440350237432,0.00010821773789652109,-0.0011449396514447165
1589987633.180762,-0.05337661587069181,-4.494415589419539,8.758961026451153,0.4044444444444445,0.4177777777777778,-0.7055555555555556,0.007040814958377148,0.0004816660861698571,-0.0008499977394115274
1589987633.190762,-0.03,-4.51,8.71561322483689,0.4044444444444445,0.4177777777777778,-0.7055555555555556,0.0010310154151987982,0.001942400095802281,5.9815367297657725e-05
1589987633.200762,-0.03,-4.51,8.642812897160466,0.4044444444444445,0.4177777777777778,-0.7055555555555556,-0.0006136789621266122,-0.0015679826028662997,0.0007839913014331499
1589987633.210762,-0.02983107158373585,-4.510337856832528,8.651351427330114,0.4044444444444445,0.4177777777777778,-0.7055555555555556,-0.0021448071016930497,0.0,0.0
1589987633.220762,-0.02147121083827265,-4.528528789161728,8.731471210838274,0.403545371154389,0.4158161633267476,-0.7044930143945809,0.00016048420699302221,-8.024210349651111e-05,-8.024210349651111e-05
1589987633.230762,-0.03922861981371719,-4.5107713801862825,8.749228619813717,0.39269362122495066,0.3921396180261548,-0.6916682190234265,0.0020975170397723977,-0.0010487585198861989,-0.0010487585198861989
1589987633.240762,-0.05512523751943341,-4.502437381240283,8.721001900155468,0.3922222222222223,0.3911111111111111,-0.6911111111111111,0.0002931996368223329,-0.002474861201815245,-0.00026587704855804097
1589987633.250762,-0.031656983900349565,-4.5155620107331,8.6166860321993,0.3922222222222223,0.3911111111111111,-0.6911111111111111,-0.001878300938980838,0.0,0.00012261172155183945
1589987633.260762,-0.014814744152325714,-4.527592627923838,8.672036860380814,0.3922222222222223,0.3911111111111111,-0.6911111111111111,-0.0003030201128162017,0.0,0.002484681677809114
1589987633.270762,-0.029602392681210413,-4.51960239268121,8.712385643912738,0.39253147235905866,0.3911111111111111,-0.6908460395652514,0.002355150486065536,4.337223026815606e-05,4.337223026815606e-05
1589987633.280762,-0.02183488277343605,-4.511834882773436,8.758990703359384,0.39857286895399424,0.3911111111111111,-0.6856676996267351,0.0057443660503641285,0.0008906761213428043,0.0008906761213428043
1589987633.290762,-0.03,-4.519324090121317,8.713916811091854,0.4,0.3911111111111111,-0.6844444444444444,0.0029775710267450923,0.0019604705744347053,0.001017100452310387
1589987633.300762,-0.03,-4.511752058058925,8.64576852253033,0.4,0.3911111111111111,-0.6844444444444444,-0.00032635123713769566,-0.0005174711234773861,0.00019111988633969002
1589987633.310762,-0.03864843318820139,-4.53,8.648109400870792,0.4,0.3911111111111111,-0.6844444444444444,-0.0036261577885305625,-0.0018867954284108074,-0.0012382638507875082
1589987633.320762,-0.030074814496841844,-4.53,8.699551113018948,0.4,0.3911111111111111,-0.6844444444444444,0.0010500258044304203,-1.6321991226414447e-05,-0.002173500569379705
1589987633.330762,-0.04,-4.517767351452797,8.74,0.37777777777777777,0.3955555555555556,-0.7055555555555556,-0.001090830782496456,-0.0006037424301393803,0.0006037424301393803
1589987633.340762,-0.04,-4.510739133348973,8.74,0.37777777777777777,0.3955555555555556,-0.7055555555555556,-0.001090830782496456,0.0009295769006106064,-0.0009295769006106064
1589987633.350762,-0.022748866292426635,-4.518625566853786,8.67,0.37777777777777777,0.3955555555555556,-0.7055555555555556,0.00014992739843729382,0.0039135409346739425,0.0009409033840591622
1589987633.360762,-0.0395069620632479,-4.510246518968376,8.67,0.37777777777777777,0.3955555555555556,-0.7055555555555556,0.0010639397345790693,0.0011715039262486155,2.6891047917386663e-05
1589987633.3707619,-0.04,-4.529875985645583,8.699813978468374,0.37777777777777777,0.3955555555555556,-0.7055555555555556,0.001090830782496456,6.763933763496337e-06,0.0
1589987633.3807619,-0.03133212741184298,-4.521332127411843,8.726003617764471,0.37777777777777777,0.39170316773859687,-0.6930352951504398,0.002981867230080237,0.0009455182237918902,0.0018910364475837804
