time,acc_x,acc_y,acc_z,mag_x,mag_y,mag_z,gyr_x,gyr_y,gyr_z
1589988168.011416,-3.89,-0.85,8.78,0.3333333333333333,-0.38,-0.6255555555555555,0.002181661564992912,-0.001090830782496456,-0.001090830782496456
1589988168.021416,-3.91,-0.852035608525573,8.929160238365078,0.3333333333333333,-0.38,-0.6255555555555555,0.005232103468401548,-0.003383517569529734,0.0030504419034086357
1589988168.031416,-3.91,-0.8673695755492998,8.998163089971849,0.3333333333333333,-0.38,-0.6255555555555555,0.003559427143674869,-0.004219855731893074,0.0013777655786819563
1589988168.041416,-3.894768,-0.87,9.070928,0.328256,-0.3749226666666667,-0.6145546666666667,-0.0008813912722571366,-0.003532546406036523,0.001921607506445757
1589988168.051416,-3.903823084453146,-0.8561769155468542,9.027796119960843,0.32666666666666666,-0.37333333333333335,-0.6111111111111112,-0.004443458469573865,-0.0010106954429084146,0.0014277292634659274
1589988168.061416,-3.9199426000070865,-0.8698852000141728,8.86080359990079,0.32666666666666666,-0.37333333333333335,-0.6111111111111112,-3.130683959260642e-05,0.0010845694145779346,0.0021754001970743907
1589988168.071416,-3.909249447692037,-0.8592494476920369,8.839249447692037,0.32666666666666666,-0.37333333333333335,-0.6111111111111112,-8.187255613998112e-05,0.001008958226356475,0.0030268746790694245
1589988168.081416,-3.901049287376097,-0.8510492873760973,8.831049287376098,0.32666666666666666,-0.37333333333333335,-0.6111111111111112,-0.0009763712855432705,0.00011445949695318544,0.0003433784908595562
1589988168.091416,-3.91,-0.8497767673442514,8.799553534688505,0.32666666666666666,-0.36,-0.5966666666666667,-4.8701810509779226e-05,0.0020842579439733534,0.0
1589988168.1014159,-3.91,-0.8411472306806024,8.782294461361204,0.32666666666666666,-0.36,-0.5966666666666667,-0.0019313746567878162,-0.0016810877485827205,0.0
1589988168.1114159,-3.9001632311394787,-0.8403264622789578,8.72293816051062,0.32666666666666666,-0.36,-0.5966666666666667,0.0010730250273358985,-0.0032902981026499255,-0.002181661564992912
1589988168.1214159,-3.91,-0.8608027900608707,8.908027900608706,0.32666666666666666,-0.36,-0.5966666666666667,8.757081102799539e-05,-0.004363323129985824,-0.0020940907539649164
1589988168.1314158,-3.91,-0.8685629706377547,8.985629706377546,0.32666666666666666,-0.36,-0.5966666666666667,0.0009340751961276059,-0.004363323129985824,-0.001247586368865306
1589988168.1414158,-3.91,-0.8963320355951057,9.05449805339266,0.32,-0.38,-0.6022222222222222,0.002181661564992912,-0.0009908025704474554,-0.0022816897770419125
1589988168.1514158,-3.9087404029060573,-0.8593702014530287,8.993072215983316,0.32,-0.38,-0.6022222222222222,0.0019068601082697656,0.0,-0.0029289905265854352
1589988168.1614158,-3.8910205213533002,-0.85051026067665,8.889744869661676,0.32,-0.38,-0.6022222222222222,-0.002181661564992912,8.349120797809813e-05,0.002209491967652278
1589988168.1714158,-3.929713655564278,-0.8691409666928339,8.879140966692834,0.32,-0.38,-0.6022222222222222,-0.002181661564992912,0.003178786350024718,0.0032412570150011514
1589988168.1814158,-3.921874135546335,-0.8456224066390041,8.855622406639004,0.32,-0.38,-0.6022222222222222,-0.002181661564992912,0.0006133094233538162,0.002386098039444184
1589988168.1914158,-3.9135266915463247,-0.8270533830926496,8.83705338309265,0.32431553896911675,-0.37568446103088327,-0.6022222222222222,-0.004300046802751931,0.0,-0.0006428520853524466
1589988168.2014158,-3.915533396430503,-0.8366001892915089,8.796799621416982,0.32666666666666666,-0.37333333333333335,-0.6022222222222222,-0.006661353744112012,0.0006035999158148656,-0.0015780616491780463
1589988168.2114158,-3.8855380301437084,-0.85,8.709691552751488,0.32666666666666666,-0.37333333333333335,-0.6022222222222222,-0.0010571844071513145,0.001090830782496456,0.0007887780947389376
1589988168.2214158,-3.9163110102156637,-0.8590777525539159,8.754466515323497,0.32666666666666666,-0.37333333333333335,-0.6022222222222222,-0.0009902291921697398,0.00010060159032671619,0.001090830782496456
1589988168.2314157,-3.9123457808538893,-0.8676542191461108,8.890121725483883,0.32666666666666666,-0.37333333333333335,-0.6022222222222222,0.0014140065756689708,-0.0025048373581654268,0.001925776568551598
1589988168.2414157,-3.91,-0.8600630003937525,8.989621997637485,0.31452144492569756,-0.3799579997374984,-0.6022222222222222,0.0032656200706079096,-0.00218853384187437,-0.0021541724574670787
1589988168.2514157,-3.885606559292656,-0.8681311469024481,9.046918028317137,0.3144444444444445,-0.38,-0.6022222222222222,0.0014985512798511597,-0.002181661564992912,-0.002181661564992912
1589988168.2614157,-3.892760157790927,-0.857239842209073,8.97067889546351,0.3144444444444445,-0.38,-0.6022222222222222,0.0031787067186747316,-0.003573578855778429,-0.0007897442742073948
1589988168.2714157,-3.891174710063599,-0.8588252899364011,8.9288252899364,0.3144444444444445,-0.38,-0.6022222222222222,0.0005125639591528428,-0.0024379435445693333,-0.0009626897927082453
1589988168.2814157,-3.89,-0.86,8.913741305623063,0.3144444444444445,-0.38,-0.6022222222222222,0.0,-0.00040811313403632185,0.0024562660794167244
1589988168.2914157,-3.8998506174583,-0.8597012349166,8.9083567920413,0.3411111111111111,-0.37333333333333335,-0.6111111111111112,-0.0021979566724783053,0.001090830782496456,0.0032399021325185814
1589988168.3014157,-3.8932691553295986,-0.8465383106591975,8.835960708625587,0.3411111111111111,-0.37333333333333335,-0.6111111111111112,-0.002915882820860499,0.001090830782496456,0.0018040498357541931
1589988168.3114157,-3.8983454574207324,-0.8483454574207322,8.774963627737803,0.3411111111111111,-0.37333333333333335,-0.6111111111111112,-0.003272492347489368,-0.001640213772067989,0.002001178967351271
1589988168.3214157,-3.9093520582553127,-0.8593520582553128,8.760647941744686,0.3411111111111111,-0.37333333333333335,-0.6111111111111112,-0.0002120384401107689,-0.0001413589600738458,0.0011615102625333789
1589988168.3314157,-3.9023868981938556,-0.8676131018061444,8.843744119867587,0.3411111111111111,-0.37333333333333335,-0.6111111111111112,0.0008304605800421651,-0.0024913817401264952,0.001921291362538621
1589988168.3414156,-3.908532038723061,-0.861467961276939,8.921192232338365,0.32309902936242685,-0.3790213591487073,-0.6035270766906125,0.001090830782496456,-0.0014110902521760364,0.00032025946967958064
1589988168.3514156,-3.900898357416327,-0.869101642583673,8.975508212918365,0.32,-0.38,-0.6022222222222222,0.0030765011628066654,-0.001090830782496456,-0.0009928351901551046
1589988168.3614156,-3.9,-0.87,8.89798406090163,0.32,-0.38,-0.6022222222222222,0.00426655358108778,-0.0020848920160948677,0.0008972916847003675
1589988168.3714156,-3.9,-0.87,8.928048489072534,0.32,-0.38,-0.6022222222222222,0.003325711552290808,-0.001144049987297896,0.0021284423601914716
1589988168.3814156,-3.9,-0.8471028519069981,8.922367617302333,0.32,-0.38,-0.6022222222222222,0.0016073647494075978,0.001406860614626199,0.003846789163074682
1589988168.3914156,-3.890816104461371,-0.8583677910772579,8.901632208922743,0.32,-0.3738774029742474,-0.6103856849232258,0.001090830782496456,0.00017804637363924743,0.0023597079386321594
1589988168.4014156,-3.8814907154914944,-0.8685092845085054,8.831925723931958,0.32,-0.37333333333333335,-0.6111111111111112,-0.003550263956952496,0.0009282189478897904,0.0031098805128827027
1589988168.4114156,-3.894438403558631,-0.8627807982206845,8.783903991103422,0.32,-0.37333333333333335,-0.6111111111111112,-0.005150815882578872,-0.0012716474752826905,0.0009100140897102217
1589988168.4214156,-3.9,-0.86,8.798651062829512,0.32,-0.37333333333333335,-0.6111111111111112,-0.006495935955337957,-0.0011398795221372348,0.0031253461285670314
1589988168.4314156,-3.9,-0.86,8.823718328781927,0.32,-0.37333333333333335,-0.6111111111111112,-0.003957716380508996,0.0008496204533558491,0.001332041111637063
1589988168.4414155,-3.90520648312611,-0.8704129662522202,8.876445381882771,0.3171075093743833,-0.37680432208407344,-0.6035906354845076,-0.0010457831524910517,0.002181661564992912,0.0005679392062509301
1589988168.4514155,-3.9042576708991144,-0.8685153417982291,8.927226987302657,0.3144444444444445,-0.38,-0.5966666666666667,0.0012527818692942084,0.000302488761051599,0.001090830782496456
1589988168.4614155,-3.8919854987262394,-0.86,8.899927493631198,0.3144444444444445,-0.38,-0.5966666666666667,0.005678647443302929,-0.0002165843129189514,-0.0015319086262360574
1589988168.4714155,-3.896695900061735,-0.8533040999382648,8.90339180012347,0.3144444444444445,-0.38,-0.5966666666666667,0.0028929377430484413,-0.0014608187807721178,9.566606165265033e-06
1589988168.4814155,-3.906492412850308,-0.8564924128503075,8.948954477101847,0.3144444444444445,-0.38,-0.5966666666666667,0.0003826184035173488,0.0006511879509235167,-0.0010338063544408653
1589988168.4914155,-3.914618484088962,-0.86,8.95152606364415,0.32008925833095386,-0.37692101060735855,-0.5966666666666667,0.0,0.0006702661811798872,-0.0011740646424508953
1589988168.5014155,-3.919123807650703,-0.86,8.928247615301405,0.32666666666666666,-0.37333333333333335,-0.5966666666666667,-0.00028673327580027797,-0.0011864085410965486,-9.557775860009265e-05
1589988168.5114155,-3.9145409250335987,-0.86,8.919081850067197,0.32666666666666666,-0.37333333333333335,-0.5966666666666667,-0.0017864781051918554,-0.0016863234842270744,-0.0005954927017306185
1589988168.5214155,-3.909836121543189,-0.8598361215431888,8.908197336975077,0.32666666666666666,-0.37333333333333335,-0.5966666666666667,-0.0033618741801282035,-0.0020922797323540765,-0.0010550780494409217
1589988168.5314155,-3.8763484005563282,-0.8526279554937413,8.831535465924896,0.32666666666666666,-0.3750853036624942,-0.5943307062277855,-0.01159330100757534,0.00556581614557232,0.0019508272067775632
1589988168.5414155,-3.8238467315716274,-0.8584614742698192,8.90153769123783,0.32666666666666666,-0.3789743161798795,-0.5891453562046052,-0.01795668285879215,0.010656521626545765,0.003859841762142606
1589988168.5514154,-3.5879410354745924,-0.7201850964099286,8.862429157345264,0.32666666666666666,-0.38,-0.5877777777777777,-0.01514923641764726,0.011101995074003227,-0.0010195380707609105
1589988168.5614154,-3.49912813011427,-0.7053269512071487,8.865326951207148,0.32666666666666666,-0.38,-0.5877777777777777,-0.013066192827215321,0.01090830782496456,-0.01667155705309478
1589988168.5714154,-3.4450481528916685,-0.7118444470318191,8.88,0.32666666666666666,-0.38,-0.5877777777777777,-0.013333587841356815,0.01001867500236736,-0.0378085966277779
1589988168.5814154,-3.368307413383011,-0.6699858618452788,8.88,0.32666666666666666,-0.38,-0.5877777777777777,-0.02018268282634109,0.005452611679044509,-0.07509811376824785
1589988168.5914154,-3.199372246799921,-0.6931381057040175,8.901087885448012,0.32666666666666666,-0.37799162995733226,-0.5968154429697825,-0.030360703924153243,-0.006481096602683259,-0.10929761629512162
1589988168.6014154,-3.0015521681303237,-0.7366585230113288,8.928782696461754,0.32666666666666666,-0.3753540289084043,-0.6086846476899583,-0.041581691947003924,-0.02072311986245529,-0.14252900390125636
1589988168.6114154,-2.7266942495024615,-0.718622603959359,8.929449041583743,0.32666666666666666,-0.37333333333333335,-0.6177777777777778,-0.05522218005614482,-0.03275497359491008,-0.16434507757128744
1589988168.6214154,-2.277996473141617,-0.6278307883109836,8.92520211611503,0.32666666666666666,-0.37333333333333335,-0.6177777777777778,-0.0678059644958659,-0.035997415822383035,-0.13631577738652262
1589988168.6314154,-2.014853381011626,-0.8115514670138174,9.083538300554507,0.32666666666666666,-0.37333333333333335,-0.6177777777777778,-0.0610545365186381,-0.034979861934066256,-0.0838980083487368
1589988168.6414154,-1.9595601842315584,-1.0430917285303496,9.121552373340803,0.32666666666666666,-0.37333333333333335,-0.6177777777777778,-0.04899143229657181,-0.02404767373281869,-0.04770869568253794
1589988168.6514153,-1.904266987451491,-1.2746319900468819,9.1595664461271,0.32666666666666666,-0.37333333333333335,-0.6177777777777778,-0.03692832807450552,-0.01311548553157112,-0.011519383016339077
1589988168.6614153,-1.9230769230769231,-1.3883991683991683,9.184885654885655,0.3278031878031878,-0.3703026103026103,-0.6141787941787942,-0.028572509415120267,-0.010872022393530165,0.029726839702626913
1589988168.6714153,-2.230976687629931,-1.0395116561850346,9.157721062196828,0.3333333333333333,-0.3555555555555556,-0.5966666666666667,-0.03476453158233832,-0.04238259037761997,0.08941261080032233
1589988168.6814153,-2.2638804701698416,-1.0230597649150792,9.080945569603703,0.3333333333333333,-0.3555555555555556,-0.5966666666666667,-0.02997887040165776,-0.03699872154935435,0.08821619550515218
1589988168.6914153,-2.305693201064602,-0.994306798935398,9.025231067021533,0.3333333333333333,-0.3581710890663226,-0.6004446595155524,-0.01590876270161054,-0.022168436949969717,0.08555459991999907
1589988168.7014153,-2.3547099132023757,-0.9484300289325415,8.992900867976244,0.3333333333333333,-0.3655555555555556,-0.6111111111111112,0.012062425729149936,0.008149587307878958,0.07078855585026492
1589988168.7114153,-2.36598097439067,-0.9446730085364433,8.8801902560933,0.3333333333333333,-0.3655555555555556,-0.6111111111111112,0.009603461630031411,0.009379069357438222,0.047018569558785826
1589988168.7214153,-2.377252035578964,-0.9409159881403452,8.767479644210356,0.3333333333333333,-0.3655555555555556,-0.6111111111111112,0.007144497530912885,0.010608551406997485,0.023248583267306742
1589988168.7314153,-2.3933968321013728,-0.9533968321013727,8.780190496304119,0.3333333333333333,-0.3655555555555556,-0.6111111111111112,0.004352933168361623,0.007985572456141742,-0.004467222746227833
1589988168.7414153,-2.3918258924410476,-0.9354776773231429,8.824522322676858,0.3333333333333333,-0.3719131947680741,-0.6111111111111112,-0.00296910535383018,0.0029783574370818517,-0.04737127627602234
1589988168.7514153,-2.3738294438092677,-0.9380852780953661,8.862341112381465,0.3333333333333333,-0.37333333333333335,-0.6111111111111112,0.003574380078336965,0.0004177275186989589,-0.08717431898126092
1589988168.7614152,-2.4408503417393352,-0.9242554796134811,8.814894178647185,0.3333333333333333,-0.37333333333333335,-0.6111111111111112,0.00888907541113386,0.004293651873314473,-0.13182768418769614
1589988168.7714152,-2.4677416092386575,-0.9277416092386576,8.900640920102548,0.3333333333333333,-0.37333333333333335,-0.6111111111111112,0.009817477042468105,0.007987589611558238,-0.1755871443788854
1589988168.7814152,-2.4445711870736937,-0.93,8.980857625852613,0.3333333333333333,-0.37333333333333335,-0.6111111111111112,0.010510940340027083,0.010113572855089603,-0.22080786119990542
1589988168.7914152,-2.4388059280434824,-0.93,9.005597035978258,0.3367578609057987,-0.3792039520289882,-0.6047512741908183,0.010428018956050594,0.01379004103844836,-0.26364717977067326
1589988168.8014152,-2.439224305678401,-0.9407756943215991,8.962285069874403,0.3411111111111111,-0.38666666666666666,-0.5966666666666667,0.010405199995906736,0.02097963024057508,-0.32349196624129767
1589988168.8114152,-2.476830017336746,-0.9604066705192768,8.883169982663254,0.3411111111111111,-0.38666666666666666,-0.5966666666666667,0.009205520343105731,0.026836256351353414,-0.38023926002753505
1589988168.8214152,-2.54313130225715,-0.95612121864571,8.83074747909714,0.3411111111111111,-0.38666666666666666,-0.5966666666666667,0.007635815477475192,0.03298495824319037,-0.4332030491950036
1589988168.8314152,-2.548302357389975,-0.9616976426100249,8.814575589347495,0.3411111111111111,-0.38666666666666666,-0.5966666666666667,0.011777795359134034,0.040046803663207245,-0.4962398022434336
1589988168.8414152,-2.5363266315095583,-0.9926532630191167,8.835306526038233,0.3488436607339046,-0.3697956493078444,-0.6149436021387241,0.01596175939496421,0.04254240051736178,-0.5667874412216387
1589988168.8514152,-2.554448301745168,-1.014448301745168,8.871672452617752,0.3533333333333333,-0.36,-0.6255555555555555,0.017938526967289484,0.04490649836212575,-0.6385122410083585
1589988168.8614151,-2.5381385836681347,-1.0418614163318651,8.79255433467254,0.3533333333333333,-0.36,-0.6255555555555555,0.02649315859702947,0.048994506982687036,-0.7019896322420278
1589988168.8714151,-2.5660144367104922,-1.05,8.868043310131478,0.3533333333333333,-0.36,-0.6255555555555555,0.029452431127404314,0.050963929118398484,-0.762857420584609
1589988168.8814151,-2.58,-1.0794855166450499,8.92769130998703,0.3533333333333333,-0.36,-0.6255555555555555,0.03073897949517359,0.053842143512871976,-0.817253912150275
1589988168.891415,-2.5937039326025437,-1.106851966301272,8.967407865205088,0.363230617990726,-0.36,-0.6354528402129482,0.031634092692397225,0.058622104212141535,-0.8895530765945059
1589988168.901415,-2.5782780907071206,-1.1244812728619196,8.972759363569041,0.36777777777777776,-0.36,-0.64,0.0308442617820216,0.06394484758918319,-0.9574437270967024
1589988168.911415,-2.5876708654533895,-1.1594514424223157,8.887535961217516,0.36777777777777776,-0.36,-0.64,0.029258200310573402,0.06801997014844208,-1.0137545675316524
1589988168.921415,-2.6,-1.1988646985742175,8.823711767141928,0.36777777777777776,-0.36,-0.64,0.029047540141816975,0.07461474865813701,-1.081808954316166
1589988168.931415,-2.6,-1.21,8.831760822597424,0.36777777777777776,-0.36,-0.64,0.03073533785907925,0.07873189228892331,-1.1420238019383047
1589988168.941415,-2.5953702699772307,-1.2192594600455382,8.830740539954462,0.37909489561121357,-0.35794234221210264,-0.6430864866818461,0.033654193501791066,0.0821557731339836,-1.2212266339224935
1589988168.951415,-2.607066498874023,-1.2811994966220692,8.79724466816797,0.3922222222222223,-0.3555555555555556,-0.6466666666666666,0.035997415822383035,0.08508480103472357,-1.2839078309983287
1589988168.961415,-2.6391515071259497,-1.3056363696555378,8.756060616092563,0.3922222222222223,-0.3555555555555556,-0.6466666666666666,0.03913107384801096,0.08769618272274683,-1.3094993715409566
1589988168.971415,-2.664154579773495,-1.3190820584144647,8.759082058414466,0.3922222222222223,-0.3555555555555556,-0.6466666666666666,0.045714760971047576,0.092351732349312,-1.3790524195890967
1589988168.981415,-2.638168083925075,-1.4037688846030216,8.843768884603023,0.3922222222222223,-0.3555555555555556,-0.6466666666666666,0.05104629684284626,0.09707248019721489,-1.4563787095625287
1589988168.991415,-2.592040346279088,-1.472331824318958,8.911457390199349,0.3928051783019618,-0.3553288504134347,-0.6466666666666666,0.05239167288166105,0.10054720392066092,-1.4860196891382478
1589988169.001415,-2.6723349001175087,-1.5623349001175089,8.947665099882492,0.4122222222222222,-0.3477777777777778,-0.6466666666666666,0.05210517946760655,0.10824694555937245,-1.5501091247788774
1589988169.011415,-2.695528529806528,-1.640813827871804,8.869186172128195,0.4122222222222222,-0.3477777777777778,-0.6466666666666666,0.048369008846364116,0.10836470188366919,-1.5998854809540115
1589988169.021415,-2.7130908081088587,-1.6441821716189948,8.800363787836712,0.4122222222222222,-0.3477777777777778,-0.6466666666666666,0.046191730824702744,0.11118537362052183,-1.6448734607998072
1589988169.031415,-2.7093301473201947,-1.6413397053596113,8.806004779019709,0.4122222222222222,-0.3477777777777778,-0.6466666666666666,0.045232942677459434,0.11519225194180654,-1.6772671455785397
1589988169.041415,-2.7112970195272355,-1.6675313463514903,8.82,0.43481626127669293,-0.3276941875071372,-0.6546164211487953,0.04636714696912427,0.11630812250542838,-1.7067941130894606
1589988169.051415,-2.6917820560286314,-1.7086634579785265,8.786559299025052,0.4722222222222222,-0.29444444444444445,-0.6677777777777778,0.05012961795553286,0.11562806294462433,-1.7440305669938676
1589988169.061415,-2.665003077870114,-1.7650051297835232,8.729995896173183,0.4722222222222222,-0.29444444444444445,-0.6677777777777778,0.05290562869462459,0.11671911755615177,-1.7715112052355233
1589988169.071415,-2.6885239963779055,-1.8113099909447632,8.72704799275581,0.4722222222222222,-0.29444444444444445,-0.6677777777777778,0.05640118665260426,0.12013428391934408,-1.7901599935736745
1589988169.081415,-2.7,-1.9101582048591492,8.79510170312374,0.4722222222222222,-0.29444444444444445,-0.6677777777777778,0.05890486225480863,0.1259971187615657,-1.8124387659741164
1589988169.091415,-2.688644246620508,-1.9762147488735025,8.847570502252994,0.4751663064317202,-0.28435044144045135,-0.6652542770267795,0.059317769099634904,0.12913093917940807,-1.8285589333791457
1589988169.101415,-2.6605954797206643,-1.9841067804190031,8.892915820977674,0.48,-0.2677777777777778,-0.6611111111111111,0.05845688200500839,0.1267312410524849,-1.8426663016034184
1589988169.111415,-2.6787184203408168,-2.028718420340817,8.886922369488774,0.48,-0.2677777777777778,-0.6611111111111111,0.058289547536437475,0.12744080334642424,-1.8530885017044023
1589988169.121415,-2.6928522551567586,-2.0985824258972925,8.82713919136757,0.48,-0.2677777777777778,-0.6611111111111111,0.05812516424476485,0.13245815688020623,-1.8634519753553112
1589988169.131415,-2.6595384375266042,-2.163948749964528,8.813487187491132,0.48,-0.2677777777777778,-0.6611111111111111,0.05220883159362223,0.13155978288070228,-1.875009465242454
1589988169.1414149,-2.641684781066432,-2.187753625244757,8.819438406311189,0.48,-0.2677777777777778,-0.6611111111111111,0.046366236179560545,0.12896307380778596,-1.8840979469976615
1589988169.1514149,-2.593668789241662,-2.218165605379169,8.821834394620831,0.5044444444444445,-0.2111111111111111,-0.6822222222222222,0.053547516720538715,0.13149351347992913,-1.9028994112204212
1589988169.1614149,-2.5333050694569725,-2.270050874977449,8.75659318058813,0.5044444444444445,-0.2111111111111111,-0.6822222222222222,0.056358973806856213,0.13417403611344608,-1.9155081033956867
1589988169.1714149,-2.505613674396366,-2.33,8.709295720774564,0.5044444444444445,-0.2111111111111111,-0.6822222222222222,0.055020013023872404,0.13696620469550383,-1.9331430876066567
1589988169.1814148,-2.4849304065109754,-2.365097430884634,8.755041756093414,0.5044444444444445,-0.2111111111111111,-0.6822222222222222,0.05837007492437288,0.1407262807084535,-1.9444225710383527
1589988169.1914148,-2.4444952069305477,-2.442638180940994,8.797133387871542,0.5173651053356547,-0.18483910063231693,-0.6994497700771692,0.06133169932447817,0.14568097384517179,-1.9567478536873122
1589988169.2014148,-2.405645173397388,-2.529139768803483,8.830430115598258,0.5377777777777778,-0.14333333333333334,-0.7266666666666667,0.05947373681278747,0.14939689886855326,-1.969899638188216
1589988169.2114148,-2.3954831583680334,-2.5609663167360663,8.776134733055734,0.5377777777777778,-0.14333333333333334,-0.7266666666666667,0.05830674246149326,0.1493384083978802,-1.9804903230558732
1589988169.2214148,-2.373195025470275,-2.586082984717835,8.75072198981189,0.5377777777777778,-0.14333333333333334,-0.7266666666666667,0.05722923764549101,0.14893778024633916,-1.9904964117137942
1589988169.2314148,-2.3192940824269037,-2.625588264644247,8.765117652928849,0.5377777777777778,-0.14333333333333334,-0.7266666666666667,0.052257206010678035,0.15056031587179888,-1.9996211637524433
1589988169.2414148,-2.2622284007498967,-2.683325919100124,8.742228400749896,0.5451835375778054,-0.12173320058325302,-0.7346895731166966,0.04678478981619734,0.15162547876700738,-2.0085822720694257
1589988169.2514148,-2.233978457561396,-2.71,8.780215424386041,0.5511111111111111,-0.10444444444444444,-0.7411111111111112,0.04581489286485115,0.1522823271520212,-2.010835114538451
1589988169.2614148,-2.1968447813191467,-2.748681088460995,8.69290499505673,0.5511111111111111,-0.10444444444444444,-0.7411111111111112,0.050637123949847956,0.15814131952012525,-2.00799001659847
1589988169.2714148,-2.1743617001045927,-2.801808500522963,8.629255300941333,0.5511111111111111,-0.10444444444444444,-0.7411111111111112,0.051211025408147495,0.1606306358967289,-2.003658870641929
1589988169.2814147,-2.1719391535258827,-2.8400760580926465,8.690076058092647,0.5511111111111111,-0.10444444444444444,-0.7411111111111112,0.04668589816067398,0.15839028894865975,-1.9983854002317638
1589988169.2914147,-2.144438251975216,-2.8744521850309805,8.72445218503098,0.5511111111111111,-0.10444444444444444,-0.7411111111111112,0.045935927411727175,0.15914025969760653,-1.9908856927422962
1589988169.3014147,-2.1028859702958145,-2.8871140297041857,8.72862427887566,0.5777777777777777,-0.09888888888888887,-0.76,0.048307696270075466,0.1672045828788161,-1.9731664863244056
1589988169.3114147,-2.06,-2.963918159582204,8.620321610365572,0.5777777777777777,-0.09888888888888887,-0.76,0.042150077857735155,0.16881722284719958,-1.9494198550671873
1589988169.3214147,-2.0407397398026523,-3.01,8.653188988749921,0.5777777777777777,-0.09888888888888887,-0.76,0.02936337392254837,0.16127320550984242,-1.9248794091920434
1589988169.3314147,-1.9994818781915553,-3.0047409390957776,8.75334630713663,0.5777777777777777,-0.09888888888888887,-0.76,0.025050013893836053,0.158496394841636,-1.9036169977670627
1589988169.3414147,-1.898634852693411,-2.9787828423113702,8.623174263467055,0.5796966339318691,-0.10112755440199545,-0.7702338994884872,0.030345917950205917,0.1495927316724814,-1.8610416567571173
1589988169.3514147,-1.91650313186633,-3.03950939559899,8.74748434066835,0.5844444444444444,-0.10666666666666667,-0.7955555555555556,0.012166521194654827,0.14535490993575245,-1.8236083178151485
1589988169.3614147,-1.8951431066917495,-3.054666084385918,8.745333915614083,0.5844444444444444,-0.10666666666666667,-0.7955555555555556,0.007604594440566868,0.13748630664376454,-1.7787921205880728
1589988169.3714147,-1.88,-3.1174171062547096,8.632318198944988,0.5844444444444444,-0.10666666666666667,-0.7955555555555556,0.022871277212810015,0.13208444134891384,-1.7329979114351153
1589988169.3814147,-1.8729167057411331,-3.1570832942588667,8.621457883976968,0.5844444444444444,-0.10666666666666667,-0.7955555555555556,0.03361124266630596,0.1281953575029064,-1.6857881655550524
1589988169.3914146,-1.8624554461920801,-3.18473267715248,8.74790098427128,0.5787150699962577,-0.11266886846952902,-0.7974653470382845,0.028610007707953713,0.12138894501834029,-1.6427371537372428
1589988169.4014146,-1.8340521257251712,-3.213660057147805,8.686535977140878,0.5611111111111111,-0.13111111111111112,-0.8033333333333333,0.030942512210152956,0.11313268717398732,-1.5871658346814796
1589988169.4114146,-1.7635994370381953,-3.1931979358067166,8.690401501231479,0.5611111111111111,-0.13111111111111112,-0.8033333333333333,0.02766340723450354,0.10759960979505702,-1.542435749943432
1589988169.4214146,-1.7774698562125217,-3.3067068583833046,8.645060287574957,0.5611111111111111,-0.13111111111111112,-0.8033333333333333,0.0296320441397349,0.1024417106942451,-1.470290901110749
1589988169.4314146,-1.76,-3.3396549556774096,8.696091592795682,0.5611111111111111,-0.13111111111111112,-0.8033333333333333,0.02836160034490785,0.09786134482630318,-1.4187198716916851
1589988169.4414146,-1.7510044331855605,-3.371244458518049,8.721004433185561,0.5496167757371051,-0.12361480543241152,-0.7708493420589684,0.028852232404267562,0.09343038189911253,-1.3672540729784415
1589988169.4514146,-1.716276319070861,-3.4118618404645695,8.703032883251986,0.51,-0.09777777777777777,-0.6588888888888889,0.028512309019050906,0.08490467346776817,-1.3095473870773775
1589988169.4614146,-1.7,-3.42461575640406,8.6907636539391,0.51,-0.09777777777777777,-0.6588888888888889,0.023159460503973814,0.07283417558180541,-1.2330558200590591
1589988169.4714146,-1.6755230914231856,-3.426503298774741,8.592516493873704,0.51,-0.09777777777777777,-0.6588888888888889,0.0272707695624114,0.07635815477475191,-1.174899805196489
1589988169.4814146,-1.6314882831976067,-3.4333945487784607,8.576371115173675,0.51,-0.09777777777777777,-0.6588888888888889,0.02678373002490488,0.0752217291872367,-1.1260219951462012
1589988169.4914145,-1.6161522648330615,-3.498076132416531,8.697822357694761,0.5091167505493727,-0.04654930964139158,-0.6447568976788512,0.02573253345578334,0.0669880830564154,-1.0547619179150862
1589988169.5014145,-1.5299919804322548,-3.48,9.165068166325835,0.5077777777777778,0.031111111111111114,-0.6233333333333333,0.03981716063930601,0.07690558220401268,-0.9855601007509919
1589988169.5114145,-1.464185224789623,-3.420694592961086,8.961362685387511,0.5077777777777778,0.031111111111111114,-0.6233333333333333,0.07369566348039694,0.10109271360668466,-0.9253275769102979
1589988169.5214145,-1.4650053621406711,-3.3716756035677853,8.670977217441344,0.5077777777777778,0.031111111111111114,-0.6233333333333333,0.03025388402817969,0.05798277341596217,-0.889391477887191
1589988169.5314145,-1.4807080428164587,-3.383699302759501,9.359204556613964,0.5077777777777778,0.031111111111111114,-0.6233333333333333,-0.04318545827905541,-0.008751820102050275,-0.8667028174565522
1589988169.5414145,-1.4462573201949713,-3.321228039415086,8.761637970333485,0.517758257257854,0.05439889656462227,-0.6179272402816254,0.026970912547157697,0.03583151712673879,-0.7934997345858215
1589988169.5514145,-1.4745984877488514,-3.428418357580398,8.641435202909648,0.5344444444444445,0.09333333333333334,-0.6088888888888889,0.027114213211114166,0.042635321592823294,-0.7257475312077839
1589988169.5614145,-1.5188213973253344,-3.5616160479940007,8.91013373328334,0.5344444444444445,0.09333333333333334,-0.6088888888888889,-0.0040253441886274055,0.016443309463233666,-0.6847991882304139
1589988169.5714145,-1.45,-3.51,8.494551791297217,0.5344444444444445,0.09333333333333334,-0.6088888888888889,0.0248878373902232,0.0315325069442656,-0.6022287723517675
1589988169.5814145,-1.45775960190251,-3.521639402853765,8.55879800951255,0.5344444444444445,0.09333333333333334,-0.6088888888888889,0.014359631282233883,0.02167554210634285,-0.5580999841312434
1589988169.5914145,-1.503697061409787,-3.593697061409787,8.813697061409787,0.535611655294484,0.10173725145361717,-0.6074882358688416,0.024511715633783016,0.021413328810871563,-0.489983761330105
1589988169.6014144,-1.476609869138495,-3.5654798255179934,8.783219738276989,0.54,0.13333333333333333,-0.6022222222222222,0.03029672463653938,0.02227251630139233,-0.43187605513044763
1589988169.6114144,-1.4603344155844156,-3.5437792207792205,8.712775974025973,0.54,0.13333333333333333,-0.6022222222222222,0.02761006043566841,0.010981265987689972,-0.36879572092851287
1589988169.6214144,-1.44521557511562,-3.526519468894525,8.701740265552738,0.54,0.13333333333333333,-0.6022222222222222,0.02570563976222347,0.012662986357647302,-0.3188064844012529
1589988169.6314144,-1.3200686259883634,-3.370085782485454,8.779957108757273,0.54,0.13333333333333333,-0.6022222222222222,0.023999212956679356,0.0032776389271546615,-0.2727329606515618
1589988169.6414144,-1.407951684592678,-3.518553930716249,8.72,0.5391164794897024,0.14128501792601136,-0.5980991265075003,0.020883526556266508,0.0071495994835262915,-0.19135562107593396
1589988169.6514144,-1.4377486150907355,-3.5622513849092643,8.762617382999045,0.5366666666666666,0.16333333333333333,-0.5866666666666667,0.011045417023604993,-0.004540356526892985,-0.12275011483521828
1589988169.6614144,-1.4416235473746712,-3.55,8.76578052987248,0.5366666666666666,0.16333333333333333,-0.5866666666666667,0.006190781604352182,-0.007458713932161916,-0.06450107985898594
1589988169.6714144,-1.4291799040214277,-3.56223987202857,8.62447974405714,0.5366666666666666,0.16333333333333333,-0.5866666666666667,0.009239354177141822,-0.010818849231161746,0.0038438992240316296
1589988169.6814144,-1.4488818886233614,-3.587763777246723,8.681118111376637,0.5366666666666666,0.16333333333333333,-0.5866666666666667,0.005332186881692611,-0.013699804543905812,0.051920116898945115
1589988169.6914144,-1.44,-3.5750765893103673,8.693384392873577,0.5436234742401332,0.16446146429119277,-0.5928713869348936,0.004547913126313868,-0.019097893291423883,0.11960470804034411
1589988169.7014143,-1.445469639546521,-3.610939279093042,8.715469639546521,0.5777777777777777,0.17,-0.6233333333333333,0.006349121590458035,-0.02241326076857962,0.18886146385213345
1589988169.7114143,-1.459232498236288,-3.6384649964725764,8.72923249823629,0.5777777777777777,0.17,-0.6233333333333333,0.008601064077550069,-0.02391455575997431,0.2331496660982768
1589988169.7214143,-1.370694625454687,-3.665401194343403,8.673904180201909,0.5777777777777777,0.17,-0.6233333333333333,0.0005891789052029624,-0.029114078160848093,0.31905299166875983
1589988169.7314143,-1.4375485986415801,-3.65,8.62490280271684,0.5777777777777777,0.17,-0.6233333333333333,-0.0014919403917991578,-0.03223575710635128,0.37565013491656624
1589988169.7414143,-1.3926689476050147,-3.6221420008990557,8.708797262873981,0.5813618478375483,0.17211785958077352,-0.6233333333333333,-0.007475876725064306,-0.04113169223004356,0.4402858049939627
1589988169.7514143,-1.366287159835943,-3.4739604227165226,8.766980211358261,0.6022222222222222,0.18444444444444444,-0.6233333333333333,-0.008829253520355561,-0.04104656170072106,0.5006211499798245
1589988169.7614143,-1.4268796524746419,-3.52,8.738402606440184,0.6022222222222222,0.18444444444444444,-0.6233333333333333,-0.017112915406668584,-0.04728095048195848,0.5545950838855697
1589988169.7714143,-1.445220701619121,-3.5173896491904393,8.63738964919044,0.6022222222222222,0.18444444444444444,-0.6233333333333333,-0.017974633099203118,-0.04913553483631732,0.5930392066129853
1589988169.7814143,-1.457725933994997,-3.51,8.650466594045026,0.6022222222222222,0.18444444444444444,-0.6233333333333333,-0.017602772337289747,-0.05285600179976705,0.6317946131243453
1589988169.7914143,-1.444879685249587,-3.5202406295008255,8.722560157375208,0.616729780681725,0.18487113734031216,-0.6251823358820935,-0.02181661564992912,-0.05468117404846832,0.6678593168448151
1589988169.8014143,-1.4374227134390516,-3.5155669206654308,8.743917530491293,0.7155555555555555,0.18777777777777774,-0.6377777777777778,-0.023525960790437513,-0.05819638761808184,0.7252338073181687
1589988169.8114142,-1.4973687899961559,-3.4069475159984624,8.708314904009226,0.7155555555555555,0.18777777777777774,-0.6377777777777778,-0.02655886699556541,-0.06331413924924939,0.7685422711154193
1589988169.8214142,-1.5274804514464004,-3.3973240630176034,8.647636839875197,0.7155555555555555,0.18777777777777774,-0.6377777777777778,-0.026995929450385307,-0.06517500683776126,0.8073000757034564
1589988169.8314142,-1.5227306727680732,-3.332048004576055,8.701365336384036,0.7155555555555555,0.18777777777777774,-0.6377777777777778,-0.026477808971148847,-0.0643590161672909,0.8425460666955678
1589988169.8414142,-1.5596409556914683,-3.3597307167686012,8.719820477845735,0.7155555555555555,0.18777777777777774,-0.6377777777777778,-0.030504096251498115,-0.0643590161672909,0.8777760803986238
1589988169.8514142,-1.548029932292016,-3.2940897968760474,8.802269390628142,1.21,0.18666666666666668,-0.89,-0.03381575425739013,-0.07265586032736827,0.9212242559130465
1589988169.8614142,-1.5410005363008648,-3.2730016089025944,8.739004826707783,1.21,0.18666666666666668,-0.89,-0.03381575425739013,-0.07112228402146732,0.9426943241956596
1589988169.8714142,-1.5586118445869483,-3.323535886972326,8.658459929357704,1.21,0.18666666666666668,-0.89,-0.036903679577656924,-0.06909147335172187,0.9787260644498995
1589988169.8814142,-1.6377197284043756,-3.3810688933850006,8.694418058365624,1.21,0.18666666666666668,-0.89,-0.03611919489760052,-0.07066044271183466,0.9983381814513093
1589988169.8914142,-1.6822759392297726,-3.466586091155341,8.721137969614887,1.19925250919274,0.10903185071775344,-0.9071959852916159,-0.03138582623530449,-0.07055796945105139,1.0197048834515143
1589988169.9014142,-1.6887475951832411,-3.4428131012041896,8.73,1.1155555555555556,-0.4955555555555556,-1.0411111111111109,-0.028531845911061914,-0.07727873999109432,1.0264717663291651
1589988169.9114141,-1.6644365127582017,-3.4433452308626977,8.714472205346294,1.1155555555555556,-0.4955555555555556,-1.0411111111111109,-0.02617993877991494,-0.07963064712224129,1.024293998221552
1589988169.9214141,-1.6785401125107007,-3.4182481350128406,8.66204384248502,1.1155555555555556,-0.4955555555555556,-1.0411111111111109,-0.026052539562930216,-0.07947139810101038,1.0160172932017733
1589988169.9314141,-1.6320009032536766,-3.345993677224262,8.721996386985293,1.1155555555555556,-0.4955555555555556,-1.0411111111111109,-0.021598350963738317,-0.07417649320975901,0.9889445271096162
1589988169.941414,-1.6424071856287423,-3.292005988023952,8.693610778443114,1.0979474384564205,-0.4775016633399867,-1.0289860279441116,-0.02085707647658343,-0.07417649320975901,0.963984798678422
1589988169.951414,-1.6943619564515087,-3.348457065322737,8.751809782257542,0.6766666666666666,-0.045555555555555564,-0.7388888888888889,-0.02399827721492203,-0.07171643262745905,0.918178354557977
1589988169.961414,-1.6843750953761636,-3.3546871661834277,8.675624904623836,0.6766666666666666,-0.045555555555555564,-0.7388888888888889,-0.02423690165055589,-0.0652112225141535,0.874675579952292
1589988169.971414,-1.697337665417635,-3.3133116729118246,8.67064933832946,0.6766666666666666,-0.045555555555555564,-0.7388888888888889,-0.024798692345843632,-0.06348776921256634,0.814368948470958
1589988169.981414,-1.6919861369338796,-3.355958410801639,8.707944547735519,0.6766666666666666,-0.045555555555555564,-0.7388888888888889,-0.023348315423203307,-0.06043656202808281,0.7547289811125576
1589988169.991414,-1.6995572122240474,-3.378671636672142,8.73822884889619,0.6766666666666666,-0.045555555555555564,-0.7388888888888889,-0.020870686828269345,-0.05795893343314885,0.704350533015567
1589988170.001414,-1.7273783978830888,-3.3747567957661775,8.750486408467644,0.6044444444444445,0.057777777777777775,-0.7111111111111111,-0.01854412330243975,-0.04822946792576512,0.5978049209318061
1589988170.011414,-1.71760883401222,-3.35043533604888,8.744132510183299,0.6044444444444445,0.057777777777777775,-0.7111111111111111,-0.01645743733001654,-0.04372820689242794,0.5109843784372174
1589988170.021414,-1.711023111754507,-3.322046223509014,8.642277341054085,0.6044444444444445,0.057777777777777775,-0.7111111111111111,-0.009817477042468105,-0.03653022570700438,0.4295604291843196
1589988170.031414,-1.7180833908461965,-3.336166781692393,8.727000690154359,0.6044444444444445,0.057777777777777775,-0.7111111111111111,-0.009817477042468105,-0.03267944082388885,0.3602463012882401
1589988170.041414,-1.73,-3.387865728863394,8.711422847424405,0.6049187269192458,0.05805444255474523,-0.7120991996002806,-0.005376549624015494,-0.02158380278452876,0.2265178935488133
1589988170.051414,-1.6450955262280242,-3.2349878507789795,8.756064605269426,0.6177777777777778,0.06555555555555556,-0.7388888888888889,-0.002169915995559199,-0.013948539332634182,0.10579618978386801
1589988170.061414,-1.3578398206643572,-2.9308029345832485,8.676665987364988,0.6177777777777778,0.06555555555555556,-0.7388888888888889,0.007608917062011146,-0.002046947186718436,-0.0008216243269017522
1589988170.071414,-1.5805138399979741,-3.2584037784587334,8.344147187682022,0.6177777777777778,0.06555555555555556,-0.7388888888888889,0.024862913998201504,0.021360249642715566,-0.1079222731877138
1589988170.081414,-1.6848907012762953,-3.406593800850864,8.889781402552591,0.6177777777777778,0.06555555555555556,-0.7388888888888889,-0.003782139815046233,-0.0017624123117519737,-0.23730142894772593
1589988170.091414,-1.6602217342717664,-3.3901478228478443,8.840443468543533,0.6177777777777778,0.06555555555555556,-0.7388888888888889,0.004290760759232585,0.010795433026015076,-0.3296912910755834
1589988170.101414,-1.64,-3.45,8.74,0.5522222222222222,0.0033333333333333327,-0.7022222222222222,0.029452431127404314,0.035997415822383035,-0.4494222823885398
1589988170.111414,-1.6206564002865036,-3.4371042668576695,8.699163511715952,0.5522222222222222,0.0033333333333333327,-0.7022222222222222,0.031093588439430983,0.03763857313440971,-0.506628337264898
1589988170.121414,-0.48598204667863554,-2.8135447037701975,6.381558348294435,0.5522222222222222,0.0033333333333333327,-0.7022222222222222,-0.21855157031974956,0.794979221962245,-0.9342011126187373
1589988170.131414,2.100170140280561,-0.9364374749498998,0.1772823647294589,0.5522222222222222,0.0033333333333333327,-0.7022222222222222,-0.762633727285245,1.7518298602065736,-2.141094005398595
1589988170.141414,1.086044307411214,0.03594153248829508,-0.7893513760420235,0.5507937776762717,0.014870770050626165,-0.6944207173943384,-0.2575681053942345,-1.7364724335101136,-4.222029464255453
1589988170.151414,0.8705929832271295,-0.7360815937889108,0.27959203105544567,0.5377777777777778,0.12,-0.6233333333333333,-0.215507127633393,-0.37193966028551906,-4.306862805692447
1589988170.161414,0.14558397421812053,-0.7606581703654874,0.1567091481725628,0.5377777777777778,0.12,-0.6233333333333333,-0.12100580357355138,-0.526090756269658,-4.188903706156758
1589988170.171414,0.019059776792539368,-0.45200580950924935,0.040438770830148296,0.5377777777777778,0.12,-0.6233333333333333,-0.004869297842429524,-0.3548787227050418,-3.9131755727045943
1589988170.181414,-0.20360430793777423,-0.05265337056242521,-0.3046932588751496,0.5377777777777778,0.12,-0.6233333333333333,-0.01781717835297153,-0.24275753759918367,-3.5944196159571438
1589988170.1914139,0.10072180212574691,-0.05433116528299227,0.10297816085875947,0.5372191375977532,0.12409669465351343,-0.6245437203900531,-0.047198673038391904,-0.14518457224567805,-3.375856413736374
1589988170.2014139,2.4073539209983603,0.751511465989812,5.625587753159537,0.5273617353803489,0.1963843109144785,-0.6459014251944293,0.1786092402196709,0.10320413233819103,-3.2556943456097613
1589988170.2114139,-1.5007377971196225,3.9203824521934756,11.354916741964631,0.5244444444444445,0.21777777777777774,-0.6522222222222223,2.0586903435819055,3.0013251594284895,-3.1290921017363695
1589988170.2214139,-0.28643345811281806,0.14598425196850418,0.8515709306828452,0.5244444444444445,0.21777777777777774,-0.6522222222222223,-0.03535970153118306,1.563669528134089,-2.6507172525908747
1589988170.2314138,1.8439954070536706,-1.2845556856721365,17.88817453196052,0.5244444444444445,0.21777777777777774,-0.6522222222222223,-0.14973662761843748,-0.3255911978396696,-2.224045914244707
1589988170.2414138,2.035361580460207,-0.35324030842699194,10.616259942512128,0.5244444444444445,0.21777777777777774,-0.6522222222222223,0.5363488360578262,-0.02151478036854665,-2.143329977341617
1589988170.2514138,0.03647541417456199,-0.5170825173344624,3.034417509130366,0.4922222222222222,0.25222222222222224,-0.5966666666666667,0.4622529535704737,0.4507449284249252,-1.9961835533093049
1589988170.2614138,1.1816810576234789,-1.9099615246957766,10.596584869362921,0.4922222222222222,0.25222222222222224,-0.5966666666666667,-0.35802213625471424,0.04586637937503073,-1.846142815871067
1589988170.2714138,0.10286313657407407,-3.029177276234568,11.967781153549382,0.4922222222222222,0.25222222222222224,-0.5966666666666667,-0.6161809866422903,-0.06744228598755034,-1.667388456204367
1589988170.2814138,0.7148539513385119,-2.519439558323169,8.4564165115234,0.4922222222222222,0.25222222222222224,-0.5966666666666667,0.2541704817803124,0.20180801317349317,-1.490248752494396
1589988170.2914138,0.25952175930700216,-1.6951240074249767,5.554962101680932,0.49191857733777916,0.252594187205665,-0.5968033068646661,0.5379247461455916,0.3794953833285559,-1.3656083511849848
1589988170.3014138,0.15648657238201175,-2.4744191959319877,7.864959478785953,0.4477777777777778,0.30666666666666664,-0.6166666666666667,-0.09532453515428709,0.03267396141386492,-1.3444174781545122
1589988170.3114138,-0.1490546161497423,-2.7443557283660365,8.779887874129669,0.4477777777777778,0.30666666666666664,-0.6166666666666667,-0.21062772077496003,-0.0589457227893641,-1.2664984567717126
1589988170.3214138,-0.03491619324850932,-2.472278510728203,7.012902953190291,0.4477777777777778,0.30666666666666664,-0.6166666666666667,0.19011056648000504,0.1355350717324396,-1.1137774084935845
1589988170.3314137,-0.2770589845065679,-3.1249016924890536,9.511567446951837,0.4477777777777778,0.30666666666666664,-0.6166666666666667,0.0775353720805675,0.1219386191397187,-0.9892557310474458
1589988170.3414137,-0.25057089929269116,-3.169048501178848,9.705813405186932,0.4477777777777778,0.30666666666666664,-0.6166666666666667,-0.05922964986401269,-0.01771580467693004,-0.8996842730133193
1589988170.3514137,-0.25137577361296387,-2.846028167166007,8.205658582456755,0.4633333333333333,0.3566666666666667,-0.6144444444444445,0.06217895290663519,0.07385778655386309,-0.687791363539401
1589988170.3614137,-0.35788433214414295,-3.037884332144143,9.104992635747717,0.4633333333333333,0.3566666666666667,-0.6144444444444445,0.008474298144543212,0.040465348456925364,-0.5563005278894187
1589988170.3714137,-0.34415638398847903,-3.024156383988479,8.748065983700455,0.4633333333333333,0.3566666666666667,-0.6144444444444445,-0.021475438712884112,0.02698796687108307,-0.44997896204555177
1589988170.3814137,-0.35518518518518516,-3.087111111111111,8.671333333333333,0.4633333333333333,0.3566666666666667,-0.6144444444444445,0.016483665157724228,0.023553864673904953,-0.2358699360878078
1589988170.3914137,-0.31262506341958396,-3.0615750380517506,8.594725114155251,0.4633333333333333,0.3566666666666667,-0.6144444444444445,-0.011371869399504908,0.0003409192095473433,-0.10309188803168218
1589988170.4014137,-0.37,-3.2773402487656664,9.06,0.4455555555555555,0.3922222222222223,-0.6311111111111111,0.023916894734163714,-0.0045490812963746765,0.06742311964900143
1589988170.4114137,-0.36903117121786866,-3.2251558560893434,9.028028650189666,0.4455555555555555,0.3922222222222223,-0.6311111111111111,-0.015358474891855302,-0.026795196846078565,0.20654425829014048
1589988170.4214137,-0.35215502516042657,-3.1353875629010663,8.418317713863626,0.4455555555555555,0.3922222222222223,-0.6311111111111111,0.003227118701996117,-0.01811934339152347,0.347065683415846
1589988170.4314137,-0.40989113498441854,-3.2797096932917826,8.908947638182713,0.4455555555555555,0.3922222222222223,-0.6311111111111111,-0.027148057808607108,-0.03601324959706746,0.46949662372096873
1589988170.4414136,-0.38409381663113007,-3.2109168443496805,8.65957356076759,0.4455555555555555,0.3922222222222223,-0.6311111111111111,0.0019304681225417002,-0.03976531745915119,0.573616506893792
1589988170.4514136,-0.4098443799159877,-3.2795850131093003,8.898547545882552,0.44776625036414724,0.39774895924370146,-0.666482228048578,0.0022042955887282842,-0.04795694488830716,0.6975715087102813
1589988170.4614136,-0.3741263310745402,-3.2761894966118104,8.667880767989674,0.4477777777777778,0.3977777777777778,-0.6666666666666666,-0.01357453374166905,-0.05679821950573037,0.8044146192446645
1589988170.4714136,-0.4248802032913843,-3.3523203049370762,8.887814214262665,0.4477777777777778,0.3977777777777778,-0.6666666666666666,-0.03295189389242788,-0.057720950941480796,0.8773104026689478
1589988170.4814136,9.044127921080294,-20.580601601035013,2.7572879437211935,0.4477777777777778,0.3977777777777778,-0.6666666666666666,-0.11324591149779958,-0.06912217239641608,0.5756561983385944
1589988170.4914136,-0.019724872644943048,-2.4783324573461627,4.029110131802377,0.4477777777777778,0.3977777777777778,-0.6666666666666666,-0.5960412033298912,-0.16808595827004402,-2.8224087483876588
1589988170.5014136,-0.8919678284182306,-4.247898356451801,13.585149318102344,0.4666666666666667,0.4,-0.6588888888888889,0.14700902288008091,0.4808541028337293,-5.536337299448524
1589988170.5114136,-1.1475220888592972,-3.7725065231865544,6.002629429018732,0.4666666666666667,0.4,-0.6588888888888889,1.107710245928121,0.7403940669096826,-4.99668773700137
1589988170.5214136,-15.374826798150115,-19.07912400352702,3.089239711360242,0.4666666666666667,0.4,-0.6588888888888889,0.6976968878078076,0.5872565476117343,-4.465646339435904
1589988170.5314136,-0.324725697786333,1.8034112054131302,12.070825677370431,0.4666666666666667,0.4,-0.6588888888888889,-0.32890296310295336,0.25980171067184943,-0.35180153323274777
1589988170.5414135,0.07896053897978822,0.5801195788491265,9.049295359757343,0.4666666666666667,0.4,-0.6588888888888889,-0.11139508466008685,-0.2599487105152457,0.754419517252751
1589988170.5514135,0.5605780194057463,-1.1494015932344168,8.234271151885832,0.41399260853332664,0.430851948335242,-0.6731861332393669,-0.1043715887197192,-0.43256545236804517,1.5323321351436467
1589988170.5614135,-0.3545475126601131,-2.893394101876676,9.933341674113791,0.3888888888888889,0.4455555555555555,-0.68,-0.17120324303433282,0.15864065474654737,1.789063930232018
1589988170.5714135,-0.11314039166239806,-2.570853855549864,7.973351786910437,0.3888888888888889,0.4455555555555555,-0.68,-0.06175239522854244,-0.14823141287965075,1.8519881878145097
1589988170.5814135,8.347448364062666,-13.049697111797931,7.163692848769051,0.3888888888888889,0.4455555555555555,-0.68,-0.07955247653520615,-0.155132087604936,1.9404056957816684
1589988170.5914135,1.6822359165514342,-6.661411651536103,8.631732098839656,0.3888888888888889,0.4455555555555555,-0.68,-0.2411309218822309,-0.2032085992903503,0.6198319157610555
1589988170.6014135,0.0899018660897114,-2.5635075145848627,7.113027469767801,0.4266557628988568,0.44083469630430955,-0.6768527604991693,0.022868820832141257,0.10194602400137318,-0.7672999940387162
1589988170.6114135,-0.17789557355059865,-1.9132306622286255,6.034113468130558,0.44222222222222224,0.4388888888888889,-0.6755555555555556,0.4756623742892542,0.21654662855776868,-1.0329137320307749
1589988170.6214135,-1.3517189130110785,-3.510741715932237,9.680606090714889,0.44222222222222224,0.4388888888888889,-0.6755555555555556,0.03167457411693514,0.07941046502331522,-0.9139613691859727
1589988170.6314135,4.637742519890926,-5.673022860558067,8.570265212356654,0.44222222222222224,0.4388888888888889,-0.6755555555555556,-0.3184972643945599,-0.06510859306299165,-0.3769766900127078
1589988170.6414135,1.292768294049531,-4.114123865376714,8.303920660416122,0.44222222222222224,0.4388888888888889,-0.6755555555555556,0.010492976378026209,-0.08561707560465935,0.6202482735758845
1589988170.6514134,-1.06,-1.62,8.44,0.42777777777777776,0.4311111111111111,-0.6666666666666666,0.07417649320975901,0.03926990816987242,0.17235126363444006
1589988170.6614134,-1.028051300320627,-1.6796936230851445,8.435515971974825,0.42777777777777776,0.4311111111111111,-0.6666666666666666,0.07090542576888495,0.03737452329759025,0.1633940415767195
1589988170.6714134,0.0746952853598015,-3.762630272952854,8.29288287841191,0.42777777777777776,0.4311111111111111,-0.6666666666666666,-0.040861546672908554,-0.02753495091320954,-0.14290846863007714
1589988170.6814134,-0.13,-4.25,8.79,0.42777777777777776,0.4311111111111111,-0.6666666666666666,0.02399827721492203,0.004363323129985824,0.025089107997418484
1589988170.6914134,-0.08953260489170588,-4.448290236030641,8.733345646848388,0.42777777777777776,0.4311111111111111,-0.6666666666666666,0.008989629922586962,-5.0984897171549304e-05,0.018467645956682426
1589988170.7014134,-0.033866352523390014,-4.72840094242983,8.66159905757017,0.43422169865009447,0.43454786890968,-0.6692442350155933,-0.015620491199055479,-0.006966738329828403,0.005352617181174305
1589988170.7114134,-0.14998835691352363,-4.498483929012455,8.451562643333451,0.4444444444444444,0.44,-0.6733333333333333,-0.005791259611381003,-0.003021250652956789,0.0018458259298073608
1589988170.7214134,-0.05469360918734112,-4.492944683089331,8.690029806259314,0.4444444444444444,0.44,-0.6733333333333333,0.003016495678361376,-0.0012832347041570914,0.002181661564992912
1589988170.7314134,-0.04654827291590383,-4.5,8.634162089588672,0.4444444444444444,0.44,-0.6733333333333333,0.01068130105282292,0.0007143057668855715,0.0030842298396839257
1589988170.7414134,-0.05,-4.521571817394532,8.653143634789064,0.4444444444444444,0.44,-0.6733333333333333,0.005724151287901627,0.0003064573675515323,0.0017037455175995205
1589988170.7514133,-0.06146640212175815,-4.547199603182637,8.618401190452088,0.4361631540231747,0.43617786595941394,-0.6746073780135287,0.002647097127544545,0.0006253952199448229,0.001716226002441279
1589988170.7614133,-0.07826717375802235,-4.502129783693844,8.662671737580224,0.43,0.43333333333333335,-0.6755555555555556,-0.0014255734828061595,-0.0016145955033528478,0.0003780440410933762
1589988170.7714133,-0.07366949752300071,-4.496330502476999,8.648347487615004,0.43,0.43333333333333335,-0.6755555555555556,0.004723845405587977,-0.0001100094738186448,0.002071652091174267
1589988170.7814133,-0.07807965062702833,-4.483840698745944,8.654238951881085,0.43,0.43333333333333335,-0.6755555555555556,0.0052012336136599314,-0.0006718755406594022,0.002391139185911439
1589988170.7914133,-0.06547182355011537,-4.487264088224943,8.674528176449884,0.43,0.43333333333333335,-0.6755555555555556,-0.001975789704043872,-0.0026756089910038804,0.002181661564992912
1589988170.8014133,-0.06930552318806806,-4.573749708692612,8.652083430435797,0.4186265827701391,0.43333333333333335,-0.6755555555555556,-0.01451407427076501,-0.004287567461567287,0.00015151133683707473
1589988170.8114133,-0.05341813491980946,-4.546836269839619,8.608545337299523,0.4177777777777778,0.43333333333333335,-0.6755555555555556,-0.009845228296747912,-0.002554522243918333,0.0018088008860674908
1589988170.8214133,-0.059120828600789654,-4.567362485802369,8.563516685596841,0.4177777777777778,0.43333333333333335,-0.6755555555555556,-0.0027570779002023833,-0.006161373804839087,0.00019180544506982406
1589988170.8314133,-0.0876865831842576,-4.4684825283243885,8.606144305307096,0.4177777777777778,0.43333333333333335,-0.6755555555555556,0.00788546416818607,-0.0005047092550713476,0.004026850293271592
1589988170.8414133,-0.0692347821422345,-4.49633913125109,8.641147826786648,0.4177777777777778,0.43333333333333335,-0.6755555555555556,0.007027795846634469,0.0,0.0026644727166486447
1589988170.8514132,-0.057419538361508454,-4.525053641092327,8.674946358907672,0.4177777777777778,0.4319593447478688,-0.6755555555555556,0.004375025800929381,0.0002697820278882246,0.0013606128103846806
1589988170.8614132,-0.0647984682287272,-4.548003829428182,8.66719770234309,0.4177777777777778,0.42777777777777776,-0.6755555555555556,0.001090830782496456,0.00026171584263634377,0.0013525466251327997
1589988170.8714132,-0.07855731012998174,-4.541442689870018,8.5919565295234,0.4177777777777778,0.42777777777777776,-0.6755555555555556,0.0004160679448258763,0.0,0.0017655936201670355
1589988170.8814132,-0.07729594977225163,-4.517295949772252,8.600816200910995,0.4177777777777778,0.42777777777777776,-0.6755555555555556,0.0013857969050809034,-0.00046193230169363445,0.0017197292632992775
1589988170.8914132,-0.07003879482252275,-4.489961205177478,8.675019397411262,0.4177777777777778,0.42777777777777776,-0.6755555555555556,-0.0016552895377188702,-0.0005432994619177628,-0.0005517631792396236
1589988170.9014132,-0.06872143471219785,-4.502557130575604,8.685639282643901,0.42467023434254575,0.43091071257994507,-0.6743023816346887,-0.009005585934644851,-0.0018454509297495874,-0.0015665112550763828
1589988170.9114132,-0.08101753897550111,-4.5480233853006675,8.647964922048999,0.43,0.43333333333333335,-0.6733333333333333,-0.007851430693391807,-0.00250827306459618,-0.0003266114996032679
1589988170.9214132,-0.072337265567054,-4.5541124218556845,8.582899374845478,0.43,0.43333333333333335,-0.6733333333333333,-0.0020493386630579674,-0.000254956122741154,0.0
1589988170.9314132,-0.06768685620107129,-4.534626287597858,8.573060568603214,0.43,0.43333333333333335,-0.6733333333333333,0.006121866401347848,0.001929336718971688,0.0016770118729504643
1589988170.9414132,-0.08352003126104836,-4.489439906216854,8.667880203196814,0.43,0.43333333333333335,-0.6733333333333333,0.006898412163481895,0.0007068549370063187,-0.0007679516909802745
1589988170.9514132,-0.06857616954382696,-4.505706384093622,8.681434892725102,0.4109565951500684,0.4293659573229309,-0.6749202837374944,0.0010920374888437195,-0.0015579849160385758,0.0017133007251035285
1589988170.9614131,-0.05262455801992928,-4.512624558019929,8.647873674059788,0.4033333333333333,0.42777777777777776,-0.6755555555555556,-0.00028629486785868095,-0.002986197479630687,5.434868893826805e-05
1589988170.9714131,-0.05,-4.540971933208141,8.554827183677613,0.4033333333333333,0.42777777777777776,-0.6755555555555556,0.002533885360264823,-0.0015832354406461527,0.0014430545777683668
1589988170.9814131,-0.07350736183227827,-4.5264926381677215,8.577014723664556,0.4033333333333333,0.42777777777777776,-0.6755555555555556,0.0015629887540272735,-0.0019455825792275032,0.0004721579715308178
1589988170.991413,-0.06705114039933707,-4.513525570199668,8.648269868202982,0.4033333333333333,0.42777777777777776,-0.6755555555555556,-0.00032167068256633313,-0.0028879122975243067,0.0
1589988171.001413,-0.06,-4.4764380315070404,8.69678098424648,0.41824976377464873,0.42777777777777776,-0.6780416272957749,-0.004141699811937843,-0.001441970929824536,-0.0012203476117765549
1589988171.011413,-0.05256343042071197,-4.509492556634305,8.665380582524273,0.43,0.42777777777777776,-0.68,-0.0073561885963051455,0.0,-0.002992865466319322
1589988171.021413,-0.06663911576270358,-4.554958673644055,8.566804421186482,0.43,0.42777777777777776,-0.68,-0.004913246527353334,-0.0009075229833739527,0.0003575995860064427
1589988171.031413,-0.07,-4.552173748103186,8.57347875569044,0.43,0.42777777777777776,-0.68,0.0024663700545064027,-0.00023711913443492764,0.00023711913443492764
1589988171.041413,-0.06371815379813507,-4.52487261519254,8.63025476961492,0.43,0.42777777777777776,-0.68,0.0077895387339371805,0.000685243120790271,0.0
1589988171.051413,-0.0728508049419693,-4.492865593410707,8.685701609883939,0.41857706227380503,0.42777777777777776,-0.6833316901701403,0.008882940135097592,-0.0003109745785593134,-0.000934536907370513
1589988171.061413,-0.08137901061940214,-4.487241978761196,8.676895053097011,0.4033333333333333,0.42777777777777776,-0.6877777777777778,0.0038741992407027113,-0.002181661564992912,-0.0012412575057997918
1589988171.071413,-0.05627976595455164,-4.519146822696966,8.583412709212137,0.4033333333333333,0.42777777777777776,-0.6877777777777778,-0.0005919489945020909,-0.0016827797769985468,0.0
1589988171.081413,-0.05191525557841431,-4.526028248140529,8.563830511156828,0.4033333333333333,0.42777777777777776,-0.6877777777777778,0.000433250918874898,-0.000657579863621558,0.0
1589988171.091413,-0.08149139414802066,-4.508508605851979,8.634474182444063,0.4033333333333333,0.42777777777777776,-0.6877777777777778,0.003597864076588569,-0.0025070332940921127,0.0018802749705690847
1589988171.101413,-0.07605372420734777,-4.513946275792652,8.694865689481631,0.4219283677235363,0.43165174327573674,-0.6777054674830845,0.0008902458317392127,-0.00208136908961429,0.0025118410006988567
1589988171.111413,-0.06450667119911617,-4.498026684796465,8.688026684796466,0.43,0.43333333333333335,-0.6733333333333333,-0.0034877476442478255,-0.001090830782496456,0.0009832031341172273
1589988171.121413,-0.06,-4.516753752084491,8.596492495831018,0.43,0.43333333333333335,-0.6733333333333333,-0.0047859518433821715,0.0009137754248038684,0.0
1589988171.131413,-0.06551812227822927,-4.528963755443542,8.577590611391146,0.43,0.43333333333333335,-0.6733333333333333,-0.0019555880729170425,0.0015797278007257166,0.0
1589988171.141413,-0.07,-4.53235464282922,8.62470928565844,0.43,0.43333333333333335,-0.6733333333333333,0.003144592431134528,0.0006416032923343806,0.0008984549803241509
1589988171.151413,-0.07609149504794843,-4.525634019808206,8.678274485143845,0.4225548393858408,0.4299491694178064,-0.6861931562123356,0.007635815477475192,0.0,0.00018822447207484825
1589988171.161413,-0.08,-4.4951054809730495,8.697447259513474,0.4177777777777778,0.42777777777777776,-0.6944444444444444,0.004386335508459808,-0.000812369992253846,-0.00027846079024260997
1589988171.171413,-0.07242196242767686,-4.505156075144646,8.6014855115598,0.4177777777777778,0.42777777777777776,-0.6944444444444444,0.0007925853510479261,-0.0019174664479769364,0.0
1589988171.181413,-0.06251107863473505,-4.517488921365264,8.607444606826324,0.4177777777777778,0.42777777777777776,-0.6944444444444444,0.0008169145952926387,0.0002690822208850042,-0.0008169145952926387
1589988171.191413,-0.0717022271256802,-4.52585111356284,8.62585111356284,0.4177777777777778,0.42777777777777776,-0.6944444444444444,0.001090830782496456,-0.0014621991319949408,-0.0004525733038736068
1589988171.201413,-0.07593706940874037,-4.513748277634962,8.658440514138817,0.4227435818337618,0.4300349614395887,-0.6867700199942873,0.0015340277581057102,-0.0014997044450523512,0.0008863939512185084
1589988171.211413,-0.07364107277132594,-4.500923218313978,8.68179463614337,0.43,0.43333333333333335,-0.6755555555555556,0.00019576443485691238,0.00029647193044205617,0.0009901232869113123
1589988171.221413,-0.07605719237435009,-4.5121143847487,8.614514731369152,0.43,0.43333333333333335,-0.6755555555555556,-0.0024123051619852304,-0.001951017968000594,-0.0002306435969923182
1589988171.231413,-0.06526220682904793,-4.5142133795128565,8.56,0.43,0.43333333333333335,-0.6755555555555556,-0.00212445690889166,-0.0017220531578965627,5.7204656101252256e-05
1589988171.2414129,-0.07183169503716134,-4.522112203308559,8.587607288420044,0.43,0.43333333333333335,-0.6755555555555556,-0.0011214294882150094,0.0008604251437097435,-0.001090830782496456
1589988171.2514129,-0.08957733369060883,-4.510281777539594,8.629013778611421,0.43,0.43333333333333335,-0.6755555555555556,0.0021048186614915677,0.0021509244035923746,-0.001090830782496456
1589988171.2614129,-0.06062586718466498,-4.519374132815336,8.676458044271778,0.41,0.42777777777777776,-0.6755555555555556,0.006226888780199047,-0.002499757479772601,0.0017952941311345284
1589988171.2714128,-0.08,-4.5,8.641040548352464,0.41,0.42777777777777776,-0.6755555555555556,0.003950331658984502,-0.0016173284708522688,0.0016173284708522688
1589988171.2814128,-0.0750697284612806,-4.504930271538719,8.619860543077438,0.41,0.42777777777777776,-0.6755555555555556,-0.00053780919605013,-0.001643852368942782,0.001643852368942782
1589988171.2914128,-0.07,-4.5160265856046165,8.633013292802309,0.41,0.42777777777777776,-0.6755555555555556,-0.001419530037039736,-0.001090830782496456,0.0007621315279531758
1589988171.3014128,-0.0731177955405974,-4.53,8.646235591081195,0.4124249520871313,0.429509886411443,-0.6769412424624878,-0.0011613653602287677,-0.001090830782496456,0.0
1589988171.3114128,-0.07621149897330595,-4.53,8.652422997946612,0.4177777777777778,0.43333333333333335,-0.68,0.0006775694285527268,-0.0006775694285527268,0.0004132613539437292
1589988171.3214128,-0.07643179201841904,-4.52356820798158,8.594977455871067,0.4177777777777778,0.43333333333333335,-0.68,-0.0028063986881225974,-0.0014031993440612987,-0.00031236856156484274
1589988171.3314128,-0.06764550143789656,-4.5261772492810515,8.594708997124206,0.4177777777777778,0.43333333333333335,-0.68,-0.0036894897632932925,-0.002181661564992912,-0.001090830782496456
1589988171.3414128,-0.06,-4.535100826044704,8.61,0.4177777777777778,0.43333333333333335,-0.68,-0.0038289061540616007,-0.0027380753715651445,-0.001090830782496456
1589988171.3514128,-0.06,-4.54,8.646010610540964,0.4177777777777778,0.4367629152896156,-0.6691396571384396,-0.000996338917879438,-0.0027113283121383037,3.149728820567256e-05
1589988171.3614128,-0.05502183406113537,-4.520087336244542,8.675021834061136,0.4177777777777778,0.44,-0.6588888888888889,0.0032677288942906937,-9.526906397348822e-06,0.0021768981117942375
1589988171.3714128,-0.06075341574495771,-4.494623292127521,8.643116460637605,0.4177777777777778,0.44,-0.6588888888888889,0.003190307438827631,0.0027681694105720087,0.0009264609651729824
1589988171.3814127,-0.07524225410688293,-4.510969016427532,8.625242254106883,0.4177777777777778,0.44,-0.6588888888888889,0.0016098203500472755,0.0009851274877068225,5.285164739481682e-05
1589988171.3914127,-0.0773262245174453,-4.527326224517445,8.632673775482555,0.4177777777777778,0.44,-0.6588888888888889,0.0002158398019399577,-0.0005075034621254571,0.0016741581028674548
1589988171.4014127,-0.07064090916335933,-4.520640909163359,8.639359090836642,0.4177777777777778,0.44,-0.6588888888888889,-0.001971924531739995,0.0009510060936611779,0.00313266765865409
1589988171.4114127,-0.07,-4.527433348203854,8.672566651796146,0.41,0.44,-0.6755555555555556,-0.001090830782496456,-0.004894197355045015,0.0035233882938299267
1589988171.4214127,-0.07288896276595745,-4.517111037234042,8.64533244680851,0.41,0.44,-0.6755555555555556,-0.0004605568795779584,-0.0029573553960301193,0.0017211046854149535
1589988171.4314127,-0.07146876932591219,-4.505734384662956,8.585593692022263,0.41,0.44,-0.6755555555555556,-0.00077039502387814,-0.002181661564992912,0.002807185895895719
1589988171.4414127,-0.06,-4.506908181378086,8.629210908504115,0.41,0.44,-0.6755555555555556,-0.003272492347489368,-0.002432850128269085,0.0016792844384405665
1589988171.4514127,-0.06503229461756374,-4.532516147308782,8.66,0.4167097261567516,0.43692470884482215,-0.6733189801699717,-0.0027235541599463925,-0.0024490850661749042,0.0005489381875429757
1589988171.4614127,-0.07832652913761336,-4.539163264568807,8.658326529137614,0.43666666666666665,0.42777777777777776,-0.6666666666666666,-0.0006344623999208947,-0.00018254735303022452,0.0018165668589324628
1589988171.4714127,-0.06693027921752215,-4.53,8.622674301956195,0.43666666666666665,0.42777777777777776,-0.6666666666666666,0.004741311225074255,-0.002181661564992912,-0.00142568537481605
1589988171.4814126,-0.08,-4.522467541631386,8.597532458368613,0.43666666666666665,0.42777777777777776,-0.6666666666666666,0.004221658294028674,-0.0017708296921750434,0.0
1589988171.4914126,-0.0750759681116498,-4.51,8.639544191330101,0.43666666666666665,0.42777777777777776,-0.6666666666666666,0.0005702758976509454,-0.002165087894057767,0.0
1589988171.5014126,-0.06488063901243533,-4.51,8.664880639012436,0.43040966990408763,0.42777777777777776,-0.6666666666666666,-0.0022077020928858567,-0.004389363657878768,0.0
1589988171.5114126,-0.0653851289326546,-4.520770257865309,8.66,0.4244444444444445,0.42777777777777776,-0.6666666666666666,-0.0020976394659989847,-0.004866727471737088,0.0011748528814903832
1589988171.5214126,-0.07512222222222223,-4.53,8.619022222222222,0.4244444444444445,0.42777777777777776,-0.6666666666666666,-0.0005320830150177157,-0.002687079827549603,0.0010641660300354315
1589988171.5314126,-0.07058030791848736,-4.525290153959244,8.612968922285294,0.4244444444444445,0.42777777777777776,-0.6666666666666666,-0.0005137645042076051,-0.001090830782496456,-0.0005137645042076051
1589988171.5414126,-0.057600089800194564,-4.515200179600389,8.65,0.4244444444444445,0.42777777777777776,-0.6666666666666666,-0.0016144099667314534,-0.0008290411903789574,-0.0005672515982614587
1589988171.5514126,-0.05132260719898227,-4.5026452143979645,8.65,0.4244444444444445,0.42777777777777776,-0.6666666666666666,-0.0029839442183291144,-0.00014427406458012684,0.0008022826533362023
1589988171.5614126,-0.06183939790024033,-4.52632120419952,8.660803010498798,0.4177777777777778,0.42777777777777776,-0.6888888888888889,-0.0013790728246563114,0.0004012943701683003,0.0004888892272440055
1589988171.5714126,-0.07,-4.511271926374577,8.612368441752537,0.4177777777777778,0.42777777777777776,-0.6888888888888889,0.0023204072092387054,0.001626678988009739,-0.0017654246322555322
1589988171.5814126,-0.06663789875055323,-4.513275797501106,8.580172607496682,0.4177777777777778,0.42777777777777776,-0.6888888888888889,0.003272492347489368,-0.0014481648576396451,-9.414278533444046e-06
1589988171.5914125,-0.060972552124571124,-4.5,8.624862760622856,0.4177777777777778,0.42777777777777776,-0.6888888888888889,0.0030603143884764656,-0.00010608897950645131,-0.0017573056469671066
1589988171.6014125,-0.07267465326190652,-4.50802395978572,8.672674653261906,0.41956087995238217,0.4245087571243365,-0.6865114193227497,0.00021555254931880327,-0.001090830782496456,0.0010146239207560416
1589988171.6114125,-0.08,-4.529165838303513,8.677497514910536,0.4244444444444445,0.4155555555555556,-0.68,-0.0019996757137712533,-0.0006358661544423095,-0.0019996757137712533
1589988171.6214125,-0.08,-4.524812952436476,8.601870475635234,0.4244444444444445,0.4155555555555556,-0.68,-0.0005250116672400107,0.002263276461025781,0.0010500233344800213
1589988171.6314125,-0.06958417644678268,-4.524792088223391,8.59166329421287,0.4244444444444445,0.4155555555555556,-0.68,-0.001090830782496456,-0.0005680950478450533,0.0016135665171478587
