time,acc_x,acc_y,acc_z,mag_x,mag_y,mag_z,gyr_x,gyr_y,gyr_z
1589988199.3433251,-3.91,-0.92,8.85,0.33,-0.38222222222222224,-0.6288888888888889,0.001090830782496456,-0.001090830782496456,-0.002181661564992912
1589988199.3533251,-3.91,-0.9297320061255743,8.791607963246554,0.33,-0.38222222222222224,-0.6288888888888889,-0.0010323635889476414,0.0010323635889476414,0.0010031299921732344
1589988199.363325,-3.9213095118873555,-0.93,8.905793658741763,0.33,-0.38222222222222224,-0.6288888888888889,-0.001090830782496456,-0.00031599506493973687,-0.00031599506493973687
1589988199.373325,-3.9,-0.9326062995293455,8.940850396234763,0.3285520558170303,-0.3807742780392525,-0.6271513558693252,-0.00023792125599162415,-0.0008065276069948454,-0.001090830782496456
1589988199.383325,-3.8947727222308495,-0.94,8.968636333385096,0.3244444444444444,-0.37666666666666665,-0.6222222222222222,0.001041246465143144,0.0011404150998497679,-0.000520623232571572
1589988199.393325,-3.8999268689715496,-0.94,8.890365655142253,0.3244444444444444,-0.37666666666666665,-0.6222222222222222,0.0,0.0010988081401954145,0.0
1589988199.403325,-3.902348506708989,-0.9361742533544943,8.843825746645505,0.3244444444444444,-0.37666666666666665,-0.6222222222222222,0.0,0.0,-0.0004173242206950173
1589988199.413325,-3.89418674126178,-0.9279066293691101,8.860466853154449,0.3244444444444444,-0.37666666666666665,-0.6222222222222222,-0.0002283513123348818,0.0002283513123348818,-0.001090830782496456
1589988199.423325,-3.9126242585395787,-0.92,8.9,0.32590236585532145,-0.37666666666666665,-0.6178484579895911,-0.0016633551817367724,0.001090830782496456,-0.00023204418363598157
1589988199.433325,-3.9108917789131445,-0.9222770552717139,8.904554110543428,0.33,-0.37666666666666665,-0.6055555555555555,-0.0027757159507231,0.001090830782496456,0.00143649696984351
1589988199.443325,-3.8888201672582876,-0.93,8.880309247337705,0.33,-0.37666666666666665,-0.6055555555555555,-0.001571896280101836,0.000609765284891076,0.0008334312079250642
1589988199.453325,-3.90392578125,-0.93392578125,8.85748046875,0.33,-0.37666666666666665,-0.6055555555555555,-0.0013251889584234289,-0.000856472606569483,0.002416019740919885
1589988199.463325,-3.9060587292904034,-0.94,8.911823812128791,0.33,-0.37666666666666665,-0.6055555555555555,-0.0008598518824359568,-0.0026115875062108903,-0.00019894704115747943
1589988199.473325,-3.90227139562426,-0.9354572087514804,8.932271395624259,0.331766641041091,-0.3779285531245888,-0.6075745738882309,-0.0011905782585247737,-0.0022814090410212297,-0.0009428074319077389
1589988199.483325,-3.9080293971101145,-0.9239412057797708,8.934088191330343,0.3377777777777778,-0.38222222222222224,-0.6144444444444445,0.001966702135756565,0.000660911924023762,0.00241265463054398
1589988199.493325,-3.9033863646577682,-0.94,8.889681812053391,0.3377777777777778,-0.38222222222222224,-0.6144444444444445,0.0018296209443867798,0.0003867495412841911,1.7354460339029506e-05
1589988199.503325,-3.9096696777672917,-0.94,8.851981933396251,0.3377777777777778,-0.38222222222222224,-0.6144444444444445,0.003200427215573059,0.00312836208365675,0.0020735638671184487
1589988199.513325,-3.911840597758406,-0.9327198007471981,8.866318804483187,0.3377777777777778,-0.38222222222222224,-0.6144444444444445,0.003473270416795689,9.59061684237233e-05,0.0005933684754600896
1589988199.523325,-3.891366407982262,-0.94,8.911366407982262,0.3367150160137965,-0.38146310667652134,-0.6124707440256221,0.0009417787936464691,0.0026762843920894205,0.0017345055984429511
1589988199.533325,-3.9087091988130562,-0.9356454005934718,8.924354599406527,0.33,-0.37666666666666665,-0.6,-0.0009500262156163496,-0.0020408569981128057,0.0003342085409280685
1589988199.543325,-3.915103599497401,-0.9251035994974008,8.881035994974008,0.33,-0.37666666666666665,-0.6,-0.0016475471258262766,-0.0022042634691560974,4.5203808326369985e-05
1589988199.553325,-3.9064104298420643,-0.9235895701579357,8.851537420947615,0.33,-0.37666666666666665,-0.6,-0.0006992694200757659,-0.001090830782496456,-0.0017901002025722218
1589988199.563325,-3.9,-0.9289695436660024,8.894121825335992,0.33,-0.37666666666666665,-0.6,0.00011240534891430853,-0.0006412093868392219,-0.001090830782496456
1589988199.573325,-3.9,-0.9233869929169349,8.93,0.3324461615511197,-0.37666666666666665,-0.6013171639121414,0.0012755625891909621,0.002903028734100356,-0.0007213671691074439
1589988199.583325,-3.9046615999112393,-0.9376692000443803,8.916015200266282,0.34444444444444444,-0.37666666666666665,-0.6077777777777778,0.001927410731049782,0.0005823291146101961,0.001090830782496456
1589988199.593325,-3.9112615898763066,-0.93,8.861261589876307,0.34444444444444444,-0.37666666666666665,-0.6077777777777778,0.0014085683409298987,-0.001090830782496456,0.001090830782496456
1589988199.603325,-3.8922739969527678,-0.93,8.853643981716607,0.34444444444444444,-0.37666666666666665,-0.6077777777777778,0.0014374978023782017,-0.001090830782496456,0.0005947216074199825
1589988199.6133249,-3.903436743459586,-0.93,8.906873486919173,0.34444444444444444,-0.37666666666666665,-0.6077777777777778,-0.0007159402267704678,3.384088468150865e-05,-0.0003410496710444796
1589988199.6233249,-3.9079311715741087,-0.9341376568517828,8.926206485277675,0.3403067875926616,-0.3755173175411714,-0.6077777777777778,0.0,0.0024073357380595163,0.001090830782496456
1589988199.6333249,-3.896857089107669,-0.9437141782153383,8.946857089107668,0.3244444444444444,-0.3711111111111111,-0.6077777777777778,-0.0006856767895995783,0.0025868155578897896,0.0007479923876966668
1589988199.6433249,-3.896195848445096,-0.933097924222548,8.909020757774519,0.3244444444444444,-0.3711111111111111,-0.6077777777777778,-0.001843730454613232,0.001090830782496456,-0.0006758622207593598
1589988199.6533248,-3.9091422177637165,-0.9395711088818581,8.844288911181419,0.3244444444444444,-0.3711111111111111,-0.6077777777777778,-0.0011376155458972994,0.001090830782496456,-0.002088092038191225
1589988199.6633248,-3.9,-0.94,8.85769311408632,0.3244444444444444,-0.3711111111111111,-0.6077777777777778,0.001090830782496456,-0.0006083259454069403,0.002181661564992912
1589988199.6733248,-3.9,-0.94,8.90794381046515,0.3244444444444444,-0.3711111111111111,-0.6077777777777778,0.001090830782496456,0.0007620492158908361,0.002181661564992912
1589988199.6833248,-3.9013713780614006,-0.9286286219385995,8.9086286219386,0.31777777777777777,-0.38222222222222224,-0.62,0.002181661564992912,0.0003428600805884752,0.00014959414038159615
1589988199.6933248,-3.91,-0.92,8.895836646187206,0.31777777777777777,-0.38222222222222224,-0.62,0.0021059696567025904,-0.004136247405114859,0.0011665226907867775
1589988199.7033248,-3.9061880885122413,-0.9276238229755179,8.859059557438794,0.31777777777777777,-0.38222222222222224,-0.62,0.000675015743396524,-0.001506645821596388,0.00176584652589298
1589988199.7133248,-3.9031462390225276,-0.9431462390225276,8.896292478045055,0.31777777777777777,-0.38222222222222224,-0.62,-0.00034320143748647566,-0.001152057252533485,0.0017772336574694075
1589988199.7233248,-3.91,-0.9467686345646438,8.916462730870713,0.31975250109938436,-0.38042701920257993,-0.6191023984901788,-0.0012670744268155362,0.0009145871381773757,0.0029200050588512076
1589988199.7333248,-3.9095057641377164,-0.9304942358622839,8.947034584826296,0.33,-0.3711111111111111,-0.6144444444444445,-0.0020738360265143323,5.391276923928971e-05,0.0010369180132571662
1589988199.7433248,-3.9,-0.9318842994330672,8.857537197732269,0.33,-0.3711111111111111,-0.6144444444444445,0.0008852855999934214,0.0015334735824931666,-0.0008852855999934214
1589988199.7533247,-3.9121949512621845,-0.9240649837540615,8.826259935016246,0.33,-0.3711111111111111,-0.6144444444444445,0.001294819683137258,0.001738240624065085,-0.0008513987422094308
1589988199.7633247,-3.923183367671849,-0.93,8.87385821314853,0.33,-0.3711111111111111,-0.6144444444444445,0.0007435792376507964,0.001090830782496456,0.001090830782496456
1589988199.7733247,-3.91,-0.93,8.92,0.3273523748395379,-0.37231457709313936,-0.6113154328911711,0.002417961557991984,0.0013271307754955278,0.001090830782496456
1589988199.7833247,-3.91,-0.93,8.92,0.31777777777777777,-0.37666666666666665,-0.6,0.003636760519619308,0.00036032070434321257,0.001090830782496456
1589988199.7933247,-3.9120690269163427,-0.9320690269163427,8.899309730836572,0.31777777777777777,-0.37666666666666665,-0.6,0.0036862356549377225,-0.0028211006974573002,0.0008651349574804221
1589988199.8033247,-3.914195701508477,-0.9370978507542383,8.846119343211855,0.31777777777777777,-0.37666666666666665,-0.6,0.001090830782496456,-0.00045768003596133506,-0.00031657537326756045
1589988199.8133247,-3.9,-0.9292528744721568,8.911494251055686,0.31777777777777777,-0.37666666666666665,-0.6,0.0009278332776643929,0.0010093320300804244,-0.0010093320300804244
1589988199.8233247,-3.9,-0.9226193676952031,8.924761264609593,0.31777777777777777,-0.37666666666666665,-0.6,-0.0005193733999755777,0.00028572869126043915,-0.00028572869126043915
1589988199.8333247,-3.9,-0.9365170988839358,8.954775648325905,0.32328347740575636,-0.3867604493179608,-0.6,-0.001090830782496456,-0.0009008679950067533,0.0009008679950067533
1589988199.8433247,-3.9,-0.94,8.879904123982138,0.3244444444444444,-0.3888888888888889,-0.6,-0.0019645412536094895,-0.001090830782496456,-0.001530300630842645
1589988199.8533247,-3.8928411646232965,-0.9385794176883517,8.791364658493185,0.3244444444444444,-0.3888888888888889,-0.6,-0.001090830782496456,0.00015496149146158175,0.0007809077995732925
1589988199.8633246,-3.90924405076162,-0.9303779746191901,8.856976203046479,0.3244444444444444,-0.3888888888888889,-0.6,-0.001090830782496456,0.0010496001475349642,-0.0010083695125734724
1589988199.8733246,-3.8936177681473456,-0.9381911159263272,8.894522210184183,0.3256503671602263,-0.38728099193451304,-0.6020098711929698,-0.0009921714610199618,0.0009921714610199618,0.0008935121395434676
1589988199.8833246,-3.9299713976164683,-0.920014301191766,8.939964247020585,0.3377682436499338,-0.3711238232815698,-0.6222063320091489,-7.800090102358381e-07,7.800090102358381e-07,-0.0010892707644759843
1589988199.8933246,-3.9,-0.9226650091294045,8.89601491783536,0.3377777777777778,-0.3711111111111111,-0.6222222222222222,-0.0011628295975953829,-0.0029817849480905222,-0.0005814147987976914
1589988199.9033246,-3.901368217815302,-0.928631782184698,8.836841089076511,0.3377777777777778,-0.3711111111111111,-0.6222222222222222,-0.004214073718976671,-0.0012861650989379968,-0.002181661564992912
1589988199.9133246,-3.91,-0.9225413462637345,8.892706731318674,0.3377777777777778,-0.3711111111111111,-0.6222222222222222,-0.0029952744741429766,0.003254451636600257,-0.0019044436916465202
1589988199.9233246,-3.91,-0.9293890711988376,8.926945355994187,0.3377777777777778,-0.3711111111111111,-0.6222222222222222,-0.0022483035592150754,0.00026656797688865384,-0.0011574727767186194
1589988199.9333246,-3.8928896126555776,-0.92,8.934220774688844,0.33,-0.3888888888888889,-0.6055555555555555,-0.0024968694084124415,0.0003152078434195296,-0.001090830782496456
1589988199.9433246,-3.9027374422632795,-0.9227374422632795,8.884413250577367,0.33,-0.3888888888888889,-0.6055555555555555,-0.0026752750902709708,0.0007922221538872573,-0.0013894394111056546
1589988199.9533246,-3.907082216264522,-0.93,8.810424486148346,0.33,-0.3888888888888889,-0.6055555555555555,-0.00045426911943105314,0.0,-0.0012268190703948077
1589988199.9633245,-3.9,-0.93,8.870166369803313,0.33,-0.3888888888888889,-0.6055555555555555,0.001090830782496456,0.0,0.0008135860543040703
1589988199.9733245,-3.901167770968544,-0.9305838854842722,8.902919427421361,0.3292863621858896,-0.3884996318993741,-0.6056853078853938,0.0011545228084661502,6.369202596969425e-05,-0.0001273840519393885
1589988199.9833245,-3.919918870593259,-0.94,8.949675482373035,0.31777777777777777,-0.38222222222222224,-0.6077777777777778,0.0021639618741451138,0.001090830782496456,-0.0021639618741451138
1589988199.9933245,-3.91,-0.9385839238592225,8.897255314733004,0.31777777777777777,-0.38222222222222224,-0.6077777777777778,-0.0006178797778875172,0.0006274209490808179,-0.0001544699444718793
1589988200.0033245,-3.905988947376546,-0.93,8.832033157870363,0.31777777777777777,-0.38222222222222224,-0.6077777777777778,-0.003925785162798101,-0.0010878166470236032,-0.0008720617989025943
1589988200.0133245,-3.893039780182461,-0.93,8.870880659452618,0.31777777777777777,-0.38222222222222224,-0.6077777777777778,-0.0025132501444980167,0.002443520898726606,-0.0001657942897525525
1589988200.0233245,-3.9094692466335075,-0.93,8.918938493267014,0.31777777777777777,-0.38222222222222224,-0.6077777777777778,-0.0032435442419851707,0.0011487269935048505,-0.004247530707969034
1589988200.0333245,-3.91,-0.9383027717687968,8.928302771768797,0.3233129589569757,-0.3932925845806181,-0.6133129589569757,-0.0023668004449447495,0.005619290295219547,-0.0025519393248965875
1589988200.0433245,-3.9233587923674333,-0.9386717584734866,8.934061101681838,0.3244444444444444,-0.3955555555555556,-0.6144444444444445,-0.003127603673118278,-0.001090830782496456,0.0
1589988200.0533245,-3.8882469470147196,-0.93,8.84237042052208,0.3244444444444444,-0.3955555555555556,-0.6144444444444445,-0.0019567609733610793,-0.0006410295992327903,0.0
1589988200.0633245,-3.9160570399049335,-0.9280285199524668,8.89,0.3244444444444444,-0.3955555555555556,-0.6144444444444445,-0.001520941007081826,0.0017359961193745108,-0.000215055112292685
1589988200.0733244,-3.8999821248659363,-0.9200178751340635,8.890089375670318,0.3244444444444444,-0.3955317220434709,-0.6144444444444445,-0.0032705424728415957,0.004359423380690279,-0.0010869310332009114
1589988200.0833244,-3.8919286523994367,-0.9280713476005634,8.941928652399437,0.3244444444444444,-0.38222222222222224,-0.6144444444444445,-0.0023920449055970256,0.002812811586805253,0.0015115974637046833
1589988200.0933244,-3.8991326302772147,-0.9208673697227853,8.949132630277214,0.3244444444444444,-0.38222222222222224,-0.6144444444444445,-0.003177876988147417,0.005170307834456425,0.0030832616288054655
1589988200.1033244,-3.9146134489951327,-0.9282044829983777,8.83718206800649,0.3244444444444444,-0.38222222222222224,-0.6144444444444445,-0.007524287302911437,0.006740845216565276,0.0001958605215865404
1589988200.1133244,-3.8937829023606927,-0.9212609674535642,8.864956130185742,0.3244444444444444,-0.38222222222222224,-0.6144444444444445,-0.011311387550424008,0.00749826526606779,0.0009532805710890542
1589988200.1233244,-3.9176956591899303,-0.9292318863966436,8.906927545586575,0.3244444444444444,-0.38222222222222224,-0.6144444444444445,-0.020055479297036258,0.011663985822262815,0.004111958541087173
1589988200.1333244,-3.683346486283352,-0.8810372040586246,8.942641863960917,0.3244444444444444,-0.3731550377886342,-0.6090041337842916,-0.02161595361759841,0.010218801107129522,0.004363323129985824
1589988200.1433244,-3.2927629200174553,-0.7588866030796085,8.877773206159217,0.3244444444444444,-0.3711111111111111,-0.6077777777777778,-0.026182182867928304,0.008060900149340123,-0.009763482924813206
1589988200.1533244,-3.1794576397980174,-0.7414550215073873,8.842910043014774,0.3244444444444444,-0.3711111111111111,-0.6077777777777778,-0.043295598057847454,0.014716117167642016,-0.06015298320624181
1589988200.1633244,-3.0492508539793475,-0.74,8.772078605363383,0.3244444444444444,-0.3711111111111111,-0.6077777777777778,-0.059542211694297006,-0.024243434676895784,-0.1145760787410954
1589988200.1733243,-2.602101214088232,-0.7758228152422166,8.925607645149658,0.32368073085707416,-0.37238396709006155,-0.6094324905504134,-0.13128493982324038,-0.08711802884015571,-0.15355721564496602
1589988200.1833243,-1.8772861185253567,-1.3128186397479378,9.702836099460153,0.31777777777777777,-0.38222222222222224,-0.6222222222222222,-0.10679476137203708,-0.06373075245285019,-0.13660036781931567
1589988200.1933243,-1.5310949340926836,-1.7576895696504846,9.983616175997795,0.31777777777777777,-0.38222222222222224,-0.6222222222222222,0.09545728764906948,0.08544311737865479,-0.08633725493320467
1589988200.2033243,-1.7420843363011513,-0.8969371537948435,7.573190162698298,0.31777777777777777,-0.38222222222222224,-0.6222222222222222,0.23492346348473947,0.1378412638063911,-0.044667655618354486
1589988200.2133243,-2.0782983295887467,-0.9734033408225066,8.753591872618932,0.31777777777777777,-0.38222222222222224,-0.6222222222222222,-0.018516524868067707,0.04227217028737145,-0.08355164939864278
1589988200.2233243,-2.0714696688482954,-0.9870606623034092,9.129168213343753,0.31777777777777777,-0.38222222222222224,-0.6222222222222222,-0.08406696225046977,-0.08137979113852337,-0.10366371541369798
1589988200.2333243,-1.9941024390243902,-0.9714743902439025,9.168846341463416,0.3244444444444444,-0.38222222222222224,-0.6077777777777778,-0.045724034642357844,-0.04013702362185409,-0.11155842794900611
1589988200.2433243,-2.1987024390243906,-0.9203243902439024,8.861946341463415,0.3244444444444444,-0.38222222222222224,-0.6077777777777778,0.026810758239743993,0.0331948548963148,-0.10677591413260379
1589988200.2533243,-2.324092414208308,-0.9161386213124624,8.741386213124624,0.3244444444444444,-0.38222222222222224,-0.6077777777777778,0.023026232716461724,0.025805519815513506,-0.13239014571226326
1589988200.2633243,-2.3638643119426472,-0.9539208486332109,9.00983038992831,0.3244444444444444,-0.38222222222222224,-0.6077777777777778,-0.029030900085383476,-0.0013077634997476018,-0.16861406987124475
1589988200.2733243,-2.4591316079970564,-1.0089145099963204,9.12261866797498,0.3244444444444444,-0.3821016122218134,-0.6079225097782683,-0.01757317285615289,-0.0013054379915145246,-0.18906895114491867
1589988200.2833242,-2.42,-0.96,8.79,0.3244444444444444,-0.37666666666666665,-0.6144444444444445,0.02617993877991494,0.03817907738737596,-0.20507618710933373
1589988200.2933242,-2.3950820861331703,-0.9849179138668296,8.673716401954795,0.3244444444444444,-0.37666666666666665,-0.6144444444444445,0.021649734199659442,0.03455491372317156,-0.23225741459086666
1589988200.3033242,-2.3823589691351734,-1.0052820617296527,8.65,0.3244444444444444,-0.37666666666666665,-0.6144444444444445,0.0007216128417732968,0.017979118070409805,-0.2678073686227165
1589988200.3133242,-2.363728195921867,-1.0344077061171995,8.828989844859462,0.3244444444444444,-0.37666666666666665,-0.6144444444444445,-0.0001292184799286415,0.01841490482251111,-0.3028082066781091
1589988200.3233242,-2.369295886916782,-1.0492958869167819,8.851408226166436,0.3244444444444444,-0.37666666666666665,-0.6144444444444445,0.017315214141587116,0.028761169724424707,-0.3381118062848489
1589988200.3333242,-2.402467473622888,-1.03,8.913571104925886,0.3377777777777778,-0.37666666666666665,-0.6077777777777778,0.015554982882593485,0.027823281108338947,-0.3828106431094628
1589988200.3433242,-2.4215310402684564,-1.030918624161074,9.00755033557047,0.3377777777777778,-0.37666666666666665,-0.6077777777777778,0.009917683393712537,0.02413188568324794,-0.4222965603756467
1589988200.3533242,-2.469917892331858,-1.0598357846637156,8.930082107668142,0.3377777777777778,-0.37666666666666665,-0.6077777777777778,0.013134752175901742,0.028433252802418683,-0.4617975963979328
1589988200.3633242,-2.4597158433138984,-1.0402841566861016,8.94022732534888,0.3377777777777778,-0.37666666666666665,-0.6077777777777778,0.018519325953619607,0.0370882466048795,-0.5074842873490534
1589988200.3733242,-2.415573680776274,-1.084426319223726,8.975541055378981,0.3377777777777778,-0.37666666666666665,-0.6077777777777778,0.014667195577459395,0.0370882466048795,-0.5460055911106555
1589988200.3833241,-2.525393291685491,-1.1209213416629018,8.908022558382278,0.3566666666666667,-0.3566666666666667,-0.6055555555555555,0.011310318963800437,0.043346422795033535,-0.6089433815996492
1589988200.3933241,-2.4927218059169016,-1.1274556388166197,8.823076695383943,0.3566666666666667,-0.3566666666666667,-0.6055555555555555,0.014161443954702233,0.04904867277683713,-0.6417313189950199
1589988200.4033241,-2.4597573170490703,-1.1200606707377325,8.670303353688663,0.3566666666666667,-0.3566666666666667,-0.6055555555555555,0.01744005621828023,0.04910062151400359,-0.707162781995954
1589988200.413324,-2.426601450564218,-1.1283496373589454,8.711748186794727,0.3566666666666667,-0.3566666666666667,-0.6055555555555555,0.01563168422917927,0.050908993503104544,-0.748755337745276
1589988200.423324,-2.42,-1.189953596287703,8.848471992045077,0.3566666666666667,-0.3566666666666667,-0.6055555555555555,0.02274582848089229,0.054071870849561644,-0.7944075506822499
1589988200.433324,-2.488194390417298,-1.2194841115477995,8.91383925098255,0.36640872244056644,-0.3604552439120722,-0.616921287291772,0.027717704227960542,0.059855006286306384,-0.8437088783604156
1589988200.443324,-2.558695713380728,-1.2445650031674527,8.957391426761456,0.37666666666666665,-0.3644444444444445,-0.6288888888888889,0.031634092692397225,0.06509415795141227,-0.8918725997216123
1589988200.453324,-2.543934328148096,-1.296229851481664,8.927868656296193,0.37666666666666665,-0.3644444444444445,-0.6288888888888889,0.031634092692397225,0.06106861460040143,-0.924076946529699
1589988200.463324,-2.5287835601503024,-1.3193917800751513,8.912432879699395,0.37666666666666665,-0.3644444444444445,-0.6288888888888889,0.03348402174911385,0.06680606373890484,-0.9780556191230076
1589988200.473324,-2.5124515701964447,-1.3112257850982225,8.94509685960711,0.37666666666666665,-0.3644444444444445,-0.6288888888888889,0.029030162403841098,0.07036915121512304,-1.0163588094923532
1589988200.483324,-2.5364543671397253,-1.3138726202838353,8.94192777200877,0.38333333333333336,-0.34444444444444444,-0.65,0.02209824054423096,0.07378972466301716,-1.0771099511918583
1589988200.493324,-2.5764650458484057,-1.3435349541515942,8.811162614621015,0.38333333333333336,-0.34444444444444444,-0.65,0.02419107905508566,0.07892542002007208,-1.1215415645202162
1589988200.503324,-2.541180280979221,-1.378819719020779,8.722950702448053,0.38333333333333336,-0.34444444444444444,-0.65,0.026115564438708477,0.08277439078731773,-1.1667669710353525
1589988200.513324,-2.547828370602093,-1.387828370602093,8.727828370602094,0.38333333333333336,-0.34444444444444444,-0.65,0.029595709831736386,0.08290313946973066,-1.2067071923866957
1589988200.523324,-2.5649836481671304,-1.472410064919217,8.797426416752087,0.38333333333333336,-0.34444444444444444,-0.65,0.03462941807360136,0.08780652686617138,-1.2541425587393502
1589988200.533324,-2.5309333760409993,-1.521400064061499,8.91789990390775,0.3955555555555556,-0.33,-0.6433333333333333,0.044953147028717215,0.08957539357935523,-1.308822447998701
1589988200.543324,-2.5578026905829594,-1.5617040358744396,8.85744394618834,0.3955555555555556,-0.33,-0.6433333333333333,0.05154786899528095,0.09323912800522398,-1.3352013358649557
1589988200.553324,-2.586850973034617,-1.605276459551926,8.838425486517309,0.3955555555555556,-0.33,-0.6433333333333333,0.04626983707929261,0.09306412206707386,-1.3830200585804204
1589988200.563324,-2.617123978250693,-1.657466961938713,8.894247956501387,0.3955555555555556,-0.33,-0.6433333333333333,0.04472406208235469,0.09493969179367029,-1.4148679367571624
1589988200.573324,-2.63,-1.68,8.913189947928458,0.3955555555555556,-0.33,-0.6433333333333333,0.04695264641136715,0.09970741607470887,-1.449835368238493
1589988200.583324,-2.63,-1.7145122088443794,8.91,0.43773714414313036,-0.303157170898816,-0.6479349611792506,0.047243614834256153,0.10295314196334622,-1.480951786843628
1589988200.593324,-2.6789997135743717,-1.7412003437107542,8.936398968867737,0.4566666666666666,-0.2911111111111111,-0.65,0.04036073895236887,0.1036507472016511,-1.5222326903302625
1589988200.603324,-2.632793751514751,-1.7966474981822989,8.770057505453103,0.4566666666666666,-0.2911111111111111,-0.65,0.04036073895236887,0.10465880491664104,-1.5464260754900216
1589988200.613324,-2.6010327844751546,-1.8096557385082819,8.731032784475154,0.4566666666666666,-0.2911111111111111,-0.65,0.042467294310882926,0.10787958815743089,-1.5689544339476116
1589988200.623324,-2.5758970191850326,-1.84213730775329,8.76213730775329,0.4566666666666666,-0.2911111111111111,-0.65,0.03991317317507298,0.10448661101076408,-1.5898629056366143
1589988200.633324,-2.6097012334965597,-1.8797759251224198,8.87917839211554,0.480928531581231,-0.26684924619654676,-0.6941124816628442,0.04468332412001327,0.10795965709727603,-1.6132002182402976
1589988200.643324,-2.6012757322175735,-1.9497941422594143,8.85382719665272,0.4811111111111111,-0.26666666666666666,-0.6944444444444444,0.050434081993442625,0.11370226737823708,-1.6228554271640716
1589988200.653324,-2.572786972365624,-1.987213027634376,8.77743192630833,0.4811111111111111,-0.26666666666666666,-0.6944444444444444,0.05621651481541742,0.11354773855451106,-1.6361209584286243
1589988200.6633239,-2.57,-2.0372750629971836,8.82673007559662,0.4811111111111111,-0.26666666666666666,-0.6944444444444444,0.053629055052108465,0.1155091651381029,-1.6476508233195377
1589988200.6733239,-2.563587807200142,-2.110534120798438,8.89412192799858,0.4811111111111111,-0.26666666666666666,-0.6944444444444444,0.05135232315551016,0.11562806294462433,-1.6566388530994096
1589988200.6833239,-2.529393586458576,-2.127045189843932,8.907045189843933,0.4921634271121809,-0.23606025312524262,-0.6944444444444444,0.05268219734729709,0.1189667047479045,-1.6688472257994826
1589988200.6933239,-2.4848017520347794,-2.1551982479652207,8.89413362533913,0.4955555555555556,-0.22666666666666666,-0.6944444444444444,0.04833133069293885,0.1193514638684367,-1.6813915140833455
1589988200.7033238,-2.4069262643433915,-2.174102918260377,8.777955446947159,0.4955555555555556,-0.22666666666666666,-0.6944444444444444,0.04343751842465895,0.11504092431902646,-1.6988984005660797
1589988200.7133238,-2.3756825711772085,-2.2154605694176666,8.739777998240458,0.4955555555555556,-0.22666666666666666,-0.6944444444444444,0.04254240051736178,0.12041391123010872,-1.7190766633084915
1589988200.7233238,-2.3568112025549683,-2.2731887974450316,8.77,0.4955555555555556,-0.22666666666666666,-0.6944444444444444,0.0419100241658089,0.12463924171493025,-1.7409819409363874
1589988200.7333238,-2.2977938760268857,-2.332206123973114,8.79532367438387,0.5180654883412166,-0.1863363704256908,-0.7122648078997593,0.046976338443633484,0.12786785234607298,-1.7671876760354146
1589988200.7433238,-2.29,-2.397265001689233,8.761823332207177,0.5222222222222223,-0.17888888888888888,-0.7155555555555555,0.05216098286999919,0.13184135366469815,-1.79436382352264
1589988200.7533238,-2.276563132115214,-2.4201553018271786,8.746563132115215,0.5222222222222223,-0.17888888888888888,-0.7155555555555555,0.05235987755982988,0.13785346432569612,-1.8079662147318696
1589988200.7633238,-2.287314347792349,-2.490600217273221,8.774628695584697,0.5222222222222223,-0.17888888888888888,-0.7155555555555555,0.05330422873736706,0.14166152211958,-1.83293861484235
1589988200.7733238,-2.2593742663297585,-2.5306257336702416,8.841251467340483,0.5222222222222223,-0.17888888888888888,-0.7155555555555555,0.055121082993528206,0.14431356370134207,-1.8450552675231457
1589988200.7833238,-2.2404680044240797,-2.5971919734555224,8.869531995575919,0.5158675585049419,-0.1301698003897403,-0.7367377679464897,0.05667214932660264,0.1440407146527452,-1.8613844779996807
1589988200.7933238,-2.2308684269916497,-2.6639210110584517,8.824342134958249,0.5155555555555555,-0.12777777777777774,-0.7377777777777778,0.05174270022475459,0.14199746310350775,-1.8710130465585602
1589988200.8033237,-2.2028306865728418,-2.660943562190947,8.738492059718524,0.5155555555555555,-0.12777777777777774,-0.7377777777777778,0.042377909749641764,0.14279590583872723,-1.879768855677422
1589988200.8133237,-2.1080399089456097,-2.6967840364217563,8.720803990894561,0.5155555555555555,-0.12777777777777774,-0.7377777777777778,0.03944531177319921,0.1408925745453696,-1.8866110429088885
1589988200.8233237,-2.1074262146936107,-2.7371310734680536,8.734852429387221,0.5155555555555555,-0.12777777777777774,-0.7377777777777778,0.03926990816987242,0.14800784016873908,-1.8887574024359124
1589988200.8333237,-2.0597486582397275,-2.741624776373288,8.714874329119864,0.5434729676445956,-0.11102733052435372,-0.7675563506727539,0.040183503344103325,0.15236183833297276,-1.8874917249354
1589988200.8433237,-2.041280718562874,-2.7661578443113775,8.727438562874251,0.5488888888888889,-0.10777777777777778,-0.7733333333333333,0.04036073895236887,0.1536674356087905,-1.8814304973631486
1589988200.8533237,-2.022658800672874,-2.8393647973085034,8.660635202691497,0.5488888888888889,-0.10777777777777778,-0.7733333333333333,0.04036073895236887,0.15191550892885672,-1.8796464533223183
1589988200.8633237,-2.02,-2.9109159281437127,8.693511377245509,0.5488888888888889,-0.10777777777777778,-0.7733333333333333,0.03751292597107585,0.15637183373582908,-1.8709579992975143
1589988200.8733237,-1.9980498798076922,-2.9346334134615386,8.736583533653846,0.5488888888888889,-0.10777777777777778,-0.7733333333333333,0.03389573103351067,0.16346466382222732,-1.8617026722705032
1589988200.8833237,-1.9969190499272904,-3.002271449345613,8.763838099854581,0.5673396886949965,-0.12161587763235845,-0.767951850056552,0.028951167151734587,0.16656103020409313,-1.8482091356691157
1589988200.8933237,-1.973104844274739,-3.04344757786263,8.75655242213737,0.5755555555555556,-0.12777777777777774,-0.7655555555555555,0.025070414780025106,0.15956259378067011,-1.8288349905364354
1589988200.9033237,-1.9261954642530255,-3.033097732126513,8.693659107088376,0.5755555555555556,-0.12777777777777774,-0.7655555555555555,0.020310774396841872,0.15414505048795313,-1.8057082278907342
1589988200.9133236,-1.6499156585123842,-2.730839980154944,8.10294050299584,0.5755555555555556,-0.12777777777777774,-0.7655555555555555,-0.004711682935654271,0.13225633220587532,-1.772865829080545
1589988200.9233236,-1.716416367854883,-2.879179497996203,8.31013921113689,0.5755555555555556,-0.12777777777777774,-0.7655555555555555,-0.024003339074701598,0.11463179690619159,-1.7492890068491627
1589988200.9333236,-1.7876388140161725,-3.0276388140161727,8.403489218328842,0.5743788559448937,-0.12777777777777774,-0.807916741539383,0.04133807628957054,0.14284208578438834,-1.6922553360098922
1589988200.9433236,-1.7677769827521277,-3.067033591925887,8.504431724034044,0.5733333333333334,-0.12777777777777774,-0.8455555555555555,0.050908038231857085,0.14180956275375278,-1.64574084637769
1589988200.9533236,-1.7522817555115693,-3.1338591222442154,8.602986144290492,0.5733333333333334,-0.12777777777777774,-0.8455555555555555,-0.006477342911762706,0.0936209930498228,-1.6160858324904974
1589988200.9633236,-1.74,-3.1593152371460396,8.39903969044967,0.5733333333333334,-0.12777777777777774,-0.8455555555555555,0.03638637242783203,0.11942387523660386,-1.5635636013345449
1589988200.9733236,-1.760348900391798,-3.2853104355535216,8.676280207052363,0.5733333333333334,-0.12777777777777774,-0.8455555555555555,0.03180311265921067,0.12038876081386259,-1.5165760441518465
1589988200.9833236,-1.7515355925406055,-3.2907615801082812,8.948476839783437,0.5124691754116258,-0.131880979435421,-0.7614399215738699,0.0056203049175723736,0.09448011978358464,-1.4798338573979075
1589988200.9933236,-1.7313541943568906,-3.329166445144875,8.707396802491171,0.4744444444444445,-0.13444444444444445,-0.7088888888888889,0.038519835144441836,0.10474241430919481,-1.407308244500332
1589988201.0033236,-1.7211106735847308,-3.4200039377374227,8.748893264152692,0.4744444444444445,-0.13444444444444445,-0.7088888888888889,0.022421535036655418,0.08956842077722366,-1.355779359246945
1589988201.0133235,-1.6858149860813951,-3.387268732601744,8.68308371868314,0.4744444444444445,-0.13444444444444445,-0.7088888888888889,0.026160715544370914,0.08260520441440597,-1.3010391719663212
1589988201.0233235,-1.6595808097212403,-3.393612793519173,8.690419190278758,0.4744444444444445,-0.13444444444444445,-0.7088888888888889,0.02949815769338374,0.08329723410788242,-1.2525414909007981
1589988201.0333235,-1.626768371293511,-3.415487752470993,8.7,0.4839091820656067,-0.057866112782313905,-0.6512400324690828,0.02800908433784411,0.07977034096546601,-1.1881144187064716
1589988201.0433235,-1.6565390709170416,-3.5076937702009,8.765770327650674,0.4866666666666667,-0.03555555555555556,-0.6344444444444445,0.0296622461616192,0.0737568631413292,-1.1317781739629424
1589988201.0533235,-1.6549642115381313,-3.5450119294872895,8.99548910897887,0.4866666666666667,-0.03555555555555556,-0.6344444444444445,0.032730128695675605,0.07090139825187866,-1.084757038796583
1589988201.0633235,-1.5410122128760917,-3.4093331446133934,8.632122694920737,0.4866666666666667,-0.03555555555555556,-0.6344444444444445,0.06786857275876021,0.10107022739939472,-1.0139608265756945
1589988201.0733235,-1.4958571304196413,-3.37826527947066,9.118856869232108,0.4866666666666667,-0.03555555555555556,-0.6344444444444445,0.020997400402687744,0.06049215115288059,-0.9666653019471033
1589988201.0833235,-1.5383475896979213,-3.4238841367673594,9.050645403201237,0.497539312413583,0.024923536411666523,-0.6256104197750749,-0.01696640533465522,0.021329728464641044,-0.9336692946889977
1589988201.0933235,-1.5288591666666667,-3.4693286111111115,8.55724888888889,0.5044444444444445,0.06333333333333334,-0.62,0.030850512580303933,0.052689156951868474,-0.8609512850547179
1589988201.1033235,-1.5531571980727485,-3.5977608937364325,8.62605019325462,0.5044444444444445,0.06333333333333334,-0.62,0.013105101367773646,0.035797119261060564,-0.7979722594062835
1589988201.1133235,-1.5479013861183573,-3.6260493069408213,8.68629584164493,0.5044444444444445,0.06333333333333334,-0.62,0.022610956494407766,0.039350586463130555,-0.7488491111397656
1589988201.1233234,-1.5112074730803449,-3.5666564407767587,8.64665644077676,0.5044444444444445,0.06333333333333334,-0.62,0.020624488896066686,0.037020715957302185,-0.6894658923560434
1589988201.1333234,-1.4792418358171835,-3.568411738822674,8.643032656731265,0.5128119054755239,0.09321712273004576,-0.6044604295137096,0.01677597615184808,0.030543261909900768,-0.6325478346922905
1589988201.1433234,-1.4638719900788866,-3.6038719900788867,8.784176168658927,0.52,0.11888888888888888,-0.5911111111111111,0.02515892657862619,0.02653248879546428,-0.569560219844587
1589988201.1533234,-1.4897747714985332,-3.6297747714985333,8.723457221131234,0.52,0.11888888888888888,-0.5911111111111111,0.02402284583317158,0.01831441068875235,-0.5061860252654132
1589988201.1633234,-1.4701863413013032,-3.6250931706506515,8.57565219455456,0.52,0.11888888888888888,-0.5911111111111111,0.033476984842824624,0.0253059173154768,-0.44887348784812087
1589988201.1733234,-1.4053858864696736,-3.5471811819595644,8.546068234836703,0.52,0.11888888888888888,-0.5911111111111111,0.03179271272064515,0.019094416047497738,-0.40436327333477123
1589988201.1833234,-1.399483115560835,-3.5589662311216697,8.741640251145427,0.5347415577804174,0.14591507815298754,-0.596843939136829,0.03238173659711522,0.019522187393489262,-0.34566593094961673
1589988201.1933234,-1.4179736977102084,-3.5720263022897916,8.825947395420418,0.54,0.15555555555555556,-0.5988888888888889,0.012070866975847902,0.006160296807218711,-0.2924717607721466
1589988201.2033234,-1.413970006890799,-3.594119972436804,8.811910020672398,0.54,0.15555555555555556,-0.5988888888888889,0.01509599742726413,0.008759363666750909,-0.24503227068656153
1589988201.2133234,-1.405189654758763,-3.605189654758763,8.718224130898971,0.54,0.15555555555555556,-0.5988888888888889,0.012330148605709981,0.0057437876609501256,-0.19516090927911606
1589988201.2233233,-1.4211403493555828,-3.6422806987111658,8.689897656507485,0.54,0.15555555555555556,-0.5988888888888889,0.004425519538979316,-0.0025660039621562282,-0.14915516304345172
1589988201.2333233,-1.456144800167399,-3.7180724000836998,8.782651600753296,0.5417134221478227,0.15941075538815652,-0.6001739554997559,0.006124447629971104,-0.0049546406075198935,-0.10423407406944091
1589988201.2433233,-1.4142538924877825,-3.6649443118536196,8.658507784975566,0.5488888888888889,0.17555555555555555,-0.6055555555555555,0.007171787790364812,-0.009190673947082027,-0.025278599399969445
1589988201.2533233,-1.3452648236060691,-3.557897235409104,8.650525691147724,0.5488888888888889,0.17555555555555555,-0.6055555555555555,0.010219316642368479,-0.013606497007062512,0.03410161122103373
1589988201.2633233,-1.392020122767342,-3.5985674066552824,8.712378271103521,0.5488888888888889,0.17555555555555555,-0.6055555555555555,0.007337318421610443,-0.017790857498788483,0.08878396947404188
1589988201.2733233,-1.4135290885782308,-3.6784321266507947,8.794903038072563,0.5488888888888889,0.17555555555555555,-0.6055555555555555,0.004256355432839732,-0.014950727863512106,0.1439262018564256
1589988201.2833233,-1.4078783654612075,-3.690304086346981,8.784851441771547,0.5602687501106332,0.17774399040589098,-0.6173731037473669,0.0011240014572788375,-0.01672581856592418,0.19922398509946285
1589988201.2933233,-1.4110248011230697,-3.6510248011230697,8.735900795507721,0.5777777777777777,0.1811111111111111,-0.6355555555555555,-0.0007130980828954369,-0.024977319536320347,0.26826321100867334
1589988201.3033233,-1.4169025813510556,-3.634365806216315,8.729292255946833,0.5777777777777777,0.1811111111111111,-0.6355555555555555,-0.006284311634056355,-0.02556534357853554,0.33568614358686066
1589988201.3133233,-1.4237514169296284,-3.6237514169296285,8.7337400814926,0.5777777777777777,0.1811111111111111,-0.6355555555555555,-0.010635909255431501,-0.02781556670147752,0.3974629654046421
1589988201.3233232,-1.4369854917735878,-3.5973526776352163,8.748676338817608,0.5777777777777777,0.1811111111111111,-0.6355555555555555,-0.010435086951883766,-0.03377570049331395,0.45208556655074994
1589988201.3333232,-1.4698154905335628,-3.6196309810671257,8.733394836488813,0.6335547140944732,0.17597376171352075,-0.650233696691528,-0.01595188880196263,-0.04069080444559241,0.5134391419262229
1589988201.3433232,-1.4660326098787468,-3.570163049393735,8.695081524696867,0.6622222222222223,0.17333333333333334,-0.6577777777777778,-0.020829532166749706,-0.049398627110291644,0.5673683577776899
1589988201.3533232,-1.4727845422062404,-3.520823186690639,8.635254102278157,0.6622222222222223,0.17333333333333334,-0.6577777777777778,-0.02181661564992912,-0.05445174338663372,0.6131843366462304
1589988201.3633232,-1.4850180790091165,-3.4497830518906025,8.645126553063815,0.6622222222222223,0.17333333333333334,-0.6577777777777778,-0.02017445313428606,-0.0561797574125336,0.65294307999674
1589988201.3733232,-1.5007521115431024,-3.4007521115431025,8.690752111543102,0.6622222222222223,0.17333333333333334,-0.6577777777777778,-0.020303433439647467,-0.05701641904601699,0.6878326436819616
1589988201.3833232,-1.528867810698485,-3.428867810698485,8.718867810698486,0.6622222222222223,0.17333333333333334,-0.6577777777777778,-0.024903853956162635,-0.05778315579876952,0.7208023240503202
1589988201.3933232,-1.55,-3.435319236361338,8.754936152727732,1.0766666666666669,0.23777777777777775,-0.81,-0.02892790970714644,-0.061114382447788676,0.7878396894168213
1589988201.4033232,-1.560639249728088,-3.3993607502719123,8.658927127583164,1.0766666666666669,0.23777777777777775,-0.81,-0.028431331673017944,-0.06064570542071844,0.8313773893857846
1589988201.4133232,-1.5973395838914188,-3.4105046879185643,8.638348959728548,1.0766666666666669,0.23777777777777775,-0.81,-0.031689145604109605,-0.06329571184065064,0.8635502521710885
1589988201.4233232,-1.6551282740997275,-3.456837698799637,8.77,1.0766666666666669,0.23777777777777775,-0.81,-0.035438007897476816,-0.06544984694978735,0.8957119977661702
1589988201.4333231,-1.69729707012488,-3.4865405859750243,8.756162343900096,1.1377829811079092,-0.012837549364926926,-0.9399202156046538,-0.03272492347489368,-0.06695930107292486,0.9334090208539642
1589988201.4433231,-1.73,-3.476236589726918,8.752580461638491,1.2533333333333334,-0.4866666666666667,-1.1855555555555557,-0.031493350342981334,-0.07186579196629377,0.9657018352210258
1589988201.4533231,-1.7255647461018928,-3.4788705077962145,8.736776953222712,1.2533333333333334,-0.4866666666666667,-1.1855555555555557,-0.027517186535307204,-0.0747835128442312,1.001592984113573
1589988201.463323,-1.712747420064287,-3.450110810353578,8.673626289967856,1.2533333333333334,-0.4866666666666667,-1.1855555555555557,-0.026671375486696885,-0.07615432757135701,1.0328846185862708
1589988201.473323,-1.6896056626762332,-3.3903943373237664,8.7111830119713,1.2533333333333334,-0.4866666666666667,-1.1855555555555557,-0.027184738504121023,-0.08019757027806211,1.0696163842545594
1589988201.483323,-1.6641279609128579,-3.394709320304286,8.755872039087143,0.9435346444843014,-0.2656338260457254,-0.9474749692484247,-0.026820478879142635,-0.08129860153197913,1.095828270346305
1589988201.493323,-1.6730243482008187,-3.4590730446024565,8.758487825899591,0.6677777777777778,-0.06888888888888889,-0.7355555555555555,-0.028989492039017104,-0.08244020038134345,1.1167765722512635
1589988201.503323,-1.6847458787964669,-3.5257623636105992,8.681696424354069,0.6677777777777778,-0.06888888888888889,-0.7355555555555555,-0.028879295413026182,-0.08290313946973066,1.1257928081826023
1589988201.513323,-1.6963459524165794,-3.5454486508055263,8.669037857249739,0.6677777777777778,-0.06888888888888889,-0.7355555555555555,-0.03133337835577904,-0.08468620627625337,1.1226677091036195
1589988201.523323,-1.7001478945471682,-3.540147894547168,8.71656807030189,0.6677777777777778,-0.06888888888888889,-0.7355555555555555,-0.03345752159404513,-0.08510093382718502,1.1062960069609438
1589988201.533323,-1.6827070107836886,-3.5227070107836886,8.728195326144208,0.6677777777777778,-0.06888888888888889,-0.7355555555555555,-0.03282335316460693,-0.0831984285388704,1.0834659435011682
1589988201.543323,-1.6934225211574707,-3.466577478842529,8.750535126944824,0.5955555555555555,0.06222222222222223,-0.7144444444444444,-0.029079091984172866,-0.07595562898432259,0.996003889820176
1589988201.553323,-1.7046808964367415,-3.4459573106897756,8.719786553448877,0.5955555555555555,0.06222222222222223,-0.7144444444444444,-0.028872206937195413,-0.07002202287353719,0.9060622094218402
1589988201.563323,-1.6965540766007934,-3.427310815320159,8.656135108079049,0.5955555555555555,0.06222222222222223,-0.7144444444444444,-0.027692363870251046,-0.06390057684655391,0.8335495396817061
1589988201.573323,-1.6591310526498215,-3.426951578801428,8.706082631451249,0.5955555555555555,0.06222222222222223,-0.7144444444444444,-0.022812658980631232,-0.056154475979049635,0.7568531888438438
1589988201.583323,-1.6557047249853716,-3.5057047249853714,8.752885825043885,0.5955555555555555,0.06317300971978415,-0.7144444444444444,-0.019016315321055143,-0.04831134910892099,0.6333552455831896
1589988201.593323,-1.6688935840279122,-3.5310641597208763,8.723276991665053,0.5955555555555555,0.06555555555555556,-0.7144444444444444,-0.011999138607461015,-0.04242631869925933,0.5460741608520167
1589988201.603323,-1.6469082641496435,-3.6069082641496437,8.774360122635985,0.5955555555555555,0.06555555555555556,-0.7144444444444444,-0.00807189978044365,-0.029868749782517415,0.4047352715015946
1589988201.613323,-1.625395454885251,-3.5756836360917994,8.666474545862302,0.5955555555555555,0.06555555555555556,-0.7144444444444444,-0.0004708422619521968,-0.02399827721492203,0.3026630978411825
1589988201.623323,-1.6976403512604308,-3.5044624055223035,8.727897243217267,0.5955555555555555,0.06555555555555556,-0.7144444444444444,-0.0035018675301603207,-0.015814449016579753,0.09146369960636794
1589988201.633323,-1.7580054998893702,-3.4545013749723426,8.771509624806399,0.5745491390179571,0.04154822236972884,-0.7334502498832239,0.006165743686770671,0.009003103610986489,-0.18440139755521495
1589988201.643323,-1.76419110385986,-3.4231125756730068,8.74676441543944,0.5488888888888889,0.012222222222222223,-0.7566666666666667,0.016362461737446838,0.02399827721492203,-0.3883357585687383
1589988201.653323,-1.7338666630649127,-3.459911126718712,8.679244442043275,0.5488888888888889,0.012222222222222223,-0.7566666666666667,0.019882209848082907,0.03103777343619417,-0.48454220692612426
1589988201.663323,-2.5152316994479365,-4.26775518007791,8.040936118347155,0.5488888888888889,0.012222222222222223,-0.7566666666666667,-0.5247596293591139,1.7435308137283996,-1.0566366278182562
1589988201.673323,-3.9420465501189614,-3.397611254784318,4.215926140477915,0.5488888888888889,0.012222222222222223,-0.7566666666666667,-0.5972196187678005,0.32086601844226736,-2.70460622578
1589988201.683323,-4.3265683885821575,-1.3830498245300311,0.37935735520933456,0.5327724751821137,0.041692235857468216,-0.708777894509392,-0.2561083268101369,-1.3166672079210548,-4.016371619163653
1589988201.693323,-1.9290858406228972,-0.5011788266205262,-0.13132750168220708,0.51,0.08333333333333333,-0.6411111111111111,-0.13874955813580567,-0.37084370378990206,-4.050092865599897
1589988201.703323,-0.24256784388462072,-0.6352567843884621,0.1122964683461378,0.51,0.08333333333333333,-0.6411111111111111,-0.08648215931659939,-0.47259026095413625,-3.8753232519781116
1589988201.7133229,-0.1422538033814107,-0.4005492675491829,-0.045284089305371304,0.51,0.08333333333333333,-0.6411111111111111,-0.07199483164476607,-0.3690892103186039,-3.681772894548444
1589988201.7233229,-0.07987643281034063,-0.18996910820258517,-0.12989187870904806,0.51,0.08333333333333333,-0.6411111111111111,-0.09377774957114844,-0.30111815766816463,-3.473914903262254
1589988201.7333229,0.01970004276376075,-0.15186175087054798,0.24925010690940197,0.5193960806673862,0.13501177700395733,-0.6569669972373253,0.09826690027725613,-0.029019570760387026,-3.270536529013255
1589988201.7433228,2.0806921207495632,3.5043937415895074,8.135638996565506,0.5277777777777778,0.1811111111111111,-0.6711111111111111,1.3303830194731112,1.7616392853226395,-3.1341892057292444
1589988201.7533228,1.53517967655673,3.4856016808862855,10.17104418693493,0.5277777777777778,0.1811111111111111,-0.6711111111111111,0.9679783166060765,2.2609555311460183,-2.8010264488568892
1589988201.7633228,-0.6554726170360798,-0.034242123049398665,3.6879833018586625,0.5277777777777778,0.1811111111111111,-0.6711111111111111,-0.3367436151079898,0.5916430455472272,-2.3405031588140717
1589988201.7733228,0.4975948690539819,-0.37195617316942803,6.032680384820951,0.5277777777777778,0.1811111111111111,-0.6711111111111111,0.044445086919647825,-0.25339456868612487,-2.11110446114592
1589988201.7833228,2.696785353251713,-1.238692949941967,17.50155453218016,0.5221929353817482,0.18680132789197149,-0.6691089977993269,0.7254828052341247,0.06392001283204607,-1.9821509877549295
1589988201.7933228,0.837844146018536,-0.4007970493663704,5.183015888027237,0.4688888888888889,0.2411111111111111,-0.65,0.07005626007938301,0.28966300645753684,-1.7980132220438787
1589988201.8033228,1.491432406519655,-1.7510162991371043,12.90636049856184,0.4688888888888889,0.2411111111111111,-0.65,-0.4176285916353478,0.10474945751105276,-1.665176721305007
1589988201.8133228,0.3577426613480618,-2.7525808871160207,11.405803416180833,0.4688888888888889,0.2411111111111111,-0.65,-0.14205252841626187,0.046413769414936065,-1.5120318953823608
1589988201.8233228,0.5281665259669199,-2.5166457180377075,9.275425694900417,0.4688888888888889,0.2411111111111111,-0.65,0.3716129608022425,0.2417473784408378,-1.4087576313337977
1589988201.8333228,0.3594268370607029,-1.8318453674121407,5.816342279020235,0.4677565495207668,0.2531893977044137,-0.6405638385989824,0.21362744079045412,0.17644618895400205,-1.3456521060311755
1589988201.8433228,0.11637578568377369,-3.1200951974125832,10.39406846890828,0.4655555555555556,0.2766666666666667,-0.6222222222222222,-0.24001565616743922,-0.013107276767967423,-1.3246102575327172
1589988201.8533227,-0.13669327198460024,-3.0747610216442087,10.064183764495986,0.4655555555555556,0.2766666666666667,-0.6222222222222222,-0.010547702184344865,0.062427207551845325,-1.2403485031126749
1589988201.8633227,-0.03508121487134533,-2.5338467488268965,7.405939256432734,0.4655555555555556,0.2766666666666667,-0.6222222222222222,0.1746973963595433,0.14444825883275364,-1.1419864319212647
1589988201.8733227,-0.20113828749756194,-2.6342888628827774,8.060956309732788,0.4655555555555556,0.2766666666666667,-0.6222222222222222,-0.0008824516780733954,0.06103771621662138,-1.0792883588017521
1589988201.8833227,-0.3355071832825425,-3.0720722681758814,9.55789725729212,0.457645721472452,0.29742998113481356,-0.6316151501959077,0.007240703935883094,0.0449059463617174,-0.9837427325956426
1589988201.8933227,-0.31337675152950467,-3.0084744424708902,8.870586145648312,0.4477777777777778,0.3233333333333333,-0.6433333333333333,0.06284300464758691,0.08586562662148389,-0.8586005083358839
1589988201.9033227,-0.3580894356685654,-3.081666862411181,9.257358329907804,0.4477777777777778,0.3233333333333333,-0.6433333333333333,-0.005356594732158004,0.04623171334178488,-0.762202555459646
1589988201.9133227,-0.3591288903924222,-2.8412889039242217,8.409534844384304,0.4477777777777778,0.3233333333333333,-0.6433333333333333,-0.004222725522363647,0.04401332456980795,-0.6036641313341331
1589988201.9233227,-0.3861381230476708,-3.0776215537145184,8.892122945810131,0.4477777777777778,0.3233333333333333,-0.6433333333333333,0.015531079197222134,0.033232671648099024,-0.47381665799417927
1589988201.9333227,-0.4146203992937661,-3.2057917968219476,9.226789691701752,0.4477777777777778,0.3233333333333333,-0.6433333333333333,0.0015498745390583532,0.025465335726896923,-0.36429722150522964
1589988201.9433227,-0.3765995674596573,-3.05,8.592997837298286,0.43,0.3588888888888889,-0.6433333333333333,0.02242672596281434,0.007057462840007848,-0.16223617180519867
1589988201.9533226,-0.3623823115420707,-3.056352830778855,8.503647169221145,0.43,0.3588888888888889,-0.6433333333333333,-0.005765375065902542,-0.0016105705352139183,-0.03193908686371534
1589988201.9633226,-0.4024861297273452,-3.142486129727345,8.498673713500398,0.43,0.3588888888888889,-0.6433333333333333,-0.0038781413494475636,-0.01035986640964164,0.14551120741922247
1589988201.9733226,-0.42906955136713565,-3.1709304486328644,8.655582691797186,0.43,0.3588888888888889,-0.6433333333333333,-0.018416999672624,-0.0167176984410379,0.2438908826457884
1589988201.9833226,-0.40450346420323324,-3.2009930715935333,8.745265588914549,0.43396972029766484,0.36469078778547603,-0.6451655119322556,0.006844774217189078,-0.026996172437025453,0.40287681001578113
1589988201.9933226,-0.3921810965479048,-3.2409054827395236,8.682181096547904,0.4444444444444444,0.38,-0.65,0.0038290838709931895,-0.03776163374474809,0.517561348405126
1589988202.0033226,-0.40428649223348806,-3.297145968933952,8.659994554365584,0.4444444444444444,0.38,-0.65,-0.01729881732602132,-0.04472346805578953,0.6512342935222964
1589988202.0133226,4.578198549167114,-12.806046928174817,6.1860800644814615,0.4444444444444444,0.38,-0.65,-0.1595342461705344,-0.05300357127520416,0.1730470761230959
1589988202.0233226,6.796003320325132,-18.31825639809405,5.709757874991914,0.4444444444444444,0.38,-0.65,-0.3773399368621914,-0.05376447418328029,-2.301256516241413
1589988202.0333226,-0.2892538808212318,-6.589367662605019,11.622080342736327,0.44680928800608316,0.3807882811872129,-0.6626124989954068,-0.10849299299494014,0.23205347688268593,-5.388696478938835
1589988202.0433226,-2.993349082823791,-6.2318862330924585,10.266328515842133,0.4511111111111111,0.38222222222222224,-0.6855555555555556,0.8168245798569356,0.7635544639370959,-5.129192653360147
1589988202.0533226,-7.760907197096969,-11.814936048204645,5.770070335774925,0.4511111111111111,0.38222222222222224,-0.6855555555555556,0.6290783469044271,0.677075903150056,-3.2833845285236496
1589988202.0633225,-7.863765413129489,-12.165386048476933,7.950385088157339,0.4511111111111111,0.38222222222222224,-0.6855555555555556,-0.14208532909879323,0.1394059992971886,-0.4099263975578904
1589988202.0733225,-0.1430290327588884,0.5451700046576619,9.401723334885888,0.4511111111111111,0.38222222222222224,-0.6855555555555556,0.00674296345367123,-0.5742925154096115,1.1956003286811763
1589988202.0833225,1.0178783066382322,-0.988245383184355,8.91475112300921,0.4356044335546581,0.39269426420839826,-0.6871666389380442,-0.14833242104948638,-0.3913035815173594,1.458310508854228
1589988202.0933225,0.10757173918879015,-2.210999919469573,8.6372855877379,0.3655555555555556,0.44,-0.6944444444444444,-0.16854900695879116,0.1360424077615206,1.666228281355179
1589988202.1033225,0.360538481314418,-2.9107179750858907,8.978894290321827,0.3655555555555556,0.44,-0.6944444444444444,-0.10035242936193998,-0.07192495137330929,1.8098053131547829
1589988202.1133225,2.969167211210339,-7.195873085021418,9.4265969650766,0.3655555555555556,0.44,-0.6944444444444444,-0.07340278189674021,-0.2002672018278117,1.7582936883275633
1589988202.1233225,7.894949720467582,-17.252996260800114,8.071435780149567,0.3655555555555556,0.44,-0.6944444444444444,-0.2021269324828248,-0.193623374700788,1.1445701574687468
1589988202.1333225,-1.1284641095593417,-1.1323630056550253,7.751820809770728,0.3735004145412644,0.4348925906520443,-0.6942552811352609,0.07700312628621517,0.13717400577360264,-1.0931278554521207
1589988202.1433225,-0.09786771215378764,-1.6325053749841911,5.667894270899203,0.4088640164130236,0.41215884659162766,-0.6934132906145047,0.4828746563144395,0.3107646805310917,-1.0790752770193717
1589988202.1533225,-1.0486992006260831,-2.9998188831125274,7.868974788976466,0.4122222222222222,0.41,-0.6933333333333334,-0.04989631590497834,0.02877783439495654,-0.8260689741553398
1589988202.1633224,-2.971206540684341,-7.702457343362994,9.717239244106045,0.4122222222222222,0.41,-0.6933333333333334,-0.26877275948430035,-0.07299545199240147,-0.25684767048504487
1589988202.1733224,-2.313755652128015,-9.421215933282898,8.625938913032003,0.4122222222222222,0.41,-0.6933333333333334,-0.02570529486693713,-0.07361469722008264,0.4701186455132772
1589988202.1833224,-0.8083327761845278,-2.174523461829443,8.249583194046131,0.4122222222222222,0.41,-0.6933333333333334,0.1312660358595003,0.01412825175007984,0.47333857024612724
1589988202.1933224,-0.92,-2.9946397202342228,8.323549528301887,0.4088888888888889,0.4155555555555556,-0.6788888888888889,0.02461293410143201,0.04382205964407942,-0.17440313620831452
1589988202.2033224,-0.7346972301814709,-4.863806431072907,8.571913721744666,0.4088888888888889,0.4155555555555556,-0.6788888888888889,-0.06055666691917917,-0.0390292724967773,-0.14679529673192446
1589988202.2133224,-0.12724266344133936,-3.8006553568018333,8.631072633522185,0.4088888888888889,0.4155555555555556,-0.6788888888888889,-0.008538151756242151,-0.02180953278406786,-0.009691027054886078
1589988202.2233224,-0.2407175822776752,-4.354679960532179,8.417472786300847,0.4088888888888889,0.4155555555555556,-0.6788888888888889,0.028596428596146473,0.017509434647873037,0.019434134005810882
1589988202.2333224,0.04050474529526281,-4.585501095068137,8.871514235885789,0.4088888888888889,0.4165553122070806,-0.6788888888888889,-0.02176235283541209,-0.014399444142566576,-0.003708983931692403
1589988202.2433224,-0.07,-4.560043102257342,8.540014367419113,0.4088888888888889,0.4222222222222222,-0.6788888888888889,-0.015259093016522552,-0.003270925105185889,-1.5672423034790071e-06
1589988202.2533224,-0.07786313926578028,-4.5951000589916955,8.550826337523256,0.4088888888888889,0.4222222222222222,-0.6788888888888889,0.0027534851888708924,-0.001233786688465951,-0.0014668820351454361
1589988202.2633224,-0.1163950233281493,-4.440203732503888,8.522878693623639,0.4088888888888889,0.4222222222222222,-0.6788888888888889,0.006173966511258712,-0.0020579888370862373,0.0027778014358626705
1589988202.2733223,-0.027614696078798545,-4.517483614845886,8.742254222688288,0.4088888888888889,0.4222222222222222,-0.6788888888888889,0.001625522115454533,-0.0002673456664790384,-0.0008163357438239835
1589988202.2833223,-0.08,-4.5136055896660405,8.63072111793321,0.4086084541370857,0.42178153904081717,-0.6801708763257035,-0.003311823229457056,0.002181661564992912,-3.9330881967687906e-05
1589988202.2933223,-0.08,-4.590022591870571,8.646004518374115,0.40266490952117784,0.41244168321581914,-0.707341365998425,-0.0041454034125650565,0.002181661564992912,-0.000872911065075689
1589988202.3033223,-0.08903889472893828,-4.492883315813185,8.61,0.4011111111111111,0.41,-0.7144444444444444,0.0024961825294610297,0.001090830782496456,0.0014053517469645735
1589988202.3133223,-0.0811655278570356,-4.516503416428893,8.61,0.4011111111111111,0.41,-0.7144444444444444,0.005072735813188814,0.001090830782496456,0.003981905030692359
1589988202.3233223,-0.09,-4.49,8.686452702702702,0.4011111111111111,0.41,-0.7144444444444444,-0.0016423882389614433,-0.002181661564992912,0.0019470346737127057
1589988202.3333223,-0.08860833490477088,-4.494174995285688,8.708608334904772,0.40296666457141656,0.41038657363756365,-0.7123569468016008,-0.008167140371155816,-0.0020298544525127337,0.0009390236700162779
1589988202.3433223,-0.06799698061751243,-4.552003019382488,8.683990941852537,0.42777777777777776,0.4155555555555556,-0.6844444444444444,-0.014179153354773136,-0.0008739820801417987,-0.001746317342602805
1589988202.3533223,-0.06118827310801597,-4.558811726891983,8.663564819324048,0.42777777777777776,0.4155555555555556,-0.6844444444444444,-0.010465579484586386,-0.0038448411762912,-0.003974461664714856
1589988202.3633223,-0.08771433859251376,-4.523143015777541,8.558285291259889,0.42777777777777776,0.4155555555555556,-0.6844444444444444,0.001994615857320129,0.0019323345828278957,-0.003023165365324352
1589988202.3733222,-0.07668491882929086,-4.5,8.631602784097481,0.42777777777777776,0.4155555555555556,-0.6844444444444444,0.007641788483726474,0.0012716404118706516,-0.002181661564992912
1589988202.3833222,-0.06051131762619057,-4.5,8.688210388308333,0.42777777777777776,0.4155555555555556,-0.6844444444444444,0.002348989866877417,0.0021537735146788277,-0.002181661564992912
1589988202.3933222,-0.07775490131794636,-4.491122549341027,8.698877450658973,0.41495479349259423,0.421473855994871,-0.6716214601592609,-0.0007234773696775066,0.004118420854773191,-0.002181661564992912
1589988202.4033222,-0.0668958124910676,-4.54770139583631,8.626208375017866,0.4133333333333333,0.4222222222222222,-0.67,-0.0039497210053662584,0.0004136021246195652,-0.0005014776357053404
1589988202.4133222,-0.09239145039687477,-4.5280427480156265,8.596740152778123,0.4133333333333333,0.4222222222222222,-0.67,0.0018734310948137645,0.004410686829392534,-0.0016599280234480395
1589988202.4233222,-0.09787128434696286,-4.49,8.660643578265185,0.4133333333333333,0.4222222222222222,-0.67,0.0032022888492283436,0.0001620033578904718,-0.00023220685615149604
1589988202.4333222,-0.0900151716645751,-4.49,8.699924141677124,0.4133333333333333,0.4222222222222222,-0.67,-0.0010825559231263408,-0.0032658724599932765,-0.001089175810622433
1589988202.4433222,-0.06250970393485045,-4.503764555902276,8.688745148032574,0.4133333333333333,0.4222222222222222,-0.6844444444444444,-0.01090830782496456,-0.0029987261167806335,0.0005432983210789869
1589988202.4533222,-0.07847096430474161,-4.527706446457112,8.68076451784763,0.4133333333333333,0.4222222222222222,-0.6844444444444444,-0.01090830782496456,-0.0012576227028888282,-0.002938908506704623
1589988202.4633222,-0.06119317653620898,-4.55,8.553124941898298,0.4133333333333333,0.4222222222222222,-0.6844444444444444,-0.007034626456927619,-0.0009606754130315307,-0.0009606754130315307
1589988202.4733222,-0.07255812484205207,-4.54573645859658,8.65426354140342,0.4133333333333333,0.4222222222222222,-0.6844444444444444,0.00545415391248228,0.0001860320882119514,0.0
1589988202.4833221,-0.09905736669193835,-4.501571055513436,8.698428944486563,0.4133333333333333,0.4222222222222222,-0.6844444444444444,0.00545415391248228,0.002113111336390237,0.0
1589988202.4933221,-0.08,-4.501360087314247,8.717759214171775,0.4133333333333333,0.4222222222222222,-0.67,0.004712341357850318,0.0004450875327791769,0.0001483625109263923
1589988202.5033221,-0.08,-4.5084028209218365,8.654374611703467,0.4133333333333333,0.4222222222222222,-0.67,0.0008711260518097803,0.0027498167164035,0.0009166055721345001
1589988202.513322,-0.06270394116886237,-4.538648029415569,8.572703941168863,0.4133333333333333,0.4222222222222222,-0.67,-0.0017392302258347348,0.0018867073388874605,-0.002830061008331191
1589988202.523322,-0.07820365477356295,-4.5308981726132185,8.588203654773563,0.4133333333333333,0.4222222222222222,-0.67,0.0007969044821482395,0.00019595086689881084,-0.0002939263003482167
1589988202.533322,-0.08887490127563841,-4.503375296173084,8.678749012756384,0.4133333333333333,0.4222222222222222,-0.67,0.00593133853403818,-0.002904304650925035,0.0
1589988202.543322,-0.09,-4.5,8.69,0.4097175437446753,0.4167985378392352,-0.67,0.00033284672149574025,-0.0006101475017109411,0.0
1589988202.553322,-0.08,-4.521274445465284,8.669934812092574,0.4088888888888889,0.4155555555555556,-0.67,-0.008726646259971648,0.0008858555796779637,0.0017717111593559274
1589988202.563322,-0.08,-4.564000249003985,8.549599601593625,0.4088888888888889,0.4155555555555556,-0.67,-0.008072174952594852,0.0,-0.0001308942614753591
1589988202.573322,-0.0775096659814036,-4.522490334018596,8.628716169065086,0.4088888888888889,0.4155555555555556,-0.67,-0.0023217057953252972,0.0,-0.000955004132187303
1589988202.583322,-0.06168838761999962,-4.53831161238,8.68409064333,0.4088888888888889,0.4155555555555556,-0.67,0.0037187123139472925,0.0,-9.208725943407581e-05
1589988202.593322,-0.08,-4.493991846973973,8.722661231315982,0.4011111111111111,0.4155555555555556,-0.67,0.005163858608600605,0.0024016064358443456,-0.0013811260863781302
1589988202.603322,-0.08038702814750164,-4.52,8.737419812349989,0.4011111111111111,0.4155555555555556,-0.67,0.003230274125790632,-0.003230274125790632,-0.003230274125790632
1589988202.613322,-0.1058077838783344,-4.52,8.551179242991108,0.4011111111111111,0.4155555555555556,-0.67,-0.0003048665594927173,0.00015243327974635864,-0.00015243327974635864
1589988202.623322,-0.08093464762940285,-4.519065352370597,8.624673238147013,0.4011111111111111,0.4155555555555556,-0.67,-0.0020797073244989157,0.0007849680610144674,-0.001090830782496456
1589988202.633322,-0.08693524850496437,-4.513064751495035,8.654676242524822,0.4011111111111111,0.4155555555555556,-0.67,-0.0014251433096451453,-0.0011787239835468445,-0.001090830782496456
1589988202.643322,-0.07463134244523498,-4.517684328777382,8.716105972664295,0.4105030685056897,0.4206784414071439,-0.67,0.0014238599294612044,0.0003330291469647484,-0.001090830782496456
1589988202.653322,-0.08404654816851616,-4.505953451831484,8.69488362957871,0.4133333333333333,0.4222222222222222,-0.67,-0.00241506057401808,-0.0004414099305072078,0.0004414099305072078
1589988202.663322,-0.0714076002082249,-4.518592399791775,8.587038001041124,0.4133333333333333,0.4222222222222222,-0.67,-0.006391439331320723,-7.677268182900614e-05,7.677268182900614e-05
1589988202.673322,-0.07781360112755462,-4.543440803382664,8.572186398872446,0.4133333333333333,0.4222222222222222,-0.67,-0.0056926530317701765,0.0,-0.0017046633264171185
1589988202.683322,-0.07154583665283921,-4.54154583665284,8.67144996016593,0.4133333333333333,0.4222222222222222,-0.67,-0.0026875354266814003,0.001844412323867253,-0.002181661564992912
1589988202.693322,-0.07,-4.525227189521214,8.682613594760607,0.41005048656026977,0.4172979520626269,-0.6806692520124566,0.0018469975385686246,0.0005701979235682975,-0.0005701979235682975
1589988202.703322,-0.0893904038425508,-4.501828788472348,8.71268484611061,0.4088888888888889,0.4155555555555556,-0.6844444444444444,0.00601301169222902,-0.004030840003267252,0.002940009220770796
1589988202.713322,-0.08224642741564613,-4.523260717753062,8.626957128987753,0.4088888888888889,0.4155555555555556,-0.6844444444444444,-0.0002212838244883041,-0.00013440530531892442,-0.0009564254771775322
1589988202.723322,-0.0793784639746635,-4.5293784639746635,8.641243072050674,0.4088888888888889,0.4155555555555556,-0.6844444444444444,-0.0012942279711567215,0.0009552326567229456,-0.001090830782496456
1589988202.733322,-0.07245991686460808,-4.522459916864608,8.655080166270784,0.4088888888888889,0.4155555555555556,-0.6844444444444444,-0.0035583172184968275,-0.0005541601748371248,-0.001090830782496456
1589988202.743322,-0.08,-4.51,8.669710930880038,0.4011111111111111,0.4044444444444445,-0.6855555555555556,0.0010592982330641652,-0.003272492347489368,-0.003225193523340932
1589988202.753322,-0.07970443231859085,-4.509704432318591,8.648226593911545,0.4011111111111111,0.4044444444444445,-0.6855555555555556,-0.0011875550800541186,-0.0032402509149701475,-3.224143251922083e-05
1589988202.7633219,-0.06964852121731677,-4.50105443634805,8.590351478782683,0.4011111111111111,0.4044444444444445,-0.6855555555555556,-0.004440003905094876,-0.002181661564992912,-0.0010141500073874037
1589988202.7733219,-0.0605987068193293,-4.531197413638659,8.598203879542012,0.4011111111111111,0.4044444444444445,-0.6855555555555556,-0.006414367129335745,-0.002051043999349922,0.000960213216853466
1589988202.7833219,-0.06742992556882034,-4.544859851137641,8.57771022329354,0.4011111111111111,0.4044444444444445,-0.6855555555555556,-0.004924026390553392,-0.0005607032605675689,-0.0005301275219288871
1589988202.7933218,-0.08,-4.539520622238683,8.670479377761316,0.4088888888888889,0.43,-0.6977777777777778,0.004380753797268764,0.001090830782496456,0.0011082614497793962
1589988202.8033218,-0.08101635413990924,-4.506950937580272,8.691869166880725,0.4088888888888889,0.43,-0.6977777777777778,0.005121552797963068,0.0012016978206695267,0.002181661564992912
1589988202.8133218,-0.0899946485144276,-4.480016054456717,8.620042811884579,0.4088888888888889,0.43,-0.6977777777777778,0.0021834128345512484,0.0021810778084734666,0.002181661564992912
1589988202.8233218,-0.09,-4.501681589255736,8.669439470248088,0.4088888888888889,0.43,-0.6977777777777778,-0.0011519750932855223,0.001090830782496456,-6.114431078906641e-05
1589988202.8333218,-0.09,-4.5251527700055965,8.661615743331469,0.4088888888888889,0.43,-0.6977777777777778,-0.002005411308735044,0.001090830782496456,-0.000914580526238588
1589988202.8433218,-0.08314613451954364,-4.53,8.666853865480457,0.42716586350343916,0.42466921573742283,-0.678739262554288,-0.0006863800759585798,-0.00040445070653787616,0.00040445070653787616
1589988202.8533218,-0.08938018854650344,-4.501859434360489,8.698140565639509,0.4355555555555555,0.4222222222222222,-0.67,0.003069659523643995,-0.001090830782496456,0.001090830782496456
1589988202.8633218,-0.09,-4.5,8.62184896385883,0.4355555555555555,0.4222222222222222,-0.67,0.0001725084963336925,-0.001090830782496456,0.001090830782496456
1589988202.8733218,-0.07540555967806382,-4.514594440321936,8.619188880643874,0.4355555555555555,0.4222222222222222,-0.67,-0.005070846971615324,-0.00029482754467268207,0.00029482754467268207
1589988202.8833218,-0.08319638321649904,-4.52,8.6431963832165,0.4355555555555555,0.4222222222222222,-0.67,-0.004385731540452225,-0.0021592531545265112,0.000719751051508837
1589988202.8933218,-0.0802695084752307,-4.539460983049539,8.669460983049538,0.4139322410560682,0.41032939924750417,-0.6624318399251795,-8.819644227760085e-05,0.0020346674945302444,2.9398814092533544e-05
1589988202.9033217,-0.08982866266323515,-4.549828662663235,8.679828662663235,0.4133333333333333,0.41,-0.6622222222222223,0.0021442815567661007,-0.0042511831053053915,-0.0010721407783830504
1589988202.9133217,-0.08052954784437434,-4.509470452155625,8.592118191377498,0.4133333333333333,0.41,-0.6622222222222223,0.004247793712096189,0.001090830782496456,-0.0020661321471032766
1589988202.9233217,-0.08935036803364879,-4.500649631966351,8.627401472134595,0.4133333333333333,0.41,-0.6622222222222223,0.002323389274230832,0.001090830782496456,-0.00014172770923792004
1589988202.9333217,-0.0829834762979684,-4.521049571106095,8.665082618510159,0.4133333333333333,0.41,-0.6622222222222223,-0.0024106424591823264,0.0003254467784672497,0.0
1589988202.9433217,-0.08,-4.526212906685735,8.676212906685734,0.40870466372700903,0.4078960592698526,-0.6790537480634012,-0.003950215333647114,-0.0004131077963387097,0.0004131077963387097
1589988202.9533217,-0.07994321585164244,-4.520056784148357,8.669545726813139,0.4011111111111111,0.4044444444444445,-0.7066666666666667,-0.003260103968092111,-0.0010722482134005703,0.001090830782496456
1589988202.9633217,-0.07010050365261583,-4.529899496347385,8.590603021915694,0.4011111111111111,0.4044444444444445,-0.7066666666666667,-0.0011127572781017888,0.002148771821584913,0.0010469777912857903
1589988202.9733217,-0.07961613503334997,-4.520383864966649,8.6476968102001,0.4011111111111111,0.4044444444444445,-0.7066666666666667,-0.0031887460031006024,-0.000965211265913308,-0.0031049996587118375
1589988202.9833217,-0.07215548322971684,-4.527844516770283,8.665689033540566,0.4011111111111111,0.4044444444444445,-0.7066666666666667,-0.003272492347489368,-0.00023512674581299925,0.00015032379924445876
1589988202.9933217,-0.07,-4.539070163587771,8.67907016358777,0.41925143828665223,0.3983976687192641,-0.6945731152163059,-0.0042618937118712305,0.0019788027287637256,-0.0008879719462672696
1589988203.0033216,-0.08817061455917152,-4.5309146927204145,8.634573463602072,0.4211111111111111,0.3977777777777778,-0.6933333333333334,-0.0023812165601835664,-0.001782551574611603,0.0008912757873058015
1589988203.0133216,-0.07155565612322412,-4.523851885374408,8.59311131224645,0.4211111111111111,0.3977777777777778,-0.6933333333333334,-0.0001696957586191975,-0.002181661564992912,-0.00025047975508602025
1589988203.0233216,-0.0676767548321465,-4.504646490335707,8.623737283825026,0.4211111111111111,0.3977777777777778,-0.6933333333333334,0.0027656388786132177,-0.0005068534688761508,-0.0002534267344380754
1589988203.0333216,-0.06394801487186297,-4.506051985128137,8.664207940512549,0.4211111111111111,0.3977777777777778,-0.6933333333333334,0.0006318156782963141,-0.002640676669193054,0.0006601691672982635
1589988203.0433216,-0.0799002630425252,-4.503366578985825,8.68,0.4130035965382305,0.4095705262474224,-0.6778553509669248,-0.0025380187496006614,-0.002192541179329516,0.001090830782496456
1589988203.0533216,-0.06142491268917345,-4.5381001164144354,8.651424912689174,0.4088888888888889,0.4155555555555556,-0.67,-0.003272492347489368,0.0009872082075817752,-0.0009872082075817752
1589988203.0633216,-0.05051617456769792,-4.5305161745676985,8.583613221973886,0.4088888888888889,0.4155555555555556,-0.67,-0.002237967475751581,5.6305910758668986e-05,0.000978218960979118
1589988203.0733216,-0.06869793259166922,-4.51130206740833,8.645442764070843,0.4088888888888889,0.4155555555555556,-0.67,-0.003201475586994738,0.003059442066005478,-0.001968611283509022
1589988203.0833216,-0.08491329919865999,-4.52491329919866,8.66491329919866,0.4088888888888889,0.4155555555555556,-0.67,-0.0008323094723176605,1.8915180593758688e-05,-0.002181661564992912
1589988203.0933216,-0.08146096620955454,-4.5129219324191086,8.68707806758089,0.4126840150179757,0.40037505103920806,-0.663358529274098,-0.00465732045569765,-0.001090830782496456,-0.002181661564992912
