time,acc_x,acc_y,acc_z,mag_x,mag_y,mag_z,gyr_x,gyr_y,gyr_z
1589988211.304126,-3.89,-0.9,8.8,0.3055555555555556,-0.3622222222222222,-0.6055555555555555,-0.003272492347489368,0.004363323129985824,0.002181661564992912
1589988211.314126,-3.8946194414712463,-0.89,8.84807083779313,0.3055555555555556,-0.3622222222222222,-0.6055555555555555,-0.0034829312994575953,0.0013842947260058656,-0.00029346394350940954
1589988211.324126,-3.8829016985067706,-0.89,8.878705095520312,0.3065227883911459,-0.36399548242080443,-0.6089408704801215,-0.0014073569877674206,0.0017068722570864653,-0.0009325676798609738
1589988211.334126,-3.893486192198137,-0.8965138078018626,8.920229288297206,0.31222222222222223,-0.3744444444444445,-0.6288888888888889,-0.003272492347489368,-0.001090830782496456,0.0014210924123074574
1589988211.344126,-3.877471658006613,-0.9049433160132263,8.879773264052906,0.31222222222222223,-0.3744444444444445,-0.6288888888888889,-0.003272492347489368,-0.0005392321274834866,0.0035359251474663695
1589988211.354126,-3.885909906032566,-0.89,8.839887382540708,0.31222222222222223,-0.3744444444444445,-0.6288888888888889,-0.003272492347489368,0.0006569554013227347,-0.0002107953610247079
1589988211.364126,-3.9076050942668057,-0.8923949057331942,8.889159245865553,0.31222222222222223,-0.3744444444444445,-0.6288888888888889,-0.003272492347489368,0.0002612436894945487,-0.0016591741860038146
1589988211.374126,-3.901609896942582,-0.8983901030574177,8.93712082445934,0.31222222222222223,-0.3744444444444445,-0.6288888888888889,-0.003272492347489368,0.0009152182683348861,-0.00035122502832313977
1589988211.384126,-3.886699490232087,-0.89,8.933300509767912,0.32,-0.3744444444444445,-0.6055555555555555,-0.002361676447631405,0.0014508605477734423,0.0018216317997159256
1589988211.394126,-3.873574346967819,-0.89,8.892810448514895,0.32,-0.3744444444444445,-0.6055555555555555,-0.00171288926756146,0.003662393117471345,0.0
1589988211.404126,-3.8836022518916407,-0.89,8.811613511349844,0.32,-0.3744444444444445,-0.6055555555555555,-0.0012668375673281541,0.0031844889550735186,-0.0007858894499415367
1589988211.414126,-3.8868661701894647,-0.8868661701894645,8.856267659621071,0.32,-0.3744444444444445,-0.6055555555555555,-0.004428610505151119,0.0017745263873838965,-0.0011561181576617513
1589988211.424126,-3.88,-0.88,8.873586246917162,0.31930267421055175,-0.37384673662491746,-0.6036628141270531,-0.0023772609915365967,0.0030768929209456833,0.0009930310692246136
1589988211.434126,-3.88,-0.88,8.908356925245073,0.3125417089801248,-0.36805162357026566,-0.5853116227873227,-0.004273707303954944,0.0011804466085273352,4.480791301543952e-05
1589988211.444126,-3.8798131191067844,-0.89,8.850186880893215,0.31222222222222223,-0.36777777777777776,-0.5844444444444444,0.0030048810376397594,-0.0005556081627972383,0.0002676113098496088
1589988211.454126,-3.908368111107329,-0.89,8.821631888892671,0.31222222222222223,-0.36777777777777776,-0.5844444444444444,0.002226164430936405,0.0010018250506094695,0.0010463279165529628
1589988211.4641259,-3.89,-0.87,8.852606655510893,0.31222222222222223,-0.36777777777777776,-0.5844444444444444,0.0008530260211942028,0.0005686840141294685,0.0005686840141294685
1589988211.4741259,-3.89,-0.87,8.859842324080942,0.31222222222222223,-0.36777777777777776,-0.5844444444444444,0.0032208930236395004,0.0021472620157596666,0.0021472620157596666
1589988211.4841259,-3.8832164321735325,-0.8696492965205977,8.913567135652935,0.3055555555555556,-0.36777777777777776,-0.6077777777777778,0.0007399724600263222,0.0007017166449402674,0.001090830782496456
1589988211.4941258,-3.8932906320839265,-0.89,8.87367494332859,0.3055555555555556,-0.36777777777777776,-0.6077777777777778,0.0,0.002181661564992912,0.001090830782496456
1589988211.5041258,-3.907298924350405,-0.89,8.845546235226418,0.3055555555555556,-0.36777777777777776,-0.6077777777777778,-0.0007961891360534753,0.0029778507010463874,0.0006927362144697182
1589988211.5141258,-3.909514294193293,-0.89,8.892621426451678,0.3055555555555556,-0.36777777777777776,-0.6077777777777778,-0.0013238017647310832,0.004363323129985824,0.00028595326675394286
1589988211.5241258,-3.8830625288265135,-0.89,8.906125057653028,0.3036840101615749,-0.36777777777777776,-0.6065867943452447,0.0009237957466842557,0.004029253058361423,0.0005897256750598552
1589988211.5341258,-3.8965838417841363,-0.8831676835682727,8.943416158215863,0.2933333333333333,-0.36777777777777776,-0.6,0.0,0.002181661564992912,-0.00143637145704446
1589988211.5441258,-3.894357075645379,-0.874357075645379,8.915143394836967,0.2933333333333333,-0.36777777777777776,-0.6,0.00047528322356450747,0.0014687367296461508,0.00023764161178225373
1589988211.5541258,-3.9089077462506263,-0.89,8.792184507498748,0.2933333333333333,-0.36777777777777776,-0.6,0.002181661564992912,-0.0012099771837078754,0.001090830782496456
1589988211.5641258,-3.9,-0.8876354789210144,8.8265516475529,0.2933333333333333,-0.36777777777777776,-0.6,0.001407873851347136,-0.0011499446134652107,0.0008329015446145306
1589988211.5741258,-3.9,-0.8807531945965681,8.885272362175977,0.2933333333333333,-0.36827990750882317,-0.6,-0.0010086699973818087,0.002181661564992912,0.0
1589988211.5841258,-3.9,-0.8884098211025921,8.938868747718145,0.2933333333333333,-0.373384325179506,-0.6,-0.00017346160909687154,0.002181661564992912,0.0
1589988211.5941257,-3.897653561335098,-0.89,8.92826780667549,0.2933333333333333,-0.3744444444444445,-0.6,0.001090830782496456,-0.001669748060009958,0.001925704812501435
1589988211.6041257,-3.8826487317998066,-0.89,8.853243658999034,0.2933333333333333,-0.3744444444444445,-0.6,0.001090830782496456,0.0016037979286316084,0.0002889318181806518
1589988211.6141257,-3.9,-0.89,8.89,0.2933333333333333,-0.3744444444444445,-0.6,0.0019815580828179474,0.0002001034821749644,0.004653739983782422
1589988211.6241257,-3.8989624644915746,-0.8889624644915746,8.891037535508426,0.29471671401123395,-0.37409859927496936,-0.6010375355084254,0.0010342419989702739,0.001147419566022638,0.0010342419989702739
1589988211.6341257,-3.8819304871513514,-0.8757914614540536,8.908069512848648,0.32,-0.36777777777777776,-0.62,-0.00021058348099077984,0.002392245045983692,0.0004211669619815597
1589988211.6441257,-3.89,-0.9,8.87125069637883,0.32,-0.36777777777777776,-0.62,-0.00023554099980621114,0.003842685535949531,0.001326371782302667
1589988211.6541257,-3.892076330418387,-0.8958473391632262,8.806610643347094,0.32,-0.36777777777777776,-0.62,0.002181661564992912,0.004548183858478201,-0.0008643382689954364
1589988211.6641257,-3.8988938916160074,-0.8822122167679854,8.861151132928057,0.32,-0.36777777777777776,-0.62,0.002181661564992912,0.0015734616121111226,-0.00012065770740366671
1589988211.6741257,-3.890316921997427,-0.8903169219974272,8.891584609987136,0.31954222378149405,-0.3679890591093959,-0.6193661560051456,0.0011599724365852267,0.0,-0.0010216891284076852
1589988211.6841257,-3.8953349547929994,-0.8976674773964998,8.930669909586,0.3055555555555556,-0.3744444444444445,-0.6,0.003272492347489368,-0.0007633162370300506,0.0008363920368197725
1589988211.6941257,-3.88,-0.8927182589698345,8.880972187211158,0.3055555555555556,-0.3744444444444445,-0.6,0.0026794602356708594,-0.0023829441797616055,0.0
1589988211.7041256,-3.8818960666840323,-0.8962078666319354,8.83758426673613,0.3055555555555556,-0.3744444444444445,-0.6,0.000677173201574773,0.0,0.00020682879046084144
1589988211.7141256,-3.8879932565119124,-0.8840134869761754,8.87802697395235,0.3055555555555556,-0.3744444444444445,-0.6,-0.00021522375474428948,0.0,0.0008719290255584143
1589988211.7241256,-3.8802228685760864,-0.8995542628478269,8.909108525695654,0.3055555555555556,-0.3744444444444445,-0.6,0.0031752475861908215,0.0,2.4311190324636644e-05
1589988211.7341256,-3.8896716758065666,-0.8903283241934336,8.900328324193433,0.3055555555555556,-0.36262350734752985,-0.6,0.003272492347489368,-0.001055016168812896,-0.001055016168812896
1589988211.7441256,-3.8915326900833995,-0.8815326900833993,8.89854233883241,0.3055555555555556,-0.3622222222222222,-0.6,0.0020144710126930123,0.0016800899080932129,0.002181661564992912
1589988211.7541256,-3.8979159310890608,-0.8879159310890608,8.80917696475315,0.3055555555555556,-0.3622222222222222,-0.6,0.0013181674345861022,-0.00040882082622751767,0.002181661564992912
1589988211.7641256,-3.9,-0.8800352746128611,8.86968252848425,0.3055555555555556,-0.3622222222222222,-0.6,3.847863354955851e-06,-3.847863354955851e-06,7.695726709911702e-06
1589988211.7741256,-3.9,-0.8870722555564946,8.898289022225978,0.3055555555555556,-0.3622222222222222,-0.6,-0.0007714634062705858,0.0007714634062705858,-0.0007714634062705858
1589988211.7841256,-3.9,-0.8998554959570891,8.929710991914177,0.3055555555555556,-0.3622222222222222,-0.6197109919141782,0.003209440564208411,1.5762945820239297e-05,-0.001090830782496456
1589988211.7941256,-3.898724003724839,-0.88,8.912136052147751,0.3055555555555556,-0.3622222222222222,-0.62,0.0036900611520781596,0.0001391896015295972,-0.0001391896015295972
1589988211.8041255,-3.8920081350643563,-0.8810040675321781,8.79502033766089,0.3055555555555556,-0.3622222222222222,-0.62,0.006325931140617715,0.001200357559676966,-0.0006527236737744158
1589988211.8141255,-3.907588454894969,-0.8887942274474843,8.833971137237421,0.3055555555555556,-0.3622222222222222,-0.62,0.004626381893380523,0.0020501321832955624,0.00274637482069997
1589988211.8241255,-3.8833571321208478,-0.8722380880805651,8.902166691718023,0.3055555555555556,-0.3622222222222222,-0.62,0.0014570370883292883,0.00024413753722188824,-0.0015713177219381915
1589988211.8341255,-3.8969001127395715,-0.8869001127395716,8.935350169109357,0.29898328949016656,-0.3791223349617938,-0.6077943630214205,0.0029343471028949763,-0.0009217581601992601,0.0005836129156048687
1589988211.8441255,-3.896637882695974,-0.8844252551306493,8.88123584165078,0.2977777777777777,-0.38222222222222224,-0.6055555555555555,-0.0008494705566508232,-0.001090830782496456,-0.0006081103308051903
1589988211.8541255,-3.9165635035801794,-0.8982817517900897,8.78859124104955,0.2977777777777777,-0.38222222222222224,-0.6055555555555555,0.0,-0.001090830782496456,0.0009033989785624954
1589988211.8641255,-3.9,-0.89,8.837907638837537,0.2977777777777777,-0.38222222222222224,-0.6055555555555555,0.0001437649310141469,-0.0005157710584398683,0.0
1589988211.8741255,-3.9,-0.89,8.884431708940324,0.2977777777777777,-0.38222222222222224,-0.6055555555555555,0.0009895963942665475,0.0028675547945697343,0.0
1589988211.8841255,-3.89,-0.8640175828119042,8.896026374217858,0.3244444444444444,-0.3622222222222222,-0.6,0.0026199118652382976,-0.0023959917469985963,0.001090830782496456
1589988211.8941255,-3.8931996552423445,-0.8815998276211722,8.902401896167106,0.3244444444444444,-0.3622222222222222,-0.6,0.004188809008399555,0.0009163166609101872,0.0012653449040827248
1589988211.9041255,-3.91,-0.89,8.827032882011606,0.3244444444444444,-0.3622222222222222,-0.6,0.0025757426470060176,0.0,0.0019494116648317952
1589988211.9141254,-3.907585195854016,-0.891207402072992,8.894829608291968,0.3244444444444444,-0.3622222222222222,-0.6,0.0003951214044208955,0.00013170713480696516,0.001090830782496456
1589988211.9241254,-3.8967976646691187,-0.8966011676654407,8.916404670661763,0.3244444444444444,-0.3622222222222222,-0.6,0.002160227066964896,0.0007200756889882986,0.001090830782496456
1589988211.9341254,-3.89,-0.9064850967768906,8.94297019355378,0.3071508530394028,-0.3622222222222222,-0.6,0.001150249389979123,-0.00032399785584370723,0.001090830782496456
1589988211.9441254,-3.8998806717737184,-0.8803579846788451,8.870954625810253,0.2977777777777777,-0.3622222222222222,-0.6,-0.0010778140922515808,-1.3016690244875171e-05,-0.0010647974020067056
1589988211.9541254,-3.8911425766372703,-0.86228515327454,8.78457030654908,0.2977777777777777,-0.3622222222222222,-0.6,-0.001090830782496456,0.004114051576526743,0.00012463577672954071
1589988211.9641254,-3.8982422939553465,-0.8764845879106928,8.812969175821387,0.2977777777777777,-0.3622222222222222,-0.6,-0.001090830782496456,0.0025651335370105565,0.0008990947964876336
1589988211.9741254,-3.9,-0.88,8.856717859220476,0.2977777777777777,-0.3622222222222222,-0.6,-0.002092155060123148,0.0011803372873662203,0.00409480361537653
1589988211.9841254,-3.9075495947510617,-0.8950991895021227,8.890198379004246,0.29442240233286154,-0.35718915905484805,-0.6041942193061451,-0.0005345954950266305,-0.0013797683224529664,0.0027162570600195424
1589988211.9941254,-3.8815269815269815,-0.8907634907634908,8.913128583128582,0.2933333333333333,-0.3555555555555556,-0.6055555555555555,-8.328392269674462e-05,-0.001090830782496456,0.0
1589988212.0041254,-3.8967942487942486,-0.8983971243971244,8.84442588042588,0.2933333333333333,-0.3555555555555556,-0.6055555555555555,-0.0009159841776835287,-0.001090830782496456,0.0
1589988212.0141253,-3.91,-0.89,8.90675302190884,0.2933333333333333,-0.3555555555555556,-0.6055555555555555,-0.002549981773644644,0.003395265750373279,0.00012277340288391081
1589988212.0241253,-3.91,-0.89,8.946361747670613,0.2933333333333333,-0.3555555555555556,-0.6055555555555555,-0.004710302639464755,0.004115372705646649,0.0008428803581572811
1589988212.0341253,-3.909896667179803,-0.8802066656403941,8.96,0.2977777777777777,-0.3622222222222222,-0.6144444444444445,-0.004363323129985824,2.2543724222621493e-05,0.0
1589988212.0441253,-3.9018257389162563,-0.8963485221674877,8.96,0.2977777777777777,-0.3622222222222222,-0.6144444444444445,-0.004363323129985824,0.0017833471228621248,0.0
1589988212.0541253,-3.89,-0.8893134465129738,8.802746213948105,0.2977777777777777,-0.3622222222222222,-0.6144444444444445,-0.002181661564992912,0.0001497827354956791,0.001090830782496456
1589988212.0641253,-3.89,-0.88,8.840882466230127,0.2977777777777777,-0.3622222222222222,-0.6144444444444445,-0.002326054764243263,0.002181661564992912,0.0011389618489132396
1589988212.0741253,-3.89,-0.88,8.852024332903877,0.2977777777777777,-0.3622222222222222,-0.6144444444444445,-0.004149138435573026,0.002181661564992912,0.001746656406023161
1589988212.0841253,-3.8369988276670575,-0.88,8.89854630715123,0.2977777777777777,-0.36489904910772436,-0.6032017715253355,-0.00755652883208858,0.0037584427546976367,0.002181661564992912
1589988212.0941253,-3.4870626810428065,-0.8448475217251368,8.922423760862568,0.2977777777777777,-0.36777777777777776,-0.5911111111111111,-0.011734747311631039,0.008649604361087172,-0.0003746987938910017
1589988212.1041253,-3.1373112494285613,-0.6698013151879594,8.737271512466153,0.2977777777777777,-0.36777777777777776,-0.5911111111111111,-0.019643623345295746,0.019100375269137403,-0.02102341668659045
1589988212.1141253,-3.0432743600053613,-0.6867509142780553,8.820176919983917,0.2977777777777777,-0.36777777777777776,-0.5911111111111111,-0.035651266540243275,0.03856382462241468,-0.08479379168529656
1589988212.1241252,-2.9421198558244543,-0.7005299639561136,8.880264981978058,0.2977777777777777,-0.36777777777777776,-0.5911111111111111,-0.03935662331941377,0.04265802071675024,-0.18565735119978657
1589988212.1341252,-2.975385195727097,-0.6433836868366455,8.724305138800775,0.30328214155754835,-0.3638460893636559,-0.5974018125737061,-0.04081387859962358,0.02555872579009901,-0.2084664953910311
1589988212.1441252,-3.007335840122554,-0.5246528793259523,8.616660399693615,0.3055555555555556,-0.3622222222222222,-0.6,-0.0934553568616931,-0.038187280835917825,-0.2161298023144888
1589988212.1541252,-2.9495915133025616,-0.5477553041858991,8.791225460092315,0.3055555555555556,-0.3622222222222222,-0.6,-0.16734269958576403,-0.09385622237703307,-0.19786324981056003
1589988212.1641252,-2.2491929897767577,-1.3487189651575215,9.593724598372626,0.3055555555555556,-0.3622222222222222,-0.6,-0.14897780737304728,-0.07459693985853513,-0.11202684203835384
1589988212.1741252,-1.7853959941581472,-1.479982265804298,9.348699770498644,0.3055555555555556,-0.3622222222222222,-0.6,0.07152870802164255,0.0504522095644275,-0.04138839121927569
1589988212.1841252,-1.8422290277472813,-1.0317783222197825,8.15869688319793,0.31222222222222223,-0.35,-0.6077777777777778,0.18654796027887194,0.13113616179914908,-0.022472984885835823
1589988212.1941252,-1.96340814274653,-1.0414726514197223,8.696732153794594,0.31222222222222223,-0.35,-0.6077777777777778,0.03797099874624288,0.02538743472966218,-0.05578383391272421
1589988212.2041252,-2.074956024971534,-1.0539648199772274,9.178920844948761,0.31222222222222223,-0.35,-0.6077777777777778,-0.08926065836962568,-0.06427967406416261,-0.08497667734276816
1589988212.2141252,-2.1161266637873495,-1.0869013310298796,9.253027994817229,0.31222222222222223,-0.35,-0.6077777777777778,-0.06051813027021142,-0.03643534996785504,-0.08407847333966145
1589988212.2241251,-2.2045337914668512,-0.9772882780441983,8.950042764621545,0.31222222222222223,-0.35,-0.6077777777777778,0.03542260888634516,0.024585218274955647,-0.07579734252838911
1589988212.2341251,-2.36,-0.94,8.93,0.32,-0.36777777777777776,-0.6,0.02617993877991494,0.029452431127404314,-0.08617563181722003
1589988212.2441251,-2.3692540071506047,-0.9770160286024183,9.105826135861486,0.32,-0.36777777777777776,-0.6,-0.017226651423768797,-0.0048690588010898185,-0.10838365471212796
1589988212.254125,-2.400294833169537,-0.9795577502456942,8.937346501474165,0.32,-0.36777777777777776,-0.6,-0.007314202380443096,0.0057596863546627705,-0.12785233072000782
1589988212.264125,-2.413809792327893,-0.9592853115081602,8.815711869048961,0.32,-0.36777777777777776,-0.6,0.007428331093674046,0.019765093155074055,-0.1381721041518898
1589988212.274125,-2.42,-0.9567678932952245,8.793839466476122,0.32,-0.36777777777777776,-0.6,0.011966012270729253,0.02248862561037382,-0.1606171357208331
1589988212.284125,-2.4394033018131887,-1.0182099054395657,8.829403301813189,0.3318575733302819,-0.35592020444749595,-0.605389806059219,0.00032544837501688635,0.008026353527495457,-0.19447763396682513
1589988212.294125,-2.4483393354900405,-1.0116606645099595,8.855018006470122,0.3322222222222222,-0.3555555555555556,-0.6055555555555555,0.0063677627006709335,0.014003578178146125,-0.2170910393263088
1589988212.304125,-2.469116631769566,-1.000441684115217,8.783533472921736,0.3322222222222222,-0.3555555555555556,-0.6055555555555555,0.013891718595042861,0.019442233033328836,-0.24959021287583513
1589988212.314125,-2.47,-1.0155300451879627,8.865415248533795,0.3322222222222222,-0.3555555555555556,-0.6055555555555555,0.01248673503799486,0.01794088895047714,-0.2763020569910709
1589988212.324125,-2.515631725487245,-1.02,8.92042115032483,0.3322222222222222,-0.3555555555555556,-0.6055555555555555,0.011169530427129098,0.016623684339611377,-0.3101634652196999
1589988212.334125,-2.5807778746488426,-0.9815557492976847,8.987666376053474,0.3055555555555556,-0.35,-0.6144444444444445,0.01308996938995747,0.02941000464681027,-0.35944712940200535
1589988212.344125,-2.594321418192386,-1.008642836384772,8.947035745422841,0.3055555555555556,-0.35,-0.6144444444444445,0.01308996938995747,0.028671318936741342,-0.38825587209469326
1589988212.354125,-2.608973584349556,-1.011026415650444,8.876158493902663,0.3055555555555556,-0.35,-0.6144444444444445,0.00819563837104538,0.027382734141125437,-0.44046841153127847
1589988212.364125,-2.627782066710565,-1.0455641334211303,8.887782066710566,0.3055555555555556,-0.35,-0.6144444444444445,0.00860567676468969,0.0321200759984839,-0.48579313332156293
1589988212.374125,-2.6065657012773493,-1.05,8.827508536739598,0.3055555555555556,-0.35,-0.6144444444444445,0.010430836554163974,0.041245874945855306,-0.5292181337427324
1589988212.384125,-2.650734451924043,-1.05,8.822683612981011,0.3266949105239068,-0.35422787099367026,-0.6236048315973967,0.012983659145908282,0.04224966375256242,-0.567632588281662
1589988212.394125,-2.68,-1.0846831281732843,8.803987653870038,0.3388888888888889,-0.3566666666666667,-0.6288888888888889,0.01890997815303998,0.04618074771545138,-0.6299404128453473
1589988212.404125,-2.670590778451939,-1.1276368861922423,8.743544670711637,0.3388888888888889,-0.3566666666666667,-0.6288888888888889,0.021687727785726904,0.04690572364734761,-0.680153424694535
1589988212.414125,-2.6907861348661153,-1.1577148464881535,8.843930674330577,0.3388888888888889,-0.3566666666666667,-0.6288888888888889,0.02408403122603725,0.04690572364734761,-0.7153596931003313
1589988212.424125,-2.6863812817223494,-1.1631906408611745,8.90361871827765,0.3388888888888889,-0.3566666666666667,-0.6288888888888889,0.02657467970895934,0.049134081214658884,-0.7661623004228799
1589988212.434125,-2.6893705262511136,-1.1974821050044544,8.928741052502227,0.35554760222420206,-0.3504196491659242,-0.6288888888888889,0.030337267107283163,0.054266879387999324,-0.831258296702113
1589988212.444125,-2.69,-1.2309010282527448,8.89137371468407,0.3566666666666667,-0.35,-0.6288888888888889,0.0297005670891786,0.06212579251132233,-0.8707214259008421
1589988212.454125,-2.6984322814856188,-1.2821614074280927,8.837838592571908,0.3566666666666667,-0.35,-0.6288888888888889,0.026692973464048014,0.06343919694617214,-0.926462414091956
1589988212.464125,-2.6786018887558165,-1.3185308149922448,8.872796222488368,0.3566666666666667,-0.35,-0.6288888888888889,0.02617993877991494,0.06560235722803834,-0.9698545582481212
1589988212.474125,-2.6169820508953006,-1.3358908832338556,8.872327350298434,0.3566666666666667,-0.35,-0.6288888888888889,0.02682253445667313,0.06911106043931656,-1.014131362619438
1589988212.484125,-2.5893393491486667,-1.3586786982973338,8.822642603405333,0.3639306048934076,-0.35,-0.6423790598814076,0.03134582937835055,0.07396029572422401,-1.0820616004724368
1589988212.494125,-2.6167283091403193,-1.3934103864253993,8.813317922714921,0.3644444444444445,-0.35,-0.6433333333333333,0.03382079737047287,0.0785499025659103,-1.123279509670618
1589988212.5041249,-2.603348463970171,-1.4366515360298289,8.703393855880684,0.3644444444444445,-0.35,-0.6433333333333333,0.03684473943336331,0.07781424631452266,-1.1905536891107071
1589988212.5141249,-2.6272150558169414,-1.4808225837254119,8.826075279084707,0.3644444444444445,-0.35,-0.6433333333333333,0.03857259763650345,0.08115986313630823,-1.2344923197050226
1589988212.5241249,-2.6268593126169137,-1.4802889689253707,8.87028896892537,0.3644444444444445,-0.35,-0.6433333333333333,0.0435701880600624,0.08361985278476232,-1.2909762573176415
1589988212.5341249,-2.645299298402747,-1.4952992984027467,8.872649649201374,0.3981768423147734,-0.3282144930420792,-0.6433333333333333,0.04581489286485115,0.08882348961005102,-1.3442953047286756
1589988212.5441248,-2.66,-1.563143348747177,8.942000573538373,0.4177777777777778,-0.31555555555555553,-0.6433333333333333,0.04001785279501463,0.09066361238472953,-1.4128133187141805
1589988212.5541248,-2.7137881022189068,-1.59017053833209,8.842423795562185,0.4177777777777778,-0.31555555555555553,-0.6433333333333333,0.040003329640278036,0.09273921935842269,-1.4551085000777644
1589988212.5641248,-2.7566675100299993,-1.6500025300899988,8.80666751003,0.4177777777777778,-0.31555555555555553,-0.6433333333333333,0.04490609720444188,0.10290216379884122,-1.5089844223867996
1589988212.5741248,-2.7526123006292793,-1.66,8.839550797482882,0.4177777777777778,-0.31555555555555553,-0.6433333333333333,0.04017378194506287,0.10310800914257741,-1.5492955802002624
1589988212.5841248,-2.6886173231229216,-1.6950758153583305,8.87630686151875,0.42849538802615655,-0.2921716786500019,-0.6618455692168966,0.041048710820928126,0.10827736042177119,-1.593501361999353
1589988212.5941248,-2.6389802410890124,-1.7738355660397775,8.773348626831433,0.43,-0.2888888888888889,-0.6644444444444444,0.04682104362014794,0.11087290287807312,-1.6240195534695074
1589988212.6041248,-2.63,-1.8502353061537675,8.68115965010998,0.43,-0.2888888888888889,-0.6644444444444444,0.05081254840751383,0.11408073379230826,-1.6550451348487327
1589988212.6141248,-2.6388308325266214,-1.8953233301064858,8.72298499515973,0.43,-0.2888888888888889,-0.6644444444444444,0.0493424579863115,0.1135739377666169,-1.6832359800648835
1589988212.6241248,-2.6634396513610814,-1.9781321712036042,8.808132171203605,0.43,-0.2888888888888889,-0.6644444444444444,0.054201123859471,0.11600327070319665,-1.7009133159063907
1589988212.6341248,-2.67,-2.0385581622678397,8.868558162267838,0.4557054415118931,-0.2514017866840447,-0.6794392853263821,0.054580859149362934,0.1188219152430334,-1.7217926851692618
1589988212.6441247,-2.6670085194961266,-2.0429914805038734,8.87897444151162,0.4566666666666666,-0.25,-0.68,0.0545415391248228,0.11890055529211367,-1.7260113244826534
1589988212.6541247,-2.647123439667129,-2.075753120665742,8.851712898751734,0.4566666666666666,-0.25,-0.68,0.05348807799604016,0.1192517090017079,-1.739688249813278
1589988212.6641247,-2.605073840717405,-2.1971677167716774,8.787315398206488,0.4566666666666666,-0.25,-0.68,0.048826759675848465,0.11917729037411515,-1.7548538844092865
1589988212.6741247,-2.6,-2.22,8.807002019048397,0.4566666666666666,-0.25,-0.68,0.047232752638082375,0.12195576245916044,-1.7623479741533874
1589988212.6841247,-2.5843912453925633,-2.225202918202479,8.804797081797522,0.4769002374540848,-0.2297664292125819,-0.686937224269972,0.048040824314162636,0.12269632808869202,-1.7683695080797108
1589988212.6941247,-2.5043855620071063,-2.2956144379928936,8.74896654822775,0.4955555555555556,-0.2111111111111111,-0.6933333333333334,0.04829211578190881,0.12296831707003478,-1.777871346217698
1589988212.7041247,-2.5089762117398715,-2.354771454087846,8.68943330356418,0.4955555555555556,-0.2111111111111111,-0.6933333333333334,0.05052520592792304,0.12389604129661926,-1.7865574657794134
1589988212.7141247,-2.505061383061383,-2.3924693084693085,8.672469308469308,0.4955555555555556,-0.2111111111111111,-0.6933333333333334,0.05031959173261507,0.12571489975607253,-1.796584907065087
1589988212.7241247,-2.4635858637564243,-2.4396212043653636,8.759242408730728,0.4955555555555556,-0.2111111111111111,-0.6933333333333334,0.04908738521234052,0.12581603694690022,-1.811396132282172
1589988212.7341247,-2.489387019604188,-2.5308966352875384,8.886651443129214,0.5113103633972308,-0.16472195468840078,-0.7222171477097379,0.04908738521234052,0.12028979117728766,-1.8241984153855022
1589988212.7441247,-2.4714172907847605,-2.55,8.824251872354282,0.5155555555555555,-0.15222222222222226,-0.73,0.04908738521234052,0.13215158739224317,-1.838522289522719
1589988212.7541246,-2.46,-2.589624730328148,8.694900647212444,0.5155555555555555,-0.15222222222222226,-0.73,0.05427425028314829,0.14263154366536118,-1.8504198425134213
1589988212.7641246,-2.3872415966386553,-2.640421335200747,8.750842670401493,0.5155555555555555,-0.15222222222222226,-0.73,0.04593194583187113,0.136934809416479,-1.8619310927544304
1589988212.7741246,-2.3765890625,-2.6961234375000003,8.756821875,0.5155555555555555,-0.15222222222222226,-0.73,0.04722700740125477,0.13526301702956053,-1.8699798490486776
1589988212.7841246,-2.3730141833851772,-2.7339716332296455,8.756985816614822,0.5248699777086524,-0.12039794653247468,-0.7548384590749249,0.04832535083190814,0.13983522331215478,-1.879052728589874
1589988212.7941246,-2.3387890994082254,-2.763408175443831,8.799013625739718,0.5288888888888889,-0.10666666666666667,-0.7655555555555555,0.042038537484728716,0.13584998477942395,-1.8867899714736283
1589988212.8041246,-2.265575145464806,-2.782884970907039,8.71336271819721,0.5288888888888889,-0.10666666666666667,-0.7655555555555555,0.041766271242065785,0.13909154926100328,-1.8868225522116684
1589988212.8141246,-2.242534166754953,-2.8088012501324293,8.653732916622523,0.5288888888888889,-0.10666666666666667,-0.7655555555555555,0.043909666010286404,0.14659343094977548,-1.8853627901899102
1589988212.8241246,-2.2440631861689657,-2.8556208829862073,8.703431324479311,0.5288888888888889,-0.10666666666666667,-0.7655555555555555,0.04278124429930173,0.1500914231296988,-1.8797747447324011
1589988212.8341246,-2.230917101633358,-2.9072486950999266,8.81720463611646,0.526870467029635,-0.10717127213148013,-0.7529404189352191,0.04145156973486533,0.15103004324114194,-1.872761179097487
1589988212.8441246,-2.1876359269932757,-2.9446234390009605,8.789790585975025,0.5244444444444445,-0.10777777777777778,-0.7377777777777778,0.052547026817998825,0.1586862241835469,-1.8590106902082681
1589988212.8541245,-2.140657107834033,-2.9967144608298355,8.748100367742655,0.5244444444444445,-0.10777777777777778,-0.7377777777777778,0.04404766676820539,0.15110026244507582,-1.8448098912373418
1589988212.8641245,-2.1199898032403035,-3.029979606480607,8.759898032403036,0.5244444444444445,-0.10777777777777778,-0.7377777777777778,0.0185430110085039,0.13854107084672915,-1.8271271008603975
1589988212.8741245,-2.101020184805891,-3.050409168373489,8.695919260776435,0.5244444444444445,-0.10777777777777778,-0.7377777777777778,0.02626920547132016,0.15231580329916586,-1.7938596157811266
1589988212.8841245,-2.087465390725471,-3.1,8.742534609274529,0.5323298955207572,-0.10918589404140505,-0.7394675172941305,0.03045265504106189,0.16004543975554034,-1.763229802464279
1589988212.8941245,-2.060787749010447,-3.1096061254947767,8.69716630977873,0.5555555555555556,-0.11333333333333333,-0.7444444444444445,0.014051905042032407,0.15428810815803776,-1.7226712434749216
1589988212.9041245,-2.0464744145706852,-3.1394232437120553,8.62705117085863,0.5555555555555556,-0.11333333333333333,-0.7444444444444445,0.015334545306239206,0.15245755654081972,-1.6819210466998997
1589988212.9141245,-2.012817965482984,-3.157436406903403,8.657182034517016,0.5555555555555556,-0.11333333333333333,-0.7444444444444445,0.012558427860173658,0.13917804179854903,-1.641950057163526
1589988212.9241245,-1.9228335289703082,-3.100641176131006,8.699679411934497,0.5555555555555556,-0.11333333333333333,-0.7444444444444445,0.019769190482151068,0.13202549541510636,-1.6059826776990649
1589988212.9341245,-1.8332467733039162,-3.041623386651958,8.71081169332598,0.5453463259177544,-0.10771825703254274,-0.7541432126003554,0.0245879636094665,0.12630085240141437,-1.5702084213485688
1589988212.9441245,-1.8659653007150374,-3.1782610431563283,8.636695582737469,0.5333333333333333,-0.10111111111111112,-0.7655555555555555,0.028141541636000182,0.111124342516728,-1.5227390364781395
1589988212.9541245,-1.8968401579197585,-3.2765799210401205,8.67895905248145,0.5333333333333333,-0.10111111111111112,-0.7655555555555555,0.03341429407668468,0.10830854532813965,-1.4745112714920872
1589988212.9641244,-1.883460449067875,-3.3061582037284993,8.693841796271501,0.5333333333333333,-0.10111111111111112,-0.7655555555555555,0.03205316765570053,0.10304036557167688,-1.4288157515734043
1589988212.9741244,-1.857462739671872,-3.308731369835936,8.741977465902352,0.5333333333333333,-0.10111111111111112,-0.7655555555555555,0.03423091250775951,0.10172403493908332,-1.3817570556006311
1589988212.9841244,-1.813503686159389,-3.333120392300764,8.750255529239084,0.4950608800080062,-0.0996390936755216,-0.7184509976166913,0.03636567173587885,0.10001604999216013,-1.3223098997135607
1589988212.9941244,-1.8075846700193055,-3.410677360154444,8.790677360154444,0.4755555555555556,-0.09888888888888887,-0.6944444444444444,0.028551183443460276,0.08824646058611735,-1.264920376511507
1589988213.0041244,-1.7795835657481633,-3.3894447543308845,8.688334262992653,0.4755555555555556,-0.09888888888888887,-0.6944444444444444,0.02617993877991494,0.08066090999796582,-1.2262833784649798
1589988213.0141244,-1.75,-3.3736175692109596,8.640852707632877,0.4755555555555556,-0.09888888888888887,-0.6944444444444444,0.02617993877991494,0.075928775249701,-1.1756712995505938
1589988213.0241244,-1.6535724621370462,-3.313572462137046,8.661608090292292,0.4755555555555556,-0.09888888888888887,-0.6944444444444444,0.024865112197649288,0.07263767082772415,-1.1121022458256815
1589988213.0341244,-1.5488026405645345,-3.2195811518324606,8.607605281129068,0.48058552748058786,-0.07828995624351871,-0.6834264107038976,0.025494103446144122,0.06989809248533062,-1.0633313183857451
1589988213.0441244,-1.735456958166912,-3.3870122976665966,9.247161814168594,0.4988888888888889,-0.0033333333333333327,-0.6433333333333333,0.02428104591550348,0.0635509540853759,-0.9820007485538285
1589988213.0541244,-1.4416917084028937,-3.082450944811401,8.014532433282524,0.4988888888888889,-0.0033333333333333327,-0.6433333333333333,0.08194960276989724,-0.026726607817631157,-0.9258810476090414
1589988213.0641243,-1.3845499276410997,-2.897156295224313,8.156802460202604,0.4988888888888889,-0.0033333333333333327,-0.6433333333333333,0.07385847893894293,0.014612633400459582,-0.8607558637461408
1589988213.0741243,-1.4086442372731818,-3.0040672881804547,9.662354792224216,0.4988888888888889,-0.0033333333333333327,-0.6433333333333333,-0.059385234578930066,0.09628889040292306,-0.7946240773534465
1589988213.0841243,-1.3259064788960382,-3.0643510987009837,9.472060620776173,0.5026367699495052,0.03307465411265338,-0.6294126322510443,-0.05573849095467151,0.06598067290420118,-0.7317153262999215
1589988213.0941243,-1.2817352415026835,-2.9582647584973167,8.671824686940965,0.5066666666666667,0.07222222222222223,-0.6144444444444445,0.08461321348713266,0.07276498289490074,-0.6397849380130376
1589988213.1041243,-1.27,-2.97,8.93,0.5066666666666667,0.07222222222222223,-0.6144444444444445,0.09272061651219876,0.10690141668465268,-0.6065019150680295
1589988213.1141243,-1.4243430185633574,-3.1636303470540756,8.445122679580306,0.5066666666666667,0.07222222222222223,-0.6144444444444445,0.0020820429184719436,0.007188786155592562,-0.5532285657742373
1589988213.1241243,-1.389879455760662,-3.1862492043284534,8.454829328453215,0.5066666666666667,0.07222222222222223,-0.6144444444444445,0.03042270462497973,0.03145581719691284,-0.482173504536818
1589988213.1341243,-1.393294572384448,-3.24549095397408,8.629247409620945,0.5130892909344853,0.09550423519306489,-0.6200642406787857,0.015757149329996632,0.01266117690839798,-0.4199508245248442
1589988213.1441243,-1.4568101756889325,-3.398514224560778,8.862134575938644,0.5155555555555555,0.10444444444444444,-0.6222222222222222,0.033421491842892455,0.026598011132343245,-0.35811664257583375
1589988213.1541243,-1.458554682800227,-3.3704231622007184,8.769401007201663,0.5155555555555555,0.10444444444444444,-0.6222222222222222,0.018117304190297785,0.007570475499183309,-0.3196531857259686
1589988213.1641243,-1.4685511166061356,-3.3736241403291864,8.53797079051078,0.5155555555555555,0.10444444444444444,-0.6222222222222222,0.019334788068672396,0.0021502204181054092,-0.2592379036929364
1589988213.1741242,-1.5082928058460376,-3.469349880307421,8.571138969383897,0.5155555555555555,0.10444444444444444,-0.6222222222222222,0.03373590384985196,0.013648647370409541,-0.21935442951749254
1589988213.1841242,-1.5571941583806819,-3.583987482244318,8.877974964488637,0.5166244476010101,0.1063150055239899,-0.6209751815025253,0.019503781295972127,-0.003272492347489368,-0.16981525638113443
1589988213.1941242,-1.4970261952105126,-3.4681047808420504,8.642696464078846,0.5422222222222223,0.1511111111111111,-0.5911111111111111,0.0155960227355012,-0.0044221508504078254,-0.08685634719322208
1589988213.2041242,-1.5006876599922854,-3.5075835466563805,8.704302696637093,0.5422222222222223,0.1511111111111111,-0.5911111111111111,0.012487768982872512,-0.007391500289769442,-0.035656705727362674
1589988213.2141242,-1.4757716183051826,-3.4804982573367154,8.60204149394708,0.5422222222222223,0.1511111111111111,-0.5911111111111111,0.005682133024235855,-0.009991104710172276,0.04493618119077432
1589988213.2241242,-1.5017262000969775,-3.528680566779807,8.705178600290932,0.5422222222222223,0.1511111111111111,-0.5911111111111111,0.005830752352988574,-0.012192844671741405,0.10629755448487083
1589988213.2341242,-1.4938082117935971,-3.4944892336258273,8.59931897816777,0.5427588605046603,0.150037834546235,-0.6125766424086331,0.0009422548668666783,-0.02192804758665145,0.18045328995007542
1589988213.2441242,-1.5573803448199348,-3.5538085517118954,8.751425655135685,0.5433333333333333,0.14888888888888888,-0.6355555555555555,0.0024674216159870574,-0.023322894976832105,0.25242262895154
1589988213.2541242,-1.575406989132751,-3.5670349456637545,8.722209673982528,0.5433333333333333,0.14888888888888888,-0.6355555555555555,-0.001002039527667211,-0.029775868381579428,0.31258635849659844
1589988213.2641242,-1.579679548973213,-3.549679548973213,8.622917068325885,0.5433333333333333,0.14888888888888888,-0.6355555555555555,-0.00323753656305918,-0.036420485968125624,0.3780674570612581
1589988213.2741241,-1.556804828502227,-3.56948433471365,8.732679506211422,0.5433333333333333,0.14888888888888888,-0.6355555555555555,-0.005397903555700682,-0.04036073895236887,0.44222436741582805
1589988213.2841241,-1.5554792054074795,-3.575565099324065,8.775565099324064,0.5600874025535321,0.15184548933951217,-0.6325989551049322,-0.00993139301721566,-0.044714692509530626,0.5256773718622271
1589988213.2941241,-1.6,-3.5192449055857202,8.749697962234288,0.5811111111111111,0.15555555555555556,-0.6288888888888889,-0.014180800172453925,-0.05017821599483697,0.5857761302005968
1589988213.304124,-1.5879408800115196,-3.449901466685866,8.665684693394772,0.5811111111111111,0.15555555555555556,-0.6288888888888889,-0.016373210054662725,-0.051055179947720485,0.614715940645753
1589988213.314124,-1.586537856156243,-3.4489412482734254,8.656823744820276,0.5811111111111111,0.15555555555555556,-0.6288888888888889,-0.019183954020643,-0.05235987755982988,0.6699479635812795
1589988213.324124,-1.5895241937808007,-3.4490483875616014,8.704922043862934,0.5811111111111111,0.15555555555555556,-0.6288888888888889,-0.019660905288456505,-0.053476659545846635,0.6983912128329348
1589988213.334124,-1.5532611890832588,-3.3765223781665177,8.571957693305283,0.5811111111111111,0.15555555555555556,-0.6288888888888889,-0.02163874537795111,-0.05545449963534124,0.7181696137278808
1589988213.344124,-1.5663037010365934,-3.3289876632113553,8.755291364247949,0.6355555555555555,0.11333333333333333,-0.6577777777777778,-0.024630689921793753,-0.05821723514137153,0.7489891924944551
1589988213.354124,-1.5898942525024218,-3.2502114949951566,8.700317242492734,0.6355555555555555,0.11333333333333333,-0.6577777777777778,-0.02295358748263773,-0.055724652007743555,0.7680948292906945
1589988213.364124,-1.5644680699377975,-3.2420425258880354,8.708255297912917,0.6355555555555555,0.11333333333333333,-0.6577777777777778,-0.025237644671599477,-0.061648182979541666,0.7875473374254573
1589988213.374124,-1.5384247193910463,-3.178946910076119,8.665265449619405,0.6355555555555555,0.11333333333333333,-0.6577777777777778,-0.021185282029715067,-0.056666238522454664,0.8003830836038963
1589988213.384124,-1.6231473882323904,-3.2050597019530405,8.72752985097652,0.7563167511715845,0.05538743704983562,-0.6514475538140343,-0.027479370629638976,-0.06162542673823457,0.8162977770498152
1589988213.394124,-1.64,-3.1837723214285716,8.783113839285715,0.9111111111111112,-0.01888888888888889,-0.6433333333333333,-0.037165554366808656,-0.06153941338574871,0.8369709627196845
1589988213.404124,-1.6323860220651207,-3.1109650551628016,8.798579033097681,0.9111111111111112,-0.01888888888888889,-0.6433333333333333,-0.03963545398934647,-0.06586512502521812,0.8534391433117337
1589988213.414124,-1.6404532600791792,-3.104543912095015,8.745229457865396,0.9111111111111112,-0.01888888888888889,-0.6433333333333333,-0.03312170138414463,-0.06609445681834832,0.8738790642913726
1589988213.424124,-1.72,-3.1781903007017682,8.671067158035049,0.9111111111111112,-0.01888888888888889,-0.6433333333333333,-0.03188970470427559,-0.06673808530244116,0.9060399766242515
1589988213.434124,-1.7521949134430435,-3.15,8.75804872836076,1.138711263090404,-0.17047327301655152,-0.7247149200921374,-0.03531899787473084,-0.06893519001418617,0.9292281303659696
1589988213.444124,-1.8046936763039738,-3.15,8.760612647392053,1.4766666666666666,-0.3955555555555556,-0.8455555555555555,-0.03047643244649408,-0.06916751049341492,0.9527846387312423
1589988213.454124,-1.8229303282666511,-3.1596977461999884,8.711209015200048,1.4766666666666666,-0.3955555555555556,-0.8455555555555555,-0.03057623268481869,-0.07019876085721728,0.9716664610049989
1589988213.464124,-1.8558227362420523,-3.1605908791931596,8.645527296645474,1.4766666666666666,-0.3955555555555556,-0.8455555555555555,-0.028996762338026675,-0.07020438394788732,0.9929827710186256
1589988213.474124,-1.875923854732256,-3.073885782098384,8.722228435803233,1.4766666666666666,-0.3955555555555556,-0.8455555555555555,-0.03141177345579811,-0.07680279324795014,1.0121517085221086
1589988213.484124,-1.862286959066229,-3.053430438599343,8.763139122801313,1.4766666666666666,-0.3955555555555556,-0.8455555555555555,-0.030667996177288357,-0.07829034780496966,1.0262834768137938
1589988213.494124,-1.8761583064053393,-3.1300289916347053,8.688445927581313,0.7555555555555555,-0.09888888888888887,-0.7211111111111111,-0.023918259458431103,-0.0738437721967667,1.0513113335668394
1589988213.504124,-1.9246525817320825,-3.202673709133959,8.722299881613697,0.7555555555555555,-0.09888888888888887,-0.7211111111111111,-0.03505241325122479,-0.0819581368985724,1.0633033731629327
1589988213.514124,-1.9326247122026095,-3.172524942440522,8.725349194167306,0.7555555555555555,-0.09888888888888887,-0.7211111111111111,-0.03177724853568724,-0.0778675698943537,1.0733666067837477
1589988213.524124,-1.8497003185334462,-3.186099590456998,8.642798543847103,0.7555555555555555,-0.09888888888888887,-0.7211111111111111,-0.030575952086766837,-0.07656535802161239,1.070923244810927
1589988213.534124,-1.7873420689655173,-3.2521096551724136,8.834135862068965,0.7276612260536398,-0.07404183908045976,-0.7180638314176245,-0.03254550061860029,-0.08094250279018426,1.0418955117559916
1589988213.544124,-1.7266118490406914,-3.2707105207674467,8.708032890575584,0.6233333333333333,0.01888888888888889,-0.7066666666666667,-0.021387458947390983,-0.06544984694978735,0.9820871658185928
1589988213.5541239,-1.6631582461606944,-3.316776096149566,8.683026930781216,0.6233333333333333,0.01888888888888889,-0.7066666666666667,-0.022153964720100235,-0.06215586817357532,0.8771289474813724
1589988213.5641239,-1.6098836096938776,-3.350290975765306,8.59046556122449,0.6233333333333333,0.01888888888888889,-0.7066666666666667,-0.014180800172453925,-0.05559428126870848,0.7965022189975562
1589988213.5741239,-1.5871241774785596,-3.3856208873927973,8.695882402692964,0.6233333333333333,0.01888888888888889,-0.7066666666666667,-0.014180800172453925,-0.045322942334679824,0.5883783328005522
1589988213.5841238,-1.5800292640018947,-3.3501463200094728,8.759736623982949,0.6233333333333333,0.01888888888888889,-0.7066666666666667,-0.014180800172453925,-0.03603572231128577,0.4521657724574394
1589988213.5941238,-1.6606020998963014,-3.151518320082959,8.720200699965433,0.6088888888888889,0.024444444444444446,-0.73,-0.010236294979439392,-0.019381759176382327,0.1680374294571686
1589988213.6041238,-1.7577218083532797,-3.0993045208831993,8.726834574940161,0.6088888888888889,0.024444444444444446,-0.73,-0.0013184257912533474,-0.00786341048623208,-0.02999378336981099
1589988213.6141238,-1.7528182369727883,-3.1085227962159854,8.685704559243197,0.6088888888888889,0.024444444444444446,-0.73,0.01247512546150004,0.010615739768431793,-0.23628110971947291
1589988213.6241238,-1.7028194709515894,-3.0969878306552565,8.744553756489974,0.6088888888888889,0.024444444444444446,-0.73,0.017453292519943295,0.025522785371247293,-0.4150146513044304
1589988213.6341238,-1.6438544440483929,-3.136145555951607,8.824932589688213,0.5995567483697818,0.02011979395998015,-0.73159329228375,0.021028632043979235,0.037641015320443096,-0.5779227569598627
1589988213.6441238,-1.6270296925821006,-3.1824950162627217,8.669683139229882,0.5633333333333334,0.0033333333333333327,-0.7377777777777778,0.03367967223027983,0.05656983658861486,-0.7463442239282967
1589988213.6541238,-1.665628319029522,-3.29814159514761,8.728796466413309,0.5633333333333334,0.0033333333333333327,-0.7377777777777778,0.031425579371151396,0.06183176333332596,-0.9763727002889233
1589988213.6641238,-6.9108472982819,-8.207913366394811,6.072897031518085,0.5633333333333334,0.0033333333333333327,-0.7377777777777778,-0.019550578591829848,0.175734538876403,-1.153697011338886
1589988213.6741238,-7.502022770557335,-8.157992507482053,0.6552137879073276,0.5633333333333334,0.0033333333333333327,-0.7377777777777778,-0.4754300844593021,1.4406423227270266,-1.5186718701561253
1589988213.6841238,1.305416707408494,0.49161142074899766,-2.1150099410058343,0.5404953119737514,0.028550315251205053,-0.7035207457384048,-0.4868384786410106,1.2032764823603563,-2.1618322374557444
1589988213.6941237,0.9289078980151152,-0.05330122082883482,-0.44833153392575364,0.51,0.06222222222222223,-0.6577777777777778,0.2023668210922154,-0.9195181680540532,-2.417113416890012
1589988213.7041237,-0.0398692020224225,-0.35138052319191027,0.02716421191470653,0.51,0.06222222222222223,-0.6577777777777778,0.140855533079106,-0.3016535582687696,-2.319615090129663
1589988213.7141237,-0.3625785887008133,-0.4699268285023396,-0.025523034889928714,0.51,0.06222222222222223,-0.6577777777777778,0.18396018607371914,-0.013570794088105242,-2.2176007447090793
1589988213.7241237,-0.1452302472127969,-0.23784537081919532,-0.01511148812409113,0.51,0.06222222222222223,-0.6577777777777778,0.2387801087392406,0.055209362332914416,-1.9824025251708466
1589988213.7341237,-0.0044766769827361275,-0.026715015474104153,-0.11676684440135725,0.51,0.06222222222222223,-0.6577777777777778,0.25157496933534285,0.1285665630839007,-1.816069337421517
1589988213.7441237,-0.22035161492350364,0.05289881005636574,0.34426232441621185,0.52,0.1511111111111111,-0.6577777777777778,0.1681123754375922,0.1666735172264134,-1.5334171464365391
1589988213.7541237,0.0511752073771527,-0.0244157648743105,2.0539917470209272,0.52,0.1511111111111111,-0.6577777777777778,0.1131347091951175,0.13905766038700484,-1.3640920463798922
1589988213.7641237,7.325983538537098,0.6564565515606212,12.04078293562755,0.52,0.1511111111111111,-0.6577777777777778,1.0566609197417858,-0.6220318856111459,-1.060607249080004
1589988213.7741237,-0.09969520028027559,0.6682850636459186,-2.498811164311573,0.52,0.1511111111111111,-0.6577777777777778,1.2095002544019704,-0.5384888132321038,-0.8604726206602048
1589988213.7841237,0.6248815251929187,0.5764909214707218,-0.3160426690876078,0.5161067231552933,0.1511111111111111,-0.6546144903414536,0.4257872028036501,-0.027748992154211255,-0.5442556346169237
1589988213.7941236,0.45963817097415505,0.33617770301269306,2.4870634653616763,0.5022222222222222,0.1511111111111111,-0.6433333333333333,-0.6728495162522691,0.6630605319300411,-0.2678576274173324
1589988213.8041236,0.7765644600928019,-0.0973481474572715,6.600340895842564,0.5022222222222222,0.1511111111111111,-0.6433333333333333,-1.3364500774977088,0.17688100795989004,-0.060281684160918066
1589988213.8141236,0.18,-0.7393245592252297,2.5714368015892726,0.5022222222222222,0.1511111111111111,-0.6433333333333333,-0.41376763718253895,-0.6916522688838219,-0.007759444772019862
1589988213.8241236,0.44032771192309256,-2.1266014908957596,8.57133773269787,0.5022222222222222,0.1511111111111111,-0.6433333333333333,0.3177224281844393,-0.06109976540085105,0.11606430194446787
1589988213.8341236,0.6817140899204481,-3.307616720793731,12.041555284092603,0.4984517342179053,0.1514538827478672,-0.6546447973462841,0.394359134848847,0.8620617949926477,0.2655351817825023
1589988213.8441236,-0.16236200740691462,-1.541386246202293,4.087571463420043,0.49,0.15222222222222226,-0.68,-0.12626763639479116,0.4445331020401406,0.16865400696189237
1589988213.8541236,-0.5287122078038504,-2.6320195432439095,8.905102534794594,0.49,0.15222222222222226,-0.68,-0.11978279851692708,-0.5405540200960763,-0.026059680669713006
1589988213.8641236,-0.48113667558450623,-2.4312529952308943,8.371863673374433,0.49,0.15222222222222226,-0.68,-0.07097406678737078,-0.12233911479420706,0.0124824183892887
1589988213.8741236,-0.9263827202061162,-3.1459603870533295,10.832152215602171,0.49,0.15222222222222226,-0.68,0.036171281899000596,0.4605060212125603,0.11426602152240779
1589988213.8841236,-1.3377631713779625,-3.520500797821727,12.182953697061967,0.49,0.15222222222222226,-0.68,0.08305524034957837,0.22206760394962177,0.07474954225692079
1589988213.8941236,-0.4889719274145304,-2.0142627345844506,6.984874925221014,0.4977777777777778,0.14888888888888888,-0.65,-0.1295926450021687,-0.30156824597619747,-0.04614325630204781
1589988213.9041235,-1.1116163339463363,-3.1387399463806966,11.083176168213946,0.4977777777777778,0.14888888888888888,-0.65,-0.12249652888820016,0.040059058367716394,0.014680596103396781
1589988213.9141235,-1.016501388746014,-2.8167873675547783,8.89661557452937,0.4977777777777778,0.14888888888888888,-0.65,0.10893024299342091,0.04739654700324098,0.0868068346925973
1589988213.9241235,-1.3185289579261394,-3.1763439975311183,10.730354387408703,0.4977777777777778,0.14888888888888888,-0.65,-0.08639304614096105,0.03641451468243234,0.104064314053868
1589988213.9341235,-0.7910156233210839,-2.127110652655105,7.075331700083812,0.4997671903093862,0.15369663584027582,-0.6490052937341958,-0.0281018854277678,-0.09398119146971201,0.153298048459491
1589988213.9441235,-1.2875635683006075,-3.051746715637802,10.320423788670716,0.5111111111111111,0.1811111111111111,-0.6433333333333333,-0.012186593847877306,0.025192081252172448,0.23587905873258536
1589988213.9541235,-1.0506367872198803,-2.7648191701797207,8.68418238295984,0.5111111111111111,0.1811111111111111,-0.6433333333333333,-0.002172222381385775,-0.018335735172036058,0.30274584019585854
1589988213.9641235,-1.0577759284797186,-2.782495839079367,8.676383803319226,0.5111111111111111,0.1811111111111111,-0.6433333333333333,-0.020664678839481698,-0.01866633535834168,0.34294679235541975
1589988213.9741235,-1.0728879863639234,-2.78165148039814,8.774232444603438,0.5111111111111111,0.1811111111111111,-0.6433333333333333,-0.011335586800267878,-0.03235376876598214,0.37337915805630767
1589988213.9841235,-1.1813565716010261,-2.9694477138976914,9.191656858306926,0.5115913015777207,0.1825516825109401,-0.647895142766125,-0.003480716421709681,-0.02859731328900547,0.3892183652770144
1589988213.9941235,-1.15,-3.025585195215527,8.947566689234936,0.5133333333333333,0.18777777777777774,-0.6644444444444444,0.009601329575297739,-0.027486917029581767,0.4042659253718444
1589988214.0041234,-1.1299803743591001,-3.1701668179476483,8.836614331624268,0.5133333333333333,0.18777777777777774,-0.6644444444444444,0.005810628088907845,-0.02436224427997451,0.4094233696759015
1589988214.0141234,-7.809922172369064,-11.883186467348544,7.362756714227997,0.5133333333333333,0.18777777777777774,-0.6644444444444444,-0.1688411994904438,0.11273969371275239,0.03310271412610505
1589988214.0241234,-19.270870380631685,-26.220664222894733,5.194248753250075,0.5133333333333333,0.18777777777777774,-0.6644444444444444,-0.47861863183401543,0.2665925772687815,-1.0280710408360065
1589988214.0341234,-5.433488342355396,-9.224878877001547,8.716166403819104,0.5133333333333333,0.18777777777777774,-0.6644444444444444,-0.30765456126021995,-0.3685096925053562,-2.1013093697992624
1589988214.0441234,1.8469481458325192,-0.8322195303036223,14.559938650306748,0.5375084990817084,0.181733986340684,-0.6825758187557257,0.7032667171201021,0.4582325600030994,-2.358400192574864
1589988214.0541234,-0.19923611288468904,-0.28339267015706815,2.7135369684586896,0.54,0.1811111111111111,-0.6844444444444444,0.6680132374517822,0.30608739616147773,-2.140611113419364
1589988214.0641234,-1.0858143991712708,-3.055820787292818,13.00981111878453,0.54,0.1811111111111111,-0.6844444444444444,-0.2585991592243196,-0.09845785532612619,-1.8810530282623876
1589988214.0741234,-1.0640897790055248,-2.722709944751381,10.880798342541436,0.54,0.1811111111111111,-0.6844444444444444,-0.44581244610154647,0.09823458531703616,-1.6796210107362575
1589988214.0841234,-0.7223509272467903,-2.309561340941512,8.08705278174037,0.5393625772705659,0.1842982247582818,-0.6839132588365826,0.2256154336885328,0.22515898869669856,-1.3066593944441116
1589988214.0941234,-0.6625178316690442,-2.384352710413695,7.907553495007132,0.5343764859724204,0.20922868124900934,-0.6797581827547947,0.1644268876245409,0.18599831921574378,-1.203046789775752
1589988214.1041234,-0.8958180867746994,-2.791636173549399,9.246414756179522,0.5333333333333333,0.21444444444444444,-0.6788888888888889,-0.05938360264079411,-0.029211472464524425,-1.0530679656795048
1589988214.1141233,-0.9101664053411562,-3.090974659855344,8.609643417126094,0.5333333333333333,0.21444444444444444,-0.6788888888888889,0.0134074088167489,0.06112542097733832,-0.8753022394910712
1589988214.1241233,-1.0581598268799755,-4.610173120024732,8.209947832135404,0.5333333333333333,0.21444444444444444,-0.6788888888888889,0.036084587862656746,0.09382851918846254,-0.8667898712056443
1589988214.1341233,-0.7757320903501738,-5.202094025661588,8.535198476343224,0.5304595102319641,0.2176890834298613,-0.6793524087439484,-0.061255426180336414,0.045638117627778585,-1.2776367203510537
1589988214.1441233,0.07101059125031184,-1.6315226906765246,9.151993967296395,0.4988888888888889,0.2533333333333333,-0.6844444444444444,0.11739707267254468,0.1637922015198119,-2.091839901854104
1589988214.1541233,-0.09,-1.92,6.71,0.4988888888888889,0.2533333333333333,-0.6844444444444444,0.2410736029317168,0.3108867730114899,-2.0354902401383868
1589988214.1641233,-0.6212739772993847,-2.220518613421874,7.890608838443077,0.4988888888888889,0.2533333333333333,-0.6844444444444444,0.09472764122022889,0.17917540747115082,-1.9435849761835724
1589988214.1741233,-0.9973106253177427,-2.6985362045173944,8.443395671435834,0.4988888888888889,0.2533333333333333,-0.6844444444444444,-0.014238356172416429,0.06158412772312496,-1.725063915126597
1589988214.1841233,-1.0912206223104932,-5.812303872889771,8.290537073816616,0.49893228879326196,0.25350150796277904,-0.6845095443010041,0.09538594832980801,0.14793223482425022,-1.3990841795076985
1589988214.1941233,-1.3081552052300562,-7.999004468718967,8.385988290301224,0.5066455184081797,0.28339027272058553,-0.6960793887233808,-0.012521399571722283,0.0731543358398564,-1.5126708615093094
1589988214.2041233,-0.9671686103128043,-4.487709426881695,8.997641260717764,0.5077777777777778,0.2877777777777778,-0.6977777777777778,0.07275714107909127,0.13562822498885252,-1.9160724450832691
1589988214.2141232,-0.8940641887559765,-3.0413750022898385,8.25685247943725,0.5077777777777778,0.2877777777777778,-0.6977777777777778,0.11428307332568513,0.16804211336439576,-1.9256405090135966
1589988214.2241232,-0.7327124512264376,-3.894234186374544,8.986777006356592,0.5077777777777778,0.2877777777777778,-0.6977777777777778,0.048070749866569576,0.11021109667225684,-1.8158453903662024
1589988214.2341232,-0.5415228959989489,-5.051469680047303,8.569797647986336,0.5052396177795297,0.2912465964420501,-0.6967625137784786,0.03373269316568043,0.11923279965895249,-1.7173887620677877
1589988214.2441232,-0.5646377930293827,-4.148114208044569,8.72188193244173,0.4744444444444445,0.3333333333333333,-0.6844444444444444,0.036266256654402335,0.1265522592316433,-1.8298136595320669
1589988214.2541232,-0.5787142785226452,-3.929928682898998,8.45442870806974,0.4744444444444445,0.3333333333333333,-0.6844444444444444,0.04701480123419331,0.13653305062716348,-1.8743433442197723
1589988214.2641232,-0.4581324167280465,-4.477494066617563,8.695945658400852,0.4744444444444445,0.3333333333333333,-0.6844444444444444,0.052461738425926004,0.12374095508153655,-1.852469207008701
1589988214.2741232,-0.2831090890844011,-4.573363663733985,8.523318168133008,0.4744444444444445,0.3333333333333333,-0.6844444444444444,0.06285565261805566,0.12864464857572186,-1.8610257358976126
1589988214.2841232,-0.29714013314153814,-4.362898002876928,8.628550998561536,0.4744444444444445,0.3333333333333333,-0.6844444444444444,0.06591675157167348,0.1332362970061486,-1.8908714506953863
1589988214.2941232,-0.23268516424949126,-4.418092638651119,8.665194450725153,0.4488888888888889,0.37333333333333335,-0.6788888888888889,0.05269520610910533,0.13939504203390604,-1.8995757512992402
1589988214.3041232,-0.1649455731774282,-4.567119739009658,8.685516328046772,0.4488888888888889,0.37333333333333335,-0.6788888888888889,0.049739508863700196,0.13422257185444705,-1.8884918866289713
1589988214.3141232,-2.0847811287698663,-8.046780377925167,8.457295207107997,0.4488888888888889,0.37333333333333335,-0.6788888888888889,0.055746053285577676,0.1426714657505189,-1.8716448902679486
1589988214.3241231,-8.524202179176756,-18.099629539951575,8.348214285714286,0.4488888888888889,0.37333333333333335,-0.6788888888888889,0.034681683729645495,0.1267903256842064,-1.5051372938935987
1589988214.3341231,1.9287358932500531,-1.7350557172262049,10.673346582440201,0.44796365959259,0.37415943091931453,-0.6788888888888889,-0.01032847733805165,-0.03789926601340036,-0.06993503590784114
1589988214.3441231,2.4898822036586656,-1.9388708892883577,7.550386380458919,0.4177777777777778,0.4011111111111111,-0.6788888888888889,0.18181838756082963,-0.06300302711020389,0.6975894343628505
1589988214.354123,0.23683747488632756,-3.6863110923125726,8.916405625462621,0.4177777777777778,0.4011111111111111,-0.6788888888888889,-0.03008485229841748,-0.0020445608493245906,0.18282905260431426
1589988214.364123,0.09,-4.24,9.34,0.4177777777777778,0.4011111111111111,-0.6788888888888889,-0.17016960206944715,-0.008726646259971648,-0.17889624832941878
1589988214.374123,0.21291606016496845,-4.187321688500728,8.362524664402393,0.4177777777777778,0.4011111111111111,-0.6788888888888889,-0.04758160472898175,0.016174040699810377,-0.2510443925975052
1589988214.384123,0.2559677968725809,-4.917547607988852,8.93501904319554,0.4177777777777778,0.40134829953037104,-0.6788888888888889,0.006687287530917969,0.03224626848127989,-0.3151373482501002
1589988214.394123,-0.09331430846827715,-4.008150219007168,8.54496432837802,0.4177777777777778,0.4211111111111111,-0.6788888888888889,0.017454848988076005,-0.004731083972505202,0.05218611418143281
1589988214.404123,-0.14898593044863287,-4.543989580568091,8.649348619591187,0.4177777777777778,0.4211111111111111,-0.6788888888888889,0.012900225065500131,0.007414579821030467,0.028653890581457456
1589988214.414123,-0.04150241342143493,-4.541126810066077,8.407136463751817,0.4177777777777778,0.4211111111111111,-0.6788888888888889,-0.015256218541954334,-0.011466502994816476,-0.0040765193385618416
1589988214.424123,-0.08017650527685707,-4.568058441954572,8.591941558045427,0.4177777777777778,0.4211111111111111,-0.6788888888888889,0.012897432000688722,0.0021046466092854124,0.0032339848696356184
1589988214.434123,-0.08870549240498607,-4.474239583545153,8.685760416454846,0.4177777777777778,0.4211111111111111,-0.6788888888888889,0.0035937502978095615,-0.0016168260718662521,0.0013732485290597857
1589988214.444123,-0.06940833630694467,-4.5017749910791665,8.744083363069446,0.4177777777777778,0.4211111111111111,-0.6911111111111111,-0.0007099454661973331,-0.0010262902855694258,0.001988040074211821
1589988214.454123,-0.062281354607398344,-4.5231559361778055,8.672813546073984,0.4177777777777778,0.4211111111111111,-0.6911111111111111,-0.00926170959276676,-0.0002488571831540232,-0.00034425923303438646
1589988214.464123,-0.07615403204369155,-4.540769193591261,8.451537903868925,0.4177777777777778,0.4211111111111111,-0.6911111111111111,-0.01057268380614566,0.0001678120094094497,-0.0008391127683822813
1589988214.474123,-0.031385369462683804,-4.54653657634329,8.59346342365671,0.4177777777777778,0.4211111111111111,-0.6911111111111111,-0.005260461588206575,0.002332781930495519,0.002106101382241608
1589988214.484123,-0.046901137519652275,-4.507747156200869,8.632252843799131,0.4177777777777778,0.4211111111111111,-0.6911111111111111,0.009125854210817387,0.004025289671557162,0.0012598475117107872
1589988214.494123,-0.0729542501538672,-4.507651416717955,8.762422667487293,0.41182667588603444,0.4253618981766421,-0.6928114259373235,0.007825938164633957,0.0035286830414204126,0.00025619069393104435
1589988214.504123,-0.0785507596912861,-4.491932320411618,8.598550759691285,0.41,0.4266666666666667,-0.6933333333333334,0.0038890603479918833,0.004099843806655857,0.0001580875939979802
1589988214.514123,-0.0508832648035357,-4.528822313595286,8.570883264803536,0.41,0.4266666666666667,-0.6933333333333334,-0.005165106181444552,-0.0009302487096977188,0.0031761431038101256
1589988214.524123,-0.07917487297921479,-4.52,8.573202032332564,0.41,0.4266666666666667,-0.6933333333333334,-0.00200164677424449,-0.001000823387122245,0.00200164677424449
1589988214.534123,-0.07142558891454966,-4.52,8.697190577367206,0.41,0.4266666666666667,-0.6933333333333334,-0.00031101525423529426,-0.00015550762711764713,0.00031101525423529426
1589988214.544123,-0.08020834551443216,-4.528541581398975,8.680416691028864,0.4244444444444445,0.4088888888888889,-0.6844444444444444,0.003090676587059235,-0.002181661564992912,0.0
1589988214.554123,-0.08838293476777953,-4.471319456625543,8.69676586953556,0.4244444444444445,0.4088888888888889,-0.6844444444444444,-0.004042998286393587,-0.002181661564992912,0.0
1589988214.564123,-0.09,-4.536368382227771,8.499532996652103,0.4244444444444445,0.4088888888888889,-0.6844444444444444,-0.006495466189276122,-0.0011403492881990698,0.0031239368303815265
1589988214.574123,-0.059455632949727444,-4.532363908237432,8.566360917625682,0.4244444444444445,0.4088888888888889,-0.6844444444444444,-0.009876858276009514,-0.0019237991777541507,0.0016065555569739784
1589988214.584123,-0.06069673693958708,-4.551393473879174,8.584651631530207,0.4244444444444445,0.4088888888888889,-0.6844444444444444,-0.005074142861980301,-0.00101482857239606,-7.600221010039599e-05
1589988214.594123,-0.07655189019985553,-4.543792439200578,8.632415121598845,0.40697273724482974,0.42053669368863206,-0.6808045054445246,0.001429400702707853,-0.0007147003513539265,-0.00037613043114252947
1589988214.6041229,-0.08,-4.53,8.641221283783784,0.3977777777777778,0.4266666666666667,-0.6788888888888889,0.00354728834528718,-0.00040801739234932197,0.001365626780294268
1589988214.6141229,-0.08719458788156088,-4.508416236355317,8.608416236355318,0.3977777777777778,0.4266666666666667,-0.6788888888888889,0.0020088997514110495,0.0031392311714330324,-0.00017276181358186248
1589988214.6241229,-0.06851825616588318,-4.5286423251121555,8.6,0.3977777777777778,0.4266666666666667,-0.6788888888888889,-0.00047136571323408145,0.0020200283863900173,-0.00030973253463118726
1589988214.6341228,-0.07361481200512067,-4.499155563984639,8.668074060025603,0.3977777777777778,0.4266666666666667,-0.6788888888888889,-0.001833403584150852,0.001833403584150852,0.001485145603308792
1589988214.6441228,-0.07359312424065158,-4.512034378796742,8.680779372721954,0.40133715319963803,0.4266666666666667,-0.6909907653232137,0.0006138653541781342,0.0007838981054073889,8.501637561462733e-05
1589988214.6541228,-0.060165999271933016,-4.480331998543867,8.699087004004367,0.4033333333333333,0.4266666666666667,-0.6977777777777778,0.002127338430283951,0.0032634384917045412,-0.001081776926711629
1589988214.6641228,-0.08,-4.52,8.589784297669217,0.4033333333333333,0.4266666666666667,-0.6977777777777778,-0.004433911552668293,0.0021581320907654226,2.352947422748951e-05
1589988214.6741228,-0.08,-4.52,8.581407257983981,0.4033333333333333,0.4266666666666667,-0.6977777777777778,-0.007175291379122717,0.0012443388152806145,0.0009373227497122974
1589988214.6841228,-0.07231834290871471,-4.535363314182571,8.618408285456427,0.4033333333333333,0.4266666666666667,-0.6977777777777778,-0.007635815477475192,0.001090830782496456,0.001090830782496456
1589988214.6941228,-0.06004473150644844,-4.549776342467758,8.640223657532243,0.4033333333333333,0.4266666666666667,-0.6977777777777778,0.0021962999162473324,0.001095710232914596,4.879450418140122e-06
1589988214.7041228,-0.06881189774461237,-4.505940511276938,8.684059488723062,0.4033333333333333,0.4266666666666667,-0.6977777777777778,0.005065348358603189,0.002052059713699882,0.0009612289312034258
1589988214.7141228,-0.07,-4.5,8.59611584371197,0.4033333333333333,0.4266666666666667,-0.6977777777777778,0.007502388465836103,0.0011575442883160006,0.001090830782496456
1589988214.7241228,-0.07,-4.5,8.60937016736811,0.4033333333333333,0.4266666666666667,-0.6977777777777778,0.00024046428793947795,0.001090830782496456,0.002147309523858701
1589988214.7341228,-0.06348377997179125,-4.532581100141043,8.623032440056418,0.4033333333333333,0.4266666666666667,-0.6977777777777778,-0.0007108093392290023,0.001090830782496456,0.0007600428865349074
1589988214.7441227,-0.06631508219263704,-4.518424589036814,8.655260328770549,0.40754338812842467,0.4231582876707572,-0.6949710745810502,-0.0017796993874688257,0.001090830782496456,0.0020666058149171095
1589988214.7541227,-0.07,-4.506728554851379,8.683457109702758,0.41,0.4211111111111111,-0.6933333333333334,-0.002181661564992912,-0.001111083643583599,0.001070577921409313
1589988214.7641227,-0.07,-4.51,8.585623760998851,0.41,0.4211111111111111,-0.6933333333333334,-0.0011465996153232842,-0.002181661564992912,0.0010350619496696278
1589988214.7741227,-0.06387366795834343,-4.522252664083314,8.59837899612497,0.41,0.4211111111111111,-0.6933333333333334,-0.004432226569913132,-0.0008451032500262413,0.0017591099399797913
1589988214.7841227,-0.06,-4.535845218945487,8.61,0.41,0.4211111111111111,-0.6933333333333334,-0.005269755743744988,-0.0006376144756168739,0.00026881813814229
1589988214.7941227,-0.06606484907887104,-4.533935150921129,8.646389094473227,0.3938270691230106,0.4211111111111111,-0.6960288218128317,-0.0010554610967719196,-0.0004292583758536751,0.00023231403078910581
1589988214.8041227,-0.07,-4.538364005107789,8.67836400510779,0.38333333333333336,0.4211111111111111,-0.6977777777777778,0.004740316477110153,0.0018247428473068485,0.00017845935884303174
1589988214.8141227,-0.07680701945017929,-4.526385961099641,8.625543844398566,0.38333333333333336,0.4211111111111111,-0.6977777777777778,0.006939215183143814,0.002181661564992912,0.0
1589988214.8241227,-0.07118107951247823,-4.5023621590249565,8.617637840975043,0.38333333333333336,0.4211111111111111,-0.6977777777777778,0.003787835503004235,-0.000704323415860306,0.0019239899872354786
1589988214.8341227,-0.07720790714139325,-4.507207907141393,8.648831628565572,0.38333333333333336,0.4211111111111111,-0.6977777777777778,0.0016999709500478092,0.0012679513136658823,0.0006091401675513532
1589988214.8441226,-0.06386726113887309,-4.518066369430563,8.66,0.4164950743256498,0.44262142959261364,-0.6807487756465882,-0.002428786848642352,-0.0004580516583611951,0.0008799044077847021
1589988214.8541226,-0.06887379951980793,-4.5111262004801915,8.651126200480192,0.4244444444444445,0.4477777777777778,-0.6766666666666666,-0.003272492347489368,-0.00012284941510558073,0.001090830782496456
1589988214.8641226,-0.04441166419865589,-4.501470554732885,8.573234992595967,0.4244444444444445,0.4477777777777778,-0.6766666666666666,-0.0004812379109931397,-0.0037216725819949705,0.0020212489279951987
1589988214.8741226,-0.06251490927547265,-4.5,8.597524848792455,0.4244444444444445,0.4477777777777778,-0.6766666666666666,0.0008186652034266851,-0.0019073275197057688,0.0005443311581395417
1589988214.8841226,-0.07,-4.516984055439743,8.621322703626495,0.4244444444444445,0.4477777777777778,-0.6766666666666666,-0.002614515314563172,-0.001090830782496456,0.0012351153656865424
1589988214.8941226,-0.07,-4.537599628912552,8.652798886737658,0.40417876734430463,0.4317341167401671,-0.6825774891542075,-0.006283144827818506,-0.0002618398671602295,-0.00030531118101576743
1589988214.9041226,-0.061899349553239856,-4.54810065044676,8.63569804865972,0.3977777777777778,0.4266666666666667,-0.6844444444444444,-0.003010409148750882,0.0,-0.00020718689593949256
1589988214.9141226,-0.046436725771192615,-4.536436725771193,8.596091814427982,0.3977777777777778,0.4266666666666667,-0.6844444444444444,0.002996671399085479,-0.0014795237040223974,0.0
1589988214.9241226,-0.0473778294002663,-4.515244341199467,8.631644805801864,0.3977777777777778,0.4266666666666667,-0.6844444444444444,0.0038445612289187115,-0.0013768652232111277,-0.0008047963417817842
1589988214.9341226,-0.06288005358972339,-4.516440026794862,8.662880053589724,0.3977777777777778,0.4266666666666667,-0.6844444444444444,0.0018674964539019435,0.0024216589514721052,0.0010166630578846805
1589988214.9441226,-0.06521879318286504,-4.52,8.67,0.3977777777777778,0.42401044065714727,-0.6950693484825221,-0.0009953642469486318,0.003841774372624552,0.001138564050270368
1589988214.9541225,-0.0541521242912893,-4.525847875708711,8.66415212429129,0.3977777777777778,0.4211111111111111,-0.7066666666666667,-0.00454830091454435,0.0019966837804343864,0.0012758085670549818
1589988214.9641225,-0.0682562362326606,-4.53,8.599145879224466,0.3977777777777778,0.4211111111111111,-0.7066666666666667,-0.0027988919851338386,-0.000900615663014875,0.0008540306013186914
1589988214.9741225,-0.08,-4.53,8.622437996206001,0.3977777777777778,0.4211111111111111,-0.7066666666666667,-0.0019421968857327295,0.000372436744715909,0.0008513661032362735
1589988214.9841225,-0.060776950004487934,-4.53,8.646407683331837,0.3977777777777778,0.4211111111111111,-0.7066666666666667,-0.0028806313872786764,0.0017898006047822202,0.0003918609602106916
1589988214.9941225,-0.05753987898789879,-4.53,8.65,0.40699318542965407,0.43032651876298744,-0.6731560933871166,-0.004917438766749013,-0.00028575806389655525,0.0008224732096298224
1589988215.0041225,-0.0514935811223866,-4.53,8.632987162244774,0.41,0.43333333333333335,-0.6622222222222223,-0.00359834120038035,-0.001090830782496456,0.00016292442644549095
1589988215.0141225,-0.05868895785849377,-4.53,8.569177294990544,0.41,0.43333333333333335,-0.6622222222222223,0.0005187807324544273,-0.0020386490524824047,0.0
1589988215.0241225,-0.0770192150925818,-4.521490392453709,8.585528822638873,0.41,0.43333333333333335,-0.6622222222222223,0.0029473391541881074,0.00153135517839039,0.0009282541858458255
1589988215.0341225,-0.07436944572053163,-4.508738891441063,8.629413879956278,0.41,0.43333333333333335,-0.6622222222222223,0.003272492347489368,0.0027958597580490375,0.0004766325894403306
1589988215.0441225,-0.07581211802323229,-4.5116242360464645,8.671624236046464,0.4145205362402918,0.43333333333333335,-0.6803043671833894,0.0013704811721161005,0.003272492347489368,0.0006340037251244225
1589988215.0541224,-0.07183017014014584,-4.503660340280292,8.68,0.4177777777777778,0.43333333333333335,-0.6933333333333334,-0.0017823803797775261,0.0005989217778230786,0.001090830782496456
1589988215.0641224,-0.07,-4.513582531458179,8.598504811250926,0.4177777777777778,0.43333333333333335,-0.6933333333333334,-0.0036632859068737385,0.0007408121709404133,0.0033132672953176965
1589988215.0741224,-0.08539856715335087,-4.52,8.629293552190079,0.4177777777777778,0.43333333333333335,-0.6933333333333334,-0.004363323129985824,0.0019306923353571534,0.0018437384714037313
1589988215.0841224,-0.07720530689822235,-4.52,8.662794693101779,0.4177777777777778,0.43333333333333335,-0.6933333333333334,-0.0022697963667837034,0.001483819310592205,0.0017886730368971626
1589988215.0941224,-0.07,-4.513719722222222,8.676280277777778,0.40870626543209876,0.4291464814814815,-0.6877508641975308,-0.0024609748470221437,0.0017759028147592997,0.002181661564992912
1589988215.1041224,-0.049770440697180104,-4.5302295593028195,8.646284067828635,0.4033333333333333,0.4266666666666667,-0.6844444444444444,-0.001801357280565802,0.002917229098454695,-2.5041035392436763e-05
1589988215.1141224,-0.05460015903747753,-4.530266560641682,8.595932962245886,0.4033333333333333,0.4266666666666667,-0.6844444444444444,-0.001090830782496456,0.002210738820327747,-0.001090830782496456
1589988215.1241224,-0.07,-4.52,8.582479994126716,0.4033333333333333,0.4266666666666667,-0.6844444444444444,0.00038048139252923156,0.0020717055658469145,-0.0006003933908212269
1589988215.1341224,-0.06565142322339121,-4.511302846446783,8.649137190989478,0.4033333333333333,0.4266666666666667,-0.6844444444444444,0.002181661564992912,0.002323780065894551,0.0
1589988215.1441224,-0.06260561789291362,-4.502605617892914,8.7,0.4070970036230975,0.4266666666666667,-0.6867605492381454,0.002181661564992912,0.001090830782496456,0.0002842288205013734
1589988215.1541224,-0.0747815554793346,-4.514781555479335,8.685655333561996,0.4177777777777778,0.4266666666666667,-0.6933333333333334,0.0006169011934710814,0.0016124175730037327,0.0021340043635110096
1589988215.1641223,-0.06735768415759796,-4.526321157921201,8.60678842078799,0.4177777777777778,0.4266666666666667,-0.6933333333333334,-0.002469893510789932,0.0008025988366994359,0.0012038982550491542
1589988215.1741223,-0.07449374757103994,-4.51550625242896,8.59898749514208,0.4177777777777778,0.4266666666666667,-0.6933333333333334,-0.0040630036477005485,-0.0007905113002111802,0.0031620452008447207
1589988215.1841223,-0.07438402734734509,-4.515615972652655,8.64369583591593,0.4177777777777778,0.4266666666666667,-0.6933333333333334,-0.0006876776240812726,0.00013438438613839446,0.0025255003770335484
1589988215.1941223,-0.07424877803663607,-4.524248778036636,8.682746334109908,0.42061029646886855,0.4266666666666667,-0.6895566417452124,0.001254721990921418,0.000627360995460709,0.001090830782496456
1589988215.2041223,-0.08621173942044022,-4.523788260579559,8.68757652115912,0.4244444444444445,0.4266666666666667,-0.6844444444444444,0.0,0.0,-0.00026436053203612343
1589988215.2141223,-0.09757872604768959,-4.535157452095379,8.566319109284656,0.4244444444444445,0.4266666666666667,-0.6844444444444444,-0.0016534215329855012,0.0016534215329855012,0.0005625907504890452
1589988215.2241223,-0.08570992160650509,-4.525709921606505,8.580015274377232,0.4244444444444445,0.4266666666666667,-0.6844444444444444,0.0017153527839850265,-0.00015654704439385094,-0.00046797495709471936
1589988215.2341223,-0.08,-4.514459249431387,8.627703752843063,0.4244444444444445,0.4266666666666667,-0.6844444444444444,0.002668090219651633,-0.001090830782496456,-0.0004864286546587209
1589988215.2441223,-0.06778982264213493,-4.516105088678932,8.686630532073595,0.42783616037718475,0.4198832348011861,-0.6885145035637328,0.0015156996989078883,-0.00042486891641143243,0.001331923732170047
1589988215.2541223,-0.07459881542366735,-4.52,8.673502961440832,0.43,0.4155555555555556,-0.6911111111111111,-0.0012978948053216021,0.0,-0.00020706402282514615
1589988215.2641222,-0.08,-4.512530342751723,8.592773084765511,0.43,0.4155555555555556,-0.6911111111111111,-0.0038112879772164744,0.0016296264122235627,-0.0027204571947200187
1589988215.2741222,-0.08,-4.516333058731338,8.595332234925355,0.43,0.4155555555555556,-0.6911111111111111,-0.0036724935888355938,0.002872491106143142,-0.001890833265188908
1589988215.2841222,-0.08,-4.524937378873445,8.634686894367224,0.43,0.4155555555555556,-0.6911111111111111,-0.003272492347489368,0.0016567388894889597,-0.001629415268496592
1589988215.2941222,-0.08526301663982823,-4.524736983360172,8.681052066559312,0.42707610186676215,0.41847945368879347,-0.6922806703644063,-0.0015501741796346577,0.0005741060559515701,-0.0016075555090413417
1589988215.3041222,-0.08317156259007888,-4.526828437409921,8.7,0.4244444444444445,0.4211111111111111,-0.6933333333333334,0.0,0.001090830782496456,-0.00034596381018722267
1589988215.3141222,-0.058527224754137686,-4.53,8.592636123770689,0.4244444444444445,0.4211111111111111,-0.6933333333333334,0.0007807721407938174,0.0003100586417026386,0.0023423164223814524
1589988215.3241222,-0.05,-4.519574210088692,8.591703159645233,0.4244444444444445,0.4211111111111111,-0.6933333333333334,0.001090830782496456,0.0,0.0009979378340701714
1589988215.3341222,-0.061549265457676375,-4.517699510305118,8.637699510305119,0.4244444444444445,0.4211111111111111,-0.6933333333333334,0.0019307170675935499,0.0012598294276456408,-0.0019307170675935499
1589988215.3441222,-0.08,-4.53,8.657963364766752,0.4160386705239831,0.4233231568796536,-0.6951029699481673,0.004575494860462634,0.0028381581764982794,-0.0015351556635250134
1589988215.3541222,-0.08,-4.520379784029972,8.655569676044957,0.4033333333333333,0.4266666666666667,-0.6977777777777778,0.002872074994948797,0.0011322587935557865,4.142801105933057e-05
1589988215.3641222,-0.08,-4.51,8.59600601075609,0.4033333333333333,0.4266666666666667,-0.6977777777777778,-0.0038331163660436096,-0.0013711427917735767,-0.001090830782496456
1589988215.3741221,-0.06658707200336611,-4.523412927996634,8.59011939199495,0.4033333333333333,0.4266666666666667,-0.6977777777777778,-0.003991030438268604,-0.002181661564992912,-0.000359269045389618
1589988215.3841221,-0.05455858688615556,-4.535441413113845,8.621765652455379,0.4033333333333333,0.4266666666666667,-0.6977777777777778,-0.005053190624947792,-0.0027752276574790537,-0.001187132184972283
1589988215.3941221,-0.06668520900321544,-4.52887652733119,8.645561736334406,0.4033333333333333,0.4235768131475527,-0.6977777777777778,-0.004118219415899483,-0.0020591097079497413,-0.0015749702452230985
1589988215.404122,-0.08,-4.52,8.675541764051827,0.4033333333333333,0.4211111111111111,-0.6977777777777778,-9.203087996827305e-05,-0.0017873743441713355,-0.0017873743441713355
1589988215.414122,-0.07511033419796248,-4.510220668395925,8.636213676177587,0.4033333333333333,0.4211111111111111,-0.6977777777777778,-0.0005093086093983679,-0.0016482817676946372,-0.002181661564992912
1589988215.424122,-0.07,-4.509247594873241,8.598495189746481,0.4033333333333333,0.4211111111111111,-0.6977777777777778,-0.0016772835074035162,-0.0015952088400858519,-0.0016772835074035162
1589988215.434122,-0.07731147589339706,-4.523655737946698,8.630967213840096,0.4033333333333333,0.4211111111111111,-0.6977777777777778,0.00010550666300328552,-0.0029792198619927393,-0.0006920516339965422
1589988215.444122,-0.08968349483061222,-4.529841747415307,8.649525242245918,0.4033333333333333,0.4211111111111111,-0.6977777777777778,0.0021298735277547947,-0.0043287977718270785,-1.726267907937247e-05
1589988215.454122,-0.07450657214591641,-4.51,8.683519716437749,0.41,0.4211111111111111,-0.6844444444444444,0.002289310823428022,0.00010764925843511036,0.00021529851687022072
1589988215.464122,-0.08,-4.51,8.636520038487282,0.41,0.4211111111111111,-0.6844444444444444,2.5509304192416213e-05,-0.001090830782496456,-0.001649000825840892
1589988215.474122,-0.08,-4.51347902237083,8.580437067112491,0.41,0.4211111111111111,-0.6844444444444444,-0.001849835721515565,-0.0003318258434773472,-0.001090830782496456
1589988215.484122,-0.07730449593281062,-4.5226955040671895,8.613477520335946,0.41,0.4211111111111111,-0.6844444444444444,-0.0029784584664059107,0.00020872913924608423,-0.0013848646635799132
1589988215.494122,-0.06340162746197113,-4.523401627461971,8.65659837253803,0.4037682037140838,0.4211111111111111,-0.6796789531669791,-0.0029014323528790287,-0.002181661564992912,-0.001102005383163737
1589988215.504122,-0.055482290881688025,-4.515482290881688,8.659035418236623,0.3911111111111111,0.4211111111111111,-0.67,-0.0037652979647513313,-0.003078699312844651,-0.00010521954797252926
1589988215.514122,-0.07,-4.525455765955315,8.607278829776575,0.3911111111111111,0.4211111111111111,-0.67,-0.0011902634892307787,-0.00396705679883908,-0.0022810942717272345
1589988215.524122,-0.07,-4.525060000687687,8.600240002750747,0.3911111111111111,0.4211111111111111,-0.67,-0.0005519604509582177,-0.0005257802121182587,-0.001090830782496456
