time,acc_x,acc_y,acc_z,mag_x,mag_y,mag_z,gyr_x,gyr_y,gyr_z
1589988263.7405806,-3.84,-0.78,8.9,0.32666666666666666,-0.35,-0.6177777777777778,0.0,-0.007635815477475192,-0.002181661564992912
1589988263.7505805,-3.84,-0.78,8.918670791693561,0.32666666666666666,-0.35,-0.6177777777777778,0.0,-0.004580814330537878,-0.0001449941337013697
1589988263.7605805,-3.848272881715863,-0.78,8.944818645147588,0.33126271206436847,-0.34540395460229817,-0.6122625233005357,0.0,-0.001656028919301107,0.0018048628071231443
1589988263.7705805,-3.86,-0.7968194060773481,8.878867921270718,0.3322222222222222,-0.34444444444444444,-0.6111111111111112,0.003619441323234356,0.003272492347489368,0.000917356294623962
1589988263.7805805,-3.86,-0.7823363259668509,8.828177140883978,0.3322222222222222,-0.34444444444444444,-0.6111111111111112,0.005199300284223612,0.003272492347489368,0.00012742681412933397
1589988263.7905805,-3.8570069654007475,-0.77,8.84197213839701,0.3322222222222222,-0.34444444444444444,-0.6111111111111112,0.006656347195292813,0.00016324471369706306,0.0015286827102046598
1589988263.8005805,-3.841085995179259,-0.77,8.905656019282963,0.3322222222222222,-0.34444444444444444,-0.6111111111111112,0.0014462218738501374,0.001031598933937509,-0.0019447341707571242
1589988263.8105805,-3.858375741865066,-0.7848727744048025,8.95,0.3322222222222222,-0.35,-0.6177777777777778,-0.002181661564992912,0.001090830782496456,0.00035435815446129503
1589988263.8205805,-3.852176589626158,-0.8089117051869209,8.943470231121525,0.3322222222222222,-0.35,-0.6177777777777778,-0.0017068033719777331,0.0012095453307502508,0.0019442324684853225
1589988263.8305805,-3.869943666420975,-0.7999718332104876,8.89011266715805,0.3322222222222222,-0.35,-0.6177777777777778,0.00217551652478405,0.002190879125306205,0.0
1589988263.8405805,-3.8512424108030405,-0.7875151783939195,8.93,0.3322222222222222,-0.35,-0.6177777777777778,6.776299742312323e-05,0.005318627917636033,0.00013552599484624645
1589988263.8505805,-3.8640711740506815,-0.7618576518986374,8.93,0.3322222222222222,-0.35,-0.6177777777777778,0.0007674634900174259,0.003919226932447428,0.0015349269800348517
1589988263.8605804,-3.87,-0.7676476570445122,8.93,0.30378988587273026,-0.35,-0.6177777777777778,0.001090830782496456,0.0023099619703346487,0.00025660081068347353
1589988263.8705804,-3.858894039995285,-0.78,8.89783443994814,0.3,-0.35,-0.6177777777777778,0.00315185082575411,0.00024128304347051613,0.0009701892607611979
1589988263.8805804,-3.850654736180411,-0.78,8.807202097984522,0.3,-0.35,-0.6177777777777778,0.0022530822029935543,0.0020388202889916277,7.142063800064211e-05
1589988263.8905804,-3.8570873346791688,-0.7714563326604155,8.85,0.3,-0.35,-0.6177777777777778,0.00031772249910722575,0.0017262757807109076,0.0007731082833892303
1589988263.9005804,-3.841260683357546,-0.7793696583212272,8.85,0.3,-0.35,-0.6177777777777778,0.0020441423436537176,0.005179115469803891,-0.0009533115611572616
1589988263.9105804,-3.84758881003401,-0.7724111899659898,8.948654530442134,0.3151776200680205,-0.3550592066893402,-0.6127185710884376,-0.0036130137463385487,0.0062819646712439165,-0.0002630200237348189
1589988263.9205804,-3.8691579182488276,-0.8074737547464821,8.972421264239447,0.32,-0.3566666666666667,-0.6111111111111112,-0.0029050648692663045,0.003548062956156666,-0.0002755706086672977
1589988263.9305804,-3.86195134104225,-0.7858540231267505,8.907562069380251,0.32,-0.3566666666666667,-0.6111111111111112,0.00023939763208239047,0.005906409832168186,-0.002633917484678819
1589988263.9405804,-3.87,-0.7876090233380114,8.929203007779337,0.32,-0.3566666666666667,-0.6111111111111112,0.0001738767295418576,0.006110292871124091,0.002750862158863795
1589988263.9505804,-3.87,-0.7658079941784917,8.921935998059498,0.32,-0.3566666666666667,-0.6111111111111112,0.0017592923093623213,0.002146753921572932,-0.002005384580597596
1589988263.9605803,-3.8577739968181013,-0.7677739968181014,8.894434992045253,0.32,-0.35,-0.6177777777777778,0.001090830782496456,0.0029082634285768714,0.001090830782496456
1589988263.9705803,-3.840843981005532,-0.7504219905027659,8.847046066480639,0.32,-0.35,-0.6177777777777778,0.0010447987594626308,4.603202303382509e-05,0.0009527347133949807
1589988263.9805803,-3.8594781947355727,-0.7605218052644271,8.782609026322135,0.32,-0.35,-0.6177777777777778,-0.00017076037347173186,0.0011477509069870333,-0.0021247414405023346
1589988263.9905803,-3.8516978612105586,-0.7683021387894415,8.821510693947207,0.32,-0.35,-0.6177777777777778,-0.0027168685656241845,0.0019964536377045173,-0.0012760387097848504
1589988264.0005803,-3.8557500087679304,-0.77,8.858750043839652,0.32,-0.35,-0.6177777777777778,-0.002645263691121066,0.00155443290862461,-0.001090830782496456
1589988264.0105803,-3.852751350908793,-0.77,8.92349189454724,0.3336918927278351,-0.3548324327274712,-0.6177777777777778,-0.0013909566089725768,0.0026722406945371264,0.0004905791295442142
1589988264.0205803,-3.8602200874757844,-0.7802200874757844,8.959779912524217,0.3388888888888889,-0.3566666666666667,-0.6177777777777778,-0.004387330949328579,0.004375327039657201,0.0
1589988264.0305803,-3.8769734976333603,-0.7969734976333607,8.943026502366639,0.3388888888888889,-0.3566666666666667,-0.6177777777777778,-0.006214844500495875,0.00528908381524085,0.0
1589988264.0405803,-3.86,-0.78,8.920504724248667,0.3388888888888889,-0.3566666666666667,-0.6177777777777778,0.001090830782496456,0.002071547815568997,-0.0019614340661450818
1589988264.0505803,-3.86,-0.78,8.928290545933805,0.3388888888888889,-0.3566666666666667,-0.6177777777777778,0.001090830782496456,0.00037294502333388513,0.0014357715183251417
1589988264.0605803,-3.8539156133829,-0.78,8.9360843866171,0.3273961586121438,-0.35261040892193307,-0.6177777777777778,0.0037456452683134814,0.0006637036214542563,0.0001905507006301427
1589988264.0705802,-3.85781968686793,-0.78,8.90090156566035,0.32,-0.35,-0.6177777777777778,0.008013140455988742,-0.0023211512755121604,0.0014681557610100062
1589988264.0805802,-3.8535149012567325,-0.7735149012567325,8.792723518850988,0.32,-0.35,-0.6177777777777778,0.007311817192634592,-0.003272492347489368,0.0014742470313243844
1589988264.0905802,-3.85,-0.7778783288713541,8.834539946456248,0.32,-0.35,-0.6177777777777778,0.0022480228712269323,0.0018838618410127964,0.0019502231472468166
1589988264.1005802,-3.85,-0.7737501087467159,8.878749673759852,0.32,-0.35,-0.6177777777777778,0.0017725881591302266,0.003272492347489368,0.002181661564992912
1589988264.1105802,-3.8574647629507597,-0.7550704740984807,8.927323814753798,0.32,-0.35,-0.6219248683059776,0.001367382243920141,0.002458213026416597,0.002181661564992912
1589988264.1205802,-3.8528499673309375,-0.7714500980071872,8.954300065338126,0.32,-0.35,-0.6233333333333333,-0.0004690643637572558,0.001401713991866056,-0.00015818115438765617
1589988264.1305802,-3.86,-0.7781921603399529,8.852410452880063,0.32,-0.35,-0.6233333333333333,-0.0010250958774632097,-0.0021159266599596657,-0.00013146981006649272
1589988264.1405802,-3.86,-0.7571410168470715,8.880478644203905,0.32,-0.35,-0.6233333333333333,-0.00025965469983704303,-0.0013504854823334989,-0.0016623521653188259
1589988264.1505802,-3.867065106556541,-0.7853255327827062,8.911195319669623,0.32,-0.35,-0.6233333333333333,-0.0007706835713492729,-0.0003201472111471831,0.00013038914905490672
1589988264.1605802,-3.8542954093876602,-0.7842954093876603,8.92785229530617,0.32,-0.3665770678685808,-0.6189709470521279,-0.001947383325818706,-0.0017131050866445,0.00023427823917420592
1589988264.1705801,-3.84,-0.78,8.892981699014562,0.32,-0.3711111111111111,-0.6177777777777778,-0.002181661564992912,-0.002932235513900896,8.506420839711811e-05
1589988264.1805801,-3.8395454026531497,-0.78,8.811818389387401,0.32,-0.3711111111111111,-0.6177777777777778,-0.0022312504429514582,0.00104124190453791,0.0009420641486208176
1589988264.1905801,-3.830054126664296,-0.78,8.850162379992888,0.32,-0.3711111111111111,-0.6177777777777778,-0.0032695401959109633,0.0,-0.0021875658681497216
1589988264.2005801,-3.8466251827268776,-0.78,8.899875548180633,0.32,-0.3711111111111111,-0.6177777777777778,-0.002365729293334043,0.0,-0.003995187673303562
1589988264.21058,-3.8689203274138273,-0.78,8.947840654827655,0.30633531909001366,-0.3511396543965156,-0.6114710019731687,-0.002181661564992912,-0.003095831333687155,-0.0012674917962986689
1589988264.22058,-3.854154430680334,-0.787922784659833,8.965845569319667,0.3055555555555556,-0.35,-0.6111111111111112,0.0012753053910217007,-0.0024082506084857147,0.0006376526955108504
1589988264.23058,-3.8598097080109808,-0.7801902919890192,8.84247379585725,0.3055555555555556,-0.35,-0.6111111111111112,0.005391881004696888,0.0010285578747110643,2.0757635928463905e-05
1589988264.24058,-3.86,-0.787874902356774,8.887249414140644,0.3055555555555556,-0.35,-0.6111111111111112,0.003736116732497674,0.00023181219250415289,0.0008590185899923031
1589988264.25058,-3.8548864825364135,-0.7797729650728272,8.91534055239076,0.3055555555555556,-0.35,-0.6111111111111112,0.003272492347489368,0.0033467893536679393,0.0005330325568851327
1589988264.26058,-3.85,-0.7652237268739271,8.920447453747855,0.31829228389174985,-0.34469302985991906,-0.6111111111111112,0.0027514817723362827,0.007065995270131821,0.0
1589988264.27058,-3.872807815485642,-0.7676026051618807,8.894794789676238,0.3322222222222222,-0.3388888888888889,-0.6111111111111112,-0.004452863025203795,0.010953077772573545,0.003317262295098354
1589988264.28058,-3.8899654410897018,-0.7800345589102986,8.810276471282389,0.3322222222222222,-0.3388888888888889,-0.6111111111111112,-0.008722876467655329,0.014169490795504966,0.0021778917726765924
1589988264.29058,-3.882894688042617,-0.787105311957383,8.866842495659064,0.3322222222222222,-0.3388888888888889,-0.6111111111111112,-0.0079515769597363,0.011855592271747881,0.0014065922647575637
1589988264.30058,-3.8664274169246364,-0.7832137084623182,8.89,0.3322222222222222,-0.3388888888888889,-0.6111111111111112,-0.005415006764985626,0.008687499112474994,0.0003505612116666007
1589988264.31058,-3.854289602510065,-0.7742896025100648,8.91284158995974,0.336029153882179,-0.35348212691872327,-0.6073041794511543,-0.00249459992129229,0.0045212767963193025,0.0006229077362311779
1589988264.32058,-3.857733226195259,-0.7777332261952592,8.914533547609482,0.3388888888888889,-0.3644444444444445,-0.6044444444444445,-0.0019343949006761178,-0.00034903078954607366,0.0019343949006761178
1589988264.33058,-3.8685767277023038,-0.7714232722976964,8.849962906083874,0.3388888888888889,-0.3644444444444445,-0.6044444444444445,-0.001246085705916625,0.0017158967947324053,0.001246085705916625
1589988264.34058,-3.8603939345314506,-0.77,8.897636392811297,0.3388888888888889,-0.3644444444444445,-0.6044444444444445,0.00205274679103453,0.005325239138523897,0.001090830782496456
1589988264.35058,-3.853181703310589,-0.77,8.934091483447055,0.3388888888888889,-0.3644444444444445,-0.6044444444444445,0.0006941399823922356,0.0047103931211819414,0.001090830782496456
1589988264.36058,-3.85,-0.7616438356164383,8.941643835616437,0.3388888888888889,-0.3523744292237443,-0.6276560121765601,-0.002734548399956869,0.0070978715299426925,-0.0025552337507793697
1589988264.37058,-3.8579481132075473,-0.7758962264150944,8.947948113207547,0.3388888888888889,-0.35,-0.6322222222222222,-0.004139497002445277,0.008502820132431102,0.0019295355822460903
1589988264.38058,-3.868939033169057,-0.78,8.815914502464146,0.3388888888888889,-0.35,-0.6322222222222222,-0.006313517639298664,0.00970174351462807,0.001322297838176528
1589988264.39058,-3.847175397269025,-0.78,8.84564920546195,0.3388888888888889,-0.35,-0.6322222222222222,-0.009864688595938764,0.008987551067228098,-0.0005690211679835581
1589988264.40058,-3.8495037508128083,-0.78,8.864751875406403,0.3388888888888889,-0.35,-0.6322222222222222,-0.011945006218543257,0.01131839224391839,-0.002127529176075154
1589988264.41058,-3.86,-0.78,8.890926713947989,0.33462603975133526,-0.35,-0.6271843096051134,-0.013470427785806904,0.01456125856830336,-0.001750658764091633
1589988264.42058,-3.8504892880531387,-0.7895107119468613,8.92524464402657,0.32666666666666666,-0.35,-0.6177777777777778,-0.013662071304699272,0.017346546425968997,0.001609559650251109
1589988264.43058,-3.796820421305815,-0.8,8.876820421305816,0.32666666666666666,-0.35,-0.6177777777777778,-0.01250119921977191,0.02081249442530733,0.0015928913948073517
1589988264.44058,-3.7230803086095037,-0.8,8.85582272488164,0.32666666666666666,-0.35,-0.6177777777777778,-0.01027314707107433,0.018364632577155746,0.007994796928043198
1589988264.45058,-3.6059237301714466,-0.7879891043102067,8.930054478448966,0.32666666666666666,-0.35,-0.6177777777777778,-0.008726646259971648,0.011341074531816223,0.02597246944185641
1589988264.4605799,-3.4812451612903224,-0.7505336405529954,8.950355760368662,0.3201185867895545,-0.3445432667690732,-0.6046816180235535,-0.008726646259971648,0.0022980838733920725,0.07024427444800772
1589988264.4705799,-3.3753869499241276,-0.7151289833080424,8.932564491654022,0.32,-0.34444444444444444,-0.6044444444444445,-0.018236240866105397,-0.00447505465930071,0.10704046036557788
1589988264.4805799,-3.2355191566331096,-0.5855191566331098,8.871035389984105,0.32,-0.34444444444444444,-0.6044444444444445,-0.03392837890343343,-0.002595468948782836,0.13808373527042997
1589988264.4905798,-3.16094374435677,-0.47471872178384955,8.93961881207553,0.32,-0.34444444444444444,-0.6044444444444445,-0.05923348610849205,0.0028607061894205922,0.1891650800002193
1589988264.5005798,-2.8253152197238847,-0.7622599489735091,9.015994182026276,0.3257613968435638,-0.35020584128800825,-0.6075870245409338,-0.0343479435952537,0.005329306210916125,0.23318491883869447
1589988264.5105798,-2.470281361024345,-1.07228951572522,9.086000858389566,0.33187309081178745,-0.35631753525623194,-0.6109206757963286,-0.005983638216811908,0.007511175855411647,0.2757313769063572
1589988264.5205798,-2.1289901280842276,-0.9861438649684267,8.768990128084228,0.3322222222222222,-0.3566666666666667,-0.6111111111111112,0.02807866118703043,0.017419905985781678,0.253444147199822
1589988264.5305798,-1.7885315077650317,-0.8759954878063337,8.428531507765031,0.3322222222222222,-0.3566666666666667,-0.6111111111111112,0.06248618004329292,0.02779677675195608,0.22722889473790767
1589988264.5405798,-1.77,-0.87,8.41,0.3322222222222222,-0.3566666666666667,-0.6111111111111112,0.0643590161672909,0.02836160034490785,0.22580197197676635
1589988264.5505798,-1.962069854570358,-0.87,8.970843975345446,0.3322222222222222,-0.3566666666666667,-0.6111111111111112,-0.009390513666456518,-0.020246044318243856,0.2140690922304884
1589988264.5605798,-2.1010172739613,-0.8213896356232201,9.04277927124644,0.32772126255770556,-0.34226359574021337,-0.6111111111111112,-0.005121251787116855,-0.011928789588643605,0.21053034102181603
1589988264.5705798,-2.1650348003829336,-0.7919860798468266,9.001986079846827,0.32666666666666666,-0.3388888888888889,-0.6111111111111112,0.017793448606534087,0.0003325638208014625,0.20463529943686157
1589988264.5805798,-2.2198952468246693,-0.79,9.0,0.32666666666666666,-0.3388888888888889,-0.6111111111111112,-0.0012288331840968232,-0.009794623444825123,0.18856429617146503
1589988264.5905797,-2.2467021276595744,-0.79,8.972163120567375,0.32666666666666666,-0.3388888888888889,-0.6111111111111112,-0.008490686409857166,-0.015642977604310878,0.17329510303489795
1589988264.6005797,-2.26,-0.79,8.889624806397572,0.32666666666666666,-0.3388888888888889,-0.6111111111111112,-0.007362047534464734,-0.008918559656797366,0.15501227095468312
1589988264.6105797,-2.2317323131431155,-0.7805774377143719,8.76346462628623,0.319861482793713,-0.3540696836824009,-0.6111111111111112,-0.0007028870997010349,0.004237345763223578,0.12966286258529863
1589988264.6205797,-2.1946245304209753,-0.7646245304209752,8.694624530420974,0.31222222222222223,-0.3711111111111111,-0.6111111111111112,-0.0013365750473112153,0.0053722391575440264,0.09241889646074491
1589988264.6305797,-2.2520342105263156,-0.7712789473684211,8.678721052631579,0.31222222222222223,-0.3711111111111111,-0.6111111111111112,-0.0049784942791673776,0.0006722962348964991,0.05127564917417486
1589988264.6405797,-2.3,-0.78,8.790083279948751,0.31222222222222223,-0.3711111111111111,-0.6111111111111112,-0.0008309584454974511,-0.0037227267206545213,0.003444685517323097
1589988264.6505797,-2.3218245143149283,-0.78,8.910929671523517,0.31222222222222223,-0.3711111111111111,-0.6111111111111112,0.004661858586660228,-0.0001971240251280905,-0.03372384088911805
1589988264.6605797,-2.364239486558054,-0.767880256720973,9.00635922983708,0.3169354557196216,-0.36707119668476884,-0.6198642590348529,0.010279933286418623,0.005255580704196941,-0.0842878644754364
1589988264.6705797,-2.3451602059039813,-0.7832265293973457,9.047419897048009,0.32,-0.3644444444444445,-0.6255555555555555,0.011999138607461015,0.01034541668055626,-0.13403238022178351
1589988264.6805797,-2.3135066762901477,-0.8,8.988573439191628,0.32,-0.3644444444444445,-0.6255555555555555,0.011999138607461015,0.01733983982000989,-0.19140438881409666
1589988264.6905797,-2.3333713677899723,-0.8077904559299909,8.973371367789973,0.32,-0.3644444444444445,-0.6255555555555555,0.011149331693649412,0.01963495408493621,-0.2589693351090774
1589988264.7005796,-2.333675554784352,-0.7910266643530569,8.904106657412227,0.32,-0.3644444444444445,-0.6255555555555555,0.01090830782496456,0.02653385360837717,-0.3141010927647597
1589988264.7105796,-2.325293258450081,-0.798826966199675,8.831759550700488,0.32,-0.3675822721443903,-0.6255555555555555,0.01090830782496456,0.031570113623482055,-0.36947651983813057
1589988264.7205796,-2.351109448154118,-0.82,8.787556220738352,0.32,-0.3711111111111111,-0.6255555555555555,0.006836090584205858,0.03815454646257195,-0.4494926099545308
1589988264.7305796,-2.39856519901217,-0.8271412997530424,8.69430440296349,0.32,-0.3711111111111111,-0.6255555555555555,0.011374277767873583,0.04067257477510002,-0.5281067192954615
1589988264.7405796,-2.4149342808201752,-0.8349342808201753,8.72414565066228,0.32,-0.3711111111111111,-0.6255555555555555,0.017410279417331413,0.041975478574807615,-0.5874416345342472
1589988264.7505796,-2.423859727638898,-0.8515791829166933,8.836316731666773,0.32,-0.3711111111111111,-0.6255555555555555,0.021567846811545072,0.04573838616013926,-0.6558578060352842
1589988264.7605796,-2.4511843086097653,-0.877061436203255,8.973552925829296,0.32470762413550336,-0.3711111111111111,-0.6404630319846495,0.02752914561991289,0.05370908439982783,-0.7576348665929835
1589988264.7705796,-2.4824923829747947,-0.9024923829747946,8.977507617025205,0.32666666666666666,-0.3711111111111111,-0.6466666666666666,0.03435950787152533,0.058903754403399934,-0.8382840689488744
1589988264.7805796,-2.5122791852718547,-0.9248527901812365,8.910588839275055,0.32666666666666666,-0.3711111111111111,-0.6466666666666666,0.036807509859165734,0.062425975147653155,-0.9124793895434373
1589988264.7905796,-2.5125337198437987,-0.9449325603124027,8.897466280156202,0.32666666666666666,-0.3711111111111111,-0.6466666666666666,0.033830467314828756,0.06978374396489592,-0.9934672947629375
1589988264.8005795,-2.5146915149792846,-0.968766059917139,8.914074544937854,0.32666666666666666,-0.3711111111111111,-0.6466666666666666,0.032213158579298976,0.07199483164476607,-1.0502961704133333
1589988264.8105795,-2.52,-0.9954367704690068,8.919126459061987,0.3339156939586757,-0.36718455466127287,-0.6448544098436644,0.031041033033901197,0.0746636001079982,-1.111587870543817
1589988264.8205795,-2.52,-1.0145507888181566,8.84904290063659,0.3533333333333333,-0.3566666666666667,-0.64,0.028956017074655716,0.08578362110922295,-1.203923577174604
1589988264.8305795,-2.5115697595435402,-1.0157848797717701,8.745203437033013,0.3533333333333333,-0.3566666666666667,-0.64,0.031120390083033824,0.09145855152658117,-1.2777973040056438
1589988264.8405795,-2.512484651046235,-1.0536962786618218,8.726180929708056,0.3533333333333333,-0.3566666666666667,-0.64,0.03694938129038052,0.09203968442870078,-1.359670341048094
1589988264.8505795,-2.525728376166486,-1.1487405139978317,8.817283761664859,0.3533333333333333,-0.3566666666666667,-0.64,0.041928290821049125,0.0922546546353145,-1.4236310040415707
1589988264.8605795,-2.546078005703247,-1.1959804985741882,8.904214515683929,0.3662850601498379,-0.3539869990494588,-0.6453593352344157,0.04647790043658025,0.0949129144549807,-1.477540339244437
1589988264.8705795,-2.5841900071431256,-1.207737508928907,8.987737508928907,0.3855555555555555,-0.35,-0.6533333333333333,0.05334408177612119,0.1001096324991268,-1.5341956916793167
1589988264.8805795,-2.625962723583346,-1.293209078611153,8.92954456636104,0.3855555555555555,-0.35,-0.6533333333333333,0.0634082078540943,0.11059397644004162,-1.6003977982321294
1589988264.8905795,-2.64,-1.3586789759561018,8.85,0.3855555555555555,-0.35,-0.6533333333333333,0.0638197987931132,0.11753391780545784,-1.645989274582306
1589988264.9005795,-2.64,-1.412169386169386,8.865835275835275,0.3855555555555555,-0.35,-0.6533333333333333,0.059359163186757415,0.11820961103889603,-1.6946802920860518
1589988264.9105794,-2.617692800879282,-1.4971786652011967,8.892564266959761,0.4293437612369651,-0.32190945295909573,-0.6640738366136791,0.052387919311031636,0.1207744569724803,-1.7638446341669745
1589988264.9205794,-2.6236621525302923,-1.5441553813257307,8.814858161083393,0.4444444444444444,-0.31222222222222223,-0.6677777777777778,0.049033582297052736,0.12366335729312351,-1.8064238618013997
1589988264.9305794,-2.6638699738098905,-1.5870959790479127,8.712260052380218,0.4444444444444444,-0.31222222222222223,-0.6677777777777778,0.047257626229160514,0.12731042200733014,-1.847936919411876
1589988264.9405794,-2.6627561042416654,-1.6057479652527784,8.691495930505555,0.4444444444444444,-0.31222222222222223,-0.6677777777777778,0.05004075236457285,0.13059904956491694,-1.882275510216085
1589988264.9505794,-2.6603119259813592,-1.6546850125858903,8.754996938567249,0.4444444444444444,-0.31222222222222223,-0.6677777777777778,0.05460959081728822,0.13349033352037673,-1.9104189844598536
1589988264.9605794,-2.6660101683613937,-1.7413989831638605,8.851606101016836,0.447397853345928,-0.30755894500935343,-0.6701094163842122,0.05966788920447536,0.13574342625232358,-1.9392315606239499
1589988264.9705794,-2.6332845928890256,-1.7786917038633216,8.83279051870094,0.4655555555555556,-0.2788888888888889,-0.6844444444444444,0.07061857492256762,0.1328847473613964,-1.9840974528213122
1589988264.9805794,-2.700873684210526,-1.8838842105263158,8.848057894736844,0.4655555555555556,-0.2788888888888889,-0.6844444444444444,0.07415525071557355,0.14362968913130836,-2.0181959792641027
1589988264.9905794,-2.6762744091266466,-1.992026378704491,8.814575196957785,0.4655555555555556,-0.2788888888888889,-0.6844444444444444,0.06813058508253382,0.15140443514022195,-2.052052444521243
1589988265.0005794,-2.6427772876451283,-2.032870452059145,8.837222712354873,0.4655555555555556,-0.2788888888888889,-0.6844444444444444,0.06966169253701553,0.14914086211649916,-2.077911651096184
1589988265.0105793,-2.5795804633688166,-2.080839073262367,8.852773951158422,0.4837062547832742,-0.24258749043345162,-0.6973011897307452,0.06902493042855157,0.15232218972389303,-2.119593498383851
1589988265.0205793,-2.568004385964912,-2.101155355493998,8.84,0.4922222222222222,-0.2255555555555556,-0.7033333333333334,0.06751693602954577,0.15159110702143702,-2.1307133211742353
1589988265.0305793,-2.400620233858668,-2.192816471784443,8.719715302491103,0.4922222222222222,-0.2255555555555556,-0.7033333333333334,0.05934740570393529,0.15285162358658017,-2.1721823730431353
1589988265.0405793,-2.4282182404586994,-2.191418025443469,8.548908797706504,0.4922222222222222,-0.2255555555555556,-0.7033333333333334,0.06607260363124054,0.16015776521151326,-2.210368181373882
1589988265.0505793,-2.41,-2.2756350935788037,8.706179459503494,0.4922222222222222,-0.2255555555555556,-0.7033333333333334,0.0576160944364479,0.15206202878853026,-2.257860281596351
1589988265.0605793,-2.36798733990873,-2.336257912557044,8.77,0.5091439880923173,-0.20221518883818312,-0.7190880808675597,0.05779004058185067,0.15476420664492224,-2.295931268215891
1589988265.0705793,-2.354834054834055,-2.4047012987012986,8.784900432900432,0.5244444444444445,-0.1811111111111111,-0.7333333333333333,0.0708822786908433,0.16849353191475416,-2.329349664078337
1589988265.0805793,-2.3693627632687444,-2.4872303285593933,8.773406908171863,0.5244444444444445,-0.1811111111111111,-0.7333333333333333,0.07243597941968573,0.17395275393607518,-2.3683540094132525
1589988265.0905793,-2.301592865074958,-2.6108555432167315,8.762979363316676,0.5244444444444445,-0.1811111111111111,-0.7333333333333333,0.07373565867087672,0.17839749558199888,-2.4016039555974324
1589988265.1005793,-2.2742359605677485,-2.6557640394322517,8.77,0.5244444444444445,-0.1811111111111111,-0.7333333333333333,0.0761914672284037,0.18200205313055992,-2.419810774132302
1589988265.1105793,-2.2694583954439476,-2.6689748882008946,8.778433283644842,0.5270212811137017,-0.1661186068536143,-0.738018490913801,0.07537914634285194,0.18233964291967286,-2.438703082718118
1589988265.1205792,-2.2260183973376213,-2.751944807987137,8.806018397337622,0.5366666666666666,-0.11,-0.7555555555555555,0.06676285756522171,0.17976489927897735,-2.4628536586618672
1589988265.1305792,-2.2011834388022846,-2.7963431856768017,8.724733755209137,0.5366666666666666,-0.11,-0.7555555555555555,0.06503933326628342,0.18230945094492348,-2.4744263455060085
1589988265.1405792,-2.1476059763724806,-2.884788047255038,8.6279925295344,0.5366666666666666,-0.11,-0.7555555555555555,0.06069480261976328,0.18435040224190105,-2.48970973326576
1589988265.1505792,-2.13,-2.9428547628587696,8.672854762858769,0.5366666666666666,-0.11,-0.7555555555555555,0.054822350009951844,0.18335317508778096,-2.497908888288508
1589988265.1605792,-2.11300566512799,-2.983595467897608,8.68300566512799,0.5506397864503193,-0.10735643679768733,-0.7627309413904042,0.05423511775436408,0.18587632939819645,-2.4972395283387363
1589988265.1705792,-2.0729012596505485,-3.0029012596505487,8.678394961397807,0.5777777777777777,-0.10222222222222224,-0.7766666666666666,0.06231875038434446,0.1950129296244055,-2.490154582766339
1589988265.1805792,-2.0292208752548904,-3.005389562372555,8.632532771640486,0.5777777777777777,-0.10222222222222224,-0.7766666666666666,0.06430235661693288,0.20132910380854363,-2.477106728398378
1589988265.1905792,-1.9789143647129406,-3.0674426793958838,8.59271408821765,0.5777777777777777,-0.10222222222222224,-0.7766666666666666,0.05757718259437438,0.20053522732089457,-2.4598063138356543
1589988265.2005792,-1.973770406491529,-3.1329506774858817,8.685901354971763,0.5777777777777777,-0.10222222222222224,-0.7766666666666666,0.04594011669810189,0.19643895941262862,-2.437988990856281
1589988265.2105792,-1.9523115577889447,-3.167537688442211,8.721155778894472,0.5844779452819653,-0.09761585706309325,-0.779179229480737,0.04078830076661371,0.19895876422859984,-2.407381313543862
1589988265.2205791,-1.854595709570957,-3.169884488448845,8.69,0.5955555555555555,-0.09,-0.7833333333333333,0.043043714664103144,0.19900731584994955,-2.35922757578394
1589988265.2305791,-1.798809183835362,-3.117618367670724,8.658213775753042,0.5955555555555555,-0.09,-0.7833333333333333,0.0300236703384281,0.1838308106704284,-2.3185150524161173
1589988265.2405791,-1.7561757036237748,-3.1276485927524504,8.62047028144951,0.5955555555555555,-0.09,-0.7833333333333333,0.02181661564992912,0.16938656977588817,-2.277692437529541
1589988265.250579,-1.701619360166913,-3.1840543771190126,8.61,0.5955555555555555,-0.09,-0.7833333333333333,0.028008310761304396,0.1607647308458647,-2.2269142575366265
1589988265.260579,-1.692332246112923,-3.250045599924,8.605381107698154,0.5904234529979486,-0.08435468718663247,-0.7971900102388718,0.03608056062410156,0.15817046346198613,-2.1610821730086047
1589988265.270579,-1.73,-3.32,8.6,0.5844444444444444,-0.07777777777777778,-0.8133333333333334,0.03490658503988659,0.15817046346198613,-2.1282108566505853
1589988265.280579,-1.7490203750536812,-3.4531426253757695,8.676081500214725,0.5844444444444444,-0.07777777777777778,-0.8133333333333334,0.03283178397956826,0.14157205497943948,-2.0607798221902396
1589988265.290579,-1.7453691187938654,-3.5117897062646217,8.578736028073823,0.5844444444444444,-0.07777777777777778,-0.8133333333333334,0.04176149384333131,0.14354186123253773,-1.9565379950559487
1589988265.300579,-1.6955178078857698,-3.5,8.68275616582833,0.5844444444444444,-0.07777777777777778,-0.8133333333333334,0.04269302472568638,0.13552660939412858,-1.8752522779955079
1589988265.310579,-1.6654893376641717,-3.5116085298686626,8.75,0.561872303033156,-0.06745908456118878,-0.7759280704231982,0.03722935675835596,0.126994054466072,-1.816980551278558
1589988265.320579,-1.624452142400341,-3.5369178568890782,8.747534285511263,0.5066666666666667,-0.042222222222222223,-0.6844444444444444,0.03524279469803186,0.12497484646568909,-1.7574031899839486
1589988265.330579,-1.542804977154931,-3.512439817239449,8.695975114225345,0.5066666666666667,-0.042222222222222223,-0.6844444444444444,0.04066671449484869,0.11444399354233925,-1.65287389177105
1589988265.340579,-1.5455589985562872,-3.570740166907285,8.655558998556288,0.5066666666666667,-0.042222222222222223,-0.6844444444444444,0.041128610996204455,0.10556836684816057,-1.5884161689212661
1589988265.350579,-1.46330774315996,-3.556644275264965,8.61334612842002,0.5066666666666667,-0.042222222222222223,-0.6844444444444444,0.03745220579757222,0.09744266485696883,-1.4780464000064106
1589988265.360579,-1.419571079162441,-3.516380719441627,8.655951798604068,0.5116294484545991,-0.005710327639576573,-0.6649478017061384,0.03539496331481566,0.08552639130436629,-1.3881040029600833
1589988265.370579,-1.4533334108455027,-3.570000232536508,8.685555529718165,0.5222222222222223,0.07222222222222223,-0.6233333333333333,0.03139169712553051,0.08423639118489194,-1.2876649115531664
1589988265.380579,-1.0450470809792844,-3.040064251689376,8.180055389387393,0.5222222222222223,0.07222222222222223,-0.6233333333333333,0.03381575425739013,0.08508504271651873,-1.193919306339621
1589988265.390579,-0.9357465112247552,-2.7964512004853948,8.021627372800555,0.5222222222222223,0.07222222222222223,-0.6233333333333333,0.055271801025543216,0.1579993031582664,-1.0854059392836855
1589988265.400579,-1.1167595446512966,-3.0452911683721693,7.543272510582336,0.5222222222222223,0.07222222222222223,-0.6233333333333333,0.1405597305233469,0.15783841301173537,-0.9960313876085887
1589988265.410579,-1.004210416230914,-3.0123419786655514,7.02594603639406,0.5261374189500104,0.09390638871458785,-0.6215263194589695,0.1423909265449116,0.053358851309690265,-0.9192718713283312
1589988265.420579,-1.1905968554419173,-3.2963776522668295,8.771054800793772,0.5366666666666666,0.15222222222222226,-0.6166666666666667,-0.1112647398146385,0.05017821599483697,-0.8333947178272924
1589988265.430579,-1.3,-3.61,8.72,0.5366666666666666,0.15222222222222226,-0.6166666666666667,-0.1112647398146385,0.05017821599483697,-0.8333947178272924
1589988265.440579,-1.0741064591310139,-3.0894627101714667,7.777140003329449,0.5366666666666666,0.15222222222222226,-0.6166666666666667,0.1651448254476612,0.11338815533776594,-0.6994753548126122
1589988265.450579,-1.1911779511704002,-3.4447086584445006,8.627077145733702,0.5366666666666666,0.15222222222222226,-0.6166666666666667,-0.015722048246338622,-0.009626108037836836,-0.5576732349412181
1589988265.460579,-1.1747275153851857,-3.43165344405724,8.146497367835694,0.5366666666666666,0.15922501503505437,-0.6180220459207633,0.03134017417355743,0.03043504424941435,-0.45723110053849664
1589988265.470579,-1.2908929775551488,-3.667455688276659,8.811325257682304,0.5366666666666666,0.18666666666666668,-0.6233333333333333,0.01846294935200352,0.010273601088236477,-0.3481195828038292
1589988265.480579,-1.21335459997448,-3.519974480030624,8.399974480030624,0.5366666666666666,0.18666666666666668,-0.6233333333333333,0.02617715498309857,0.012004706201093764,-0.27020186091985426
1589988265.490579,-1.1802945666075333,-3.5601963777383556,8.4417673996452,0.5366666666666666,0.18666666666666668,-0.6233333333333333,0.030468286701202427,0.0032671369754394865,-0.20790418357668292
1589988265.5005789,-1.229448018629618,-3.5859306915061575,8.750757420271551,0.5366666666666666,0.18666666666666668,-0.6233333333333333,0.01949212052316908,-0.0012714662635496562,-0.0871152549225722
1589988265.5105789,-1.204978048982522,-3.5549780489825222,8.65748902449126,0.5352716802729227,0.19810555509536654,-0.6219383469395894,0.022340480680162457,-0.008457530291183348,-0.009178676753488692
1589988265.5205789,-1.1816897196261682,-3.5150691588785046,8.547506542056075,0.5311111111111111,0.23222222222222225,-0.6177777777777778,0.008844496763202106,-0.0124191594321232,0.07720431323220243
1589988265.5305789,-1.1736928241712128,-3.480808854385229,8.37356763183662,0.5311111111111111,0.23222222222222225,-0.6177777777777778,0.009883126775881042,-0.01735823201113153,0.1444444812857451
1589988265.5405788,-1.2435521811638726,-3.625235671026069,8.819351794961818,0.5311111111111111,0.23222222222222225,-0.6177777777777778,-0.0021715603934355197,-0.024691523970005465,0.235088730593238
1589988265.5505788,-1.2045542244640606,-3.514564943253468,8.477325346784363,0.5311111111111111,0.23222222222222225,-0.6177777777777778,0.002180492326449252,-0.02697433320222478,0.2984962833855923
1589988265.5605788,-1.2639601537923804,-3.6433904229290457,8.823191191890947,0.536479863295662,0.23490659831449767,-0.6189521923181482,-0.004733160899654318,-0.03507129629400699,0.3465578165340418
1589988265.5705788,-1.2323910733262486,-3.5553134962805526,8.567704569606802,0.5666666666666667,0.25,-0.6255555555555555,0.005193328273734456,-0.03617129958154825,0.39506506004843217
1589988265.5805788,-1.2912230688982629,-3.6760021771669615,8.685560393704359,0.5666666666666667,0.25,-0.6255555555555555,-0.003466444207941407,-0.04119708213429516,0.4655537583452417
1589988265.5905788,-1.2310162079946765,-3.596577308807453,8.537325443224487,0.5666666666666667,0.25,-0.6255555555555555,-0.005080796221301285,-0.04175488073242245,0.5165811442274687
1589988265.6005788,-1.2365217391304348,-3.6521739130434785,8.713478260869564,0.5666666666666667,0.25,-0.6255555555555555,-0.007825525178778924,-0.04647887681941421,0.5599281833979635
1589988265.6105788,-1.312527930686297,-3.663187844044168,8.769451809387316,0.5704027013235182,0.25,-0.6294991476933433,-0.005106414071164642,-0.049015399831885874,0.605170754022258
1589988265.6205788,-1.287382748798678,-3.597382748798678,8.702148246396034,0.5866666666666667,0.25,-0.6466666666666666,-0.01470063531976481,-0.05506137427213367,0.6641773127658273
1589988265.6305788,-1.2927362448031763,-3.5930512378740778,8.744842503464548,0.5866666666666667,0.25,-0.6466666666666666,-0.019037998072986107,-0.05781403147231216,0.7051254341312194
1589988265.6405787,-1.2669418029669075,-3.5369418029669077,8.753883605933815,0.5866666666666667,0.25,-0.6466666666666666,-0.02355348048657049,-0.05781403147231216,0.7428980849568513
1589988265.6505787,-1.2269020324097462,-3.48,8.628731978393503,0.5866666666666667,0.25,-0.6466666666666666,-0.019573657644121306,-0.0593504695755875,0.7935259612346037
1589988265.6605787,-1.2796225137809871,-3.489622513780987,8.612830018374648,0.6048425260307534,0.24857444240281673,-0.6477358348645541,-0.03071820414718905,-0.06414289657123587,0.8221055809712058
1589988265.6705787,-1.3482993369555207,-3.543659867391104,8.683659867391103,0.7,0.2411111111111111,-0.6533333333333333,-0.02963794468736152,-0.069520798499291,0.8634378440195069
1589988265.6805787,-1.3866560384464313,-3.5300318846607057,8.653391788544626,0.7,0.2411111111111111,-0.6533333333333333,-0.025816908198572575,-0.07090400086226964,0.9042743721509909
1589988265.6905787,-1.4090971964352024,-3.459676011882659,8.583032398811735,0.7,0.2411111111111111,-0.6533333333333333,-0.02707380837860564,-0.07255791784659227,0.949396450061502
1589988265.7005787,-1.4229822805674928,-3.4133923981083574,8.608713918486686,0.7,0.2411111111111111,-0.6533333333333333,-0.03035823529574682,-0.07763401217140233,0.9945764230784906
1589988265.7105787,-1.407364982716519,-3.482635017283481,8.676444359876955,0.7436784391660236,0.24837380240101198,-0.6746099500699444,-0.02708375813913496,-0.0818123086872342,1.0375358478202439
1589988265.7205787,-1.4938019334940258,-3.3996485498794806,8.757252416867532,1.1744444444444444,0.32,-0.8844444444444445,-0.037126583865876965,-0.0818123086872342,1.096406931454074
1589988265.7305787,-1.5163125069114232,-3.3873749861771536,8.69781267278558,1.1744444444444444,0.32,-0.8844444444444445,-0.03967215126699867,-0.0818123086872342,1.1344162695937585
1589988265.7405787,-1.5390952908226405,-3.41454764541132,8.58364293623396,1.1744444444444444,0.32,-0.8844444444444445,-0.040043358563818646,-0.08117754791013373,1.1622121683667108
1589988265.7505786,-1.606037892850285,-3.444056839275427,8.686037892850285,1.1744444444444444,0.32,-0.8844444444444445,-0.03926990816987242,-0.08157554192134765,1.1896125164999787
1589988265.7605786,-1.5941645170535972,-3.418611827648801,8.675552689404796,1.1695087205290702,0.21125983248941116,-0.916526649894377,-0.03896705594345275,-0.08959955027791923,1.2135169906188155
1589988265.7705786,-1.6410421520864225,-3.4135070253477373,8.66440867047942,1.1388888888888888,-0.4633333333333333,-1.1155555555555556,-0.036323132364018115,-0.08977384070634445,1.2454183640004561
1589988265.7805786,-1.68324011375948,-3.40703954496208,8.59296045503792,1.1388888888888888,-0.4633333333333333,-1.1155555555555556,-0.035260026622649696,-0.09047794287879156,1.267362333055639
1589988265.7905786,-1.6926781288377803,-3.3826781288377803,8.628034386513342,1.1388888888888888,-0.4633333333333333,-1.1155555555555556,-0.03482886167208606,-0.09577869368991439,1.2870623864774726
1589988265.8005786,-1.6947196699793736,-3.382079504969061,8.65792049503094,1.1388888888888888,-0.4633333333333333,-1.1155555555555556,-0.03134609536598526,-0.09860676641429898,1.307513589129881
1589988265.8105786,-1.6705202729016717,-3.345780409352508,8.694219590647494,1.1388888888888888,-0.4633333333333333,-1.1155555555555556,-0.030026223003474656,-0.10058657495806489,1.320712312754987
1589988265.8205786,-1.6225405853774144,-3.1707974878540113,8.354135561085437,0.6893759134178615,-0.04087437953417333,-0.7565694987557767,-0.01617231929390468,-0.08510250974632469,1.3366657021568438
1589988265.8305786,-1.727139604599097,-3.3819320380981295,8.934573483094903,0.6588888888888889,-0.012222222222222223,-0.7322222222222222,-0.05200257283875413,-0.10903779426391147,1.32400183320109
1589988265.8405786,-1.6840008569938147,-3.2988018853863923,8.573204970564126,0.6588888888888889,-0.012222222222222223,-0.7322222222222222,-0.029191043067107913,-0.09717122480148896,1.3164577167369969
1589988265.8505785,-1.723071391310828,-3.3847570608838216,8.799814069602801,0.6588888888888889,-0.012222222222222223,-0.7322222222222222,-0.04794355333660405,-0.09802361163192061,1.2934432723153424
1589988265.8605785,-1.6608278152014198,-3.2495860923992903,8.6341390760071,0.6567733611519272,-0.007669238614413511,-0.7316243556878635,-0.02790287397516043,-0.09254001525141332,1.2429745843839748
1589988265.8705785,-1.6768356773467168,-3.2415821613266416,8.714178386733584,0.615864380113946,0.08037400318472011,-0.7200631219162601,-0.04012618212819525,-0.08904764149340337,1.189715884574323
1589988265.8805785,-1.7261560855840057,-3.254874780778674,8.770780427920027,0.6077777777777778,0.09777777777777777,-0.7177777777777777,-0.032977142223340423,-0.08396665165599063,1.085914736059422
1589988265.8905785,-1.7040885654156437,-3.2254514205541915,8.660442827078219,0.6077777777777778,0.09777777777777777,-0.7177777777777777,-0.028162756164738297,-0.07754747024452112,1.0201181265918597
1589988265.9005785,-1.6887052093374124,-3.1912549767402876,8.712589581325174,0.6077777777777778,0.09777777777777777,-0.7177777777777777,-0.02180358657432409,-0.06461978054361042,0.8941553318927491
1589988265.9105785,-1.6104302397049786,-3.200645359557468,8.87057365293997,0.6078654191991623,0.09773794076805754,-0.717825582189442,0.0009891450611205315,-0.04375056097836892,0.7997389789028805
1589988265.9205785,-1.674911537360435,-3.2826326939593473,8.937721156598911,0.62,0.09222222222222222,-0.7244444444444444,-0.01871550833920873,-0.059727810230197874,0.6376434631540272
1589988265.9305785,-1.6886908913503063,-3.2604363695498977,8.880799739804493,0.62,0.09222222222222222,-0.7244444444444444,-0.03409339447209198,-0.05719124303954668,0.5300286517561585
1589988265.9405785,-1.6659546826156875,-3.268015105794771,8.547335345030087,0.62,0.09222222222222222,-0.7244444444444444,-0.0010249193187762268,-0.027429615401562503,0.43330336193271
1589988265.9505785,-1.6786247142341475,-3.335186499819516,8.65555949945855,0.62,0.09222222222222222,-0.7244444444444444,-0.010648954964152024,-0.02572987756547861,0.25559762564011435
1589988265.9605784,-1.720359935544059,-3.259280128911882,8.750719871088117,0.62,0.09222222222222222,-0.7244444444444444,-0.0031939665932545283,-0.01297218075860521,0.12841133042548736
1589988265.9705784,-1.7311404538341157,-3.166842723004695,8.603949530516433,0.5678271170231264,0.013470700747696046,-0.7313352025734655,0.01848650900054733,0.010850693523072143,-0.0845662723176918
1589988265.9805784,-1.7694666773118302,-3.2209714376958543,8.866895271551467,0.5611111111111111,0.0033333333333333327,-0.7322222222222222,-0.0687866774334871,0.19301244909404316,-0.32129015165985375
1589988265.9905784,-1.7108648529969461,-3.170741302568811,8.682718109418973,0.5611111111111111,0.0033333333333333327,-0.7322222222222222,-0.46968570358065465,1.2304185850921807,-0.4884075133567368
1589988266.0005784,-5.7738028673835124,0.9251433691756272,-0.3423548387096774,0.5611111111111111,0.0033333333333333327,-0.7322222222222222,-0.7516852365579064,1.1830063745961819,-1.8064834151422213
1589988266.0105784,-3.038947318784541,-0.03682780994775261,-0.36002716109927,0.5600471966015094,0.011435451521838906,-0.7248566602326717,0.09595909819738233,-1.5047052564387207,-2.285834186699362
1589988266.0205784,-0.1276124639266647,-0.4323896108795292,0.3915402606711054,0.5486198556857025,0.09845904772682976,-0.6457443000463164,0.08387735050997104,-0.5019201983835841,-2.1745095115796436
1589988266.0305784,-0.20965929370159958,-0.4886839994105995,0.1220329409453331,0.5466666666666666,0.11333333333333333,-0.6322222222222222,0.26069059051806603,-0.21521670393951603,-1.9659950020743637
1589988266.0405784,0.037553005124510874,-0.13846657607360968,-0.015307225069172703,0.5466666666666666,0.11333333333333333,-0.6322222222222222,0.3355980308989643,-0.14180741236623573,-1.822921790946848
1589988266.0505784,-0.07395211519780576,-0.1,-0.1385762175958553,0.5466666666666666,0.11333333333333333,-0.6322222222222222,0.39713570726105696,-0.003815383292725648,-1.5546051949489275
1589988266.0605783,-0.0020511990247804868,-0.1,-0.002763375935696477,0.5466666666666666,0.11333333333333333,-0.6322222222222222,0.39800717095718174,0.054572684347636874,-1.3750836735472154
1589988266.0705783,3.7532298115044864,3.1603354315921264,15.781901474577449,0.56,0.15777777777777774,-0.6466666666666666,0.2378740817538084,0.4010267860198791,-1.0909934549036113
1589988266.0805783,0.6754065521318777,0.9212554774987827,15.482871252695277,0.56,0.15777777777777774,-0.6466666666666666,-0.1543511520667502,1.451203882659103,-0.906416874282172
1589988266.0905783,-1.1645084276858446,0.2780142425329167,-1.6454659562477587,0.56,0.15777777777777774,-0.6466666666666666,0.11826977466595266,1.1098794408828845,-0.6570251686801181
1589988266.1005783,-0.7562308519903683,0.012991956555151396,3.504561709103949,0.56,0.15777777777777774,-0.6466666666666666,-0.1036297626209759,0.16993175300902874,-0.4906005157149217
1589988266.1105783,4.254851738865161,-0.5775094569859671,18.64584624771202,0.5590774862721172,0.1571115178631957,-0.6460004067520846,0.04773086825023906,-1.4250235312097792,-0.304967668284699
1589988266.1205783,1.755502745576571,-1.4561201952410006,9.322336180597926,0.5420170835875534,0.14479011592434413,-0.633679004813233,-0.03787518883625463,-1.5534326168395194,-0.15515706838333498
1589988266.1305783,0.03750894925247422,-0.6203993823261039,3.0281483821155333,0.54,0.14333333333333334,-0.6322222222222222,0.25519950553478415,0.35695318402896975,0.17718010590232003
1589988266.1405783,-0.5883569377990431,-3.720036363636364,14.550242583732057,0.54,0.14333333333333334,-0.6322222222222222,-0.3165462014439512,0.9812748891243877,0.3871341223435988
1589988266.1505783,-0.5681488950686734,-1.489314751523128,5.641914365168659,0.54,0.14333333333333334,-0.6322222222222222,-0.23476791696742177,0.12320587152057419,0.359454735945142
1589988266.1605783,-1.1550180417099871,-3.5122753960002444,13.151745458993334,0.5390697476878751,0.14333333333333334,-0.6322222222222222,-0.05337322072971123,-0.10501602932338228,0.3797013102257999
1589988266.1705782,-0.8759798716871298,-2.3453911902760978,8.49777440711665,0.5188888888888888,0.14333333333333334,-0.6322222222222222,-0.006990555765829359,0.009525400823152487,0.45221709607496674
1589988266.1805782,-0.9644488188976379,-2.5019605235156415,9.044414237071718,0.5188888888888888,0.14333333333333334,-0.6322222222222222,-0.017810267415832616,-0.05976999390381238,0.45251776718726267
1589988266.1905782,-0.523163177135261,-1.6172969978952032,5.970539492633211,0.5188888888888888,0.14333333333333334,-0.6322222222222222,-0.018074728919862018,-0.019713138145673464,0.47074180692216483
1589988266.2005782,-1.4965234685759745,-3.4173548130469373,12.250342084327764,0.5188888888888888,0.14333333333333334,-0.6322222222222222,0.03429912159696892,-0.05568617381226339,0.4746758394180053
1589988266.2105782,-1.2155336431771553,-2.7236611815936023,9.651186199388686,0.5188888888888888,0.14333333333333334,-0.6322222222222222,0.0017321842911769067,0.01711050957715403,0.4852122014875263
1589988266.2205782,-1.1809969788519636,-2.746801899007337,9.520353905912819,0.5455555555555556,0.15222222222222226,-0.6344444444444445,-0.02241923256904671,-0.07802900434189905,0.45807642630043016
1589988266.2305782,-1.0542809667673716,-2.426994820889081,8.385943892965042,0.5455555555555556,0.15222222222222226,-0.6344444444444445,-0.02505210355222892,-0.004308616812797178,0.46729147474156796
1589988266.2405782,-1.3392872304770416,-2.8525025136856215,9.703579488325326,0.5455555555555556,0.15222222222222226,-0.6344444444444445,-0.02617993877991494,-0.04967210268462498,0.4546815710992333
1589988266.2505782,-1.349529677872241,-2.752413228297325,9.424857265423913,0.5455555555555556,0.15222222222222226,-0.6344444444444445,-0.029503735312869202,-0.021512151259073214,0.4618352152016535
1589988266.2605782,-1.3201230398876593,-2.6900615199438294,9.051353438764252,0.5455555555555556,0.15222222222222226,-0.6344444444444445,0.01390565799374005,-0.05535051694375869,0.4722827533270387
1589988266.2705781,-1.1632837765001796,-2.5560148670499463,8.312656755300036,0.5544444444444444,0.16333333333333333,-0.6466666666666666,-0.024082892053287615,-0.03024534614575372,0.49849345016515423
1589988266.2805781,-1.25471967442143,-2.5461817408734735,8.36775739537144,0.5544444444444444,0.16333333333333333,-0.6466666666666666,-0.006067319681857376,-0.041954015815389566,0.5283422297007188
1589988266.2905781,-1.3141663123367553,-2.749998785154589,8.843330498694042,0.5544444444444444,0.16333333333333333,-0.6466666666666666,-0.041269554782577295,-0.03454301895208011,0.5468697218589924
1589988266.300578,-1.3186379669869235,-2.667475103774872,8.684651452848206,0.5544444444444444,0.16333333333333333,-0.6466666666666666,0.0048924439799914125,-0.052878135382340374,0.590744615373054
1589988266.310578,-1.2450723988073198,-2.65112719973496,8.455780796289439,0.5544444444444444,0.16333333333333333,-0.6466666666666666,-0.005807234193629039,-0.03504533842630629,0.6299767686763289
1589988266.320578,-5.323751964826753,-10.656145066861061,6.708272774904891,0.5422222222222223,0.17777777777777778,-0.6611111111111111,-0.04789792565394301,0.030795462324770963,0.589798762849957
1589988266.330578,-17.19611559073701,-21.268316288903094,6.328356605536162,0.5422222222222223,0.17777777777777778,-0.6611111111111111,-0.34416411091480753,0.39582824127340166,0.015464466496445367
1589988266.340578,0.9660403196658769,2.275747158748645,1.6109433356090117,0.5422222222222223,0.17777777777777778,-0.6611111111111111,-0.225832023376983,-0.6274277213543963,-1.5322982927821902
1589988266.350578,1.0839476326251958,0.7008423356491709,10.218177181639291,0.5422222222222223,0.17777777777777778,-0.6611111111111111,0.41541522424668065,-0.027521628663490283,-1.6021189100019586
1589988266.360578,0.6365946012534454,0.3258992008130457,5.249770714956653,0.5422222222222223,0.17777777777777778,-0.6611111111111111,0.7410744135863623,0.4577592826365688,-1.5876571128085994
1589988266.370578,0.6141240356527601,-0.6335061044116546,6.005675230319826,0.5617869656039082,0.16520044274669393,-0.6841695586680981,0.27099754813640287,0.15508842325695793,-1.5028498491642057
1589988266.380578,-0.7719350603885877,-2.148328155084894,11.673019648170838,0.5733333333333334,0.15777777777777774,-0.6977777777777778,-0.3839819584888622,-0.014174451472380722,-1.344850435038276
1589988266.390578,-0.578209530295156,-1.8095777853443487,6.564605114603681,0.5733333333333334,0.15777777777777774,-0.6977777777777778,0.17250307797211978,0.16816704467157007,-1.0943147905706636
1589988266.400578,-0.8037054891489399,-2.0726564040070965,7.7897998243759075,0.5733333333333334,0.15777777777777774,-0.6977777777777778,0.11674807976963375,0.1730866033364953,-1.040199645256486
1589988266.410578,-1.2423664670658683,-2.6642203592814373,9.932039520958083,0.5733333333333334,0.15777777777777774,-0.6977777777777778,-0.0669546708759642,-0.00825203689077289,-1.0146189427488173
1589988266.420578,-1.299789582107122,-2.9836771630370804,9.292236609770452,0.54,0.20444444444444448,-0.6755555555555556,0.0686045244364244,0.0752957343878561,-0.9174212717535699
1589988266.430578,-5.4784909348251,-10.354571004920132,8.003418480824964,0.54,0.20444444444444448,-0.6755555555555556,0.05712837481142641,0.09407663747009891,-0.8751141980138271
1589988266.440578,-9.27071513827869,-15.848330751453894,8.899796581760926,0.54,0.20444444444444448,-0.6755555555555556,-0.0549959665356482,0.08279573791695266,-1.0627665656101686
1589988266.450578,1.1771662061261685,-1.3747672800674153,8.864265976835794,0.54,0.20444444444444448,-0.6755555555555556,0.08324071190954489,0.03638967196183916,-1.606173281437293
1589988266.460578,-0.2284137809395026,-2.0570078585846705,8.543695102592745,0.54,0.20444444444444448,-0.6755555555555556,0.11462302015535022,0.17716174037873747,-1.6527984251167749
1589988266.470578,-0.89,-2.47,9.63,0.5466666666666666,0.22333333333333333,-0.6844444444444444,-0.05563236990731925,0.07853981633974483,-1.5718871575773932
1589988266.480578,-0.9461094787497397,-2.612866992110682,9.553615667584388,0.5466666666666666,0.22333333333333333,-0.6844444444444444,-0.05074618089223147,0.08008282339714097,-1.5638635208789333
1589988266.490578,-2.069414206990262,-5.487125386880049,8.0185830754133,0.5466666666666666,0.22333333333333333,-0.6844444444444444,0.04749721134348047,0.11095265038566125,-1.4040270172823777
1589988266.500578,-1.4836623386427115,-4.774724465916811,8.493517022722125,0.5466666666666666,0.22333333333333333,-0.6844444444444444,0.019866674310039627,0.09368356473976074,-1.5318182510620415
1589988266.510578,-0.8053226280231078,-3.5461431508861256,8.54800842064036,0.5466666666666666,0.22333333333333333,-0.6844444444444444,0.05788975839141429,0.12325928567524283,-1.6941787621707385
1589988266.520578,-0.794851003398985,-3.24,8.804454532755972,0.5322662745158904,0.25298119952610804,-0.687832772009333,0.06591427665017137,0.12892325195448573,-1.7347341447104212
1589988266.530578,-1.1079399624765478,-4.34153095684803,9.001641651031894,0.5277777777777778,0.26222222222222225,-0.6888888888888889,0.059487730185118166,0.11463710559962473,-1.6965414870944797
1589988266.540578,-1.191307793553446,-4.76346103223277,8.544544232546418,0.5277777777777778,0.26222222222222225,-0.6888888888888889,0.059710376744255236,0.11586294484797124,-1.6850482426639748
1589988266.5505779,-1.0380055671784687,-4.413143505549448,8.529476082408426,0.5277777777777778,0.26222222222222225,-0.6888888888888889,0.041973931505803364,0.1232067278784614,-1.74300319585783
1589988266.5605779,-0.862185943735365,-3.9666544639029055,8.590096632696811,0.5277777777777778,0.26222222222222225,-0.6888888888888889,0.03764947348416926,0.13228167911374375,-1.812817179965825
1589988266.5705779,-0.8175121031350293,-4.179709524759297,8.799806349839532,0.5201462852491846,0.2955232805288108,-0.6861138006966732,0.041313235516215074,0.13008553155437877,-1.8335429301689905
1589988266.5805779,-0.7849679650957117,-4.293247906921898,8.544519476435676,0.5155555555555555,0.31555555555555553,-0.6844444444444444,0.06438697189506055,0.12944758250022692,-1.8580740589360856
1589988266.5905778,-0.6944331260748776,-4.294261145654187,8.619742029368965,0.5155555555555555,0.31555555555555553,-0.6844444444444444,0.06327756546163825,0.128253213449753,-1.8993837377372569
1589988266.6005778,-0.565247503717867,-4.091544508179307,8.575772254089655,0.5155555555555555,0.31555555555555553,-0.6844444444444444,0.06832164959620675,0.14106386370826646,-1.9681546719060048
1589988266.6105778,-0.5184042684431286,-4.129914877868245,8.736382926227485,0.5155555555555555,0.31555555555555553,-0.6844444444444444,0.05511016797646834,0.14362295790064702,-2.0065228694051975
1589988266.6205778,-0.41,-4.17,8.4,0.4888888888888889,0.3477777777777778,-0.6766666666666666,0.06326818538479445,0.14835298641951802,-2.0311269170084008
1589988266.6305778,-0.41,-4.17,8.4,0.4888888888888889,0.3477777777777778,-0.6766666666666666,0.06326818538479445,0.14835298641951802,-2.0311269170084008
1589988266.6405778,-0.34,-4.29,8.58,0.4888888888888889,0.3477777777777778,-0.6766666666666666,0.07417649320975901,0.14835298641951802,-2.0878501176982165
1589988266.6505778,-0.34,-4.29,8.58,0.4888888888888889,0.3477777777777778,-0.6766666666666666,0.07417649320975901,0.14835298641951802,-2.0878501176982165
1589988266.6605778,-0.2585630954695703,-4.29,8.49115974051226,0.4888888888888889,0.3477777777777778,-0.6766666666666666,0.05640971675115544,0.14996814791575472,-2.1104623786455305
1589988266.6705778,-0.18693353086419753,-4.397666172839506,8.583816098765432,0.47513154458161866,0.362133267489712,-0.6760685212620028,0.045480392972160284,0.14701128071750338,-2.1207422911194564
1589988266.6805778,-0.0914550196314447,-4.4420995615166365,8.604843664918464,0.4633333333333333,0.3744444444444445,-0.6755555555555556,0.051321254595714454,0.14863422087110822,-2.13901265427362
1589988266.6905777,-0.27740856091220306,-4.775896888110988,8.490431906514633,0.4633333333333333,0.3744444444444445,-0.6755555555555556,0.06790874367336999,0.1534356777891461,-2.1777584847958416
1589988266.7005777,-11.619704033272075,-24.234194796401976,7.988626559628591,0.4633333333333333,0.3744444444444445,-0.6755555555555556,0.014436125686879055,0.18107179052257838,-1.8652320126837674
1589988266.7105777,-0.3331484333833252,-6.330845324470026,7.660793239025576,0.4633333333333333,0.3744444444444445,-0.6755555555555556,-0.012090553330934383,-0.06999725965712819,0.0519604825430775
1589988266.7205777,0.5656662683457423,-2.182458252903147,7.026933541685816,0.42491749309747295,0.4326170025158903,-0.6678723875083835,0.2993498763295101,0.013480318156963517,0.7357722980938984
1589988266.7305777,0.04313901163497785,-3.124772367940974,8.468476101674302,0.4244444444444445,0.43333333333333335,-0.6677777777777778,-0.0072457308164948775,-0.006775471176446751,0.1845589986987476
1589988266.7405777,0.10921649484536082,-3.9123711340206184,9.54220618556701,0.4244444444444445,0.43333333333333335,-0.6677777777777778,-0.15696492676215498,-0.01825623394128605,-0.09562874888697798
1589988266.7505777,-0.1942879432070835,-4.1969462105550575,8.765791239224558,0.4244444444444445,0.43333333333333335,-0.6677777777777778,-0.0039007720734457185,0.03243495148976619,-0.33783131877199785
1589988266.7605777,-1.8907746742796676,-7.54534930887767,8.720699940477502,0.4244444444444445,0.43333333333333335,-0.6677777777777778,0.014273528364012897,0.04690572364734761,-0.4574153274525318
1589988266.7705777,1.0782322023758655,-3.662487394239809,9.052264336381507,0.41,0.4488888888888889,-0.6755555555555556,-0.040077892990989995,-0.01684494996194136,-0.012473516219351725
1589988266.7805777,0.35534484232116903,-4.40927185710623,8.795370481155457,0.41,0.4488888888888889,-0.6755555555555556,0.005540573888157367,0.0033575139416810416,0.044223721187588556
1589988266.7905777,-0.013416998815038245,-4.637811052461489,8.742680168049123,0.41,0.4488888888888889,-0.6755555555555556,-0.00021198521292940115,-0.008220537439524354,0.01984928946652336
1589988266.8005776,-0.034125762018267336,-4.469000358596832,8.631748475963466,0.41,0.4488888888888889,-0.6755555555555556,0.0015273977965725508,-0.005399436347549327,-0.010008206182808416
1589988266.8105776,-0.07557075496139697,-4.487785377480699,8.616038913933364,0.41,0.4488888888888889,-0.6755555555555556,0.011157346657426313,0.0024892296101224265,0.0003660972577972715
1589988266.8205776,-0.06541359129577862,-4.501654365183114,8.6142097218591,0.4063909391361476,0.4488888888888889,-0.6635253526760475,0.0025917295211987674,-0.0010005991591348744,-0.00041006795620585545
1589988266.8305776,-0.06315424238088425,-4.533691515238232,8.632149091429389,0.4033333333333333,0.4488888888888889,-0.6533333333333333,-0.00040268184559176653,0.0014935126280882225,0.0003440744684523447
1589988266.8405776,-0.06828974699066544,-4.531710253009335,8.537364048149353,0.4033333333333333,0.4488888888888889,-0.6533333333333333,0.0025262536961136294,0.002181661564992912,0.0027128133589575647
1589988266.8505776,-0.06490745844332918,-4.479074584433292,8.622035914246759,0.4033333333333333,0.4488888888888889,-0.6533333333333333,0.00549453278395295,0.001070641346761121,0.001050451911025786
1589988266.8605776,-0.06307896735003797,-4.448473804100228,8.70228929384966,0.4033333333333333,0.4488888888888889,-0.6533333333333333,0.0059564992956137154,0.00033586323637229526,-8.324107337956996e-05
1589988266.8705776,-0.05523106626806179,-4.49,8.676922334329845,0.4033333333333333,0.44396591097824284,-0.6705637560205946,-0.004262501450786476,0.00028531040552403253,-0.00023489956592435838
1589988266.8805776,-0.05,-4.543323038492108,8.636676961507892,0.4033333333333333,0.44222222222222224,-0.6766666666666666,-0.009037830915125968,-0.0033237949601963093,-0.00025988204244737864
1589988266.8905776,-0.06073465417498593,-4.549265345825014,8.571694056212563,0.4033333333333333,0.44222222222222224,-0.6766666666666666,-0.006890054239085919,-0.001435900326603639,0.0
1589988266.9005775,-0.05864161516907842,-4.505924845507235,8.564075154492764,0.4033333333333333,0.44222222222222224,-0.6766666666666666,0.0012122109858687053,0.001090830782496456,0.00185851137195151
1589988266.9105775,-0.060148661386073124,-4.46477700792089,8.650891968316438,0.4033333333333333,0.44222222222222224,-0.6766666666666666,0.007114724748641537,0.0016443543945495417,0.0021654451233831967
1589988266.9205775,-0.07,-4.479604425425321,8.693083185471245,0.4033333333333333,0.44222222222222224,-0.6879445430191699,0.0078039771584841955,0.0007976579127617336,0.00016816168100900386
1589988266.9305775,-0.05998123160203094,-4.5300187683979685,8.644953079005077,0.4033333333333333,0.44222222222222224,-0.7033333333333334,0.0027199113550561613,2.047314624279567e-06,0.001094925411745015
1589988266.9405775,-0.05592632065082241,-4.528147358698355,8.554810472840954,0.4033333333333333,0.44222222222222224,-0.7033333333333334,-0.0017372920817826075,-0.00020209181607584704,0.0006866471503447621
1589988266.9505775,-0.04491735128179749,-4.489834702563595,8.570330594872809,0.4033333333333333,0.44222222222222224,-0.7033333333333334,0.0043993854363654945,-0.0002681999073266551,-0.0002681999073266551
1589988266.9605775,-0.045901321975773,-4.48,8.625407931854639,0.4033333333333333,0.44222222222222224,-0.7033333333333334,0.0071887190618383345,-0.0006437343668595989,0.0006437343668595989
1589988266.9705775,-0.058318423495653644,-4.46752236475652,8.679114482234787,0.4144245646608715,0.44222222222222224,-0.6917799673671478,0.004459918133659924,-0.0006371311619514176,0.001090830782496456
1589988266.9805775,-0.07,-4.4896111111111106,8.652095238095239,0.43,0.44222222222222224,-0.6755555555555556,-0.00432090193288874,0.0006172717046983914,0.001090830782496456
1589988266.9905775,-0.05536282517350456,-4.5346371748264955,8.534132713280771,0.43,0.44222222222222224,-0.6755555555555556,-0.01003081760790371,-0.002102505391408234,-0.0005058373044558892
1589988267.0005774,-0.05780981078113429,-4.516570567656597,8.588098107811343,0.43,0.44222222222222224,-0.6755555555555556,-0.0023891258194305813,0.0009870986552776208,-0.001090830782496456
1589988267.0105774,-0.06630689550884622,-4.497386208982308,8.635227582035386,0.43,0.44222222222222224,-0.6755555555555556,0.005503804610430478,0.0035576127176005314,-0.0004028552061926462
1589988267.0205774,-0.06308679687741059,-4.503826406245179,8.677652812490358,0.43,0.4522079600659624,-0.6755555555555556,0.008726646259971648,0.0013468692212773668,0.0015082269543542286
1589988267.0305774,-0.06,-4.5023365405379465,8.628692324303572,0.43,0.4566666666666666,-0.6755555555555556,0.0020390162746743747,0.0,0.002181661564992912
1589988267.0405774,-0.052330682034673275,-4.5,8.533306820346732,0.43,0.4566666666666666,-0.6755555555555556,-0.0016731856234662966,0.003346371246932593,0.0005084759415266153
1589988267.0505774,-0.06165220227202725,-4.505826101136013,8.544956606816083,0.43,0.4566666666666666,-0.6755555555555556,-0.0002750744266625418,0.0018212069455453305,-0.0006355290461101233
1589988267.0605774,-0.07,-4.51,8.600600721420644,0.43,0.4566666666666666,-0.6755555555555556,0.0015676909095284112,0.0,-0.0015676909095284112
1589988267.0705774,-0.06441964427253416,-4.487678577090136,8.656741067182399,0.4188392885450683,0.4486061528381049,-0.6829960298588433,0.0040078287064329535,-0.000608722380480014,-0.0009642168040328838
1589988267.0805774,-0.06,-4.475025573841101,8.659948852317799,0.41,0.44222222222222224,-0.6888888888888889,0.0021649235251329944,5.579346619972439e-06,0.0
1589988267.0905774,-0.06,-4.502668419584877,8.593328951037808,0.41,0.44222222222222224,-0.6888888888888889,-0.0047999422635558765,0.0017090160293396928,-0.0006181852468432368
1589988267.1005774,-0.0672640759446315,-4.52,8.564528151889263,0.41,0.44222222222222224,-0.6888888888888889,-0.005258652183436373,0.0013892738003133058,-0.001090830782496456
1589988267.1105773,-0.05851816697672653,-4.514259083488363,8.60444549906982,0.41,0.44222222222222224,-0.6888888888888889,0.0006465716305225971,0.001090830782496456,0.0014141165977577545
1589988267.1205773,-0.05,-4.492705027041405,8.658824954930992,0.41832720920228683,0.43837889489808984,-0.6888888888888889,0.0062499120185538146,0.001090830782496456,0.003272492347489368
1589988267.1305773,-0.06335832809249674,-4.473320835953752,8.700037492138746,0.4244444444444445,0.4355555555555555,-0.6888888888888889,0.006178647928876931,0.001819414556795586,0.0010867410245919778
1589988267.1405773,-0.05752089875713212,-4.482479101242868,8.610167190057057,0.4244444444444445,0.4355555555555555,-0.6888888888888889,0.002731636357760266,0.0015010321763124085,-0.0006806293886805035
1589988267.1505773,-0.05,-4.50947243766592,8.575963250221228,0.4244444444444445,0.4355555555555555,-0.6888888888888889,-0.0031573961007494624,-0.0003252448452521837,-0.0017988685963707758
1589988267.1605773,-0.05,-4.514443468244206,8.595556531755793,0.4244444444444445,0.4355555555555555,-0.6888888888888889,-0.0030296595592267193,-0.0004847071941825659,-0.00036329080005124167
1589988267.1705773,-0.05,-4.493204832637815,8.639188723845098,0.4207121850306256,0.4430200743831934,-0.6888888888888889,0.00013054825456030477,0.0,0.0004801412639680756
1589988267.1805773,-0.06084201178655042,-4.485421005893276,8.65915798821345,0.4177777777777778,0.4488888888888889,-0.6888888888888889,0.0028648508126402445,-0.0017740200301437884,0.0
1589988267.1905773,-0.07,-4.501379014862748,8.593104925686257,0.4177777777777778,0.4488888888888889,-0.6888888888888889,-0.0012223377290610498,-0.0026518633631508266,0.0018618869530156244
1589988267.2005773,-0.07,-4.523724162151314,8.55,0.4177777777777778,0.4488888888888889,-0.6888888888888889,-0.007699764693276271,-0.0006845877111302512,0.0010268815666953767
1589988267.2105772,-0.05976564673157163,-4.524882823365786,8.590937413073714,0.4177777777777778,0.4488888888888889,-0.6888888888888889,-0.005935659363935427,-0.0005581973792072442,0.0
1589988267.2205772,-0.056794145767448706,-4.513205854232551,8.640191218651173,0.42004249303359403,0.4488888888888889,-0.6937957719431574,-0.0006785501771239999,0.0007619850534788068,0.0003705631671950526
1589988267.2305772,-0.07307933772388749,-4.496920662276112,8.67231735089555,0.4244444444444445,0.4488888888888889,-0.7033333333333334,0.005706937681553441,0.002347901302634398,0.0007549271446045517
1589988267.2405772,-0.07087058038692462,-4.4839137202579495,8.660439181676672,0.4244444444444445,0.4488888888888889,-0.7033333333333334,0.007730781065944697,-0.002181661564992912,0.0003319550646756504
1589988267.2505772,-0.05,-4.482162077049582,8.578108051366389,0.4244444444444445,0.4488888888888889,-0.7033333333333334,0.0028008003075267658,-0.002181661564992912,0.001533056383322375
1589988267.2605772,-0.05,-4.506461575941315,8.598615434588421,0.4244444444444445,0.4488888888888889,-0.7033333333333334,-0.0013257803138372864,-0.001711762502311251,0.0014768129709704205
1589988267.2705772,-0.055788897576231435,-4.527105551211885,8.635788897576232,0.422514811919034,0.44695925636347844,-0.6952931978107897,-0.0012344554140620565,0.0003157353836436185,-0.001090830782496456
1589988267.2805772,-0.06192944736422998,-4.495788342092689,8.645964723682116,0.4177777777777778,0.44222222222222224,-0.6755555555555556,0.0019711915071820418,0.0002104700578108706,-0.0006506504201536633
1589988267.2905772,-0.05951678373513113,-4.474275175602696,8.611449648794608,0.4177777777777778,0.44222222222222224,-0.6755555555555556,0.001715312250192973,-0.0005717707500643242,0.0
1589988267.3005772,-0.05631914180355348,-4.494560286065482,8.584560286065482,0.4177777777777778,0.44222222222222224,-0.6755555555555556,-0.0009949000834435214,0.0,-0.0004974500417217607
1589988267.3105772,-0.04,-4.515390981253167,8.605390981253166,0.4177777777777778,0.44222222222222224,-0.6755555555555556,-0.002741293435785582,0.0,2.843295908888481e-05
1589988267.3205771,-0.0494677954061094,-4.525266102296945,8.648403386218328,0.4083099823716684,0.4453781540242587,-0.6755555555555556,-0.002239716080353101,0.0005163881335681334,0.0016072189160645893
1589988267.3305771,-0.06,-4.5086158704720605,8.66861587047206,0.3977777777777778,0.4488888888888889,-0.6755555555555556,0.00139280100170419,0.0023326466745967793,0.0015607536189427506
1589988267.3405771,-0.06,-4.493969726313644,8.611757810509149,0.3977777777777778,0.4488888888888889,-0.6755555555555556,0.0059036956130717674,0.0006412890819069684,0.00043302996610085603
1589988267.350577,-0.05373172297377618,-4.49,8.598804831078672,0.3977777777777778,0.4488888888888889,-0.6755555555555556,0.004217000710765049,-0.0004070678291544275,0.0
1589988267.360577,-0.056935669269491465,-4.493467834634746,8.620403503904237,0.3977777777777778,0.4488888888888889,-0.6755555555555556,0.0010468153345365133,0.0,0.0003782820768187995
1589988267.370577,-0.0680189464505133,-4.499009473225256,8.63702841967577,0.3977777777777778,0.4488888888888889,-0.6755555555555556,-0.0007666816534633624,0.0,0.000982781072818758
1589988267.380577,-0.05712411334484913,-4.51,8.65712411334485,0.4033333333333333,0.4488888888888889,-0.6977777777777778,0.001090830782496456,-0.0024953721340338457,0.00031371056904093387
1589988267.390577,-0.06509508223056688,-4.5001901644611335,8.616045904536236,0.4033333333333333,0.4488888888888889,-0.6977777777777778,-0.000514299804056995,-2.07437247941554e-05,-0.0005557872536453057
1589988267.400577,-0.05006624501663619,-4.494966877491682,8.594768142441774,0.4033333333333333,0.4488888888888889,-0.6977777777777778,-0.002181661564992912,0.0005490284964149154,0.0005418022860815406
1589988267.410577,-0.04474754147869911,-4.504747541478699,8.6347475414787,0.4033333333333333,0.4488888888888889,-0.6977777777777778,-0.0032174144422216578,0.0005178764386143729,-0.0004627985333466628
1589988267.420577,-0.05558717593508807,-4.512793587967543,8.634412824064912,0.4033333333333333,0.4470264969105262,-0.6893970138751457,-0.0037538567802640754,0.0007860976076355817,-0.0012674620404102893
1589988267.430577,-0.06588462969854858,-4.515884629698548,8.617942314849273,0.4033333333333333,0.44222222222222224,-0.6677777777777778,-0.0003859925225149349,0.0,0.0004174548915672145
1589988267.440577,-0.05367427012180985,-4.49265145975638,8.58795437926914,0.4033333333333333,0.44222222222222224,-0.6677777777777778,0.006144183999771017,0.0,-0.0013800601745774749
1589988267.450577,-0.06,-4.482321345333286,8.559285381333142,0.4033333333333333,0.44222222222222224,-0.6677777777777778,0.005200934417847045,0.000506438989270469,0.0002532194946352345
1589988267.460577,-0.056104152433006906,-4.493895847566993,8.613375085401959,0.4033333333333333,0.44222222222222224,-0.6677777777777778,0.0022384679049908297,0.002606632609991911,0.001090830782496456
1589988267.470577,-0.056759521670007605,-4.5,8.653379760835005,0.40558650722333583,0.44710409898389436,-0.6704064806494474,-0.0029342043606454924,0.003272492347489368,0.0003534813512368415
1589988267.480577,-0.060788447157264995,-4.504605776421368,8.655394223578632,0.41,0.4566666666666666,-0.6755555555555556,-0.004535335615889119,0.002770080077716964,-0.0005884185127240519
1589988267.490577,-0.05866114013172837,-4.5056694299341356,8.611024869407222,0.41,0.4566666666666666,-0.6755555555555556,-0.0012368777382724407,0.0012368777382724407,0.0
1589988267.500577,-0.054082534469852464,-4.494694178156617,8.602446574747061,0.41,0.4566666666666666,-0.6755555555555556,-0.002315101517281494,0.0,0.0
1589988267.510577,-0.048307215238939036,-4.498307215238939,8.64415360761947,0.41,0.4566666666666666,-0.6755555555555556,-0.0030040582150670713,0.0004530883049729174,-0.0009061766099458348
1589988267.520577,-0.06,-4.51,8.65,0.4117765865160042,0.45184450326608383,-0.6722561805972621,-0.0008416651062846067,0.0008416651062846067,-0.002181661564992912
1589988267.530577,-0.06253875494278616,-4.512538754942786,8.632228715400498,0.4177777777777778,0.4355555555555555,-0.6611111111111111,0.0005538704081612337,-0.0005538704081612337,-0.0016277911568316782
1589988267.540577,-0.07,-4.507559224550537,8.567559224550537,0.4177777777777778,0.4355555555555555,-0.6611111111111111,0.0035387396468329604,-0.0003722241225395139,0.0004523593606133495
1589988267.550577,-0.07,-4.49,8.576391589086958,0.4177777777777778,0.4355555555555555,-0.6611111111111111,0.0058654218806972955,0.0013591256285628804,0.001090830782496456
1589988267.560577,-0.06610711535933597,-4.482214230718672,8.635571538562656,0.4177777777777778,0.4355555555555555,-0.6611111111111111,0.004846393335481146,0.0,0.0006661829426220586
1589988267.570577,-0.057646559260646935,-4.474706881478706,8.66,0.41934673827067986,0.4355555555555555,-0.667648446498203,0.0008980587633591402,0.0,0.0005134411206535086
1589988267.580577,-0.05,-4.493038348082596,8.653923303834809,0.4244444444444445,0.4355555555555555,-0.6888888888888889,-0.0039353570707763,-0.0009942970849303979,0.0005244997567755818
1589988267.590577,-0.052781684012670124,-4.5,8.61496484388597,0.4244444444444445,0.4355555555555555,-0.6888888888888889,-0.00454384994802263,-0.002362188383029718,-0.002362188383029718
1589988267.6005769,-0.06,-4.499668871829342,8.551324512682633,0.4244444444444445,0.4355555555555555,-0.6888888888888889,-0.0021455410848423236,0.0,0.0
1589988267.6105769,-0.0627757280791271,-4.48,8.638327184237381,0.4244444444444445,0.4355555555555555,-0.6888888888888889,-0.00030278496325515886,0.0006055699265103177,0.00030278496325515886
