time,acc_x,acc_y,acc_z,mag_x,mag_y,mag_z,gyr_x,gyr_y,gyr_z
1592167790.839537,0.047735712686553376,9.579681793492785,2.9615291821740515,-0.4311111111111111,-0.4722222222222222,-0.07444444444444444,0.038221221442438835,-0.019813729666048358,0.0027738942513734453
1592167790.849537,0.05932834129736625,9.581208044615416,2.9317144817049448,-0.4311111111111111,-0.4722222222222222,-0.07444444444444444,0.06669887803626243,-0.03475802732928709,-0.003693936002592397
1592167790.859537,0.09543715067263622,9.607368048556578,2.885993369541663,-0.4311111111111111,-0.4722222222222222,-0.07444444444444444,0.0949165584097368,-0.04371928297280293,-0.010561595032442151
1592167790.8695369,0.07546800732264601,9.606635558334224,2.9408882434051375,-0.4311111111111111,-0.4722222222222222,-0.07444444444444444,0.12440575916428417,-0.039904596924449975,-0.01632272450495581
1592167790.8795369,-0.08073999529079855,9.620583464131586,2.844911083829596,-0.41926428075635186,-0.46536353096420374,-0.06633871841224076,0.15223948053027364,-0.03000706353540946,-0.014795149519114797
1592167790.8895369,-0.19634163174286243,9.641068733395079,2.6903389808573386,-0.41,-0.46,-0.06,0.17200465150864006,-0.010716665850379267,-0.002607534906984779
1592167790.8995368,-0.17864338914061648,9.633150032733536,2.644207975061098,-0.41,-0.46,-0.06,0.1846252793836914,0.009442920174057354,0.013467279383691409
1592167790.9095368,-0.11609187199611842,9.619092202560372,2.7077566580330044,-0.41,-0.46,-0.06,0.19888796859118327,0.012563556343826898,0.023132849477995127
1592167790.9195368,-0.18565184989781772,9.638216034021546,2.7650112860920797,-0.41,-0.46,-0.06,0.22266504136467385,0.005558111671444918,0.034034488050453525
1592167790.9295368,-0.18855320628427488,9.652849242011625,2.7689856971388753,-0.42920196853342496,-0.46681360173766695,-0.06,0.24866614562148842,0.011238366683658981,0.05019934491361054
1592167790.9395368,-0.13697265065873815,9.672527611854122,2.7414293524220894,-0.4444444444444444,-0.4722222222222222,-0.06,0.27810393334933475,0.02470255660079114,0.06389527830039557
1592167790.9495368,0.002745983815418414,9.665581678743747,2.6180383085933903,-0.4444444444444444,-0.4722222222222222,-0.06,0.3064789688818029,0.057537566806231406,0.072617
1592167790.9595368,-0.3128690747052455,9.639530778132102,2.6569648377420707,-0.4444444444444444,-0.4722222222222222,-0.06,0.33830856921407915,0.14838589251649983,0.0728955390012673
1592167790.9695368,-0.2809652548583845,9.513875436809805,2.5297608032793253,-0.4444444444444444,-0.4722222222222222,-0.06,0.3647411604002195,0.2131346564636614,0.011154882955294413
1592167790.9795368,-0.7554865828906948,9.707593893717226,2.459375460370743,-0.4392666446862292,-0.46408567974502696,-0.06443811407847017,0.3624251376537316,0.14380400053936737,-0.001959638462782628
1592167790.9895368,-0.8803007623254495,9.69054717194361,2.4520825164864553,-0.43666666666666665,-0.46,-0.06666666666666667,0.38172321091227196,0.1373289122644205,0.005147759557271251
1592167790.9995368,-0.95954536319183,9.677880744361282,2.135242025745015,-0.43666666666666665,-0.46,-0.06666666666666667,0.3800063504763659,0.08774814381264295,0.00979431559754482
1592167791.0095367,-1.0525580491016386,9.664782269532756,1.9878905220981589,-0.43666666666666665,-0.46,-0.06666666666666667,0.35963087319438186,0.03427817096041703,-0.00905727568863577
1592167791.0195367,-1.2241051662144449,9.719751894427802,1.838566172032605,-0.43666666666666665,-0.46,-0.06666666666666667,0.3293686416860357,-0.012280533474333288,-0.015700042736106583
1592167791.0295367,-1.2138276283760823,9.714364202083846,1.6228371837204731,-0.43666666666666665,-0.47024421911451203,-0.058983502330782665,0.2837272259405062,-0.06466939176469408,-0.011536
1592167791.0395367,-1.10718888865579,9.712993502076547,1.459980520929173,-0.43666666666666665,-0.4777777777777778,-0.05333333333333334,0.224688215219668,-0.10207715207025424,-0.01053099225592941
1592167791.0495367,-1.1002381216986807,9.729035811198429,1.4528378311219348,-0.43666666666666665,-0.4777777777777778,-0.05333333333333334,0.15846169356981718,-0.1347333280250403,-0.01577083425415597
1592167791.0595367,-1.1443467994758083,9.81340236665677,1.6247924565639504,-0.43666666666666665,-0.4777777777777778,-0.05333333333333334,0.11317965209471781,-0.15059306425807845,0.006216622009113047
1592167791.0695367,-1.2336173676215847,9.853343271829445,1.7274332306621494,-0.43666666666666665,-0.4777777777777778,-0.05333333333333334,0.08353721252297112,-0.14335965534711811,0.07299313266249871
1592167791.0795367,-1.0770335851512127,9.744358021886319,1.6942287701547871,-0.4339303944315545,-0.47175797886053106,-0.05333333333333334,0.0500995791718095,-0.1553557326538396,0.09901896340844417
1592167791.0895367,-0.7977083331229821,9.566908973776659,1.541153887840863,-0.4311111111111111,-0.46555555555555556,-0.05333333333333334,0.001831682338250113,-0.17010385604107323,0.06027661365456558
1592167791.0995367,-0.571880395336716,9.579336619228288,1.3443973332946382,-0.4311111111111111,-0.46555555555555556,-0.05333333333333334,-0.05373521892833353,-0.1875978479318029,-0.04721221481927623
1592167791.1095366,-0.623357799617984,9.764027229665077,1.4780785617270384,-0.4311111111111111,-0.46555555555555556,-0.05333333333333334,-0.1056149827280911,-0.17669168242472352,-0.07937301255904723
1592167791.1195366,-0.6630436299135779,9.80830749129068,1.824232072343349,-0.4311111111111111,-0.46555555555555556,-0.05333333333333334,-0.13879857363043285,-0.17242669737778232,-0.04907886895378068
1592167791.1295366,-0.6709424872821154,9.712298965003615,2.0319609280756605,-0.4276491306120936,-0.4753645003027719,-0.05679531383235087,-0.15749554442431588,-0.1905876262893721,-0.0282074830827114
1592167791.1395366,-0.5706075184155692,9.648746516237917,2.1019298810360203,-0.42444444444444446,-0.48444444444444446,-0.06,-0.16902502440132958,-0.19250507363595473,-0.05935759776414081
1592167791.1495366,-0.5205985653248221,9.775384767022842,2.168857558838389,-0.42444444444444446,-0.48444444444444446,-0.06,-0.16781483289290589,-0.19162792770198142,-0.060751043794630234
1592167791.1595366,-0.5493907114663695,9.803880300814921,2.3985495895830082,-0.42444444444444446,-0.48444444444444446,-0.06,-0.13803369983342975,-0.17602634091036548,-0.027957000704119717
1592167791.1695366,-0.504269030158861,9.775696490032123,2.4104682766236767,-0.42444444444444446,-0.48444444444444446,-0.06,-0.10304834765382599,-0.15559994511799602,-0.0008182093797805224
1592167791.1795366,-0.4848854589683924,9.670163610979813,2.2348130387923235,-0.42444444444444446,-0.47850787099630765,-0.07682029143638765,-0.08790127031155708,-0.1502880826073499,-0.0021319546424038503
1592167791.1895366,-0.4620173785585264,9.542694657320302,2.1112900441626703,-0.42444444444444446,-0.4711111111111111,-0.09777777777777778,-0.09442583958304099,-0.13310384456219143,-0.05092133998730966
1592167791.1995366,-0.5831959738642215,9.671227017611074,2.297118822324906,-0.42444444444444446,-0.4711111111111111,-0.09777777777777778,-0.08814905437876161,-0.13169260022721152,-0.11467450420859221
1592167791.2095366,-0.8600248636212346,9.8108194504933,2.416203180613864,-0.42444444444444446,-0.4711111111111111,-0.09777777777777778,-0.05625549357046191,-0.115509,-0.12058927363849202
1592167791.2195365,-0.8404411438049939,9.778321610163301,2.5329099203519285,-0.42444444444444446,-0.4711111111111111,-0.09777777777777778,-0.021199575835449375,-0.12068936035839258,-0.0796032205578579
1592167791.2295365,-0.7217567237393255,9.735663544811326,2.4375754572474504,-0.43174288351988704,-0.4788657026287688,-0.08819857649125942,0.004728305133345439,-0.15142077958499198,-0.06477330353878476
1592167791.2395365,-0.6793976167910747,9.664733511299799,2.37884098725388,-0.44222222222222224,-0.49,-0.07444444444444444,0.01629365952075813,-0.17297003094013716,-0.06463559138229882
1592167791.2495365,-0.6669565521066295,9.743422645431782,2.1808055954137924,-0.44222222222222224,-0.49,-0.07444444444444444,0.021423954578042307,-0.20213696143352505,-0.0870655249080037
1592167791.2595365,-0.6426467918440556,9.7692453790644,2.2192272189604623,-0.44222222222222224,-0.49,-0.07444444444444444,0.03710508055065718,-0.21309080315233195,-0.07029018907461705
1592167791.2695365,-0.5485876652663816,9.76462214240133,2.137246761937609,-0.44222222222222224,-0.49,-0.07444444444444444,0.048828,-0.20435981721292135,-0.05754712358701513
1592167791.2795365,-0.5104294604628719,9.698310948547839,2.0720000870190036,-0.44222222222222224,-0.4929648672698126,-0.0778328641813731,0.047775,-0.19207981204298297,-0.04814527790238879
1592167791.2895365,-0.36717881149891424,9.7372678023672,2.0257322485087785,-0.44222222222222224,-0.49777777777777776,-0.08333333333333333,0.044571,-0.15888886252919535,-0.03690730441747043
1592167791.2995365,-0.23561197377160997,9.744267695191938,1.979477272014095,-0.44222222222222224,-0.49777777777777776,-0.08333333333333333,0.041382,-0.141083,-0.023938539655851968
1592167791.3095365,-0.21775721753654032,9.745036928461772,1.9145344680532945,-0.44222222222222224,-0.49777777777777776,-0.08333333333333333,0.03565072832155403,-0.13918577412356312,-0.02636587746481515
1592167791.3195364,-0.18011886633121227,9.737141425004044,1.7660686381152046,-0.44222222222222224,-0.49777777777777776,-0.08333333333333333,0.007975527601443152,-0.1370926690868479,-0.011755728068026657
1592167791.3295364,-0.04433901099977036,9.645561558248891,1.5977719162575483,-0.4492699619102913,-0.5044339763720652,-0.0884233675524943,-0.0490393142198165,-0.14716573873966157,-0.025314614481915392
1592167791.3395364,-0.17940030651893907,9.74315538152791,1.565436518666096,-0.4622222222222222,-0.5166666666666667,-0.09777777777777778,-0.10139695434443699,-0.15126596917038493,-0.03171012496706659
1592167791.3495364,-0.47778622388710573,9.719108170938357,1.7524229989233757,-0.4622222222222222,-0.5166666666666667,-0.09777777777777778,-0.14845442351050436,-0.14263181273886785,0.006288798277433533
1592167791.3595364,-0.45724739246900126,9.554743718793006,1.7274661211225886,-0.4622222222222222,-0.5166666666666667,-0.09777777777777778,-0.2158789606088973,-0.14356079756237347,-0.004425101217680409
1592167791.3695364,-0.6034231375353145,9.627702486863498,1.764037639173949,-0.4622222222222222,-0.5166666666666667,-0.09777777777777778,-0.2742009614352579,-0.19886796143525792,-0.07100655892184754
1592167791.3795364,-0.7392066380478148,9.718659115966375,2.02503187549014,-0.4622222222222222,-0.5144742837418019,-0.09777777777777778,-0.2933639625823755,-0.21932964342912423,-0.08851370441495655
1592167791.3895364,-0.5630932158983541,9.678246802805212,1.9835872256562939,-0.4622222222222222,-0.51,-0.09777777777777778,-0.3046454760663616,-0.24738445778677012,-0.11600300223063047
1592167791.3995364,-0.3633435381100314,9.710427525298993,1.9793863990972345,-0.4622222222222222,-0.51,-0.09777777777777778,-0.3206543435280668,-0.31110016270493424,-0.1538649461522253
1592167791.4095364,-0.3685636447169853,9.70287868809041,2.2058539189835575,-0.4622222222222222,-0.51,-0.09777777777777778,-0.3110268559158054,-0.31872598490011494,-0.2162967153292892
1592167791.4195364,-0.6184112314864328,9.803392721175051,2.4869139364705926,-0.4622222222222222,-0.51,-0.09777777777777778,-0.2921341352711656,-0.30621415697212867,-0.2023875417787606
1592167791.4295363,-0.5718899302717929,9.740651177057496,2.700169572056964,-0.4590362720022447,-0.5177373076770881,-0.11234212164053198,-0.2554421777175694,-0.3052732128379935,-0.11530509728893398
1592167791.4395363,-0.28254843862710266,9.746351220424469,2.8381206257592275,-0.45444444444444443,-0.5288888888888889,-0.13333333333333333,-0.1970204428186325,-0.29066627182109217,-0.048598442818632494
1592167791.4495363,-0.1185442338226136,9.741943025438944,2.9121775653207025,-0.45444444444444443,-0.5288888888888889,-0.13333333333333333,-0.1296759651414395,-0.24066844827955114,0.024592133346468474
1592167791.4595363,0.17588123492241015,9.727024682210358,2.712797136988913,-0.45444444444444443,-0.5288888888888889,-0.13333333333333333,-0.09120956657232304,-0.23564059151130518,0.0425623787806984
1592167791.4695363,0.27403139954458117,9.685333359068043,2.6924366547046175,-0.45444444444444443,-0.5288888888888889,-0.13333333333333333,-0.04469215842906513,-0.20468973424343406,0.08368500602256637
1592167791.4795363,0.39168270412231787,9.6674531922571,2.3674999212704626,-0.4600442112277195,-0.5288888888888889,-0.14711737464601032,-0.03547799406711815,-0.1592430396398652,0.0757999321992879
1592167791.4895363,0.3155310976266553,9.6067983646746,2.449991416720213,-0.4688888888888889,-0.5288888888888889,-0.1688888888888889,-0.04175342342586571,-0.13251644010571778,0.09887830537712242
1592167791.4995363,0.5769646490346232,9.553304882561369,2.1277220676050272,-0.4688888888888889,-0.5288888888888889,-0.1688888888888889,-0.08077597250038188,-0.06569451617586225,0.031882490801489735
1592167791.5095363,0.1975669899949738,9.578798554143212,2.365918874361077,-0.4688888888888889,-0.5288888888888889,-0.1688888888888889,-0.09524378849516547,-0.07820221002721828,-0.01126737571312976
1592167791.5195363,0.03352163709183362,9.583589642910104,2.5825041259030237,-0.4688888888888889,-0.5288888888888889,-0.1688888888888889,-0.08162372603189287,-0.005336893719849748,-0.031178355368631415
1592167791.5295362,-0.07973600259631583,9.653788294637415,2.5637745608491604,-0.470015450693472,-0.533770656708749,-0.1688888888888889,-0.06890508244516498,-0.017208592050855037,-0.0612961810154893
1592167791.5395362,-0.22910420607793672,9.609417690343884,2.709706407473003,-0.4722222222222222,-0.5433333333333333,-0.1688888888888889,-0.04773824491151803,0.0024164272151692597,-0.07544906328200933
1592167791.5495362,-0.13151499826415763,9.573049760688258,2.7711550890704135,-0.4722222222222222,-0.5433333333333333,-0.1688888888888889,-0.03868091895621454,0.038956,-0.08875975926630077
1592167791.5595362,-0.17939997970984656,9.538869602505207,2.8742381799602277,-0.4722222222222222,-0.5433333333333333,-0.1688888888888889,-0.04392979841806315,0.025181404106010205,-0.10790215389417647
1592167791.5695362,-0.4582543911145146,9.572470676905388,3.0296726969619825,-0.4722222222222222,-0.5433333333333333,-0.1688888888888889,-0.04604120760153956,-0.01770124506988988,-0.09858934996423976
1592167791.5795362,-0.5131139566752655,9.689345355020984,2.8559590681371767,-0.4722222222222222,-0.5410045288715561,-0.17354649781244322,-0.017642513600832462,-0.07886948639916753,-0.06059077548328862
1592167791.5895362,-0.5259112577847715,9.820887771203594,2.776997067707536,-0.4722222222222222,-0.5366666666666666,-0.18222222222222223,0.04772628129792796,-0.0852785682042709,0.018425893047885653
1592167791.5995362,-0.226571030341874,9.678163868694385,2.6228246305453213,-0.4722222222222222,-0.5366666666666666,-0.18222222222222223,0.07331584156715815,-0.04940689089050806,0.10624968832591287
1592167791.6095362,0.3223659263835529,9.471703477470085,2.2577935269503597,-0.4722222222222222,-0.5366666666666666,-0.18222222222222223,0.03727985333086203,-0.054511814088849024,0.07995805134294097
1592167791.6195362,0.11920712261772907,9.528901379452348,2.265845260633524,-0.4722222222222222,-0.5366666666666666,-0.18222222222222223,-0.006732372798256724,-0.08929308950187444,0.03391095277789013
1592167791.6295362,0.0018021748080189071,9.536687423547434,2.414853482254968,-0.4779666302822392,-0.5439227610582671,-0.1810128731569555,-0.041728200931835026,0.001200936323575999,0.04734138303958907
1592167791.6395361,0.07544059209950786,9.560692037727428,2.49728874244695,-0.49333333333333335,-0.5633333333333334,-0.17777777777777778,-0.07576319573199916,0.019604202460430674,0.04219747153321303
1592167791.6495361,0.16517018628828564,9.458498017180544,2.6771331458044902,-0.49333333333333335,-0.5633333333333334,-0.17777777777777778,-0.08701313619844299,0.03654111676665746,-0.005353659412904241
1592167791.6595361,-0.04468093116582665,9.608432539682271,2.6974878465316,-0.49333333333333335,-0.5633333333333334,-0.17777777777777778,-0.06887950312005196,0.04008532300108582,-0.040955836537521925
1592167791.669536,-0.2232853093340741,9.624101222556542,2.6979808240010277,-0.49333333333333335,-0.5633333333333334,-0.17777777777777778,-0.04220192465035071,0.06121995087613716,-0.02344978056418491
1592167791.679536,-0.3025181189695855,9.743714929090773,2.7021437741547083,-0.4860739274910543,-0.5613006996974952,-0.19055433206018887,-0.02401605416374025,0.015500744172044749,0.010925352573275999
1592167791.689536,-0.37698024083789117,9.695577881622329,2.6233155585506496,-0.46555555555555556,-0.5555555555555556,-0.22666666666666666,-0.008367570658333797,-0.04003881233790775,0.043507601352582054
1592167791.699536,-0.2729297917093525,9.652827658258975,2.5447717734270268,-0.46555555555555556,-0.5555555555555556,-0.22666666666666666,-0.002304,-0.05962082440637911,0.06950138620606562
1592167791.709536,-0.14836967074784524,9.700186436947769,2.528629086372688,-0.46555555555555556,-0.5555555555555556,-0.22666666666666666,5.783489589912755e-05,-0.047327805118127585,0.07136656567552715
1592167791.719536,0.05901925095101067,9.573429652509974,2.683986879532311,-0.46555555555555556,-0.5555555555555556,-0.22666666666666666,0.020881408521155297,0.004190358260066361,0.08918042482082592
1592167791.729536,0.34827775716438175,9.567853472608432,2.805269466457421,-0.469983674339727,-0.5573788985843321,-0.22666666666666666,0.05403614570870045,0.05220611778286279,0.038870316353868506
1592167791.739536,0.2187621822885773,9.620837619734031,2.995994795030029,-0.48444444444444446,-0.5633333333333334,-0.22666666666666666,0.11323928071602361,0.06928008592073837,-0.01607167790389258
1592167791.749536,-0.01791828796724171,9.631778946086051,2.783880880070935,-0.48444444444444446,-0.5633333333333334,-0.22666666666666666,0.1617278601818883,0.10851074416674884,0.004216722978948365
1592167791.759536,0.10847808140119108,9.654475832902389,2.6776523739079163,-0.48444444444444446,-0.5633333333333334,-0.22666666666666666,0.18716222711082256,0.10948182456112267,0.012206028138794999
1592167791.769536,-0.0947098333120227,9.7724516934902,2.496488071433943,-0.48444444444444446,-0.5633333333333334,-0.22666666666666666,0.210898762402281,0.10494751889443836,0.03727702703108111
1592167791.779536,0.5795161799525637,9.525295907082342,2.6038735135553885,-0.48444444444444446,-0.5659241139730367,-0.22925744730637002,0.22154867482740367,0.10618709208946554,0.034436459456640554
1592167791.789536,-0.1060167133112288,9.598037765548195,2.2116960215666612,-0.48444444444444446,-0.5777777777777777,-0.2411111111111111,0.21939068253897964,0.09668354222158144,-0.027309457778418554
1592167791.799536,-0.5011119174921124,9.587591368527772,1.9832804629665721,-0.48444444444444446,-0.5777777777777777,-0.2411111111111111,0.15361302275589628,0.0526811797076047,-0.0036286347712522135
1592167791.809536,-0.4261383510875141,9.610906445007595,2.1816251770951034,-0.48444444444444446,-0.5777777777777777,-0.2411111111111111,0.09659442961796569,0.04626413185020375,0.010457183890764207
1592167791.819536,0.036822523635698046,9.664103970425597,2.231796702942052,-0.48444444444444446,-0.5777777777777777,-0.2411111111111111,0.0705569686670449,0.07390528985839608,0.015953741474559024
1592167791.829536,0.15521599116025137,9.705505,2.166069614074435,-0.48444444444444446,-0.5777777777777777,-0.24218262601501456,0.06320575245592186,0.08105577785908558,0.01589854475945261
1592167791.839536,0.09196426273104558,9.638657395963774,2.0899236299697908,-0.48444444444444446,-0.5777777777777777,-0.24888888888888888,0.04951681772301753,0.1156785522555054,0.03236800758507987
1592167791.849536,0.18383352916790202,9.636297538563188,1.991288455138589,-0.48444444444444446,-0.5777777777777777,-0.24888888888888888,0.00856052538703438,0.14117020607651087,0.04566894441438222
1592167791.859536,0.28947976915033535,9.642379181079688,1.9836587647374517,-0.48444444444444446,-0.5777777777777777,-0.24888888888888888,-0.038079629964749964,0.14419932027607923,0.020649003116164917
1592167791.869536,0.09100594963229236,9.686628572716169,2.1091429345037795,-0.48444444444444446,-0.5777777777777777,-0.24888888888888888,-0.05401935280116626,0.15739681462600516,0.0023573324468275925
1592167791.879536,-0.0949100587869308,9.650632351360763,2.315550781981261,-0.48444444444444446,-0.5777777777777777,-0.24888888888888888,-0.05661632439390201,0.21088526705302008,-0.004331647958201092
1592167791.889536,-0.022812510868038698,9.594832484200253,2.244354860787564,-0.4777777777777778,-0.57,-0.27,-0.07698221203615488,0.21376323940756792,-0.02821596267858514
1592167791.899536,-0.07642841988761054,9.754076250181003,2.4306144973782264,-0.4777777777777778,-0.57,-0.27,-0.07822353389133348,0.15961353389133348,-0.021248490969240183
1592167791.909536,-0.11505844257473029,9.708834249923962,2.4742123139013676,-0.4777777777777778,-0.57,-0.27,-0.0708463660277587,0.1869289969307267,0.020178257206475026
1592167791.9195359,0.06987935140988075,9.627245490673644,2.3379351452864308,-0.4777777777777778,-0.57,-0.27,-0.08129850527745493,0.16657240781474736,0.05234184419652473
1592167791.9295359,0.2631607231537408,9.643441705365959,2.3902904498599598,-0.4784504329734593,-0.5714064608636976,-0.2703669028340081,-0.09009971713129757,0.16862344486476155,0.05594503122083698
1592167791.9395359,0.3171828948400828,9.696667771255383,2.5721057860370538,-0.49,-0.5955555555555555,-0.27666666666666667,-0.07541500774708026,0.18825482213230163,0.06398980663814109
1592167791.9495358,0.1636270577097936,9.725917704890694,2.6065070732592437,-0.49,-0.5955555555555555,-0.27666666666666667,-0.049500802811038296,0.22003459317899393,0.1357202632863832
1592167791.9595358,0.13559378229612606,9.565644197838555,2.436887561650756,-0.49,-0.5955555555555555,-0.27666666666666667,-0.040359444149217494,0.2130328672831368,0.14879016927827127
1592167791.9695358,0.6208479017000642,9.278434836106431,2.7107908893519888,-0.49,-0.5955555555555555,-0.27666666666666667,-0.0842392351024808,0.09407181589226483,0.04044728093325166
1592167791.9795358,0.03865082352466576,9.690949757476854,2.7201962051470145,-0.48970666338916263,-0.5950755501923671,-0.27666666666666667,-0.08129566193875411,0.09344502232461688,-0.022921846968722848
1592167791.9895358,-0.2495489667480225,9.816588633165209,2.6562646661025897,-0.4777777777777778,-0.5755555555555556,-0.27666666666666667,-0.010269664430263356,0.11680887657937772,-0.023971544695739394
1592167791.9995358,-0.2867250221134455,9.812412127516701,2.4681712454227025,-0.4777777777777778,-0.5755555555555556,-0.27666666666666667,0.03860197944425831,0.14525220381877096,-0.0008986433601490922
1592167792.0095358,-0.17728539604494598,9.77812577723669,2.5273660903750774,-0.4777777777777778,-0.5755555555555556,-0.27666666666666667,0.07652723758936968,0.12409238214246425,0.029607793204509177
1592167792.0195358,0.05951238887291006,9.72006061880485,2.366851387159298,-0.4777777777777778,-0.5755555555555556,-0.27666666666666667,0.09922102293050347,0.131444454020282,0.053774643221114436
1592167792.0295358,0.1850331094341239,9.666212270974103,2.455483595259165,-0.4777777777777778,-0.5757026530884329,-0.2768816553685643,0.117004,0.1251559528576103,0.07864961255664481
1592167792.0395358,0.3591049499186877,9.678517853778752,2.3329256351394245,-0.4777777777777778,-0.59,-0.29777777777777775,0.11445732897436742,0.163589,0.08029242342857704
1592167792.0495358,0.34169393340036386,9.665636411461932,2.30459711960236,-0.4777777777777778,-0.59,-0.29777777777777775,0.11770308618170078,0.1611882425401842,0.0698085210025408
1592167792.0595357,0.2048689884359812,9.632312505837048,2.430518361419252,-0.4777777777777778,-0.59,-0.29777777777777775,0.1247377198888138,0.2250161626929351,0.059866107922890884
1592167792.0695357,0.33450653808977154,9.553532649270842,2.2454671155699506,-0.4777777777777778,-0.59,-0.29777777777777775,0.11463434552336964,0.29389725402305705,-0.0018376229563410772
1592167792.0795357,0.058772799872999965,9.6366811011247,2.3583158025755155,-0.4778828767529581,-0.59,-0.29812810769504544,0.09869841729039389,0.22460945134507446,-0.07220916333334709
1592167792.0895357,-0.27425088121219754,9.74717285909566,2.529574524459833,-0.48444444444444446,-0.59,-0.32,0.10934896183166219,0.19272181444601055,-0.06644838615582163
1592167792.0995357,-0.36014718309013594,9.759526492468098,2.410044634930993,-0.48444444444444446,-0.59,-0.32,0.126602,0.17672719659523922,-0.011516378790669975
1592167792.1095357,-0.25156943999688286,9.724768171744579,2.2227580123665853,-0.48444444444444446,-0.59,-0.32,0.1247794567075832,0.15813794771839493,0.05678279115512497
1592167792.1195357,-0.06505890138157944,9.680187035338603,2.1607511159100095,-0.48444444444444446,-0.59,-0.32,0.11421774847998974,0.17005513821020926,0.12110693573655353
1592167792.1295357,0.13453289061068083,9.694977270046152,2.1747338089222814,-0.48444444444444446,-0.59,-0.32,0.09895127941277955,0.19550487442351147,0.14597592676176266
1592167792.1395357,0.4747151171415904,9.556598231998047,1.991416443806091,-0.4711111111111111,-0.6088888888888889,-0.31777777777777777,0.0650417602951667,0.2378825231316607,0.07447652313166071
1592167792.1495357,0.17328179666911064,9.633790460263274,2.07324908896489,-0.4711111111111111,-0.6088888888888889,-0.31777777777777777,0.030671771234188773,0.17334919827014983,0.02899321663971131
1592167792.1595356,0.0035122891981623564,9.681225424306032,2.2316803392809192,-0.4711111111111111,-0.6088888888888889,-0.31777777777777777,0.025391,0.2122350251409697,0.03844848401568732
1592167792.1695356,0.03317991642432953,9.691097158753928,2.2100898836555714,-0.4711111111111111,-0.6088888888888889,-0.31777777777777777,0.020240007926138,0.19398684055645915,0.048126
1592167792.1795356,0.08513139311971912,9.639834102387473,2.223393664514634,-0.4711111111111111,-0.6088888888888889,-0.31777777777777777,0.00972687641384878,0.15768307478731106,0.012234231652064519
1592167792.1895356,0.011890796337414744,9.666891523458963,2.1709295602475933,-0.4711111111111111,-0.6088888888888889,-0.3388888888888889,-0.007853283594619861,0.12298889479441412,0.014577185743876911
1592167792.1995356,0.08640637883632293,9.681659649061784,2.1685681098694567,-0.4711111111111111,-0.6088888888888889,-0.3388888888888889,-0.021331479926471532,0.120972,0.024952565085562404
1592167792.2095356,0.025220727045641638,9.703759013788613,2.1379731017424928,-0.4711111111111111,-0.6088888888888889,-0.3388888888888889,-0.036325982199672924,0.0943935972610598,0.04781876405602126
1592167792.2195356,0.06194880734371179,9.694109208680876,2.0373158435437295,-0.4711111111111111,-0.6088888888888889,-0.3388888888888889,-0.0548702924928931,0.0786546883249467,0.07618710936750099
1592167792.2295356,0.25337776756140523,9.668754794040067,1.8681937773347939,-0.4711111111111111,-0.6088888888888889,-0.3388888888888889,-0.08817132566763555,0.08307295248315882,0.07289795551595085
1592167792.2395356,0.4182106127703939,9.628201688551629,1.874076914337118,-0.46555555555555556,-0.6022222222222222,-0.3622222222222222,-0.13608636313602682,0.07636543352376755,0.03207412606929794
1592167792.2495356,0.3618794920295321,9.693440687468893,2.1074131331343837,-0.46555555555555556,-0.6022222222222222,-0.3622222222222222,-0.1734309436675472,0.04543683612798741,0.017462040942899715
1592167792.2595356,0.38447437054661227,9.656314969148228,2.3415975739462263,-0.46555555555555556,-0.6022222222222222,-0.3622222222222222,-0.177002,0.08335609946183063,0.02879129752577067
1592167792.2695355,0.4341316347774943,9.610645634777494,2.3439950650753274,-0.46555555555555556,-0.6022222222222222,-0.3622222222222222,-0.18851956030832517,0.08389543969167483,0.016571867451552976
1592167792.2795355,0.3544328385244894,9.672291559262101,2.3643930980509076,-0.46555555555555556,-0.6022222222222222,-0.3622222222222222,-0.19683308333314525,0.06434182274359256,-0.005472451961380841
1592167792.2895355,0.15011786336591887,9.727417571187429,2.4282898228069163,-0.4533333333333333,-0.6166666666666667,-0.38333333333333336,-0.1921628368312152,0.05788316316878481,0.029709912043677934
1592167792.2995355,0.2267499799780635,9.71592681727659,2.339491692748838,-0.4533333333333333,-0.6166666666666667,-0.38333333333333336,-0.1870087588572093,0.07283891545509949,0.08355209252079332
1592167792.3095355,0.41384559628999873,9.614736266881138,2.2547008326525755,-0.4533333333333333,-0.6166666666666667,-0.38333333333333336,-0.1974445297623616,0.08037157418051422,0.09951027500532264
1592167792.3195355,0.634000165569741,9.477575442790073,2.230923098714288,-0.4533333333333333,-0.6166666666666667,-0.38333333333333336,-0.22657490216393417,0.10556561553286556,0.047092550115474974
1592167792.3295355,0.44802546010465716,9.544801961188758,2.354329369635528,-0.4533333333333333,-0.6166666666666667,-0.38333333333333336,-0.24525729451283945,0.12428716334751466,-0.010902524695088544
1592167792.3395355,0.29320687229151865,9.627784151712207,2.6426063437708915,-0.4666666666666667,-0.5955555555555555,-0.37666666666666665,-0.24363917889827633,0.12528420877853913,-0.03813773146093522
1592167792.3495355,0.012953557030918918,9.642855192873752,2.9369844160802105,-0.4666666666666667,-0.5955555555555555,-0.37666666666666665,-0.21861651232973112,0.12041023843401022,-0.03460981703598819
1592167792.3595355,0.012451401597482314,9.617701427727187,2.9761731151686988,-0.4666666666666667,-0.5955555555555555,-0.37666666666666665,-0.1767306987823734,0.1057926987823734,-0.03778948745967653
1592167792.3695354,-0.07487358843131381,9.63905180288516,2.9727888763989907,-0.4666666666666667,-0.5955555555555555,-0.37666666666666665,-0.1401491577278331,0.043024315455666186,-0.039791370921621654
1592167792.3795354,-0.1999346268583315,9.650416218781944,2.9569455931763606,-0.4666666666666667,-0.5955555555555555,-0.37666666666666665,-0.10296766465729476,-0.0076354927912466244,-0.014851243381565456
1592167792.3895354,-0.18980857982667423,9.624257500116647,2.7909403765450804,-0.4666666666666667,-0.6222222222222222,-0.39111111111111113,-0.0777156876421001,-0.04206898668749692,0.02323282246882011
1592167792.3995354,-0.08624760617639311,9.717692823750697,2.703186864146922,-0.4666666666666667,-0.6222222222222222,-0.39111111111111113,-0.05595786330359791,-0.07219083377996763,0.05130142198727857
1592167792.4095354,0.07475823425193859,9.581819409075479,2.6423724796795645,-0.4666666666666667,-0.6222222222222222,-0.39111111111111113,-0.03074390634215,-0.07295702435005887,0.0370210238795948
1592167792.4195354,0.138355795216758,9.57075667700238,2.566007799757072,-0.4666666666666667,-0.6222222222222222,-0.39111111111111113,-0.03746,-0.10021902214370887,0.01617019135814178
1592167792.4295354,0.09017889478015209,9.53116155859741,2.508003802513812,-0.4666666666666667,-0.6222222222222222,-0.39111111111111113,-0.044603817670638694,-0.09525638076667596,-0.03245852736478758
1592167792.4395354,-0.01625359025083227,9.583405199729773,2.6053452481291988,-0.48,-0.6022222222222222,-0.4033333333333333,-0.062186224964582044,-0.10153859613691549,-0.07389349127875579
1592167792.4495354,-0.09617176315633622,9.569654707356328,2.613110777808233,-0.48,-0.6022222222222222,-0.4033333333333333,-0.06235299520713381,-0.106995,-0.0800294793679947
1592167792.4595354,-0.03572634437805311,9.647131996426065,2.677529202158012,-0.48,-0.6022222222222222,-0.4033333333333333,-0.05700261721520629,-0.10333607790231046,-0.05046043576028893
1592167792.4695354,0.036860228354028954,9.61911363062747,2.707743709662863,-0.48,-0.6022222222222222,-0.4033333333333333,-0.04680421515607954,-0.07203558163084148,-0.0403510353713967
1592167792.4795353,0.02532535795730278,9.629972904811702,2.7336048714123162,-0.48,-0.6022222222222222,-0.4033333333333333,-0.02810922726821617,-0.06851803555527092,-0.01995613477979644
1592167792.4895353,-0.059341382687203896,9.641182073471988,2.7072593865388046,-0.4616461052506109,-0.6083401871386853,-0.40945129824979637,-0.011528887001565433,-0.054585835749495805,0.025942816012367895
1592167792.4995353,0.12036224434723798,9.588088938246834,2.6792780627559165,-0.46,-0.6088888888888889,-0.41,-0.004115726871970779,-0.010752639928522283,0.03184179168044679
1592167792.5095353,0.18591854469276792,9.523581204480323,2.6960441118293983,-0.46,-0.6088888888888889,-0.41,0.0006779784443778326,0.0062406451243341805,-0.015224281678606304
1592167792.5195353,0.09387345415093387,9.54879766555254,2.610362284387671,-0.46,-0.6088888888888889,-0.41,-0.02150092406365515,0.015434937483203357,-0.04128393748320336
1592167792.5295353,-0.02307007824813087,9.631565913435743,2.713059924519682,-0.46,-0.6088888888888889,-0.41,-0.024728181732567647,0.004784616005243138,-0.0036435688535137838
1592167792.5395353,0.037328415025891286,9.570429195182207,2.853065330389948,-0.45511955122939596,-0.6088888888888889,-0.41780871803296643,-0.008183288216282841,0.037166972562520065,0.019085881912336292
1592167792.5495353,0.062322610447097485,9.578214146450307,2.842150814978188,-0.45444444444444443,-0.6088888888888889,-0.41888888888888887,0.01186973151399413,0.048205677021782974,0.021401875552481957
1592167792.5595353,0.07821030390785459,9.583581492227424,2.76376368349124,-0.45444444444444443,-0.6088888888888889,-0.41888888888888887,0.027546102492657064,0.07201267262956929,0.030848206294930135
1592167792.5695353,0.08815031567779098,9.596492352519283,2.669696134915435,-0.45444444444444443,-0.6088888888888889,-0.41888888888888887,0.03270660519206226,0.09619021038412452,0.029236789615875475
1592167792.5795352,0.04281451064627692,9.588196,2.621475,-0.45444444444444443,-0.6088888888888889,-0.41888888888888887,0.03160690061423566,0.09309737783096267,0.040298377245422796
1592167792.5895352,-0.029838891952560908,9.583273642055525,2.5946333599752935,-0.44377515594162814,-0.6088888888888889,-0.4363477246207701,0.028802415916799756,0.1107696653944996,0.036165944731960074
1592167792.5995352,0.03747372013258422,9.57053952598174,2.6700085629378587,-0.44222222222222224,-0.6088888888888889,-0.4388888888888889,0.025626209664861205,0.10063403494845434,0.018964409169738062
1592167792.6095352,-0.0879802447916226,9.599194100868313,2.7126548029405018,-0.44222222222222224,-0.6088888888888889,-0.4388888888888889,0.02833040265762015,0.08710017467138316,-0.022738884450209038
1592167792.6195352,-0.18958633744668324,9.610947459314383,2.702689760554727,-0.44222222222222224,-0.6088888888888889,-0.4388888888888889,0.03276089558789987,0.05638190157257063,-0.0036805713206383445
1592167792.6295352,-0.09229204020756027,9.61256189507996,2.6709038305332657,-0.44222222222222224,-0.6088888888888889,-0.4388888888888889,0.03722570186556393,0.038497440026664775,0.02119315088195163
1592167792.6395352,0.038459458073341064,9.618403564848476,2.716496817659204,-0.44666305825408825,-0.6151060593335014,-0.43444805285702287,0.043878230687242344,0.03192165265504743,0.030360384656378827
1592167792.6495352,0.19842634403279452,9.558377364040195,2.692080563929286,-0.4477777777777778,-0.6166666666666667,-0.43333333333333335,0.0512836431917175,0.057752076910523656,-0.021533408630282424
1592167792.6595352,-0.01899594161317255,9.608410468550947,2.6915500076460215,-0.4477777777777778,-0.6166666666666667,-0.43333333333333335,0.05442370137172186,0.010220501706546498,-0.04723175085327325
1592167792.6695352,-0.1031805670005147,9.64728673432422,2.6046471766911594,-0.4477777777777778,-0.6166666666666667,-0.43333333333333335,0.062031936399801695,0.0025097022998512727,0.0020339301831658295
1592167792.6795352,0.08392443819547007,9.622074570378691,2.497826190523435,-0.4477777777777778,-0.6166666666666667,-0.43333333333333335,0.05948648966437746,-0.017050459204115492,0.03899364134646435
1592167792.6895351,0.3652765671725213,9.572135309080464,2.463915650246764,-0.42524933282500954,-0.609810183420172,-0.419620366840344,0.047476302352044905,-0.012274251118552874,0.013254612625235387
1592167792.6995351,0.3325660815927427,9.602844882665119,2.335981331922408,-0.4222222222222222,-0.6088888888888889,-0.4177777777777778,0.030089438178342063,-0.03186750655843254,-0.0634352377774813
1592167792.7095351,-0.007855616553652243,9.610163830249922,2.3796304058747224,-0.4222222222222222,-0.6088888888888889,-0.4177777777777778,0.009604797208206558,-0.0889657271647521,-0.06409325153771073
1592167792.719535,-0.03933875960716356,9.661414836939423,2.4062444792387074,-0.4222222222222222,-0.6088888888888889,-0.4177777777777778,0.002547776761182028,-0.081950160962404,-0.02528541621982079
1592167792.729535,0.08103866070046797,9.706668523506847,2.4600074151235067,-0.4222222222222222,-0.6088888888888889,-0.4177777777777778,-0.005781511688013677,-0.09793083481572369,0.01850227081563786
1592167792.739535,0.4375171619635875,9.541858961746362,2.538013669714249,-0.4312888696022533,-0.61795553626892,-0.4223111014677933,-0.008252546910229829,-0.03757062474953388,-0.008016411773502107
1592167792.749535,0.21553641394358083,9.590334175265491,2.434446601218847,-0.43555555555555553,-0.6222222222222222,-0.42444444444444446,-0.023055703600160703,-0.0923120885136948,-0.047232237719193985
1592167792.759535,-0.06274838359141352,9.64267451620343,2.7306596658790596,-0.43555555555555553,-0.6222222222222222,-0.42444444444444446,-0.017422331432848822,-0.11175956446296402,-0.027722331432848822
1592167792.769535,-0.007666886053899667,9.642252897834496,2.6855453879655826,-0.43555555555555553,-0.6222222222222222,-0.42444444444444446,7.817973348065495e-05,-0.11029988062959983,-0.00353662724608949
1592167792.779535,0.15637894900258797,9.594514781390194,2.565285156463584,-0.43555555555555553,-0.6222222222222222,-0.42444444444444446,0.004221793432248469,-0.12410448631134477,-0.004188922079661282
1592167792.789535,0.29582682036969643,9.57994705690331,2.513411013509915,-0.43555555555555553,-0.6177997993589274,-0.42444444444444446,-0.002870807721772652,-0.1124632565106077,-0.037106363584648694
1592167792.799535,0.3262124325224198,9.59085639002141,2.5205902106273754,-0.43555555555555553,-0.6166666666666667,-0.42444444444444446,-0.004747476841287436,-0.11998166019741062,-0.062345523158712564
1592167792.809535,0.3776764331410386,9.628108409380763,2.6400519415423243,-0.43555555555555553,-0.6166666666666667,-0.42444444444444446,-0.0005851405719473668,-0.09034226590828084,-0.05646126567089601
1592167792.819535,0.4591652100611725,9.656467732488638,2.6475005668371945,-0.43555555555555553,-0.6166666666666667,-0.42444444444444446,0.004675962795170184,-0.07482219243000277,-0.03796640678151583
1592167792.829535,0.5476976328489763,9.61143014827417,2.619294215875316,-0.43555555555555553,-0.6166666666666667,-0.42444444444444446,0.016143598941443488,-0.04582736111617371,-0.04769644009019112
1592167792.839535,0.4921912265637222,9.589547517724135,2.458525628769963,-0.43555555555555553,-0.6166666666666667,-0.44119508001694857,0.014829926314477191,-0.03937618760929582,-0.05799085174077193
1592167792.849535,0.32136033374546247,9.6256820953733,2.3544606707163402,-0.43555555555555553,-0.6166666666666667,-0.44555555555555554,0.0012963041620016923,-0.029625794538409057,-0.03659565531786661
1592167792.859535,0.28946095243671366,9.647372697277325,2.2450628106650363,-0.43555555555555553,-0.6166666666666667,-0.44555555555555554,-0.015267540975840072,0.013537969228138606,-0.012490443638229232
1592167792.869535,0.2652202086698235,9.638029297578573,2.272052499338389,-0.43555555555555553,-0.6166666666666667,-0.44555555555555554,-0.044389689669680266,0.02343030793777746,0.007995631133767233
1592167792.879535,0.17096063792390176,9.620810774313904,2.5162436186485055,-0.43555555555555553,-0.6166666666666667,-0.44555555555555554,-0.06086091744807772,0.042457951493196755,0.030326636926930054
1592167792.889535,0.1875173892266147,9.596702604557704,2.5703814115975048,-0.41919811065790186,-0.6241638289114246,-0.4414661943311421,-0.05664119494174428,0.0613034892770654,0.052345299388345076
1592167792.899535,0.23526995797039124,9.585703021014805,2.550032213934931,-0.4088888888888889,-0.6288888888888889,-0.4388888888888889,-0.060844166259527065,0.02990834749200154,0.048400638998387424
1592167792.909535,0.24336523091805737,9.565358917074173,2.472429888402291,-0.4088888888888889,-0.6288888888888889,-0.4388888888888889,-0.06911763099182991,0.012365730860823454,0.01696936185265336
1592167792.919535,0.1620080179975161,9.596024256178291,2.369834377085045,-0.4088888888888889,-0.6288888888888889,-0.4388888888888889,-0.08447604741163324,-0.03709421735749334,0.014597773447935867
1592167792.929535,0.1887961980017742,9.572593832509812,2.334873927451285,-0.4088888888888889,-0.6288888888888889,-0.4388888888888889,-0.10834424603244046,-0.045748940533833694,0.02536856162774471
1592167792.939535,0.3435745103477616,9.590002352832872,2.3711483202544765,-0.4088888888888889,-0.6208632856127526,-0.4388888888888889,-0.13372685578613736,-0.05163321298996597,0.02424772289797007
1592167792.949535,0.408583565715502,9.587222289627928,2.4353750058741945,-0.4088888888888889,-0.6166666666666667,-0.4388888888888889,-0.15403818645464004,-0.01949253408304249,-0.008768224505035341
1592167792.959535,0.38875215551303643,9.584494095541615,2.549537579685113,-0.4088888888888889,-0.6166666666666667,-0.4388888888888889,-0.1712580476660607,-0.023896424190403033,-0.013021528143536264
1592167792.9695349,0.3909307920703291,9.554844801508485,2.5897641541818723,-0.4088888888888889,-0.6166666666666667,-0.4388888888888889,-0.17807,0.021501702193701143,-0.031155855769241233
1592167792.9795349,0.3300718036001807,9.600777871046127,2.7577124439721383,-0.4088888888888889,-0.6166666666666667,-0.4388888888888889,-0.17435167701430404,0.024567954176859245,-0.022206835574329904
1592167792.9895349,0.3883279639777903,9.57756814524527,2.855225648392438,-0.3949139563938258,-0.6205485923597398,-0.4536402065225666,-0.1627990491392527,0.04221147197292295,-0.007866242957039722
1592167792.9995348,0.3291420991470628,9.5715242746155,2.9161645455408967,-0.3888888888888889,-0.6222222222222222,-0.46,-0.14947967088150138,0.04068021695787515,-0.003259715626611349
1592167793.0095348,0.2698605300832703,9.592109490946468,2.8724895951740974,-0.3888888888888889,-0.6222222222222222,-0.46,-0.13267481520688143,0.05804787183655212,0.008650841271401779
1592167793.0195348,0.26214836877970227,9.525735374584286,2.772445182191769,-0.3888888888888889,-0.6222222222222222,-0.46,-0.12451890045209128,0.0583491894148968,0.019919711037194483
1592167793.0295348,0.24613146881081974,9.553219287396265,2.9036930223494783,-0.3888888888888889,-0.6222222222222222,-0.46,-0.11945071041688203,0.060971122293461584,0.027270926916134662
1592167793.0395348,0.2518958119314737,9.537757963093025,3.079444441837743,-0.3809146784146784,-0.6265717915717917,-0.43317765567765565,-0.10050678978705319,0.08022018012855281,0.03887872310673498
1592167793.0495348,0.1863377675775634,9.531643903670984,3.1909108673634985,-0.37666666666666665,-0.6288888888888889,-0.41888888888888887,-0.07392471711687898,0.06264203409357581,0.0358148312591856
1592167793.0595348,0.18669375578868574,9.495489103109398,3.2428318468507675,-0.37666666666666665,-0.6288888888888889,-0.41888888888888887,-0.041728876522324564,0.06262807332934484,0.03208217662896701
1592167793.0695348,0.1823538786078333,9.521203703941163,3.096080997901338,-0.37666666666666665,-0.6288888888888889,-0.41888888888888887,-0.012928757637098297,0.0655768375094209,0.03215
1592167793.0795348,0.22846310179062862,9.577232300767756,3.0322181348798054,-0.37666666666666665,-0.6288888888888889,-0.41888888888888887,0.0060244845863091515,0.061217004096760785,0.03173420840609557
1592167793.0895348,0.2953121034244802,9.53589588784128,2.8629970786988626,-0.3799049326747412,-0.6172311312598207,-0.4396137913405658,0.014161238219193288,0.07778199374938122,0.016483793033900577
1592167793.0995347,0.2566317098567182,9.51279098402756,2.7766504394196097,-0.38222222222222224,-0.6088888888888889,-0.45444444444444443,0.015808,0.08492508839702982,0.007380311240157457
1592167793.1095347,0.26761647095593954,9.56062751413287,2.8617711365821337,-0.38222222222222224,-0.6088888888888889,-0.45444444444444443,0.016638078008421937,0.09730524880892459,0.011426156016843873
1592167793.1195347,0.3222911119280077,9.517325405417875,2.8796070800005524,-0.38222222222222224,-0.6088888888888889,-0.45444444444444443,0.02123187309498694,0.11071947777397755,0.02062292092647317
1592167793.1295347,0.24199001153368252,9.565235900384236,2.9829277870917963,-0.38222222222222224,-0.6088888888888889,-0.45444444444444443,0.03144058384548594,0.12666679192274297,0.039612723353562224
1592167793.1395347,0.1829981675336523,9.598228969999449,2.928559869355576,-0.38222222222222224,-0.6088888888888889,-0.4436986034607467,0.047280164865282,0.1233435196424418,0.0582016375842235
1592167793.1495347,0.11427784763523059,9.52666038290984,2.8639689165237545,-0.38222222222222224,-0.6088888888888889,-0.43333333333333335,0.055057373651520546,0.10562941351190425,0.07336371767531921
1592167793.1595347,0.146515,9.508828730125177,2.8283780225037476,-0.38222222222222224,-0.6088888888888889,-0.43333333333333335,0.057631570077072175,0.10016916566217275,0.07418316566217276
1592167793.1695347,0.1027177274534999,9.525631023422628,2.60134698810843,-0.38222222222222224,-0.6088888888888889,-0.43333333333333335,0.052193693194996955,0.095413,0.06287657026818873
1592167793.1795347,0.23181020597898117,9.526836706281177,2.465044223170847,-0.38222222222222224,-0.6088888888888889,-0.43333333333333335,0.03152831470920259,0.11490870911486571,0.04421129408794211
1592167793.1895347,0.20466864801882226,9.540372930827896,2.449869645828593,-0.38986119157730686,-0.6203473429215158,-0.4403357219088276,0.0012440029939876076,0.15206118883340144,0.01221191585787464
1592167793.1995347,0.049805180404267374,9.57736316476877,2.560941811116598,-0.39555555555555555,-0.6288888888888889,-0.44555555555555554,-0.024694685870016678,0.1604410352385699,0.021831272313923854
1592167793.2095346,0.13185721527607788,9.574362071501456,2.6498455493074338,-0.39555555555555555,-0.6288888888888889,-0.44555555555555554,-0.03687722585824417,0.18739049195723295,0.03701407374230877
1592167793.2195346,0.2287529187887122,9.550975231196155,2.819143022956361,-0.39555555555555555,-0.6288888888888889,-0.44555555555555554,-0.04355841096649831,0.17872217739215887,0.04454755877253395
1592167793.2295346,0.20495831764377098,9.545245935106946,3.0136578744460514,-0.39555555555555555,-0.6288888888888889,-0.44555555555555554,-0.03372868680391553,0.15242307849698564,0.03992680300318884
1592167793.2395346,0.07264636689516714,9.545065920845161,3.0765652486627006,-0.3821212696861968,-0.6227315078654329,-0.43492007924231324,-0.01579986743013088,0.10438393743912666,0.0537960966591345
1592167793.2495346,0.09321946965511735,9.549564874422888,3.0229184448649224,-0.3688888888888889,-0.6166666666666667,-0.42444444444444446,0.004162775425635123,0.07509138276343083,0.06510679358133405
1592167793.2595346,0.22986328407619366,9.524964008235989,2.8628076939273344,-0.3688888888888889,-0.6166666666666667,-0.42444444444444446,0.014688538175420342,0.05198506757562807,0.04200804400694126
1592167793.2695346,0.19933755297671513,9.523925458849696,2.725846466694671,-0.3688888888888889,-0.6166666666666667,-0.42444444444444446,0.011685452706259527,0.011001023240973292,0.012351018915542161
1592167793.2795346,0.15973872338428363,9.546121496427208,2.6750001899019566,-0.3688888888888889,-0.6166666666666667,-0.42444444444444446,0.003312356679581711,0.004868,0.0014684435879209166
1592167793.2895346,0.22838953673281076,9.548766200150478,2.7983102688508117,-0.3711926705766639,-0.6166666666666667,-0.43333045952586224,-0.002203384128372025,-0.010320391961623009,0.008211239576506935
1592167793.2995346,0.41026958590090745,9.533913739748467,2.851082615895222,-0.37666666666666665,-0.6166666666666667,-0.45444444444444443,0.0036887745686020436,-0.002730566851852488,-0.004739369205041941
1592167793.3095345,0.4529206595379804,9.536867720885848,2.8371113757497994,-0.37666666666666665,-0.6166666666666667,-0.45444444444444443,0.011043787587968201,-0.0021425790478523093,-0.03277967042175388
1592167793.3195345,0.4058075696823243,9.555154408713802,2.864966441109176,-0.37666666666666665,-0.6166666666666667,-0.45444444444444443,0.015023306742949221,-0.029393700051480426,-0.042028035847262224
1592167793.3295345,0.4021,9.558637233158864,2.867034453863851,-0.37666666666666665,-0.6166666666666667,-0.45444444444444443,0.024720180413444336,-0.04616051727299956,-0.04517468340016215
1592167793.3395345,0.3555584598019359,9.572186254605674,2.8008207227414923,-0.37666666666666665,-0.6145216815623966,-0.4501544742359042,0.0318457374841016,-0.060935547952318654,-0.045624
1592167793.3495345,0.30003795196554056,9.548874853953468,2.5728700802050817,-0.37666666666666665,-0.6088888888888889,-0.4388888888888889,0.0252277845343325,-0.05983975420417275,-0.0440484915916545
1592167793.3595345,0.18691444669819504,9.575844382033594,2.487151403793316,-0.37666666666666665,-0.6088888888888889,-0.4388888888888889,0.007617278377172195,-0.05085666355254913,-0.030275703096138803
1592167793.3695345,0.1929640379549532,9.565393351508254,2.600547110030186,-0.37666666666666665,-0.6088888888888889,-0.4388888888888889,-0.009540569267761187,-0.027580047138985077,-0.0031057137222150564
1592167793.3795345,0.3384435228934903,9.561383149097177,2.7021141964963262,-0.37666666666666665,-0.6088888888888889,-0.4388888888888889,-0.01896149184200801,-0.0097552496693988,0.009766
1592167793.3895345,0.32315637268616804,9.547618099302674,2.8278730471767957,-0.37798137012144795,-0.6136218213261015,-0.43205243092402623,-0.01799484157452084,-0.0032705792127395803,0.01701997275940462
1592167793.3995345,0.4143833427395193,9.569147306131807,2.9373546015148957,-0.38222222222222224,-0.6288888888888889,-0.41,-0.009934306585251206,0.001884801190123714,0.023621
1592167793.4095345,0.4525099992592762,9.536203160224451,2.953353723661092,-0.38222222222222224,-0.6288888888888889,-0.41,0.009866204608709166,-0.0024370803286995636,0.015574977426515063
1592167793.4195344,0.487619303876333,9.547205308350076,2.7579045071051396,-0.38222222222222224,-0.6288888888888889,-0.41,0.01203866946775282,-0.01827450195151333,0.0017647916518308106
1592167793.4295344,0.40459336697137277,9.529127381694874,2.6088414921474623,-0.38222222222222224,-0.6288888888888889,-0.41,0.002365485502842947,-0.028270977713055777,-0.027180901285470852
1592167793.4395344,0.2711894222854385,9.541514610115268,2.5901657708856742,-0.3794922473727443,-0.6263864119435342,-0.41727993293194116,-0.012356461281441118,-0.035614,-0.03923
1592167793.4495344,0.19037977470640563,9.573495479243535,2.6198751881081153,-0.3688888888888889,-0.6166666666666667,-0.44555555555555554,-0.026728918951958943,-0.040939,-0.02391238637502475
1592167793.4595344,0.2961527248087865,9.596431694740776,2.770508,-0.3688888888888889,-0.6166666666666667,-0.44555555555555554,-0.0325891557513448,-0.016747303746618,0.00312103373920861
1592167793.4695344,0.4438081665971531,9.592981243929557,2.778271304782891,-0.3688888888888889,-0.6166666666666667,-0.44555555555555554,-0.03231147489769468,-0.013133136214882333,0.007459724006847792
1592167793.4795344,0.4622680154835631,9.56157023841927,2.960431840188167,-0.3688888888888889,-0.6166666666666667,-0.44555555555555554,-0.02332497903983146,-0.01191097903983146,0.01059313651087294
1592167793.4895344,0.4651630675154569,9.545212005287107,3.0554031378273656,-0.3688888888888889,-0.6166666666666667,-0.4429445524617761,-0.00019195556607474584,0.002944184430831479,0.01790922549232595
1592167793.4995344,0.4009477483631696,9.566223969195768,2.97554531354378,-0.3688888888888889,-0.6166666666666667,-0.41888888888888887,0.017560797222622063,-0.019590017480876677,0.008031170262793078
1592167793.5095344,0.394318,9.518888590191583,3.0105107411570313,-0.3688888888888889,-0.6166666666666667,-0.41888888888888887,0.03543778154753551,-0.035193506375795526,-0.007080275171739984
1592167793.5195343,0.4301492961347358,9.577851050757806,2.948481264881701,-0.3688888888888889,-0.6166666666666667,-0.41888888888888887,0.051177641703235945,-0.03910805541776172,-0.018223187261319575
1592167793.5295343,0.6169621395854389,9.582348432076223,2.9082624731504105,-0.3688888888888889,-0.6166666666666667,-0.41888888888888887,0.061851984382832716,-0.04333773207903575,-0.012899982403952064
1592167793.5395343,0.47361310205327967,9.538969544797673,2.912478345168298,-0.3678230948826884,-0.6154232403260995,-0.4235073295824243,0.07722481499381996,-0.02159580961458591,-0.013034750342566294
1592167793.5495343,0.26606107401262413,9.582332240862199,2.663337074830424,-0.3622222222222222,-0.6088888888888889,-0.4477777777777778,0.07676931695505064,-0.0182585313211428,-0.02709951781370525
1592167793.5595343,0.2380811946812921,9.557229032471845,2.661994391581292,-0.3622222222222222,-0.6088888888888889,-0.4477777777777778,0.06872226830158519,-0.030820848554853092,-0.024674909780364716
1592167793.5695343,0.17485366135422967,9.551354034044076,2.7248321752894937,-0.3622222222222222,-0.6088888888888889,-0.4477777777777778,0.06572990093940773,-0.043444319177937646,-0.026298876736265384
1592167793.5795343,0.08064714514636007,9.58594399211511,2.709298551935679,-0.3622222222222222,-0.6088888888888889,-0.4477777777777778,0.06245034054699404,-0.0654206998495801,-0.024323
1592167793.5895343,0.12798261717465215,9.56562957960191,2.684120271428612,-0.36281498578619303,-0.6094360552556313,-0.44622747307200794,0.05824892804251888,-0.08195097238959585,-0.02227453597874056
1592167793.5995343,0.08472147228225706,9.590069166071517,2.7124690442097785,-0.37666666666666665,-0.6222222222222222,-0.41,0.056229257769021865,-0.09907077294208624,-0.023837858398648416
1592167793.6095343,0.18636451442076687,9.577837720756774,2.810288347058941,-0.37666666666666665,-0.6222222222222222,-0.41,0.057588176620235285,-0.10439810951911978,-0.008363948482832232
1592167793.6195343,0.3021221969787557,9.551721578527976,2.826308161055109,-0.37666666666666665,-0.6222222222222222,-0.41,0.0733238630880057,-0.07397803810882123,-0.014718659519285778
1592167793.6295342,0.3232086673202244,9.572311965571567,2.6876609657222135,-0.37666666666666665,-0.6222222222222222,-0.41,0.07860085432687887,-0.055083938934650425,-0.019992262653235043
1592167793.6395342,0.288431175767909,9.57188754079329,2.5879288301461774,-0.3747290240811153,-0.6218185466835657,-0.4120991128010139,0.07361753423544311,-0.03085606847088623,-0.009853187235367093
1592167793.6495342,0.27580111123154,9.588392869042098,2.5938462009823837,-0.35,-0.6166666666666667,-0.4388888888888889,0.06621072059984981,-0.005911756775698796,0.004917755771944376
1592167793.6595342,0.3007150444246499,9.55191600459538,2.5604921502065756,-0.35,-0.6166666666666667,-0.4388888888888889,0.05377256565890951,0.011642434341090493,0.009655125331007885
1592167793.6695342,0.23814547111110085,9.565203774264415,2.597663189905644,-0.35,-0.6166666666666667,-0.4388888888888889,0.04726602081034201,0.017360474479977586,0.01297
1592167793.6795342,0.16348643037834823,9.571854080566576,2.6069156778345812,-0.35,-0.6166666666666667,-0.4388888888888889,0.042939124095676136,0.012650082730450757,0.011733958634774621
1592167793.6895342,0.16135404372018836,9.590384513056664,2.625322922766809,-0.35001282396197647,-0.6166724957402924,-0.4388679042238364,0.03537691973357723,0.012314,0.007161754846948518
1592167793.6995342,0.14884554852866738,9.560818431606874,2.653697964756253,-0.3622222222222222,-0.6222222222222222,-0.41888888888888887,0.03582169970832421,0.009360080179148496,0.004089158962063392
1592167793.7095342,0.12401896658483492,9.573679118463424,2.68218532290007,-0.3622222222222222,-0.6222222222222222,-0.41888888888888887,0.034988,0.009664419907987276,0.002054709953993638
1592167793.7195342,0.19704807498111304,9.604850670748057,2.7230694207328243,-0.3622222222222222,-0.6222222222222222,-0.41888888888888887,0.03788491620613632,0.02189600938175236,0.006480493638322513
1592167793.7295341,0.2406435956630936,9.591961339688426,2.7786234925758984,-0.3622222222222222,-0.6222222222222222,-0.41888888888888887,0.04586022741234487,0.036292805443164204,0.008073244916747793
1592167793.7395341,0.2632041682163765,9.605787023948649,2.794747833353825,-0.3622222222222222,-0.6222222222222222,-0.41888888888888887,0.058440869154789486,0.04965073830957898,0.01406298613105849
1592167793.7495341,0.21007674676421512,9.581129567598747,2.878615433055901,-0.39555555555555555,-0.6166666666666667,-0.41,0.07384654483634906,0.05876041323522092,0.020362878272755344
1592167793.7595341,0.1707702643325212,9.586395,2.8228119437564083,-0.39555555555555555,-0.6166666666666667,-0.41,0.0903518796284619,0.07287610327257135,0.024950482429406298
1592167793.769534,0.12723294891227976,9.57817863250353,2.7631683351978946,-0.39555555555555555,-0.6166666666666667,-0.41,0.10271138941025841,0.09176473890888573,0.027446947466712023
1592167793.779534,0.071686,9.581126815889874,2.739236959757805,-0.39555555555555555,-0.6166666666666667,-0.41,0.11152721306421577,0.10118093715166114,0.03457805934542094
1592167793.789534,0.021282761050398558,9.620472900525696,2.7391559360920317,-0.39555555555555555,-0.6166666666666667,-0.41,0.12417563468702952,0.11593753900260409,0.03485235997103241
1592167793.799534,0.007781240707288625,9.613135047318302,2.72248949495825,-0.38222222222222224,-0.6288888888888889,-0.41,0.13465886504950195,0.12420778685549849,0.03851692578799335
1592167793.809534,0.02612879064655288,9.613806714893933,2.64577946100546,-0.38222222222222224,-0.6288888888888889,-0.41,0.14513532146906405,0.1300904886075408,0.038528
1592167793.819534,0.07580404486347295,9.600630140453173,2.6156139058759686,-0.38222222222222224,-0.6288888888888889,-0.41,0.14780567680478626,0.1246611112903658,0.03873091397530183
1592167793.829534,0.01281336058104608,9.596300533974027,2.4824119122195345,-0.38222222222222224,-0.6288888888888889,-0.41,0.1549076824576059,0.12783271274650343,0.0345749526271823
1592167793.839534,-0.08772809479238017,9.61402695452615,2.4079443183054816,-0.38222222222222224,-0.6288888888888889,-0.41,0.14362541366440668,0.10713758633559334,0.045142571383895026
1592167793.849534,0.06240933121209404,9.621113153393138,2.3636964915643452,-0.3888888888888889,-0.6088888888888889,-0.3977777777777778,0.13337815579713297,0.11351144417807424,0.045852809859824976
1592167793.859534,0.14636103124023755,9.646343059465885,2.4024000336781968,-0.3888888888888889,-0.6088888888888889,-0.3977777777777778,0.12115928399434728,0.09994222029307062,0.039174156591793984
1592167793.869534,0.05757806138127742,9.635498388814009,2.3526675224078546,-0.3888888888888889,-0.6088888888888889,-0.3977777777777778,0.10960700624691647,0.09048314879787739,0.03286171900172111
1592167793.879534,0.08609154193460324,9.624489993366826,2.3180039243114288,-0.3888888888888889,-0.6088888888888889,-0.3977777777777778,0.09497833140077563,0.07890272686351259,0.02905895340294729
1592167793.889534,0.10358189521796185,9.636657432316289,2.2554965175816446,-0.3888888888888889,-0.6088888888888889,-0.3977777777777778,0.07489375198409975,0.05562008618619914,0.024107617412573782
1592167793.899534,0.12750083243156404,9.617239667465064,2.17573951302791,-0.3688888888888889,-0.6222222222222222,-0.4033333333333333,0.05034160542893575,0.026015204989166586,0.017024614666317155
1592167793.909534,0.1773087318249153,9.62250968455921,2.170024759685941,-0.3688888888888889,-0.6222222222222222,-0.4033333333333333,0.02229074553567829,0.00819700842845722,0.007383309428167896
1592167793.919534,0.1018009494800603,9.63824872128017,2.18884119927536,-0.3688888888888889,-0.6222222222222222,-0.4033333333333333,-0.0065570963243049545,-0.0053101907311381945,-1.130658540470105e-05
1592167793.929534,0.1193944609838635,9.668424434400583,2.2036055061983926,-0.3688888888888889,-0.6222222222222222,-0.4033333333333333,-0.02829043278340785,-0.00938979273978936,-0.004737712685868641
1592167793.939534,0.10607193999869997,9.658563239617997,2.3221908109431832,-0.3688888888888889,-0.6222222222222222,-0.4033333333333333,-0.045085523504275554,-0.004452561820867711,-0.01181148987731254
1592167793.949534,0.02061010236127986,9.645817158314491,2.2979264062291187,-0.37666666666666665,-0.6088888888888889,-0.41888888888888887,-0.061546994110390045,0.0004856325984294204,-0.013547632598429421
1592167793.959534,-0.0028950528633846224,9.62240281008852,2.3721789803501268,-0.37666666666666665,-0.6088888888888889,-0.41888888888888887,-0.07276734102588647,-0.0007905263746312769,-0.01357503598490479
1592167793.969534,0.04616363660090665,9.632056509867626,2.516170615967427,-0.37666666666666665,-0.6088888888888889,-0.41888888888888887,-0.07468261033964216,-0.002594,-0.014669662154104604
1592167793.979534,0.011536998987110275,9.64856812173514,2.5778609727226596,-0.37666666666666665,-0.6088888888888889,-0.41888888888888887,-0.0703426663646953,-0.00048554409812308444,-0.013629842757187633
1592167793.989534,-0.03206211890869542,9.62545237511738,2.593548880462331,-0.37666666666666665,-0.6088888888888889,-0.41888888888888887,-0.06301949930002586,-0.00045824965001292845,-0.010468499300025857
1592167793.999534,-0.04875201311736996,9.659159339070879,2.596470132232844,-0.3622222222222222,-0.6166666666666667,-0.43333333333333335,-0.056681453137254506,-0.0004019695348072955,-0.007362270242321889
1592167794.009534,-0.009180453720777346,9.608183256570607,2.6665422870237827,-0.3622222222222222,-0.6166666666666667,-0.43333333333333335,-0.044115734402174867,0.008903768384965559,-0.005030994425719153
1592167794.0195339,-0.026466821950438514,9.598663065208465,2.75076333935729,-0.3622222222222222,-0.6166666666666667,-0.43333333333333335,-0.02751333543222543,0.014630129013274738,-0.003983935493362631
1592167794.0295339,-0.07407398002013649,9.610442544076463,2.7454667055299744,-0.3622222222222222,-0.6166666666666667,-0.43333333333333335,-0.008804382273045112,0.01716922229496263,0.0008990805493624202
1592167794.0395339,-0.07220982818735935,9.631642530239379,2.6356185489119106,-0.3622222222222222,-0.6166666666666667,-0.43333333333333335,0.00350843766401028,0.018852652002545697,0.012098133658918892
1592167794.0495338,-0.02214940710913456,9.631742099724146,2.491461417918314,-0.37666666666666665,-0.6166666666666667,-0.4122222222222222,0.005504053903004163,0.021738554249691885,0.015277009714489182
1592167794.0595338,0.04223760933382699,9.614766549886369,2.3804135345965913,-0.37666666666666665,-0.6166666666666667,-0.4122222222222222,-0.0033957505341358227,0.024691039790216352,0.016571859504053685
1592167794.0695338,0.0751725309125885,9.628022131104167,2.3706216835552523,-0.37666666666666665,-0.6166666666666667,-0.4122222222222222,-0.01580228422647972,0.023212159948313552,0.012372934140168802
1592167794.0795338,0.0437114797075826,9.61366130085159,2.442904812880187,-0.37666666666666665,-0.6166666666666667,-0.4122222222222222,-0.028949654212009433,0.025627521635693644,0.007626345787990568
1592167794.0895338,0.028960984676941783,9.62821315592269,2.4972539843754746,-0.37666666666666665,-0.6166666666666667,-0.4122222222222222,-0.035032945434111784,0.02278107585263814,0.004731054565888219
1592167794.0995338,0.0447477164523644,9.61615388364473,2.6631660487340527,-0.38222222222222224,-0.6222222222222222,-0.43333333333333335,-0.033095845780126525,0.02298,0.002222277213740165
1592167794.1095338,0.03442537042515441,9.626227885418574,2.7390179700131614,-0.38222222222222224,-0.6222222222222222,-0.43333333333333335,-0.014330396507302775,0.021558924325528736,0.001965924325528736
1592167794.1195338,0.03228718434599468,9.617129289358946,2.751650014729887,-0.38222222222222224,-0.6222222222222222,-0.43333333333333335,0.0024962633313233324,0.016348997823442332,0.0002576082678515004
1592167794.1295338,-0.015091,9.640357585210609,2.6182535945238894,-0.38222222222222224,-0.6222222222222222,-0.43333333333333335,0.012210336829620411,0.008623652681518356,-0.000885
1592167794.1395338,-0.022559429399899786,9.612216282393334,2.4525438792427683,-0.38222222222222224,-0.6222222222222222,-0.43333333333333335,0.012619,0.0025359138367375515,0.0008145430816312241
1592167794.1495337,-0.031354039188697516,9.625035637748478,2.365787230237234,-0.37666666666666665,-0.6166666666666667,-0.4033333333333333,0.0018681703136998141,0.001663,0.001251
1592167794.1595337,0.0012382302689688232,9.62636238646582,2.3137104395492774,-0.37666666666666665,-0.6166666666666667,-0.4033333333333333,-0.01479718816713102,0.00330052197299597,0.0050095219729959705
1592167794.1695337,0.06727618919654237,9.622760847297387,2.3392558547996996,-0.37666666666666665,-0.6166666666666667,-0.4033333333333333,-0.03218921725631669,0.007530728224850068,0.002845271775149933
1592167794.1795337,0.08810195099844483,9.64127483267627,2.459557784455471,-0.37666666666666665,-0.6166666666666667,-0.4033333333333333,-0.04116341568914484,0.007502934477087645,0.002319
1592167794.1895337,0.006728958963168579,9.62507801702184,2.629564251612641,-0.37666666666666665,-0.6166666666666667,-0.4033333333333333,-0.043474616740165534,0.010672706905457264,-0.0023173832598344696
1592167794.1995337,0.017893653895288665,9.626495,2.6783066432070424,-0.3888888888888889,-0.5955555555555555,-0.4122222222222222,-0.03352269446566062,0.009576913157311361,-0.002108520780283337
1592167794.2095337,-0.007847813176510267,9.6247431062524,2.6383333116228087,-0.3888888888888889,-0.5955555555555555,-0.4122222222222222,-0.02702576142443054,0.008703420179769833,-0.00046342017976983376
1592167794.2195337,-0.023643134531064775,9.588691073767045,2.5273727863165845,-0.3888888888888889,-0.5955555555555555,-0.4122222222222222,-0.024385149164846978,0.005044650700994388,-0.0004951079513071736
1592167794.2295337,0.005947320180224567,9.61250032857481,2.5313371622802183,-0.3888888888888889,-0.5955555555555555,-0.4122222222222222,-0.02751853564472654,-0.0011821966013738398,0.00302490169931308
1592167794.2395337,0.052823680107934805,9.605194306833013,2.5923312339949613,-0.3888888888888889,-0.5955555555555555,-0.4122222222222222,-0.028931,-0.001526,0.000582390894151005
1592167794.2495337,0.01639699420961669,9.625065695865448,2.6857153418363087,-0.37666666666666665,-0.6222222222222222,-0.43333333333333335,-0.02115721848880465,-0.005951738292080971,-0.0026994891952214052
1592167794.2595336,0.004721800081369888,9.632280296222556,2.7631381065840257,-0.37666666666666665,-0.6222222222222222,-0.43333333333333335,-0.006750634195267155,-0.011166953662657159,-0.000885
1592167794.2695336,0.018196110352680036,9.610247743839981,2.696799931170567,-0.37666666666666665,-0.6222222222222222,-0.43333333333333335,0.006956035244588882,-0.015625489696212268,-0.0032504896962122693
1592167794.2795336,0.05928887739969632,9.614084949081173,2.6395511307011414,-0.37666666666666665,-0.6222222222222222,-0.43333333333333335,0.015173391896308307,-0.018152087844462463,-0.0038727837926166154
1592167794.2895336,0.006206083186448184,9.601971280897125,2.5333443179703243,-0.37666666666666665,-0.6222222222222222,-0.43333333333333335,0.016687097799608266,-0.023706097799608267,-0.01009001872449707
1592167794.2995336,0.04776410620847455,9.623174016898366,2.4621193192230386,-0.35,-0.6222222222222222,-0.4122222222222222,0.010904937078660935,-0.022667191624108518,-0.008817406310286987
1592167794.3095336,0.006251088049038886,9.638139132614219,2.4003329384858842,-0.35,-0.6222222222222222,-0.4122222222222222,0.0012692573582431727,-0.021634251471648637,-0.01232450294329727
1592167794.3195336,0.0019744734278536536,9.61489032642637,2.4728184572161536,-0.35,-0.6222222222222222,-0.4122222222222222,-0.009974014387671036,-0.019526045219451255,-0.010355940392877709
1592167794.3295336,-0.035063247662701094,9.591394465419235,2.5600011027589247,-0.35,-0.6222222222222222,-0.4122222222222222,-0.01197116103244304,-0.018402859972086433,-0.008248021004529473
1592167794.3395336,-0.008538166047261486,9.618926049558727,2.6416624177704713,-0.35,-0.6222222222222222,-0.4122222222222222,-0.009413379642609567,-0.01650457560933398,-0.006266367284680618
1592167794.3495336,-0.02329119370286185,9.616927528138874,2.719899800351692,-0.3622222222222222,-0.6288888888888889,-0.4033333333333333,0.004177268631211664,-0.016492968475058697,-0.0072337205739154255
1592167794.3595335,0.011465970739711256,9.610117319425607,2.696005867332226,-0.3622222222222222,-0.6288888888888889,-0.4033333333333333,0.013626923658562641,-0.017514015268287473,-0.006197984731712528
1592167794.3695335,0.0023424283610110966,9.605665053502758,2.638302387929224,-0.3622222222222222,-0.6288888888888889,-0.4033333333333333,0.021013915944528304,-0.012296644187435346,-0.0041138813958117824
1592167794.3795335,0.00899449037854523,9.595776596387484,2.5980453814115005,-0.3622222222222222,-0.6288888888888889,-0.4033333333333333,0.026256925061794414,-0.004932074938205585,-0.0020056751439333853
