time,acc_x,acc_y,acc_z,mag_x,mag_y,mag_z,gyr_x,gyr_y,gyr_z
1592167842.3394878,-0.023580797318140945,9.044137525671358,4.242615192378503,-0.36777777777777776,-0.5133333333333333,-0.6,0.013749404984341011,-0.02839254204091853,-0.007018559890760169
1592167842.3494878,0.018771715029776176,8.99527149819255,4.276575198347585,-0.36777777777777776,-0.5133333333333333,-0.6,0.02497575199290256,-0.038131932601946715,-0.016048819390955846
1592167842.3594878,0.15348563987417613,9.026708418644828,4.420646677273103,-0.36777777777777776,-0.5133333333333333,-0.6,0.038108847095817903,-0.0465653478431465,-0.02114855692067223
1592167842.3694878,0.552731289917172,9.019027069338433,4.717104116471532,-0.36777777777777776,-0.5133333333333333,-0.6,0.0666944338267615,-0.054433404761599385,-0.0466631465673825
1592167842.3794878,0.4983444300920901,8.868637291230032,4.635007984624883,-0.356187768527084,-0.5017433240826396,-0.6032194470140816,0.11537160386397778,-0.04000636241715854,0.015769731503568342
1592167842.3894877,0.6593508955731225,9.074158511314385,4.112816485550868,-0.3477777777777778,-0.49333333333333335,-0.6055555555555555,0.12645160703237684,0.02151153919636192,0.05291785269084124
1592167842.3994877,0.6414518602632409,9.095861600377491,4.138469050496855,-0.3477777777777778,-0.49333333333333335,-0.6055555555555555,0.11281630825859888,0.09802962482045989,-0.007880113715377637
1592167842.4094877,0.38243375170793026,9.006193871100237,3.996639722217105,-0.3477777777777778,-0.49333333333333335,-0.6055555555555555,0.10653514646292614,0.11866981113387562,0.005808950870088725
1592167842.4194877,0.3654969757701354,8.999592878179527,3.799306879382259,-0.3477777777777778,-0.49333333333333335,-0.6055555555555555,0.08600006033352878,0.13020462459212986,0.029649624592129862
1592167842.4294877,0.3299215621279792,9.021759283527906,3.7658025786159257,-0.35238328400384894,-0.5051760636289448,-0.6016079787903518,0.05663149580268751,0.1478618421722119,0.05020822041038047
1592167842.4394877,0.3459492727209431,9.094396276062447,3.7798843574125325,-0.35555555555555557,-0.5133333333333333,-0.5988888888888889,0.028938850348905462,0.151871,0.04876765158787188
1592167842.4494877,0.2786818616263201,9.110350356661431,3.761658942353623,-0.35555555555555557,-0.5133333333333333,-0.5988888888888889,-4.151969099815654e-05,0.15170908021376306,0.04599
1592167842.4594877,0.3302458816888835,9.044283529263259,3.801593870303393,-0.35555555555555557,-0.5133333333333333,-0.5988888888888889,-0.02821184336000525,0.14342677737789297,0.06501076702836765
1592167842.4694877,0.44165709253950886,8.988329034190707,3.9409680530113573,-0.35555555555555557,-0.5133333333333333,-0.5988888888888889,-0.0427494504255072,0.143341,0.07981682727865064
1592167842.4794877,0.5485481072544369,9.015032361880413,3.957708350244037,-0.3574004454961726,-0.5082598859966364,-0.5988888888888889,-0.05646507661868134,0.14367362954684973,0.09237244707183162
1592167842.4894876,0.5724922742298587,9.057605251772376,4.041521608377274,-0.36,-0.5011111111111111,-0.5988888888888889,-0.06694542053601824,0.1523779923502225,0.08568376646891954
1592167842.4994876,0.45624558860566006,9.060024102520641,4.2561436060914035,-0.36,-0.5011111111111111,-0.5988888888888889,-0.06334505055912149,0.14884286026851684,0.08829970242734884
1592167842.5094876,0.3940871338787829,9.072833474838035,4.453054382230099,-0.36,-0.5011111111111111,-0.5988888888888889,-0.039313993615261944,0.1329267164780205,0.08356208067186938
1592167842.5194876,0.3206439039405827,9.046130862452253,4.492946798940119,-0.36,-0.5011111111111111,-0.5988888888888889,-0.002440828969047338,0.1093527400483803,0.07549931459745249
1592167842.5294876,0.3725675241515647,9.09884593977431,4.422528655259848,-0.36301201107649705,-0.5032625475943233,-0.5988888888888889,0.030221831257052762,0.08060142886740174,0.05980540059868549
1592167842.5394876,0.3637219428828161,9.132017339442504,4.400889556210884,-0.36777777777777776,-0.5066666666666667,-0.5988888888888889,0.06227964570301198,0.06365228744409246,0.02914621817452444
1592167842.5494876,0.3614785401079387,9.064076310759443,4.328896252485897,-0.36777777777777776,-0.5066666666666667,-0.5988888888888889,0.08782234726020698,0.04605495578017523,0.013877400029565992
1592167842.5594876,0.47236497101837843,9.064809921949383,4.173579352267858,-0.36777777777777776,-0.5066666666666667,-0.5988888888888889,0.10065883069482943,0.03138898734665966,-0.0014085883698851213
1592167842.5694876,0.5046350266778898,9.031990971180921,4.085028716846593,-0.36777777777777776,-0.5066666666666667,-0.5988888888888889,0.09773299677115142,0.03352399677115142,-0.005700712578907747
1592167842.5794876,0.5678720858026723,9.055474121934125,4.098666489662601,-0.3620347364190736,-0.5066666666666667,-0.6056761195855394,0.0930343275592939,0.036789519861467425,-0.005694781101635654
1592167842.5894876,0.5964478540312115,9.016054084126464,4.1018249758951,-0.35555555555555557,-0.5066666666666667,-0.6133333333333333,0.09104322706146668,0.03535511270256469,0.0020496602359686184
1592167842.5994875,0.4822093527264825,9.016599408794265,3.9723554427508962,-0.35555555555555557,-0.5066666666666667,-0.6133333333333333,0.08593574276876391,0.025244072203169304,0.01665672062837853
1592167842.6094875,0.44872931336089517,9.03587606858546,3.8412433203893315,-0.35555555555555557,-0.5066666666666667,-0.6133333333333333,0.06939642073420926,0.022735094466353505,0.024017912403489657
1592167842.6194875,0.28708724568443406,9.162234250113938,3.8092129880764887,-0.35555555555555557,-0.5066666666666667,-0.6133333333333333,0.04812157973866583,0.021549801231748506,0.013322294294880814
1592167842.6294875,0.2477470685352162,9.070578705151371,3.9996189368588095,-0.36318142602981185,-0.5066666666666667,-0.616921978262395,0.03735555597456017,0.025277308010326367,-0.0003292543886230922
1592167842.6394875,0.28176770036299736,9.052953375062804,3.97185943041349,-0.37444444444444447,-0.5066666666666667,-0.6222222222222222,0.0293117110934013,0.012665288906598697,-0.010468
1592167842.6494875,0.3307677422130924,9.022027788519479,4.009741627415906,-0.37444444444444447,-0.5066666666666667,-0.6222222222222222,0.023777764779061798,0.022877942005176854,-0.013338048312495696
1592167842.6594875,0.23011966037584278,9.0634726411867,3.978018233938811,-0.37444444444444447,-0.5066666666666667,-0.6222222222222222,0.017648298588926147,0.012203347465410682,0.0035424918206760103
1592167842.6694875,0.3193118144192814,9.105205352748454,4.013048143708952,-0.37444444444444447,-0.5066666666666667,-0.6222222222222222,0.015027250238419564,0.006469724288393822,0.02764230213847105
1592167842.6794875,0.3682895826701346,9.08454700792173,3.915294386086652,-0.37045687298036295,-0.5017588864031818,-0.6197683320904798,0.005060661713876189,0.0041667402915834,0.00754766171387619
1592167842.6894875,0.26054533405914543,9.029730369075576,3.905894491048075,-0.36,-0.4888888888888889,-0.6133333333333333,-0.009669979759425119,-0.007826854108912618,0.0024762393748722377
1592167842.6994874,0.29134774991300805,9.077636745816998,3.9164222500783454,-0.36,-0.4888888888888889,-0.6133333333333333,-0.022351645512919675,-0.017502,0.003557354487080322
1592167842.7094874,0.23519431513884076,9.09021668967376,3.97617111651733,-0.36,-0.4888888888888889,-0.6133333333333333,-0.029011901298246354,-0.021567305534176007,-0.012109440359553842
1592167842.7194874,0.17322337793658485,9.09127611544293,3.9778438709344277,-0.36,-0.4888888888888889,-0.6133333333333333,-0.040070272784871276,-0.028990487244452957,-0.005515201298344056
1592167842.7294874,0.27262883145416783,9.091176854203361,4.108703798704434,-0.36224945133912095,-0.49403049194973686,-0.6159041348637573,-0.028842722261235194,-0.030377277738764804,0.0037389537562364504
1592167842.7394874,0.25396755987678327,8.977629654330578,4.080281072097585,-0.36777777777777776,-0.5066666666666667,-0.6222222222222222,-0.03218048399100238,-0.03674248399100238,0.022449252006221505
1592167842.7494874,0.3685570758847952,9.132126355181045,4.051424303472005,-0.36777777777777776,-0.5066666666666667,-0.6222222222222222,-0.025547458978289313,-0.03216546998511227,0.04047045897828931
1592167842.7594874,0.35733589964129076,9.092313611291972,4.043928282037561,-0.36777777777777776,-0.5066666666666667,-0.6222222222222222,-0.01828153711785964,-0.017511201118423844,0.027887201118423847
1592167842.7694874,0.48380671304126,9.179387222772824,3.958202119784409,-0.36777777777777776,-0.5066666666666667,-0.6222222222222222,-0.02152766173124412,0.005467475124052103,-0.005653921940903106
1592167842.7794874,0.40835540788965197,9.071524644817934,4.041293926355892,-0.36561315410276146,-0.505120506898798,-0.6197483665936322,-0.01715487538623204,0.031209179243151308,-0.03344875191438134
1592167842.7894874,0.29405662867522503,9.09349338760082,4.101690247475306,-0.36,-0.5011111111111111,-0.6133333333333333,-0.014191644049443772,0.032307244915408845,-0.021796233730200554
1592167842.7994874,0.2715049386916082,9.043281312169707,4.055842842796745,-0.36,-0.5011111111111111,-0.6133333333333333,-0.014023,0.0351890224870686,-0.004130060561545969
1592167842.8094873,0.25017084228579844,9.14296762798908,4.119233223316898,-0.36,-0.5011111111111111,-0.6133333333333333,-0.004640378170470871,0.05060011157848388,-3.884100554938166e-05
1592167842.8194873,0.14048656801882864,9.123802460389655,4.248377189513093,-0.36,-0.5011111111111111,-0.6133333333333333,0.01518756033455505,0.070456721378971,-0.033000223212841864
1592167842.8294873,0.03885642610742384,9.082183614425896,4.240248802897109,-0.36763377935959296,-0.4971124647798957,-0.610788740213469,0.040692894306979595,0.07923568574724002,-0.0651828943069796
1592167842.8394873,0.12530172392556008,9.094177585572814,4.202513411498873,-0.38333333333333336,-0.4888888888888889,-0.6055555555555555,0.06246871667358495,0.0829879895201731,-0.1084000334523601
1592167842.8494873,0.13382462588740213,9.042447203212953,4.150483936683157,-0.38333333333333336,-0.4888888888888889,-0.6055555555555555,0.08908205571321733,0.083694,-0.15699055227359612
1592167842.8594873,-0.7486693025372725,8.94791710939647,3.9512721406020486,-0.38333333333333336,-0.4888888888888889,-0.6055555555555555,0.08400637476319743,-0.06698840866612205,-0.04512976708803118
1592167842.8694873,0.5329484026055583,9.336043183770236,4.12441500096592,-0.38333333333333336,-0.4888888888888889,-0.6055555555555555,0.1157316181531482,-0.05456123535570323,0.14206740704668827
1592167842.8794873,0.3243759860436741,9.106055588665079,3.889613665050054,-0.40001094746346144,-0.4840245847676015,-0.6277923743957263,0.09746685877483899,-0.03905963451563399,0.10472860519596826
1592167842.8894873,0.39788855844065746,9.125695201392066,3.8650482845592786,-0.41,-0.4811111111111111,-0.6411111111111111,0.09374895358063866,-0.015756723066595917,0.11753730538126281
1592167842.8994873,0.35315623863371914,9.050834060274436,3.775586558664174,-0.41,-0.4811111111111111,-0.6411111111111111,0.06538688378378622,0.013018846873289858,0.09824990152092412
1592167842.9094872,0.3926349022748042,8.990067060862424,3.69086438979501,-0.41,-0.4811111111111111,-0.6411111111111111,0.010553177701520266,0.04712276726310402,0.08854601629043227
1592167842.9194872,0.4151666304349398,9.022895933446357,3.8454867627317513,-0.41,-0.4811111111111111,-0.6411111111111111,-0.02729210746167158,0.0846511071388661,0.09592553781132916
1592167842.9294872,0.5876959735158475,9.10593914907416,3.96653288531389,-0.40885770171149144,-0.48453800597663677,-0.6386361314860092,-0.05638314372260722,0.1076253318821034,0.06181730739416432
1592167842.9394872,0.2874637875800853,8.895883465130305,3.9181410284398464,-0.4033333333333333,-0.5011111111111111,-0.6266666666666667,-0.07712295699438623,0.12057876848457554,0.0680951505445405
1592167842.9494872,0.33919076722213626,9.232860389293837,3.731805609572092,-0.4033333333333333,-0.5011111111111111,-0.6266666666666667,-0.10513904859159301,0.138016,0.084735630713943
1592167842.9594872,0.45211429865468694,9.093362552844102,4.121833848572287,-0.4033333333333333,-0.5011111111111111,-0.6266666666666667,-0.08743903375494817,0.17453338345983196,0.06503936913969335
1592167842.9694872,0.266890972450505,9.032108376125047,4.221855798009743,-0.4033333333333333,-0.5011111111111111,-0.6266666666666667,-0.07808003521390146,0.18380801497696028,0.05641492401284162
1592167842.9794872,0.27528901407098477,9.421732172793357,4.232368868183256,-0.4082615004793234,-0.5011111111111111,-0.6255070979264338,-0.07038149780291912,0.1597183663227015,0.12454159994907724
1592167842.9894872,-0.16922875158807538,8.65711824273022,4.607498352121193,-0.4222222222222222,-0.5011111111111111,-0.6222222222222222,-0.01176923483278414,0.16813694294394102,0.0920947190833353
1592167842.9994872,-0.039638131783183345,9.072988533837618,4.4403957391375615,-0.4222222222222222,-0.5011111111111111,-0.6222222222222222,0.022518813869021083,0.18756119358962478,0.08199800745864584
1592167843.0094872,-0.3012980041106451,8.984883834913045,4.342790577747493,-0.4222222222222222,-0.5011111111111111,-0.6222222222222222,0.04205613424818405,0.12393037877794509,0.07122614910984092
1592167843.0194871,-0.5710748019855918,8.830831324779538,4.346571780158879,-0.4222222222222222,-0.5011111111111111,-0.6222222222222222,0.06196632523532534,0.09154883996743061,0.03782534952934932
1592167843.0294871,-0.30776508740153896,9.339824674285445,4.045520135760328,-0.4222222222222222,-0.49813724789622865,-0.6230332758262811,0.060240649483378025,0.05250339135226943,0.040828686506219056
1592167843.0394871,-0.40158101244871974,9.010193597843765,4.270222379188142,-0.4222222222222222,-0.4888888888888889,-0.6255555555555555,0.08453986067021696,0.007459060238499949,0.010022069664891518
1592167843.049487,-0.3407545261024707,9.17435610456451,4.06277582956956,-0.4222222222222222,-0.4888888888888889,-0.6255555555555555,0.09379273413113712,-0.0021170289301974624,0.02681
1592167843.059487,-0.16658022187090754,9.044206179246965,4.063728606568262,-0.4222222222222222,-0.4888888888888889,-0.6255555555555555,0.10535421719694428,-0.06497844650788406,0.016359482169294687
1592167843.069487,0.0770334957021225,9.230045670251402,4.005089648928232,-0.4222222222222222,-0.4888888888888889,-0.6255555555555555,0.11625157373067545,-0.061359654344610846,0.004562132973800837
1592167843.079487,-0.11386738979340381,8.886887272729677,3.7733358123036003,-0.4238682722246934,-0.48583193888429954,-0.6224986055509663,0.0881683307861249,-0.08947177049036734,0.018194410917269182
1592167843.089487,0.2908456435992183,9.22518131410638,3.839054452969588,-0.43,-0.47444444444444445,-0.6111111111111112,0.08861188534140695,-0.07213066670782117,-0.030370552942604243
1592167843.099487,-0.12263234161916242,9.018772800144276,3.6194418454942516,-0.43,-0.47444444444444445,-0.6111111111111112,0.035477971405414026,-0.14235743813489848,0.021312388394731856
1592167843.109487,0.21784122957041693,9.082377511315464,3.590391154464246,-0.43,-0.47444444444444445,-0.6111111111111112,0.013090727753460632,-0.03721578501083142,-0.02199209925837449
1592167843.119487,0.10119922683920528,8.951967734240394,3.4092881995278934,-0.43,-0.47444444444444445,-0.6111111111111112,-0.06884332145040062,-0.05817039685934719,-0.01505777683587347
1592167843.129487,0.20021338072077177,9.333099492943488,3.7328012151224272,-0.4299147180888754,-0.4749987768667544,-0.6108552653777374,-0.09285694150294238,-0.0950959953895233,-0.06775756085900314
1592167843.139487,-0.07653044901838696,9.116074177003409,3.925290053973162,-0.42777777777777776,-0.4888888888888889,-0.6044444444444445,-0.10706518135719699,-0.05690119544056154,-0.045456709768744094
1592167843.149487,-0.2828248646674814,9.026122715795768,3.969158786946961,-0.42777777777777776,-0.4888888888888889,-0.6044444444444445,-0.0771857667779775,-0.11985221981294193,-0.04148265520856283
1592167843.159487,0.09913962288144534,9.294816096527155,3.9550383146693338,-0.42777777777777776,-0.4888888888888889,-0.6044444444444445,-0.08690642972702388,-0.108281638041566,0.0056887300650863715
1592167843.169487,-0.014549306169904463,9.05984456267413,3.929776907780832,-0.42777777777777776,-0.4888888888888889,-0.6044444444444445,-0.06585530945640111,-0.11220981166318642,-0.03888391994654894
1592167843.179487,-0.19806077353038912,8.981031676007982,3.827896594834085,-0.42777777777777776,-0.4888888888888889,-0.6044444444444445,-0.10366066655654672,-0.14580076423899094,-0.02720272226054364
1592167843.189487,0.09316966627283549,9.135662719238208,3.957486393917259,-0.4533333333333333,-0.4622222222222222,-0.5966666666666667,-0.1182251504764855,-0.09428979038976845,-0.05942610856199263
1592167843.199487,0.001215180772194041,9.074567054013228,4.3037599619072155,-0.4533333333333333,-0.4622222222222222,-0.5966666666666667,-0.10584369599878574,-0.07439972598323796,-0.11358847410020267
1592167843.209487,-0.2034398685810258,9.122571653475275,4.408884304769511,-0.4533333333333333,-0.4622222222222222,-0.5966666666666667,-0.08451124833735062,-0.10849206190680774,-0.09862736079844756
1592167843.219487,0.12104643399169669,9.070677028687314,4.527758088761593,-0.4533333333333333,-0.4622222222222222,-0.5966666666666667,-0.027154378070438193,-0.027495495795880127,-0.08874682394176979
1592167843.229487,-0.15423970268157844,9.06299331391978,4.174563825117916,-0.4533333333333333,-0.4622222222222222,-0.5966666666666667,0.000822155369441321,-0.12017075043842744,-0.06654859905282877
1592167843.239487,-0.08876842210980167,9.132129103187621,4.117955116693297,-0.4533333333333333,-0.47444444444444445,-0.5966666666666667,0.01576117263268673,-0.05703825020038929,-0.014743167656152776
1592167843.249487,-0.08962710757697921,9.015388709128187,3.9973658235135665,-0.4533333333333333,-0.47444444444444445,-0.5966666666666667,0.014407034745499871,-0.10266423921191914,0.018633139702774477
1592167843.259487,0.039407998944559375,9.02466330541937,4.1074052136029335,-0.4533333333333333,-0.47444444444444445,-0.5966666666666667,-7.331617336015558e-05,-0.05948534112126505,0.025458679274751282
1592167843.269487,-0.022434461310494074,8.923229073979716,3.9362130297279565,-0.4533333333333333,-0.47444444444444445,-0.5966666666666667,-0.027627431631761023,-0.02288733532967635,0.004087981912970651
1592167843.279487,-0.2460655364034014,8.872939362292428,4.1682227981528355,-0.4533333333333333,-0.47444444444444445,-0.5966666666666667,-0.0502578867432407,-0.05661464313213129,-0.006028297542591642
1592167843.289487,-0.33806633707574235,8.933089030035346,4.340910708391061,-0.4666666666666667,-0.4666666666666667,-0.5966666666666667,-0.05817082311356822,-0.031860351879795634,-0.0021712001922732367
1592167843.2994869,-0.20172783632952657,8.975525421408063,4.3434257466073785,-0.4666666666666667,-0.4666666666666667,-0.5966666666666667,-0.042938396199509635,-0.04247509416008366,-0.017588905921637185
1592167843.3094869,-0.38653873600287375,9.05338360725535,4.2771918173267895,-0.4666666666666667,-0.4666666666666667,-0.5966666666666667,-0.02093525995234107,-0.08783517018565647,-0.01844825995234107
1592167843.3194869,-0.33908281796562817,9.06663469114823,4.14418,-0.4666666666666667,-0.4666666666666667,-0.5966666666666667,-0.0030174258250521466,-0.10251629174538335,-0.005409347200459779
1592167843.3294868,-0.15532864794043855,9.12601221349717,4.102737536019921,-0.4666666666666667,-0.4666666666666667,-0.5966666666666667,-0.0011914277790498655,-0.1313395916989659,-0.015438899463495507
1592167843.3394868,0.04405351331864217,9.070212635987357,4.2821405733587135,-0.4666666666666667,-0.45444444444444443,-0.5822222222222222,0.021133,-0.09580974737649628,-0.09900109394645203
1592167843.3494868,-0.3514532148039784,9.170351030417581,3.945208179249046,-0.4666666666666667,-0.45444444444444443,-0.5822222222222222,-0.00042865411007162813,-0.11345755587435795,-0.1088407217716366
1592167843.3594868,-0.2773461274101755,8.93147354174487,4.340375328786767,-0.4666666666666667,-0.45444444444444443,-0.5822222222222222,0.01753697171731041,-0.1000985420470596,-0.12412245007473136
1592167843.3694868,-0.17458163164776896,9.17263656113024,4.14800658129118,-0.4666666666666667,-0.45444444444444443,-0.5822222222222222,0.014148975857488151,-0.0882061386768436,-0.07400730011174582
1592167843.3794868,0.001195790211400996,8.96290052191619,4.399703783409611,-0.4666666666666667,-0.45444444444444443,-0.5822222222222222,0.044505139571229195,-0.07730009974455697,-0.08110935485908376
1592167843.3894868,-0.21994842007842402,9.072096890857082,4.259991133714233,-0.5011111111111111,-0.4622222222222222,-0.5544444444444444,0.0596394000598886,-0.0975574000598886,-0.05583285801932675
1592167843.3994868,-0.0523448244295291,9.120634450201015,4.321172315652803,-0.5011111111111111,-0.4622222222222222,-0.5544444444444444,0.08537264492779649,-0.08795168351671005,-0.05257000711450551
1592167843.4094868,-0.08160128766589236,8.997786636639013,4.031139712920793,-0.5011111111111111,-0.4622222222222222,-0.5544444444444444,0.08104566528010226,-0.08192233056020451,-0.03352013638093908
1592167843.4194868,-0.026992627481052432,9.234696464024877,4.121274940365851,-0.5011111111111111,-0.4622222222222222,-0.5544444444444444,0.09743249938684653,-0.11683511024776103,-0.0698193164581161
1592167843.4294868,0.02943009994463372,9.12753798832311,4.099672987867831,-0.5011111111111111,-0.4622222222222222,-0.5544444444444444,0.09414894546791298,-0.0636051412339446,-0.040583804233968374
1592167843.4394867,-0.05384631714999016,9.055955051790374,4.180120334742082,-0.48,-0.4666666666666667,-0.5555555555555556,0.11399105602965191,-0.08914647053317636,-0.06388824782685407
1592167843.4494867,-0.2366041554931364,9.00493653665725,4.134118312980595,-0.48,-0.4666666666666667,-0.5555555555555556,0.1216985455923442,-0.031173581550041275,-0.04454462819536957
1592167843.4594867,-0.12221028036299669,9.059149581507425,4.1006596060640845,-0.48,-0.4666666666666667,-0.5555555555555556,0.13113775521916166,-0.04082382685334752,-0.03747158432291771
1592167843.4694867,-0.16935941501444435,9.08109667564837,4.006289259736281,-0.48,-0.4666666666666667,-0.5555555555555556,0.126602,-0.046061431205009724,-0.0330545045949057
1592167843.4794867,-0.21380364327424192,9.116934467563613,3.9715852785113714,-0.48,-0.4666666666666667,-0.5555555555555556,0.13321160071346264,-0.06771011749769622,-0.018479274868911405
1592167843.4894867,-0.18334918089443183,9.258353728698355,3.9205446069482024,-0.4866666666666667,-0.4666666666666667,-0.5422222222222223,0.15657135230953598,-0.08692984736377615,-0.013580424488975383
1592167843.4994867,-0.0519175455103853,9.117132761807994,3.81897505909928,-0.4866666666666667,-0.4666666666666667,-0.5422222222222223,0.1681184842560574,-0.08802006458049685,-0.0010159289927792149
1592167843.5094867,0.041680253779932924,9.188113650398504,3.434058087660739,-0.4866666666666667,-0.4666666666666667,-0.5422222222222223,0.14462150896473905,-0.07725714649748246,0.018852002501170664
1592167843.5194867,0.038361918000922285,9.073219922416447,3.3320706216206037,-0.4866666666666667,-0.4666666666666667,-0.5422222222222223,0.08779264581535788,-0.07615609311658801,0.037400193038798074
1592167843.5294867,0.08457097313891268,9.082557924838426,3.3225797530321826,-0.4866666666666667,-0.4666666666666667,-0.5422222222222223,0.008194298450752237,-0.046835091124243874,0.049676908875756126
1592167843.5394866,0.03387668346670261,9.062605289501844,3.539674105091865,-0.4811111111111111,-0.4622222222222222,-0.5066666666666667,-0.061828429412534074,-0.046676644689105866,0.06262428248640493
1592167843.5494866,-0.09741188314669928,9.027416275504113,3.494578268942306,-0.4811111111111111,-0.4622222222222222,-0.5066666666666667,-0.13448470878042834,-0.04341045773286318,0.08073866924330471
1592167843.5594866,-0.10889328467509012,8.902679734795157,3.3901874334523012,-0.4811111111111111,-0.4622222222222222,-0.5066666666666667,-0.20281965616274591,-0.0733264422190859,0.11305706962189754
1592167843.5694866,0.07630160450650365,8.963552777043788,3.4156263530192605,-0.4811111111111111,-0.4622222222222222,-0.5066666666666667,-0.26975877260306447,-0.08987516114482647,0.09133204871727943
1592167843.5794866,0.0517787114266936,8.940495750848909,3.6457140827708376,-0.4811111111111111,-0.4622222222222222,-0.5066666666666667,-0.3227038615771756,-0.08238140799591558,0.03578655565558914
1592167843.5894866,0.07335901212392794,8.919619217965765,3.9236433589122295,-0.47555555555555556,-0.4622222222222222,-0.52,-0.3488897449311572,-0.06718699121990195,-0.017857117855876323
1592167843.5994866,0.12903523967586292,9.077449386196252,4.1502608331585344,-0.47555555555555556,-0.4622222222222222,-0.52,-0.3496057428229664,-0.05846321195784261,-0.07729180748568826
1592167843.6094866,-0.04642602132571054,9.075064164170819,4.368982106818026,-0.47555555555555556,-0.4622222222222222,-0.52,-0.3305130166664223,-0.045212,-0.11211784763376453
1592167843.6194866,-0.07012650338319906,9.198391059407369,4.4869336391344525,-0.47555555555555556,-0.4622222222222222,-0.52,-0.29160285329709157,-0.05081488233812351,-0.11688985276692333
1592167843.6294866,-0.03914069759361828,9.051299148355627,4.616434365137467,-0.47555555555555556,-0.4622222222222222,-0.52,-0.22024946817763313,-0.0575845593440793,-0.1463010373380814
1592167843.6394866,-0.3293856464872073,9.304216792703865,4.302214180224068,-0.5077777777777778,-0.4477777777777778,-0.5066666666666667,-0.1759369304094843,-0.09378095495083597,-0.14724678413871495
1592167843.6494865,-0.1372386655097635,9.106257020927064,4.402578378643793,-0.5077777777777778,-0.4477777777777778,-0.5066666666666667,-0.14942948672228198,-0.10827510030263167,-0.10254646964764615
1592167843.6594865,0.02188387886304348,9.099028723521219,4.343366124554709,-0.5077777777777778,-0.4477777777777778,-0.5066666666666667,-0.12137281792476273,-0.09131764548003675,-0.12049264548003674
1592167843.6694865,-0.06763829411841304,9.069181147059206,4.467416208030103,-0.5077777777777778,-0.4477777777777778,-0.5066666666666667,-0.09248124504941578,-0.08020007878135908,-0.10598524504941577
1592167843.6794865,-0.12778970928072747,8.999217133247406,4.609358835526897,-0.5077777777777778,-0.4477777777777778,-0.5066666666666667,-0.05148038100703923,-0.08138544520376871,-0.05709140559173136
1592167843.6894865,-0.056475426014111256,8.993883069904378,4.431991255775331,-0.4955555555555556,-0.4477777777777778,-0.5066666666666667,-0.02341781036317895,-0.08963474294084145,-0.02298908347743196
1592167843.6994865,-0.04493150608132094,9.030599864702888,4.301178143174877,-0.4955555555555556,-0.4477777777777778,-0.5066666666666667,-0.007557858989687762,-0.08234814500444675,-0.009671686217847232
1592167843.7094865,0.030324584082174758,9.009422023983856,4.238820835753869,-0.4955555555555556,-0.4477777777777778,-0.5066666666666667,0.0009,-0.06607318286978656,-0.013980359834822504
1592167843.7194865,0.0859271943217188,9.049892105930043,4.132210354819996,-0.4955555555555556,-0.4477777777777778,-0.5066666666666667,-0.004190259919642892,-0.06421471669790609,-0.025787023382451018
1592167843.7294865,0.13587504421796612,9.005002553019493,4.190476561760298,-0.4955555555555556,-0.4477777777777778,-0.5066666666666667,-0.008776292419287466,-0.05927188854652711,-0.027974881819167772
1592167843.7394865,0.16033428617032972,8.988882453684198,4.10672907103109,-0.4955555555555556,-0.4477777777777778,-0.5016039776389508,-0.012230561640543907,-0.05408030151059204,-0.02573970486661506
1592167843.7494864,0.173473181913086,9.03904577755114,4.174634578982475,-0.4955555555555556,-0.4477777777777778,-0.5011111111111111,-0.01646620831491231,-0.05702090045294442,-0.020901692138032106
1592167843.7594864,0.15782486177436678,8.946281306769642,4.188703735424921,-0.4955555555555556,-0.4477777777777778,-0.5011111111111111,-0.02158952407171033,-0.053726,-0.008890126370618806
1592167843.7694864,0.25638380129499766,9.004198728685537,4.208125387429279,-0.4955555555555556,-0.4477777777777778,-0.5011111111111111,-0.021745610117363867,-0.04174638988263613,-0.000885
1592167843.7794864,0.22623426476341887,8.865810865687802,4.007247013022985,-0.4955555555555556,-0.4477777777777778,-0.5011111111111111,-0.0489572244639146,-0.03844474494087636,-0.004674660277701564
1592167843.7894864,0.34996712322688506,9.00412943448728,4.0578333027365305,-0.4955555555555556,-0.44561032176957005,-0.49352501508238417,-0.07190664236088692,-0.012774634418986006,-0.01885356645058809
1592167843.7994864,0.36393980203071685,8.961506273181607,4.01819786815982,-0.4955555555555556,-0.44555555555555554,-0.49333333333333335,-0.09762793598026112,-0.0013491940376204545,-0.04792180596237955
1592167843.8094864,0.2909249752002764,8.983198630910518,3.9008810678864103,-0.4955555555555556,-0.44555555555555554,-0.49333333333333335,-0.12289220239462965,0.0037271812010776996,-0.041850688103325144
1592167843.8194864,0.4383941882007466,8.987844079020938,3.979602515625451,-0.4955555555555556,-0.44555555555555554,-0.49333333333333335,-0.14086962424153712,0.019660215146482474,-0.043565343864810806
1592167843.8294864,0.21319987824559217,8.951771745923445,3.9985996415564933,-0.4955555555555556,-0.44555555555555554,-0.49333333333333335,-0.16675826489407372,-0.00024599863750030654,-0.05358444352902419
1592167843.8394864,0.1916519494945751,8.97505401638492,4.183990080921684,-0.5044444444444445,-0.4388888888888889,-0.49333333333333335,-0.190857,-0.005434365106951326,0.012256352722093284
1592167843.8494864,0.3645751346401298,8.869064735531415,4.3156485245368685,-0.5044444444444445,-0.4388888888888889,-0.49333333333333335,-0.194046,0.01760803745208927,0.0060444030101547575
1592167843.8594863,0.26281420586475596,9.013915252894549,4.376337780740063,-0.5044444444444445,-0.4388888888888889,-0.49333333333333335,-0.18550677828570805,0.027290999210336127,-0.026468221714291952
1592167843.8694863,0.1654771841307806,8.871497962590773,4.535591453110108,-0.5044444444444445,-0.4388888888888889,-0.49333333333333335,-0.17077794754110975,0.04841742023101336,-0.03910942023101336
1592167843.8794863,0.010369149079512564,9.009650454735336,4.494911778539829,-0.5044444444444445,-0.4388888888888889,-0.49333333333333335,-0.16250840969289426,0.021673500740539055,-0.031271293926169716
1592167843.8894863,0.1415327994951977,8.879279830157415,4.5594956212715365,-0.4987092579045761,-0.4159481427294156,-0.500024384296513,-0.1375521191667487,0.0385620666029442,-0.02406430429894193
1592167843.8994863,0.15332592068667317,8.9192319080715,4.434256046356248,-0.49777777777777776,-0.4122222222222222,-0.5011111111111111,-0.13936575370001303,0.03470415204142744,-0.04454984795857256
1592167843.9094863,-0.07361472057960587,8.820237857404969,4.5935868875208,-0.49777777777777776,-0.4122222222222222,-0.5011111111111111,-0.12047914352859845,0.02206022631431637,0.003704959389035492
1592167843.9194863,0.2764700429254868,8.912894961378024,4.720009691672709,-0.49777777777777776,-0.4122222222222222,-0.5011111111111111,-0.10933970837027193,0.01781502006246227,0.06733472582575954
1592167843.9294863,0.41638489613781954,8.912602756414636,4.840502014171424,-0.49777777777777776,-0.4122222222222222,-0.5011111111111111,-0.07246081032972818,0.03600660731261562,0.05091920301711256
1592167843.9394863,0.20726684580883928,8.883466741568784,4.7870425903858695,-0.50734360410831,-0.4078741193447076,-0.48458832017655545,-0.049639348859642315,0.05790704798105319,0.040306847405605764
1592167843.9494863,0.1303431543667806,8.9560203394459,4.827133,-0.51,-0.4066666666666667,-0.48,-0.014527948946487783,0.08823242821411115,0.022817046998772347
1592167843.9594862,0.10856277304633549,8.809558062268637,4.691931138546395,-0.51,-0.4066666666666667,-0.48,0.012806113999452598,0.09570662866684913,0.006491551603022693
1592167843.9694862,-0.003959368773273578,8.925386137629742,4.606280674218,-0.51,-0.4066666666666667,-0.48,0.026457503612254553,0.10669064939956203,0.0026404224149950365
1592167843.9794862,-0.018282982459137346,8.88500652520477,4.763691920970022,-0.51,-0.4066666666666667,-0.48,0.0514153609041309,0.10032315156209842,0.001620567674485082
1592167843.9894862,-0.06716758601093129,8.712397735891072,4.663589036176005,-0.5147034587444432,-0.41920922331851534,-0.4658896237666703,0.06380873464854672,0.0749237437104541,0.0035711578763325947
1592167843.9994862,-0.21933308644028618,8.935264709311783,4.536857600011303,-0.5166666666666667,-0.42444444444444446,-0.46,0.07407642608296863,0.060257,0.05239036306262729
1592167844.0094862,0.03160706349065646,8.904706762815051,4.6564295342998605,-0.5166666666666667,-0.42444444444444446,-0.46,0.09458710174198799,0.05800425773795061,0.08223491122587097
1592167844.0194862,0.09828063313262796,8.950142167632293,4.4314544297729,-0.5166666666666667,-0.42444444444444446,-0.46,0.10603642888125749,0.0382989060102729,0.060664289548267455
1592167844.0294862,-0.04375356053599266,8.917159747929265,4.307240551213523,-0.5166666666666667,-0.42444444444444446,-0.46,0.1029212273284323,0.04189361728222812,0.054354990297851846
1592167844.0394862,0.09429125265459751,8.879251095052167,4.164232300376569,-0.5052760964827737,-0.42444444444444446,-0.4465384170553992,0.08704242455403409,0.02818944812875533,0.026109661343192037
1592167844.0494862,0.054506437623900665,8.982039542464738,4.103251822633461,-0.5044444444444445,-0.42444444444444446,-0.44555555555555554,0.061719508454674464,0.03669029196127748,-0.00020560112424671678
1592167844.0594862,-0.16043555571598123,8.954711481476757,4.216977887111873,-0.5044444444444445,-0.42444444444444446,-0.44555555555555554,0.05703542201893833,0.037346302357522426,-0.007445881061701179
1592167844.0694861,-0.22280748111371235,8.925122173572994,4.247514867875384,-0.5044444444444445,-0.42444444444444446,-0.44555555555555554,0.0433538775033949,0.0030156491281437894,0.013909091838887042
1592167844.0794861,-0.03780191647003947,8.965489156476558,4.471887382661454,-0.5044444444444445,-0.42444444444444446,-0.44555555555555554,0.06394475315511144,-0.002594,0.04555566488612381
1592167844.0894861,0.052794049161504604,8.924866780974577,4.254410229138921,-0.4936540117711213,-0.41365401177112127,-0.43476512288223235,0.06671965217403077,-0.013869200486732389,0.03152026929472061
1592167844.099486,-0.09453081474644424,9.01763694908301,4.01921620138922,-0.49,-0.41,-0.4311111111111111,0.057629274555488184,-0.01102931674283538,0.03930064920634473
1592167844.109486,0.11643924952804781,9.106290861172539,4.087787072376937,-0.49,-0.41,-0.4311111111111111,0.04239174269862504,0.007847786418099228,0.02690832922747243
1592167844.119486,0.10655541838456992,8.969677377538437,4.234563353079164,-0.49,-0.41,-0.4311111111111111,0.046533518732496476,0.036278016144093525,-0.03679753592211435
1592167844.129486,-0.21564043378824702,8.880901868755398,4.15421081575024,-0.49,-0.41,-0.4311111111111111,0.02941041663161635,0.0329749317002771,-0.07037999890935422
1592167844.139486,-0.3868539863415595,9.049908752065004,4.2724332564988545,-0.5040873720577315,-0.4013910504091641,-0.4162411072723946,0.012517684157333592,0.012062795589439294,-0.02497109005044436
1592167844.149486,-0.20747306874721194,8.950936328811741,4.42778096107249,-0.51,-0.3977777777777778,-0.41,0.026976735463654956,0.005254820243799204,-0.01957870531748505
1592167844.159486,-0.1848130216024991,8.941825590346564,4.370350646422218,-0.51,-0.3977777777777778,-0.41,0.03236578982786424,0.0003149960353364828,-0.04242596348088049
1592167844.169486,-0.2385520873454136,9.049724866736685,4.346287927810535,-0.51,-0.3977777777777778,-0.41,0.04099310804888785,0.0036776067040636216,-0.06410989195111215
1592167844.179486,-0.4465975966442067,9.000312750626982,4.462797270180606,-0.51,-0.3977777777777778,-0.41,0.06751436582632372,-0.011286714737454757,-0.036272881306976805
1592167844.189486,-0.32194618286435883,8.898080751021059,4.424181649610819,-0.5061334777301417,-0.4101506490413243,-0.39994704209836845,0.07931665930157211,-0.031212628041422625,-0.04359094664456683
1592167844.199486,-0.36689181670367477,8.90065363116886,4.175634055713761,-0.5044444444444445,-0.41555555555555557,-0.39555555555555555,0.0636758471031956,-0.03312224666568953,-0.047122906231114876
1592167844.209486,-0.5213791775109692,8.99534742042205,4.238010610071869,-0.5044444444444445,-0.41555555555555557,-0.39555555555555555,0.06537965196910236,-0.009561733728339366,-0.08183330140821313
1592167844.219486,-0.6776067543100271,8.717118316274526,4.174531609782933,-0.5044444444444445,-0.41555555555555557,-0.39555555555555555,0.037031832339966916,-0.047436011203750655,-8.5616604204163e-05
1592167844.229486,-0.3032089585368022,9.028032910673215,4.324211104049613,-0.5044444444444445,-0.41555555555555557,-0.39555555555555555,0.036040536023087294,-0.03045310817604936,0.044823601350898905
1592167844.239486,-0.2644875358001374,8.983754558100427,4.457512472291281,-0.4952915944145295,-0.4113311632340564,-0.37795392088264224,0.039246,0.005472929654856113,0.020162536254257308
1592167844.249486,-0.34733615993415495,9.031709582366659,4.515482187878067,-0.49,-0.4088888888888889,-0.36777777777777776,0.06788558764830735,0.028797977653491347,-0.01978714116315368
1592167844.259486,-0.539912342946146,9.003927442209973,4.399485401950336,-0.49,-0.4088888888888889,-0.36777777777777776,0.0779291296532272,0.020948476816827957,-0.02281149135467972
1592167844.269486,-0.4620008572353952,8.89699097091359,4.296167243751295,-0.49,-0.4088888888888889,-0.36777777777777776,0.0953080460388776,0.014701114029449534,-0.011127495090303141
1592167844.279486,-0.44630145958054634,8.949481445121926,4.056653958682004,-0.49,-0.4088888888888889,-0.36777777777777776,0.08707913777984218,0.007309128624705599,-0.00621
1592167844.289486,-0.4240765735720939,8.856930087417949,3.8325393160044308,-0.49611580889808166,-0.4045204539616877,-0.36777777777777776,0.04587757706949984,0.005055858060498701,-0.007651077665091523
1592167844.299486,-0.42025383668757443,8.951284432064071,3.8856405951177964,-0.49777777777777776,-0.4033333333333333,-0.36777777777777776,-0.0014075289919968856,0.003367696383477751,0.013383814351442763
1592167844.309486,-0.3056430551958576,8.984481284116299,4.224386904871538,-0.49777777777777776,-0.4033333333333333,-0.36777777777777776,-0.022878082511086997,0.0111001913990399,0.0003922081921339249
1592167844.319486,-0.300943208436532,9.038057891010105,4.346242329415169,-0.49777777777777776,-0.4033333333333333,-0.36777777777777776,-0.012713119557783176,0.011799669067550003,-0.02772854230711682
1592167844.329486,-0.35252134994016865,9.00670604837022,4.266296,-0.49777777777777776,-0.4033333333333333,-0.36777777777777776,0.0012034392265196352,0.012774923215827145,-0.032068571316347855
1592167844.339486,-0.35135530683468613,8.865519184129043,4.105572334278688,-0.5034562034337544,-0.39891678004535147,-0.35074250080984776,-0.0024301181455897245,-0.009327823634278344,0.01064842095380513
1592167844.3494859,-0.17331633192313126,9.065032524866943,4.139132397153761,-0.5077777777777778,-0.39555555555555555,-0.3377777777777778,-0.00514710832158778,-0.011173846024411491,0.04878260036286992
1592167844.3594859,-0.1382278522362137,8.9733849589746,4.253501914234078,-0.5077777777777778,-0.39555555555555555,-0.3377777777777778,-0.012441502956321243,0.0022234247800279735,0.034858940971170566
1592167844.3694859,-0.21494577466693587,9.024503969698745,4.270975523581006,-0.5077777777777778,-0.39555555555555555,-0.3377777777777778,-0.006117698060371119,0.017242489187935278,0.02233054709923077
1592167844.3794858,-0.06156127048209036,9.015877644641703,4.2289654094401286,-0.5077777777777778,-0.39555555555555555,-0.3377777777777778,-0.01372972474798441,0.016743593976317004,-0.004385825588863645
1592167844.3894858,-0.33172869107934855,9.001232969933735,4.205963470092975,-0.4887001232265733,-0.39555555555555555,-0.34731660505338,-0.008218888837597775,0.019223632358041243,-0.03317574493803796
1592167844.3994858,-0.49449117164492395,9.050822702931894,4.119951733313348,-0.4811111111111111,-0.39555555555555555,-0.3511111111111111,-0.014522343568001583,-0.009144898600377852,-0.03289208655151815
1592167844.4094858,-0.49088344823572716,9.038394551293836,4.042182145924445,-0.4811111111111111,-0.39555555555555555,-0.3511111111111111,-0.015082501629851839,-0.02496249905599331,-0.05520300019315927
1592167844.4194858,-0.6062794061890795,9.042616721706525,3.9529735462863886,-0.4811111111111111,-0.39555555555555555,-0.3511111111111111,-0.0250040587793507,-0.03376749679783284,-0.05610431206273064
1592167844.4294858,-0.4428403246208582,8.91785969615634,3.9130313152208287,-0.4811111111111111,-0.39555555555555555,-0.3511111111111111,-0.044716125352809895,-0.06121219214263944,-0.018007646850651288
1592167844.4394858,-0.30921379846028235,9.058558028869511,4.01108734939822,-0.4851190165404877,-0.39326532388162605,-0.3413776264969108,-0.06342029716020416,-0.04845007133487431,-0.01770399105549439
1592167844.4494858,-0.4194182114713682,8.978783087571113,4.201420081155535,-0.4888888888888889,-0.39111111111111113,-0.3322222222222222,-0.07492952627379272,-0.0475609113507578,-0.03280122162310549
1592167844.4594858,-0.41979615090913136,9.01024041680496,4.184391861579588,-0.4888888888888889,-0.39111111111111113,-0.3322222222222222,-0.081131,-0.04559489286120176,-0.04262299235947201
1592167844.4694858,-0.5755826384231998,8.977498970812464,4.0419420070376315,-0.4888888888888889,-0.39111111111111113,-0.3322222222222222,-0.09005174396729348,-0.048770149757653584,-0.043104852362788104
1592167844.4794858,-0.6230147882479367,8.917157217178582,3.961035705608203,-0.4888888888888889,-0.39111111111111113,-0.3322222222222222,-0.11420616663394102,-0.05938475967955557,-0.029449029425121037
1592167844.4894857,-0.4862441746642888,8.969805065743534,4.1130511328983115,-0.4920371886861124,-0.38743809468101703,-0.3285492057921281,-0.134679887258469,-0.061188,-0.032508044952431314
1592167844.4994857,-0.4222859187899912,8.935750511628763,4.278596813436297,-0.4955555555555556,-0.38333333333333336,-0.3244444444444444,-0.14745669285346774,-0.056399674633371734,-0.054679477141387094
1592167844.5094857,-0.5539834560988516,8.887976677396546,4.4078529059950196,-0.4955555555555556,-0.38333333333333336,-0.3244444444444444,-0.15155327778744204,-0.0637829774223054,-0.0479955555748841
1592167844.5194857,-0.638206633624668,8.835798325530527,4.506835420858587,-0.4955555555555556,-0.38333333333333336,-0.3244444444444444,-0.14294134516556511,-0.08313956549739852,-0.02563921215429306
1592167844.5294857,-0.5462817390071809,8.942366953661175,4.627369596648762,-0.4955555555555556,-0.38333333333333336,-0.3244444444444444,-0.12671444823627062,-0.0766210600865063,-0.01849939877003906
1592167844.5394857,-0.5370335833638978,9.057234392030685,4.664842655388695,-0.4819424965611443,-0.37369074987895873,-0.3136674394072022,-0.09496949171889406,-0.07380802091360313,-0.05446076785237253
1592167844.5494857,-0.6520374805013228,8.97667692685305,4.424540059085694,-0.4688888888888889,-0.36444444444444446,-0.30333333333333334,-0.0746125464258297,-0.06825975168566037,-0.083969
1592167844.5594857,-0.676920911023775,8.860563737144872,4.286871926671456,-0.4688888888888889,-0.36444444444444446,-0.30333333333333334,-0.07831716988159343,-0.07261569113805433,-0.07195651534997348
1592167844.5694857,-0.4707125506631174,8.840392933170227,4.275543935170737,-0.4688888888888889,-0.36444444444444446,-0.30333333333333334,-0.08766251782838091,-0.08404328182466965,-0.043720909254357954
1592167844.5794857,-0.3882423713511048,8.84857082448134,4.258148785315738,-0.4688888888888889,-0.36444444444444446,-0.30333333333333334,-0.0962469329914942,-0.09391662047276436,-0.016403391224916318
1592167844.5894856,-0.15276216783875124,8.968321712490544,4.33221771373766,-0.458526497855265,-0.3707770167427702,-0.29987920298879206,-0.10778104339557497,-0.07812467272404335,-0.01271121939489122
1592167844.5994856,-0.20590380682706455,8.9494177585579,4.350449772202599,-0.4488888888888889,-0.37666666666666665,-0.2966666666666667,-0.116154872401137,-0.042535560020841204,-0.03685624476013049
1592167844.6094856,-0.29835184397873665,8.92008519764487,4.359151969955856,-0.4488888888888889,-0.37666666666666665,-0.2966666666666667,-0.12778882517599055,-0.0034061687706870934,-0.05370517545608225
1592167844.6194856,-0.4663151758542147,8.888958740082336,4.439400455530753,-0.4488888888888889,-0.37666666666666665,-0.2966666666666667,-0.13020908745376478,0.012809693650999416,-0.06151791254623521
1592167844.6294856,-0.5722139856306968,8.858887173720174,4.335966872346256,-0.4488888888888889,-0.37666666666666665,-0.2966666666666667,-0.12873089966969348,0.010630981532177772,-0.05446774649063419
1592167844.6394856,-0.5610178738037883,8.90545658805849,4.255006900116821,-0.46561900846267174,-0.36628245451742214,-0.2816672491177579,-0.136764755029766,0.0020761537581482515,-0.05772442997943913
1592167844.6494856,-0.6768893197327395,8.892183024879495,4.39357931973274,-0.4811111111111111,-0.3566666666666667,-0.2677777777777778,-0.146103,-0.011186356880708967,-0.05890508209374712
1592167844.6594856,-0.7221903763380121,8.857303777175492,4.504087122104469,-0.4811111111111111,-0.3566666666666667,-0.2677777777777778,-0.131372901583111,-0.04473969001868424,-0.04075820529885152
1592167844.6694856,-0.6445970293744384,8.89376693930768,4.489980750279909,-0.4811111111111111,-0.3566666666666667,-0.2677777777777778,-0.11716812005155883,-0.060562112386687725,0.0002982157553647405
1592167844.6794856,-0.4744420995193804,8.964396561213203,4.4782243791168925,-0.4811111111111111,-0.3566666666666667,-0.2677777777777778,-0.10204619242642182,-0.03941259219084696,-0.00020304057914101534
1592167844.6894855,-0.5448989184817149,8.936262002881088,4.445779513417808,-0.4778215741779273,-0.36141822001459883,-0.2608331998077231,-0.10798074389818862,-0.01606782141244628,-0.02362017858755372
1592167844.6994855,-0.5546252524208026,8.798819166546949,4.476736337038371,-0.4711111111111111,-0.3711111111111111,-0.24666666666666667,-0.10712784678145439,-0.010489093150385681,-0.009807823034378063
1592167844.7094855,-0.4589605589855636,8.74256250763635,4.476579552029687,-0.4711111111111111,-0.3711111111111111,-0.24666666666666667,-0.11418370413442525,-0.017917353781465174,0.013440285815021668
1592167844.7194855,-0.460134776275671,8.75704358597779,4.482601027764004,-0.4711111111111111,-0.3711111111111111,-0.24666666666666667,-0.12998020592468276,-0.02181943985684971,0.016219439856849708
1592167844.7294855,-0.48065998680627714,8.848441799750484,4.792074332841343,-0.4711111111111111,-0.3711111111111111,-0.24666666666666667,-0.13705511964429534,0.0008720188786824354,-0.006071332761175425
1592167844.7394855,-0.5328053455538837,8.817995050347546,4.98440169636381,-0.4649539087462486,-0.35879670638138605,-0.2495084523735263,-0.11459564376758755,0.013593040269001879,-0.013656618648143729
1592167844.7494855,-0.5156524502274299,8.815731576952606,4.940657802972824,-0.45666666666666667,-0.3422222222222222,-0.25333333333333335,-0.08475871474918036,0.026788627767211463,-0.01670554722683067
1592167844.7594855,-0.45574340138608654,8.737031147865718,4.709775953319532,-0.45666666666666667,-0.3422222222222222,-0.25333333333333335,-0.06931213430094632,0.03945347264074004,-0.011635865699053678
1592167844.7694855,-0.5251443735730761,8.69587033386149,4.648221930374733,-0.45666666666666667,-0.3422222222222222,-0.25333333333333335,-0.07325273106963145,0.057154511086592585,-0.016311294722277353
1592167844.7794855,-0.5976878878606313,8.732665122438119,4.723586937280212,-0.45666666666666667,-0.3422222222222222,-0.25333333333333335,-0.08271358131184281,0.053421460827188016,-0.02107731590172348
1592167844.7894855,-0.7149623829857745,8.77913366106237,4.851374235505282,-0.4595098713699001,-0.33937901751898875,-0.24527758667417185,-0.07079153494322672,0.04204812145365463,-0.025869117782020383
1592167844.7994854,-0.7537275797610916,8.77646678036726,4.988368560520385,-0.4633333333333333,-0.33555555555555555,-0.23444444444444446,-0.04191403600031096,0.01760535416824004,-0.034684616631707604
1592167844.8094854,-0.6512808344854896,8.833055397373043,4.924931772246016,-0.4633333333333333,-0.33555555555555555,-0.23444444444444446,-0.004991254962233056,-0.0013740225330255893,-0.03623587542683034
1592167844.8194854,-0.5607333079758591,8.791438642377413,4.686509443616208,-0.4633333333333333,-0.33555555555555555,-0.23444444444444446,0.02044601835015728,-0.019620776712223634,-0.012386859431009478
1592167844.8294854,-0.5103334457984909,8.762657050828592,4.518057645154893,-0.4633333333333333,-0.33555555555555555,-0.23444444444444446,0.028922849292881,-0.035286150707119,0.02338220745337601
1592167844.8394854,-0.37271483843728603,8.784882196003252,4.393715344947047,-0.4610174779632266,-0.33053786892032433,-0.23174261317931993,0.01806208019967454,-0.03144411769114165,0.037429357979862056
1592167844.8494854,-0.227596159483616,8.779556,4.379179442284202,-0.45666666666666667,-0.3211111111111111,-0.22666666666666666,-0.011894337151477592,-0.024963,0.022859150706173583
1592167844.8594854,-0.26386706877025484,8.827042973910016,4.43770451044415,-0.45666666666666667,-0.3211111111111111,-0.22666666666666666,-0.04244015633373136,-0.03016680556388731,-0.013900276113331068
1592167844.8694854,-0.3990084289911101,8.817343807289756,4.520461004429941,-0.45666666666666667,-0.3211111111111111,-0.22666666666666666,-0.05446796541089164,-0.0496236753037124,-0.0393960390619545
1592167844.8794854,-0.5632188401169923,8.808016621506207,4.616111668436012,-0.45666666666666667,-0.3211111111111111,-0.22666666666666666,-0.055939057647649275,-0.06796571446447106,-0.05535833471497113
1592167844.8894854,-0.5218531574171614,8.763300356789461,4.652328030334026,-0.45554969217238345,-0.32267487540310763,-0.22823043095866313,-0.049164,-0.08947005694561157,-0.04794187925326431
1592167844.8994853,-0.4743357509536151,8.783124724189365,4.607845041040467,-0.45111111111111113,-0.3288888888888889,-0.23444444444444446,-0.05072291292721292,-0.08282942927777522,-0.05438965779501187
1592167844.9094853,-0.4468421701937747,8.814536399133013,4.591138857002641,-0.45111111111111113,-0.3288888888888889,-0.23444444444444446,-0.05582671628880459,-0.061313760792574994,-0.06732957443320688
1592167844.9194853,-0.4496886138649938,8.774722386135007,4.440705168653802,-0.45111111111111113,-0.3288888888888889,-0.23444444444444446,-0.06494050774318999,-0.051176378950677205,-0.06564313442422241
1592167844.9294853,-0.3581419608788105,8.77832592478045,4.297486855673076,-0.45111111111111113,-0.3288888888888889,-0.23444444444444446,-0.082831012707796,-0.06299303075782882,-0.03149266480756298
1592167844.9394853,-0.16344924100652547,8.755995036250745,4.4736958877216,-0.4547016155621497,-0.3262776129244972,-0.23215957797560172,-0.09492024608944727,-0.056915,0.00627803273978199
1592167844.9494853,-0.018868288157208535,8.825468794314148,4.783349507015861,-0.4633333333333333,-0.32,-0.22666666666666666,-0.0851044452508309,-0.04499916208004027,0.030014
1592167844.9594853,0.18668471516439242,8.904220113570954,5.048485167168168,-0.4633333333333333,-0.32,-0.22666666666666666,-0.05881526453806316,-0.022876215524836596,0.011971710767642172
1592167844.9694853,0.06567864985123706,8.868714792137187,5.091750712030679,-0.4633333333333333,-0.32,-0.22666666666666666,-0.022073897977692797,0.01910677130411328,-0.014533992164088709
1592167844.9794853,-0.04911501329448308,8.765886986705517,5.091797812152293,-0.4633333333333333,-0.32,-0.22666666666666666,0.023087582118825566,0.027415255816855846,-0.008628707896072195
1592167844.9894853,-0.18264738139914444,8.789917912573157,4.922137630334649,-0.4577564606702816,-0.32,-0.22717365509058046,0.0531067843877137,0.023771753301418758,-0.01651226146257123
1592167844.9994853,-0.3183843356955541,8.720694104698383,4.816396579038064,-0.4388888888888889,-0.32,-0.2288888888888889,0.06727939433990397,0.03657556160019316,-0.009303158029191162
1592167845.0094852,-0.3412991848709317,8.684316686478365,4.730231994292257,-0.4388888888888889,-0.32,-0.2288888888888889,0.07425248705229046,0.032562,0.003694535162403248
1592167845.0194852,-0.3646019812541857,8.659505364880232,4.698689998998155,-0.4388888888888889,-0.32,-0.2288888888888889,0.066581392799393,0.041260790767711886,0.027891134161984965
1592167845.0294852,-0.24289157314721874,8.692556915941507,4.807634547010145,-0.4388888888888889,-0.32,-0.2288888888888889,0.06846150662775351,0.049606,0.039391707514841966
1592167845.0394852,-0.1603028440343284,8.686562118323982,4.848414875667691,-0.44143683139309686,-0.3213897868204771,-0.23108938468797757,0.071198,0.052795,0.04315858841169311
1592167845.0494852,-0.2189839437326086,8.718067050880379,4.9416357419773975,-0.4633333333333333,-0.3333333333333333,-0.25,0.07920559598740154,0.05493766254562284,0.04971968482547766
1592167845.0594852,-0.3098547806394505,8.724857163324057,4.960434502807026,-0.4633333333333333,-0.3333333333333333,-0.25,0.09393764900548031,0.054932,0.03354497812715833
1592167845.0694852,-0.41976853423846294,8.759330246896742,4.9017302327963055,-0.4633333333333333,-0.3333333333333333,-0.25,0.11208825159756812,0.06429569539773579,0.027455418517838
1592167845.0794852,-0.5012295497635573,8.74859669303774,4.8066655989586575,-0.4633333333333333,-0.3333333333333333,-0.25,0.1294784017482677,0.05916117245001322,0.02681
1592167845.0894852,-0.44915155059920453,8.812479013246472,4.685177899432125,-0.4587727717324856,-0.3301141133797938,-0.24329329176345926,0.14411870796873602,0.04447247017234561,0.023330007783247703
1592167845.0994852,-0.3219414384769189,8.855640532130234,4.492009557404268,-0.4444444444444444,-0.32,-0.2222222222222222,0.14512460016950327,0.03960755082523317,0.02273373745798471
1592167845.1094851,-0.18967993300129352,8.832734686387022,4.282592351098337,-0.4444444444444444,-0.32,-0.2222222222222222,0.1304361363172569,0.04400874530587157,0.021930751564709475
1592167845.1194851,-0.2051983904047861,8.810094738041542,4.2057932007076255,-0.4444444444444444,-0.32,-0.2222222222222222,0.10317350028612725,0.053797355014369774,0.02282312815547737
1592167845.1294851,-0.33424971228823597,8.805866197306365,4.142027224673518,-0.4444444444444444,-0.32,-0.2222222222222222,0.07166505518955676,0.055763931523235506,0.03443034352605356
1592167845.1394851,-0.42138762926706613,8.803215992740752,4.2241561500332745,-0.4444444444444444,-0.32,-0.2222222222222222,0.041209610099106175,0.044756140212258884,0.03584258767704972
1592167845.149485,-0.4111289539881624,8.815817930669851,4.222485731573807,-0.4444444444444444,-0.32666666666666666,-0.19333333333333333,0.013378863945147966,0.03532765842053747,0.033251382183619976
1592167845.159485,-0.4076430838136452,8.883821282732534,4.326368447284516,-0.4444444444444444,-0.32666666666666666,-0.19333333333333333,-0.012438702227769976,0.030426,0.020465017988241824
1592167845.169485,-0.4920144818001231,8.85128427183774,4.500192481800123,-0.4444444444444444,-0.32666666666666666,-0.19333333333333333,-0.023900883656769265,0.02253906939399631,0.001271364209577552
1592167845.179485,-0.594185089155886,8.827669726333754,4.539355586345098,-0.4444444444444444,-0.32666666666666666,-0.19333333333333333,-0.024246307711746955,0.011681223716204853,-0.004288615423493909
1592167845.189485,-0.6471352842493804,8.828965975565872,4.521012975565872,-0.4444444444444444,-0.32666666666666666,-0.19333333333333333,-0.023605,0.0019507706546966173,0.0019288853273483086
1592167845.199485,-0.6454471238544601,8.831431729051845,4.638982034549122,-0.42444444444444446,-0.32666666666666666,-0.2,-0.022177082001440356,-0.007227934069831731,0.001251
1592167845.209485,-0.662163788621488,8.816879956866623,4.670748117123139,-0.42444444444444446,-0.32666666666666666,-0.2,-0.010976670011215758,-0.016774802545853895,-0.001871689761375187
1592167845.219485,-0.7474159683283278,8.78735498090405,4.612916532364212,-0.42444444444444446,-0.32666666666666666,-0.2,-0.002766700280770514,-0.019335350140385257,-0.0011943515425870304
1592167845.229485,-0.6854740722421842,8.782885728549077,4.713177665907631,-0.42444444444444446,-0.32666666666666666,-0.2,0.006284245912078927,-0.01726970799690735,0.014367984329371662
1592167845.239485,-0.535735743631849,8.748093731691295,4.724138333627144,-0.42444444444444446,-0.32666666666666666,-0.2,0.022365073174784946,-0.028822496593963333,0.03804997738176958
1592167845.249485,-0.29737225869222744,8.774822028095075,4.608207010121087,-0.4444444444444444,-0.32,-0.21444444444444444,0.027527,-0.03627180584783198,0.05880226346432751
1592167845.259485,-0.14346082340375882,8.829174631630359,4.462566303356078,-0.4444444444444444,-0.32,-0.21444444444444444,0.025202214385585023,-0.04036726464922188,0.064102
1592167845.269485,-0.027610606737102403,8.887961174686794,4.434716957209674,-0.4444444444444444,-0.32,-0.21444444444444444,0.017541168808896487,-0.026533334429060113,0.060824829941757134
1592167845.279485,0.16237475240044968,8.8669527494846,4.3917039933609505,-0.4444444444444444,-0.32,-0.21444444444444444,0.00022247166914321633,-0.0056318307105596805,0.04370270347519238
1592167845.289485,0.17986500920928883,8.866072204974138,4.461878140575789,-0.4444444444444444,-0.32,-0.21444444444444444,-0.011246377004827246,0.012117552799224796,0.020305108092398855
1592167845.299485,0.12838922236846223,8.887142328185648,4.530166713804089,-0.45111111111111113,-0.32666666666666666,-0.2,-0.01834743243954327,0.02730443243954327,-0.0014225653466960714
1592167845.309485,0.06118305095468988,8.852524857944102,4.51172104576594,-0.45111111111111113,-0.32666666666666666,-0.2,-0.020494720660362526,0.01846972457251408,-0.018166312542365864
1592167845.319485,-0.08888632099727965,8.831555730772067,4.454228695987772,-0.45111111111111113,-0.32666666666666666,-0.2,-0.023675914407287904,0.011201941629839212,-0.02539870098348049
1592167845.329485,-0.1510191258409066,8.837939474414679,4.354699955884551,-0.45111111111111113,-0.32666666666666666,-0.2,-0.03629653243781643,-0.0035186717250370765,-0.026458963526352925
1592167845.339485,-0.23884064635037333,8.794289933446882,4.373413041647449,-0.45111111111111113,-0.32666666666666666,-0.2,-0.050013902653843395,-0.010056,-0.0170790973461566
1592167845.349485,-0.25629995517636195,8.786914980637583,4.502054887619744,-0.4311111111111111,-0.31444444444444447,-0.21444444444444444,-0.05961532475127854,-0.020134716007380538,-0.008617211337843001
1592167845.359485,-0.28040511652838035,8.78098454457455,4.627546367031403,-0.4311111111111111,-0.31444444444444447,-0.21444444444444444,-0.05895926459178921,-0.03202907573444287,0.0037474813057697034
1592167845.369485,-0.28414837573100726,8.776655401806794,4.749978536885743,-0.4311111111111111,-0.31444444444444447,-0.21444444444444444,-0.05193383247962732,-0.03830950566141447,0.014470382076768094
1592167845.379485,-0.19400153576726614,8.79782004724122,4.81909757855723,-0.4311111111111111,-0.31444444444444447,-0.21444444444444444,-0.02956273905024343,-0.05371175447568986,0.026037444087592038
1592167845.389485,-0.05610645451543032,8.80452989286504,4.799088079846989,-0.4311111111111111,-0.31444444444444447,-0.21444444444444444,-0.012176303462463704,-0.05082439099189289,0.026143084380043622
1592167845.3994849,0.06316641465534717,8.839694590288522,4.791736407114385,-0.4388888888888889,-0.30666666666666664,-0.21444444444444444,0.0027519036582667896,-0.03376209634173321,0.017272724076291154
1592167845.4094849,0.07954606609376721,8.850944534729669,4.821290539686442,-0.4388888888888889,-0.30666666666666664,-0.21444444444444444,0.01750853153283803,-0.003912112963109516,0.0037558400819243144
1592167845.4194849,0.08427350459130896,8.844518440432065,4.847638550939951,-0.4388888888888889,-0.30666666666666664,-0.21444444444444444,0.03646397713959483,0.019683978687517027,-0.01305489820961124
1592167845.4294848,0.03443928990563322,8.815636783391387,4.733660683556093,-0.4388888888888889,-0.30666666666666664,-0.21444444444444444,0.0494345407903874,0.03179378728130454,-0.025982253568000623
1592167845.4394848,-0.164454881844201,8.821604329831967,4.5175417467888535,-0.4388888888888889,-0.30666666666666664,-0.21444444444444444,0.052696395816481716,0.039020044982638426,-0.028181094513910866
1592167845.4494848,-0.2554152629841147,8.809652124246911,4.362710518856359,-0.4444444444444444,-0.30666666666666664,-0.2222222222222222,0.0414149569692521,0.03826361423042006,-0.019735615964534242
1592167845.4594848,-0.4210680139088382,8.755305181216736,4.336918047582142,-0.4444444444444444,-0.30666666666666664,-0.2222222222222222,0.022790829144072426,0.023275619229113653,-0.0005088681079512773
1592167845.4694848,-0.3378749398239388,8.799217975707748,4.444652265426747,-0.4444444444444444,-0.30666666666666664,-0.2222222222222222,0.012798915719566371,-0.0014351475199753591,0.02454592024079409
1592167845.4794848,-0.13767203317637164,8.820547379394615,4.496936131542514,-0.4444444444444444,-0.30666666666666664,-0.2222222222222222,0.009684166745165805,-0.020436833254834197,0.03231781564716084
1592167845.4894848,-0.06427292560934397,8.850803533551277,4.585044327143861,-0.4444444444444444,-0.30666666666666664,-0.2222222222222222,0.005157,-0.012364958790088934,0.029429470917691634
1592167845.4994848,-0.008678886267088959,8.813208528085749,4.607241889409686,-0.4311111111111111,-0.32666666666666666,-0.21444444444444444,0.011036822818881421,-0.02081715850291098,0.02248148713485186
1592167845.5094848,-0.0016983717407647674,8.829278274389168,4.570677407020186,-0.4311111111111111,-0.32666666666666666,-0.21444444444444444,0.00994102907093012,-0.009027721086585026,0.014588300835958657
1592167845.5194848,-0.016552937802637502,8.833995149632502,4.559115645523274,-0.4311111111111111,-0.32666666666666666,-0.21444444444444444,0.009913235322973096,-0.009414172481393982,0.005088825205726427
1592167845.5294847,-0.042557602994672775,8.851886617620835,4.548887254248414,-0.4311111111111111,-0.32666666666666666,-0.21444444444444444,0.009885441575210673,-0.01018267636121235,0.0007805584247893263
