time,acc_x,acc_y,acc_z,mag_x,mag_y,mag_z,gyr_x,gyr_y,gyr_z
1592167877.1894546,-0.07355941744249148,8.816344685971446,4.653744656658733,-0.43333333333333335,-0.2588888888888889,-0.21444444444444444,0.032848511328752626,-0.0036654886712473725,0.006570019390959143
1592167877.1994545,-0.08532067204991937,8.831274032472576,4.580871035357698,-0.4211111111111111,-0.25222222222222224,-0.24333333333333335,0.03185939045299333,-0.002594,0.004477695226496667
1592167877.2094545,-0.09090453013508523,8.81855774387926,4.552462338519989,-0.4211111111111111,-0.25222222222222224,-0.24333333333333335,0.032852,0.0035832322372886857,0.005508
1592167877.2194545,-0.09964643934863716,8.8020538904732,4.538172907855829,-0.4211111111111111,-0.25222222222222224,-0.24333333333333335,0.03198343267071737,0.003799,0.00851356732928263
1592167877.2294545,-0.1350155222676799,8.809328087142932,4.532334784976886,-0.4211111111111111,-0.25222222222222224,-0.24333333333333335,0.027527,0.008744260622590625,0.009766
1592167877.2394545,-0.1345947217099181,8.801958158446036,4.475345946848688,-0.4211111111111111,-0.25222222222222224,-0.24333333333333335,0.021599056909206032,0.014898965908739443,0.013572088506366261
1592167877.2494545,-0.17095551127463218,8.794057963893362,4.474487194062413,-0.4310949867519914,-0.2576679725717933,-0.2487790836829044,0.01211354287277239,0.015518,0.019866634710807303
1592167877.2594545,-0.14256264100165664,8.829177897171752,4.497352004362198,-0.43333333333333335,-0.2588888888888889,-0.25,0.004741178307924568,0.01615135011989801,0.02532235011989801
1592167877.2694545,-0.129554071903475,8.812204424787389,4.648972233623702,-0.43333333333333335,-0.2588888888888889,-0.25,0.005490414424445598,0.013872237375782902,0.02919111868789145
1592167877.2794545,-0.0948935317693708,8.826708120156937,4.709536306501638,-0.43333333333333335,-0.2588888888888889,-0.25,0.017651270861557232,0.009144816702788895,0.03293392060417273
1592167877.2894545,-0.0522528177743293,8.82178667094128,4.738841272276097,-0.43333333333333335,-0.2588888888888889,-0.25,0.02843443996977019,0.008671280015114906,0.0347247199848851
1592167877.2994545,-0.1144230199040536,8.835923417169772,4.711144519574178,-0.42309337453187773,-0.2588888888888889,-0.22672736636032823,0.04403192047395202,0.006266229629651645,0.035339
1592167877.3094544,-0.08146807511256256,8.823973912311043,4.626015295749264,-0.4211111111111111,-0.2588888888888889,-0.2222222222222222,0.051669272496807424,0.0034362724968074196,0.03675020536112122
1592167877.3194544,-0.12668770925895634,8.83091857048978,4.416527239850476,-0.4211111111111111,-0.2588888888888889,-0.2222222222222222,0.04865412140695762,0.008343957497603478,0.043755921095438896
1592167877.3294544,-0.1249787057017196,8.821168683179245,4.278603897204888,-0.4211111111111111,-0.2588888888888889,-0.2222222222222222,0.03109139719886876,0.011897724675677693,0.046635794827752874
1592167877.3394544,-0.12752410851519153,8.830734904647787,4.341913422290915,-0.4211111111111111,-0.2588888888888889,-0.2222222222222222,0.009387440586699243,0.010313355867065202,0.05270940683193059
1592167877.3494544,-0.14593674804343598,8.822056510185357,4.365471033420208,-0.4356674236689377,-0.2606013962486332,-0.2273597443014551,-0.0069888037235989395,0.002143336107962924,0.0594637379697624
1592167877.3594544,-0.15182334165331693,8.840467550957879,4.507382754912277,-0.44,-0.2611111111111111,-0.2288888888888889,-0.01726374028854931,-0.009193758687732846,0.06582548737665031
1592167877.3694544,-0.15649999457700964,8.832296220440986,4.603090235699344,-0.44,-0.2611111111111111,-0.2288888888888889,-0.01456475712504256,-0.023323080311646753,0.073685
1592167877.3794544,-0.15554037926371095,8.806068398249565,4.759473578285678,-0.44,-0.2611111111111111,-0.2288888888888889,-0.004063703414575388,-0.046935794636211184,0.07994546497895473
1592167877.3894544,-0.0670997487851139,8.85960968079081,4.909723751192654,-0.44,-0.2611111111111111,-0.2288888888888889,0.020248408453454474,-0.055902266084689144,0.08741211057530042
1592167877.3994544,0.16608631668287607,8.844802020659412,4.827818579669016,-0.4298029805506441,-0.2611111111111111,-0.23445089949762846,0.04383966923908212,-0.03605626153950431,0.07603434742132695
1592167877.4094543,0.2001626691066564,8.832758210093239,4.566241682396677,-0.42777777777777776,-0.2611111111111111,-0.23555555555555555,0.05291541780162464,-0.05508489143391684,0.012167807916390345
1592167877.4194543,-0.05716987405494614,8.864836734418594,4.30029041634166,-0.42777777777777776,-0.2611111111111111,-0.23555555555555555,0.04148846927971996,-0.05916767641014932,-0.023065817367401212
1592167877.4294543,-0.13982719844395805,8.835576899034107,4.282585682744514,-0.42777777777777776,-0.2611111111111111,-0.23555555555555555,0.022190104981084733,-0.044144,-0.0086905477058208
1592167877.4394543,-0.10932069506548225,8.826246022568148,4.344473549748729,-0.42777777777777776,-0.2611111111111111,-0.23555555555555555,0.0010776433840534278,-0.03899564338405343,-0.009818390569642135
1592167877.4494543,-0.21319406680730807,8.842150956347497,4.48472699467212,-0.42777777777777776,-0.2655715642483587,-0.21860583363401473,-0.008218549003339556,-0.030763281626056915,-0.007570689816368012
1592167877.4594543,-0.2990397276288607,8.854619856402287,4.539572503380383,-0.42777777777777776,-0.26666666666666666,-0.21444444444444444,-0.009484965503700378,-0.027369065439209122,-0.009668317373140965
1592167877.4694543,-0.44855285179182225,8.82572345370632,4.728075292199565,-0.42777777777777776,-0.26666666666666666,-0.21444444444444444,-0.004057406770194617,-0.035741766298875904,-0.010579836075002139
1592167877.4794543,-0.45659850808301294,8.837271354900492,4.756362270146412,-0.42777777777777776,-0.26666666666666666,-0.21444444444444444,0.010861400913004122,-0.048950951568110454,-0.00621
1592167877.4894543,-0.3341529443236424,8.835734029099967,4.648722248486232,-0.42777777777777776,-0.26666666666666666,-0.21444444444444444,0.024693983181940965,-0.07895146859390442,-0.01864863643133108
1592167877.4994543,-0.24668824633171205,8.80575015588708,4.438504188284607,-0.44054851002918594,-0.2626758128381016,-0.2399859089472608,0.02332473997670463,-0.09947826002329536,-0.03767422783161902
1592167877.5094543,-0.1860969910218551,8.836702006461032,4.358445627604729,-0.44555555555555554,-0.2611111111111111,-0.25,0.008597578351934332,-0.10876308262002993,-0.046692
1592167877.5194542,-0.21544246615583784,8.845197715964638,4.356661332074002,-0.44555555555555554,-0.2611111111111111,-0.25,-0.007096440714610451,-0.11898005042835356,-0.04890243551504598
1592167877.5294542,-0.2607163468522358,8.838070224704746,4.444772873278552,-0.44555555555555554,-0.2611111111111111,-0.25,-0.01965350267634093,-0.128724047975245,-0.05082645470109592
1592167877.5394542,-0.23572995360126942,8.824912092797462,4.559872304814125,-0.44555555555555554,-0.2611111111111111,-0.25,-0.02352314244502337,-0.137878,-0.05114054000477756
1592167877.5494542,-0.25165938862702314,8.824879195179472,4.708054659508283,-0.4363042113489898,-0.265316267568641,-0.22897421771235046,-0.016145518209970927,-0.14214948143464284,-0.06053124622580797
1592167877.5594542,-0.484626116655526,8.804025704887545,4.862256324459214,-0.43333333333333335,-0.26666666666666666,-0.2222222222222222,0.002684107469731448,-0.1695928096072729,-0.05100534660125704
1592167877.5694542,-0.5091659646606591,8.811681528031322,4.885866467858198,-0.43333333333333335,-0.26666666666666666,-0.2222222222222222,0.02888098397395563,-0.17387991870114114,-0.062220998947788084
1592167877.5794542,-0.3924564323429998,8.841862488184109,4.811806754787729,-0.43333333333333335,-0.26666666666666666,-0.2222222222222222,0.04802362954091535,-0.201882236964098,-0.07420760742318264
1592167877.5894542,-0.2161067281274148,8.850299255559213,4.87868016709056,-0.43333333333333335,-0.26666666666666666,-0.2222222222222222,0.07275336959659467,-0.193391677774353,-0.06467659098402417
1592167877.5994542,-0.08361268292769408,8.825081303569272,4.936149876862415,-0.4414236764634911,-0.2629892379711404,-0.21707382204848544,0.10587193170562824,-0.14912036503715465,-0.04572020774153789
1592167877.6094542,-0.1349529618525382,8.836286886490718,4.8642324990858095,-0.44555555555555554,-0.2611111111111111,-0.21444444444444444,0.14087594060712444,-0.0983617888971552,-0.031205305157388733
1592167877.6194541,-0.21018286258186825,8.840837246770242,4.807665064138868,-0.44555555555555554,-0.2611111111111111,-0.21444444444444444,0.17171912450456794,-0.057140983698233526,-0.021722296750929685
1592167877.6294541,-0.3779263362777726,8.8544535088679,4.570957081549401,-0.44555555555555554,-0.2611111111111111,-0.21444444444444444,0.19447502511913503,-0.05357680568013576,-0.023864459130370903
1592167877.6394541,-0.7958162435997659,8.850462351710439,4.221561443133732,-0.44555555555555554,-0.2611111111111111,-0.21444444444444444,0.1751847672120563,-0.0879303440745386,-0.026487540761834266
1592167877.649454,-0.3909159536213942,8.829388088397899,4.801680041298919,-0.4506969141926785,-0.27873862643838987,-0.2239926819133871,0.19150446835928436,-0.08298749871079086,-0.11898040904265897
1592167877.659454,-0.9900393761656013,8.960714943457733,3.9348177728328038,-0.4533333333333333,-0.2877777777777778,-0.2288888888888889,0.18289991149242057,-0.13980351389268558,-0.09574349462165285
1592167877.669454,-0.7564121819878644,8.867304248438971,4.06327505080095,-0.4533333333333333,-0.2877777777777778,-0.2288888888888889,0.13992915802485048,-0.13998731526039976,-0.037770313070190124
1592167877.679454,-0.4750177461611025,8.862685871339641,4.125261597874104,-0.4533333333333333,-0.2877777777777778,-0.2288888888888889,0.10944125832518371,-0.1646217416748163,-0.0636285644662282
1592167877.689454,-0.6232501683079765,8.902270512327132,4.077813523354849,-0.4533333333333333,-0.2877777777777778,-0.2288888888888889,0.08483309968982099,-0.137596004099454,-0.08021686546840336
1592167877.699454,-0.5968974544972643,8.917728046852229,3.9358940021108535,-0.4533333333333333,-0.2834666975469477,-0.2251936772624631,0.049774914269936535,-0.13452882524148202,-0.051282941274565744
1592167877.709454,-0.45495581781755057,8.921777479611746,3.9748083267081924,-0.4533333333333333,-0.28,-0.2222222222222222,0.014454800082163065,-0.142151,-0.06261536993140475
1592167877.719454,-0.5537916847146148,8.972608304141978,4.031862273204771,-0.4533333333333333,-0.28,-0.2222222222222222,-0.011811635891093974,-0.15201567554043055,-0.061674364108906025
1592167877.729454,-0.5526064145889091,8.964399974330812,4.159264916560134,-0.4533333333333333,-0.28,-0.2222222222222222,-0.030074276902215057,-0.15865340167762973,-0.030098631889948733
1592167877.739454,-0.41332072350197563,8.9326741355277,4.169875088312265,-0.4533333333333333,-0.28,-0.2222222222222222,-0.046914611090157765,-0.15922760720753565,-0.030546701329429958
1592167877.749454,-0.5002877526498014,8.890003917549935,4.171850448976926,-0.45633420553075776,-0.2850014536623741,-0.23172498418073298,-0.06273241296926428,-0.13506464320992098,-0.03302895669415224
1592167877.759454,-0.5848885769976488,8.904575924409677,4.203202376985765,-0.46,-0.2911111111111111,-0.24333333333333335,-0.0753442958812778,-0.09664148340056093,-0.030406432681670263
1592167877.769454,-0.6776332194436614,8.9305828825758,4.280004219443661,-0.46,-0.2911111111111111,-0.24333333333333335,-0.08348422472084788,-0.05555856705938757,-0.02450467893792196
1592167877.779454,-0.8222445271528974,8.929399104671633,4.3519642660740505,-0.46,-0.2911111111111111,-0.24333333333333335,-0.08726163658159979,-0.01190249915641134,-0.003516407214033344
1592167877.789454,-0.8587958455380043,8.880622226269024,4.357647670057017,-0.46,-0.2911111111111111,-0.24333333333333335,-0.09328764136601324,-0.011487228033562785,0.018411616567551917
1592167877.799454,-0.7950610659008277,8.890925264751584,4.329931978536963,-0.46,-0.28792878028404345,-0.25160739348370925,-0.10378965006883566,-0.008305783052141654,0.027878
1592167877.809454,-0.6312180913197392,8.854553759407679,4.369269047349774,-0.46,-0.28555555555555556,-0.2577777777777778,-0.11451312434407886,-0.019175592299086476,0.026318026936737723
1592167877.819454,-0.5517809158418808,8.90417489104118,4.495616610331599,-0.46,-0.28555555555555556,-0.2577777777777778,-0.12182567019151885,-0.043003649213216866,0.02298918259746221
1592167877.829454,-0.49024118903898684,8.843718124884552,4.6296044652832435,-0.46,-0.28555555555555556,-0.2577777777777778,-0.11210040764192862,-0.0271,0.035853695309983384
1592167877.839454,-0.4296648283163129,8.861675718719876,4.661450498200322,-0.46,-0.28555555555555556,-0.2577777777777778,-0.09703105496789212,-0.030516594662938094,0.042801
1592167877.849454,-0.29795455864551523,8.841659262911396,4.747000474987905,-0.4494488739683872,-0.2884864238976702,-0.24605430440931908,-0.0771429503788118,0.018538544690558257,0.032123249188045336
1592167877.859454,-0.36896907215455815,8.846956100214701,4.755020383533199,-0.44,-0.2911111111111111,-0.23555555555555555,-0.050363597357998356,0.04331453531805539,-0.013938596394306875
1592167877.869454,-0.5022033237427683,8.856943646575639,4.740579706848722,-0.44,-0.2911111111111111,-0.23555555555555555,-0.024626881200134086,0.07076825064512818,-0.016442144122535713
1592167877.879454,-0.581490146809451,8.87966696329358,4.723504045249937,-0.44,-0.2911111111111111,-0.23555555555555555,-0.007810215023568453,0.04938368948304129,-0.010648215023568454
1592167877.889454,-0.5204959114492194,8.848209836347271,4.793606708483297,-0.44,-0.2911111111111111,-0.23555555555555555,0.014751523559578606,0.07282803197022607,0.0013958043366323488
1592167877.8994539,-0.5234106032876541,8.855857145395698,4.6051522353841206,-0.4458509366281387,-0.29403657942518047,-0.26090961427748993,0.03507413076155041,0.0649332376018249,-0.024452500706546094
1592167877.9094539,-0.5713810165962112,8.894378512801199,4.5082762247463535,-0.4533333333333333,-0.29777777777777775,-0.29333333333333333,0.038177,0.05592232319619444,-0.019941404152997333
1592167877.9194539,-0.5704543651883023,8.855725905532681,4.595933952549762,-0.4533333333333333,-0.29777777777777775,-0.29333333333333333,0.04134533590875846,0.024337763823639922,-0.015756518943223316
1592167877.9294538,-0.646624982648942,8.87238824028751,4.640480788694957,-0.4533333333333333,-0.29777777777777775,-0.29333333333333333,0.05593098476117464,-0.002394505463138367,0.00490947892565231
1592167877.9394538,-0.5485896581511907,8.854476891990517,4.598423449141082,-0.4533333333333333,-0.29777777777777775,-0.29333333333333333,0.0655339270858805,-0.010056,0.029540253505134326
1592167877.9494538,-0.4610672881686975,8.8638797951771,4.499654059724818,-0.45238780411705376,-0.30108713003475623,-0.296169920982172,0.069077,-0.017997749914494356,0.04610460790540895
1592167877.9594538,-0.3628012449490499,8.830984449281972,4.476150067366799,-0.45111111111111113,-0.3055555555555556,-0.3,0.06895349192156584,-0.0011966222127498,0.034803752503933756
1592167877.9694538,-0.36052644651832866,8.882122326158271,4.466848215415607,-0.45111111111111113,-0.3055555555555556,-0.3,0.06084937258021647,-0.008521763317678717,0.032298005662301545
1592167877.9794538,-0.2488272098382756,8.804890612864991,4.606900523680549,-0.45111111111111113,-0.3055555555555556,-0.3,0.07048442602878907,0.03556611945252999,0.01796230689650515
1592167877.9894538,-0.33993551071911915,8.89245636187897,4.444488510719119,-0.45111111111111113,-0.3055555555555556,-0.3,0.0716244147979405,-0.024125316453466796,0.015318880239842179
1592167877.9994538,-0.20361425757609744,8.919948211931457,4.686443670039026,-0.46110051628743925,-0.3116601920522005,-0.3,0.08347653142456907,0.013669886219547792,0.07300144425650656
1592167878.0094538,0.14359708599866858,8.823737517614665,4.541612936972016,-0.4711111111111111,-0.31777777777777777,-0.3,0.09597179489478207,0.06375084363425094,0.05428625384468681
1592167878.0194538,-0.18274831975444272,8.910342957577368,4.381836750631976,-0.4711111111111111,-0.31777777777777777,-0.3,0.088538588642641,-0.009348356010256026,0.06161898972523363
1592167878.0294538,-0.21218986030719958,8.913183823966412,4.540134010163961,-0.4711111111111111,-0.31777777777777777,-0.3,0.09441002637083579,0.032291314331700516,0.09801455970283032
1592167878.0394537,-0.07668906140577432,8.841842818308594,4.556065734366075,-0.4711111111111111,-0.31777777777777777,-0.3,0.10495024173988345,0.050715449172630864,0.0917115732390903
1592167878.0494537,-0.03986059315119304,8.867625881917776,4.273715856651013,-0.4737554143280409,-0.3204220809947076,-0.3057293236366813,0.09947075928044825,0.08226307725410278,0.06777854878265192
1592167878.0594537,-0.1533291073899022,8.888786240007747,4.21823266625306,-0.4777777777777778,-0.3244444444444444,-0.31444444444444447,0.08302933104910228,0.07078072554362752,0.06753642288254305
1592167878.0694537,-0.14801010660276578,8.896666414589493,4.30971850024227,-0.4777777777777778,-0.3244444444444444,-0.31444444444444447,0.07083875624199881,0.06301021674352249,0.07938424375800118
1592167878.0794537,-0.06816273842215985,8.911224736883236,4.236694557263213,-0.4777777777777778,-0.3244444444444444,-0.31444444444444447,0.05884468920239457,0.06609391825715476,0.07483929699990906
1592167878.0894537,-0.09206228982390319,8.890103064755275,4.124698075616722,-0.4777777777777778,-0.3244444444444444,-0.31444444444444447,0.03720242016924233,0.06027444479878049,0.058033928554092284
1592167878.0994537,-0.11381058687627496,8.958071181043893,4.096101323562141,-0.4757296030839191,-0.3261512566893267,-0.3229785056688557,0.008856426263040718,0.0357458651357524,0.06304277574915011
1592167878.1094537,-0.0502344403064418,8.841631008479528,4.281551416752531,-0.4711111111111111,-0.33,-0.3422222222222222,-0.010113137604935056,0.04011853929453115,0.05731013900478703
1592167878.1194537,-0.06262116077204148,8.941777692821331,4.317980538620561,-0.4711111111111111,-0.33,-0.3422222222222222,-0.021831858754540207,0.010434628709891945,0.06799771694695907
1592167878.1294537,0.06644739386630105,8.876351643918989,4.479914182698139,-0.4711111111111111,-0.33,-0.3422222222222222,-0.021302488792215735,0.0031968072683399252,0.07695961580446883
1592167878.1394536,0.15418395300317486,8.888405613701142,4.334685788084087,-0.4711111111111111,-0.33,-0.3422222222222222,-0.025491514791380298,0.019856644140079455,0.05795269656087302
1592167878.1494536,0.05278929330032202,8.954396430321513,4.341062607612021,-0.4772784648891472,-0.329719665737362,-0.3478289074749823,-0.0312317495446856,-0.008852825374029117,0.06517
1592167878.1594536,0.12101162709791666,8.755290048471888,4.404857743283738,-0.4955555555555556,-0.3288888888888889,-0.36444444444444446,-0.035324,0.01943059456636579,0.031060445181881443
1592167878.1694536,-0.024475330584850796,8.92133253468269,4.190596955258838,-0.4955555555555556,-0.3288888888888889,-0.36444444444444446,-0.044338928681414605,0.018462064323753802,-0.006452464340707302
1592167878.1794536,-0.0438968986251382,8.836835873211887,4.24986634773636,-0.4955555555555556,-0.3288888888888889,-0.36444444444444446,-0.05977085734753246,-0.004252610484336147,-0.02314825935902088
1592167878.1894536,-0.05778606738817345,8.95569531198909,4.23198088699931,-0.4955555555555556,-0.3288888888888889,-0.36444444444444446,-0.07074224907023272,-0.013773748461509156,-0.042958248164107475
1592167878.1994536,-0.027428802980260802,8.907656030912378,4.254339154264853,-0.4928493799541525,-0.33036498467147235,-0.36444444444444446,-0.0864674663009195,-0.021430976410695732,-0.039581133774937896
1592167878.2094536,-0.009109,8.992308783312508,4.170818325443866,-0.48333333333333334,-0.33555555555555555,-0.36444444444444446,-0.10283936358739196,-0.05880956370421326,-0.021372272825216084
1592167878.2194536,0.17820109648903856,8.842774516772005,4.29148729944888,-0.48333333333333334,-0.33555555555555555,-0.36444444444444446,-0.11224042460527706,-0.05113677162006358,-0.017500171684732963
1592167878.2294536,0.22841528739372724,8.89467476295434,4.090938144020584,-0.48333333333333334,-0.33555555555555555,-0.36444444444444446,-0.13550263182716135,-0.03733992932955156,-0.050017738779779816
1592167878.2394536,0.06553813333960201,8.910767218954245,4.19640670295378,-0.48333333333333334,-0.33555555555555555,-0.36444444444444446,-0.15842702971079137,-0.06435617376178146,-0.03317862348524145
1592167878.2494535,0.09378747520803468,8.930266032930756,4.426654004918023,-0.4847516257127709,-0.33555555555555555,-0.37035399602543434,-0.16472299561248563,-0.04315891336859654,-0.019649243495922442
1592167878.2594535,0.14957935707817088,8.861771607594825,4.5052659104911745,-0.49,-0.33555555555555555,-0.39222222222222225,-0.1511799627677646,-0.001263886353551958,-0.03848993452689271
1592167878.2694535,0.11217599490032143,8.903111819577703,4.405636328860632,-0.49,-0.33555555555555555,-0.39222222222222225,-0.14177060210359568,0.0007468977894085861,-0.0475556698744699
1592167878.2794535,0.1578165240800047,8.931735361850736,4.434864358892355,-0.49,-0.33555555555555555,-0.39222222222222225,-0.13644894017747655,0.013493613732764006,-0.03512515811883588
1592167878.2894535,0.21371551072181297,8.826018846285768,4.556660412500657,-0.49,-0.33555555555555555,-0.39222222222222225,-0.11969055427224616,0.028233265481761798,-0.07490633392511067
1592167878.2994535,-0.05830594628251888,8.915428679109375,4.573286337477479,-0.4911995107008206,-0.33819447909736083,-0.4003788949878022,-0.11644181966961947,0.006763452633739182,-0.08407269859338576
1592167878.3094535,-0.14678017447871905,8.919631736810409,4.714022237030049,-0.4955555555555556,-0.3477777777777778,-0.43,-0.10389717121242331,0.0030844497639053396,-0.03604991843464733
1592167878.3194535,0.05087084879614343,8.927367467683414,4.803625231195748,-0.4955555555555556,-0.3477777777777778,-0.43,-0.0750627610078975,0.010942039658232025,-0.010042212405954279
1592167878.3294535,0.0920537762124491,8.889200791628612,4.720656869225567,-0.4955555555555556,-0.3477777777777778,-0.43,-0.04906588681006249,0.010045697821546082,0.005498827667270773
1592167878.3394535,-0.04619767006465851,8.897140701812575,4.710002925431077,-0.4955555555555556,-0.3477777777777778,-0.43,-0.0279330329945089,-0.009180535842295832,0.01051024109067899
1592167878.3494534,-0.13712998465643672,8.87078028486594,4.796490890828112,-0.4955555555555556,-0.3488306539634254,-0.42879671293068844,-0.008538227157303775,-0.021848406855421283,0.03393154692182329
1592167878.3594534,-0.1070824282908435,8.93040463667438,4.89843487337318,-0.4955555555555556,-0.35555555555555557,-0.4211111111111111,0.033816841187160315,-0.054473024710425616,0.023701965590118494
1592167878.3694534,-0.16531406600595086,8.883416423458804,4.940680010223766,-0.4955555555555556,-0.35555555555555557,-0.4211111111111111,0.0741455012242683,-0.060305095984398926,0.023250572708012594
1592167878.3794534,-0.10104273036524496,8.973366128405727,4.820526776798328,-0.4955555555555556,-0.35555555555555557,-0.4211111111111111,0.11909468382605314,-0.10375316198864731,0.025300855884274966
1592167878.3894534,0.10024089891919985,8.876014756123842,4.841294405599481,-0.4955555555555556,-0.35555555555555557,-0.4211111111111111,0.15803593237750327,-0.10327401106138717,-0.002208828551885921
1592167878.3994534,0.22355616871770126,8.851616964837378,4.69081626246706,-0.4966837722629336,-0.35319655698558344,-0.42193163235284054,0.1928729968697724,-0.06791681862144026,-0.0364048241734172
1592167878.4094534,0.10189855825989595,8.866528721283819,4.556270395988703,-0.5077777777777778,-0.33,-0.43,0.20043110407909256,-0.08711644796045372,-0.05942585903943174
1592167878.4194534,0.09174996633191768,8.887968715638806,4.533714256198271,-0.5077777777777778,-0.33,-0.43,0.21635151658356772,-0.0870032636844593,-0.07078935157420262
1592167878.4294534,0.13300229493900093,8.87656360365883,4.451787350292818,-0.5077777777777778,-0.33,-0.43,0.22311496454402144,-0.08014887727610895,-0.07714996454402144
1592167878.4394534,0.013910867966962595,8.887885825373957,4.35161228976768,-0.5077777777777778,-0.33,-0.43,0.21011530958833144,-0.08475177141020139,-0.06857360049303614
1592167878.4494534,-0.0363294206256394,8.787771874615869,4.189109607999628,-0.5061428305746699,-0.3384472272160574,-0.4313624560025899,0.18445687623822082,-0.07783128345736509,-0.03248352913917655
1592167878.4594533,-0.01424001913213524,8.876117203250523,4.171146128597126,-0.5011111111111111,-0.36444444444444446,-0.43555555555555553,0.14483834058452158,-0.11926574390849481,-0.004930690170176781
1592167878.4694533,0.17290283402433843,8.781654918592935,4.172530362271669,-0.5011111111111111,-0.36444444444444446,-0.43555555555555553,0.1235787048026449,-0.05796420284848276,-0.02685238908082763
1592167878.4794533,-0.0013005734951868388,8.922223004975773,3.990987055173054,-0.5011111111111111,-0.36444444444444446,-0.43555555555555553,0.07819646255455719,-0.09409909963693149,0.002484086601186779
1592167878.4894533,0.22409752409652778,8.873299628251686,4.307863709709665,-0.5011111111111111,-0.36444444444444446,-0.43555555555555553,0.0596216214039258,-0.09116488992328946,0.0006081520345181633
1592167878.4994533,0.22786239723395593,8.819966957203434,4.334607454408795,-0.5001913593427487,-0.36494612722718756,-0.43714421770090867,0.05905056202246642,-0.05306193877458646,-0.037207316902886534
1592167878.5094533,0.09543351629568751,8.778119556030559,4.282866520953981,-0.4888888888888889,-0.3711111111111111,-0.45666666666666667,0.041122270764650755,-0.04074882395546593,-0.04501107662074775
1592167878.5194533,0.20964254985155636,8.853714600694868,4.270226496262493,-0.4888888888888889,-0.3711111111111111,-0.45666666666666667,0.012619,-0.025032215585610713,-0.017682445551755712
1592167878.5294533,0.10493393009748057,8.820692456536356,4.345593180760316,-0.4888888888888889,-0.3711111111111111,-0.45666666666666667,0.0044893245072154695,-0.04306080831821506,-0.0179816171716019
1592167878.5394533,0.023927331800327252,8.885356731795454,4.462978511269963,-0.4888888888888889,-0.3711111111111111,-0.45666666666666667,-0.005914267818379994,-0.018190175950066514,0.005806944064050177
1592167878.5494533,0.16768984653455832,8.870798532110866,4.3581706700904155,-0.4893012077149552,-0.3709049516980779,-0.458831340503515,-0.0056075661253205174,-0.01610395448433842,-0.02817428958171501
1592167878.5594532,-0.0006936720774093907,8.976344005576259,4.479296328822037,-0.49333333333333335,-0.3688888888888889,-0.48,-0.008189272209100987,-0.055687660320389805,0.0024415124114890423
1592167878.5694532,0.28423521765061033,8.837079878134608,4.597617911890747,-0.49333333333333335,-0.3688888888888889,-0.48,0.009745027191150094,-0.01184675412791902,0.0311075993202565
1592167878.5794532,0.2993615182389849,9.01065533228887,4.332101929826481,-0.49333333333333335,-0.3688888888888889,-0.48,0.015412152164532266,-0.03643152839598024,0.040518623768552024
1592167878.5894532,0.4421103098387971,8.744813749126875,4.420612171515076,-0.49333333333333335,-0.3688888888888889,-0.48,0.02361065070144645,0.03282276115873898,0.008391646364897979
1592167878.5994532,0.2503411058657666,8.96753954300624,4.168523350894105,-0.49333333333333335,-0.3688888888888889,-0.47993048410353994,0.01296831916676572,0.03363,-0.013928332781936155
1592167878.6094532,0.1681726352225988,8.969070703603697,4.307180241674402,-0.49333333333333335,-0.3688888888888889,-0.46555555555555556,0.004089,0.030773827256653303,0.013984186885958271
1592167878.6194532,0.1977781399874039,8.942137742166805,4.345295591488905,-0.49333333333333335,-0.3688888888888889,-0.46555555555555556,0.00631414867073853,0.044808653981302835,0.043151204184139896
1592167878.6294532,0.16517724745650242,8.906690337181661,4.25365276150815,-0.49333333333333335,-0.3688888888888889,-0.46555555555555556,0.00260273054988045,0.049366868513408685,0.02984343120267391
1592167878.6394532,0.20468484506889056,8.916471741824054,4.386981479738058,-0.49333333333333335,-0.3688888888888889,-0.46555555555555556,-0.004346984273392135,0.05649498030619533,0.04648463700705283
1592167878.6494532,0.2733851148025552,8.927045728758667,4.363204426132058,-0.49333333333333335,-0.3688888888888889,-0.46555555555555556,-0.0023023338141140897,0.06773228268411297,0.01723697527392744
1592167878.6594532,0.16701488187487873,9.012265649676742,4.503604564543017,-0.4988888888888889,-0.3688888888888889,-0.5011111111111111,0.0007236541612230443,0.04646091986729666,0.08541425597782869
1592167878.6694531,0.43837678362681776,8.911573751156732,4.499273661950313,-0.4988888888888889,-0.3688888888888889,-0.5011111111111111,0.016533282036274386,0.06136479250050723,0.10357325368141075
1592167878.6794531,0.35123054532458076,8.834657097302204,4.132911667990859,-0.4988888888888889,-0.3688888888888889,-0.5011111111111111,0.01730012229383779,0.10457187770616222,0.05548724550993357
1592167878.6894531,0.11142743760024645,8.929132591952685,4.014140691513697,-0.4988888888888889,-0.3688888888888889,-0.5011111111111111,-0.02158224250803327,0.07031833353860419,0.06030330125636468
1592167878.699453,0.12837943030508012,8.810777644982153,4.1934869492609215,-0.4988888888888889,-0.3688888888888889,-0.5011111111111111,-0.04465537658832756,0.0681847914156851,0.010390591856710502
1592167878.709453,-0.008931552817503945,8.922544154908612,4.194588181482511,-0.48,-0.37333333333333335,-0.5011111111111111,-0.05843339391280453,0.05685057328602071,-0.01812268856909451
1592167878.719453,0.08177993786467813,8.959343636938085,4.431150281068811,-0.48,-0.37333333333333335,-0.5011111111111111,-0.06555746577527548,0.04773022215683748,-0.0007698677542120752
1592167878.729453,0.24942302411997266,8.867285156542694,4.574317486314325,-0.48,-0.37333333333333335,-0.5011111111111111,-0.04758491182038314,0.05873133709006398,-0.016007410364373628
1592167878.739453,0.132301350703396,9.030400698907968,4.4754421327128195,-0.48,-0.37333333333333335,-0.5011111111111111,-0.041165594568992915,0.04609496541022342,0.011440770630748116
1592167878.749453,0.1825071188648357,9.001683996840681,4.5018078584208725,-0.48,-0.37333333333333335,-0.5011111111111111,-0.028544992718049965,0.029552694435742675,0.08120343679945964
1592167878.759453,0.47307332837806604,8.899539025245899,4.363653924237467,-0.5066666666666667,-0.36,-0.5366666666666666,-0.023284735150371872,0.061427099094201396,0.09030618199189631
1592167878.769453,0.3283769226127125,8.826600016556956,4.03821180758413,-0.5066666666666667,-0.36,-0.5366666666666666,-0.03828407603696445,0.0718565394680819,0.04902300258897872
1592167878.779453,0.017140216196741085,8.909149896349994,3.9732797921235985,-0.5066666666666667,-0.36,-0.5366666666666666,-0.0821095303687902,0.04093554929830068,0.050781009529725196
1592167878.789453,-0.0010642578495603065,8.902627164060124,4.176059517933971,-0.5066666666666667,-0.36,-0.5366666666666666,-0.11071925835433158,0.028375878103584433,0.05607444072142585
1592167878.799453,0.06489891613126897,8.89290062112726,4.308248495477108,-0.5066666666666667,-0.36,-0.5366666666666666,-0.12538490918397205,0.016387596999967977,0.06341850618394003
1592167878.809453,0.09691728114919032,8.922019738425426,4.491290431778466,-0.4922222222222222,-0.37333333333333335,-0.5366666666666666,-0.1250027957411112,0.0037203602980410743,0.08169074292209938
1592167878.819453,0.33353363385058427,8.825054938125586,4.787658637484202,-0.4922222222222222,-0.37333333333333335,-0.5366666666666666,-0.10154288041512437,0.02443558926627147,0.04675267509078747
1592167878.829453,0.2717921969010994,8.873734710379932,4.616521678823145,-0.4922222222222222,-0.37333333333333335,-0.5366666666666666,-0.0656374068244775,0.04420543702690916,-0.02921303868048031
1592167878.839453,0.12828164537265854,8.962619045181542,4.431221091362221,-0.4922222222222222,-0.37333333333333335,-0.5366666666666666,-0.04880901267620505,0.0013085356640989265,-0.07414165594233213
1592167878.849453,0.114298863873893,8.922968269669623,4.355793862165945,-0.4922222222222222,-0.37333333333333335,-0.5366666666666666,-0.047180315025719406,0.007218556083033439,-0.05289905893333849
1592167878.859453,0.21555542572660036,8.929410914569512,4.1968098875644175,-0.4988888888888889,-0.38666666666666666,-0.5288888888888889,-0.06644331181490518,-0.02273739291423535,-0.030139925657793075
1592167878.869453,0.13020896584495528,8.87814452000843,4.24364188642045,-0.4988888888888889,-0.38666666666666666,-0.5288888888888889,-0.09131684797606432,-0.04025225372341623,-0.01772889137897213
1592167878.879453,0.09220558801314443,8.933040758782054,4.421940710286882,-0.4988888888888889,-0.38666666666666666,-0.5288888888888889,-0.10428545644105085,-0.05037703674786999,-0.0031344611224751037
1592167878.889453,0.17367650118490244,8.908033414751985,4.6284354173742,-0.4988888888888889,-0.38666666666666666,-0.5288888888888889,-0.09779129340142623,-0.033493,0.026487343068945898
1592167878.899453,0.182495328466252,8.910294813584214,4.801099224863588,-0.4988888888888889,-0.38666666666666666,-0.5288888888888889,-0.07193022838471112,-0.04929587229288902,0.02760157743557064
1592167878.909453,0.1685616172276401,8.940183330473367,4.922062868854967,-0.4988888888888889,-0.36777777777777776,-0.5644444444444444,-0.017971690716224824,-0.03821140059876973,0.016773813685972774
1592167878.919453,0.21721027234488918,8.840303585222282,4.851443857567172,-0.4988888888888889,-0.36777777777777776,-0.5644444444444444,0.02948329807442738,-0.0055878672325803975,0.009601298074427379
1592167878.929453,0.24296514742911124,8.961259935171753,4.684967559189726,-0.4988888888888889,-0.36777777777777776,-0.5644444444444444,0.0502439618475235,-0.020889242615043983,0.03194621760188639
1592167878.939453,0.27087377574136917,8.936593689615476,4.615285289058895,-0.4988888888888889,-0.36777777777777776,-0.5644444444444444,0.0921081602317911,-0.027535133871200473,-0.01371864398989514
1592167878.9494529,0.036916612270794215,8.966491480419894,4.520512687518804,-0.4988888888888889,-0.36777777777777776,-0.5644444444444444,0.12628130943244975,-0.025548291599613013,-0.04838638113510053
1592167878.9594529,0.03329725048178631,8.903987291433804,4.301659286685148,-0.5066666666666667,-0.36777777777777776,-0.5555555555555556,0.12089710895343969,-0.030125324485553013,-0.03188094183953808
1592167878.9694529,0.19185944659794218,8.888575520766022,4.269500295199186,-0.5066666666666667,-0.36777777777777776,-0.5555555555555556,0.1006497016498637,-0.04060630861237026,-0.020724157996536853
1592167878.9794528,0.2314082449468139,8.790832296214205,4.2221582522942,-0.5066666666666667,-0.36777777777777776,-0.5555555555555556,0.08020662373361186,-0.0150916212197454,-0.028969310609872703
1592167878.9894528,0.08763089877644714,8.85882261173359,4.272665496496654,-0.5066666666666667,-0.36777777777777776,-0.5555555555555556,0.05254290119511958,-0.012804910226311531,-0.023695024345927053
1592167878.9994528,0.0050584823946140615,8.914483471472543,4.440163686014676,-0.5066666666666667,-0.36777777777777776,-0.5555555555555556,0.0478585751473531,-0.043033877495275596,-0.016693258650503463
1592167879.0094528,0.10307244017080983,8.90386220462859,4.518646098133359,-0.4866666666666667,-0.37333333333333335,-0.5511111111111111,0.05413892471662485,-0.02893598889120016,-0.0008421319316216936
1592167879.0194528,0.2422125844231435,8.824355466331523,4.2810505657680995,-0.4866666666666667,-0.37333333333333335,-0.5511111111111111,0.04573335226631883,0.002596337491785639,-0.006102156194125796
1592167879.0294528,0.20829782416017445,8.88303537342757,4.180499682625252,-0.4866666666666667,-0.37333333333333335,-0.5511111111111111,0.016302453794431716,-0.033599009038427094,-0.016613792437021824
1592167879.0394528,0.1634758636475139,8.848467947728347,4.412623811375861,-0.4866666666666667,-0.37333333333333335,-0.5511111111111111,0.009553183359611715,-0.023082925053850123,-0.028235447297147942
1592167879.0494528,0.1955985326145212,8.83591428839191,4.3571127454565195,-0.4866666666666667,-0.37333333333333335,-0.5511111111111111,-0.005691752652437288,-0.01227388542759309,-0.008911042531863492
1592167879.0594528,0.24554431698805151,8.817070437101615,4.401288056637281,-0.4866666666666667,-0.39444444444444443,-0.5844444444444444,-0.015076,-0.013921502477037783,-0.02074743995795822
1592167879.0694528,0.1375539008899273,8.95010743957952,4.518860378168887,-0.4866666666666667,-0.39444444444444443,-0.5844444444444444,-0.0058530776785614275,-0.015423115394847552,-0.033587186505375365
1592167879.0794528,0.19655378636068344,8.861984627428178,4.496131772958054,-0.4866666666666667,-0.39444444444444443,-0.5844444444444444,0.014845042017270386,0.016204394267982137,-0.05259835225071175
1592167879.0894527,0.1323493880904299,8.894612955758598,4.247611692156556,-0.4866666666666667,-0.39444444444444443,-0.5844444444444444,0.0075484642157637605,0.008937608504067938,-0.04804820743696785
1592167879.0994527,0.14135079717503354,8.91902209541187,4.251756997259754,-0.4866666666666667,-0.39444444444444443,-0.5844444444444444,-0.01823578106331808,0.0072996795942425665,0.012885124311047056
1592167879.1094527,0.3032041119878364,8.851344711155946,4.14334991382148,-0.4922222222222222,-0.36777777777777776,-0.5911111111111111,-0.05474830698722126,0.016362873521596967,0.0588014194477789
1592167879.1194527,0.3880148828736382,8.919027742847453,4.204709774679231,-0.4922222222222222,-0.36777777777777776,-0.5911111111111111,-0.08685704242332344,0.01560829949993682,0.06929151972795329
1592167879.1294527,0.3405216647446165,8.800001566208188,4.407124524291591,-0.4922222222222222,-0.36777777777777776,-0.5911111111111111,-0.08975521857989678,0.04253592694505154,0.023207736990368804
1592167879.1394527,0.15573512560087363,8.944851951059572,4.531857652115493,-0.4922222222222222,-0.36777777777777776,-0.5911111111111111,-0.08935084896052012,0.02334118512118432,0.036180959961165035
1592167879.1494527,0.3611402670399976,8.902529691446423,4.689322046623084,-0.4922222222222222,-0.36777777777777776,-0.5911111111111111,-0.07199478561058556,0.03592254663627288,0.0625310396227213
1592167879.1594527,0.47251538700371926,8.904884545096714,4.604899395592479,-0.4722222222222222,-0.4,-0.5844444444444444,-0.04270338318700478,0.04433067457801697,0.04820919406489353
1592167879.1694527,0.3934142953605234,8.883129208727736,4.510893588986664,-0.4722222222222222,-0.4,-0.5844444444444444,-0.015478375444332022,0.056,-0.007379567109379552
1592167879.1794527,0.11178555240206926,8.915824668923003,4.415198966444399,-0.4722222222222222,-0.4,-0.5844444444444444,-0.010818,0.026859630475426756,-0.017451494799802673
1592167879.1894526,0.11575796415015036,8.82614070295711,4.496152504047887,-0.4722222222222222,-0.4,-0.5844444444444444,-0.0103681388350716,-0.0016378837505011297,-0.02512660330062026
1592167879.1994526,0.20723911371522385,8.808294013745009,4.364867606551016,-0.4722222222222222,-0.4,-0.5844444444444444,-0.020364365462936115,0.0038986720486375113,-0.04928636352382289
1592167879.2094526,0.1534332092090983,8.810537772355943,4.356900599136353,-0.4863144219078967,-0.38699181567476204,-0.6050407362927378,-0.04231288899680825,-0.017074992821919675,-0.0627933130896557
1592167879.2194526,0.23390241712569274,8.782887505987091,4.294461364853867,-0.4866666666666667,-0.38666666666666666,-0.6055555555555555,-0.07648580757340512,-0.012757247338980003,-0.05072057007749228
1592167879.2294526,0.2786898615514605,8.82451457857639,4.440608158243335,-0.4866666666666667,-0.38666666666666666,-0.6055555555555555,-0.09524702604339301,-0.03499511597090314,-0.054499881509337086
1592167879.2394526,0.14220338667897914,8.863894427738673,4.738244946658817,-0.4866666666666667,-0.38666666666666666,-0.6055555555555555,-0.09101983835751291,-0.03136869146302568,-0.004513182796619069
1592167879.2494526,0.4242199034241588,8.835838585414796,4.872627460976763,-0.4866666666666667,-0.38666666666666666,-0.6055555555555555,-0.06390235939903716,-0.022940047004861356,0.015349430076845326
1592167879.2594526,0.3460727398084307,8.88436501553449,4.878365601730097,-0.47234506564313383,-0.3800566969634977,-0.6264871262822574,-0.017945191735824095,-0.03349848634898725,-0.04348868457670936
1592167879.2694526,0.11287503078280783,8.887797707903923,5.000386749439871,-0.4722222222222222,-0.38,-0.6266666666666667,0.0322546644363194,-5.536777472451063e-05,-0.026542753723524486
1592167879.2794526,0.23360838952511348,8.787191056699857,4.902814769463128,-0.4722222222222222,-0.38,-0.6266666666666667,0.0673349318349337,-0.024068139475289414,-0.025601001487229956
1592167879.2894526,0.1268951909046499,8.847306319645869,4.640605169803613,-0.4722222222222222,-0.38,-0.6266666666666667,0.0823997401928155,-0.004459731953829819,-0.03250130156855732
1592167879.2994525,0.14405618480586857,8.86698809958329,4.601423360084158,-0.4722222222222222,-0.38,-0.6266666666666667,0.0902516643018539,-0.01217557419317926,0.0026653766845322674
1592167879.3094525,0.2755177203808305,8.79618092741225,4.590695115657255,-0.4722222222222222,-0.38666666666666666,-0.6266666666666667,0.09443155879666952,-0.00918319776156819,0.016728005474118908
1592167879.3194525,0.37321376875646034,8.807071762283867,4.482913865046294,-0.4722222222222222,-0.38666666666666666,-0.6266666666666667,0.0971222949111361,0.0549649999865649,0.0119515822118022
1592167879.3294525,0.19753102900089609,8.877550032163821,4.403906510610392,-0.4722222222222222,-0.38666666666666666,-0.6266666666666667,0.09371485370780563,0.03560314629219437,-0.019164954350185958
1592167879.3394525,0.005278525899094291,8.905914772940546,4.445069804139706,-0.4722222222222222,-0.38666666666666666,-0.6266666666666667,0.0877633338865275,0.04583683349235778,0.016441846934824974
1592167879.3494525,0.3232171458516345,8.809071395887228,4.405606141960965,-0.4722222222222222,-0.38666666666666666,-0.6266666666666667,0.08140166788594215,0.07322723696889825,0.027271196914384038
1592167879.3594525,0.13407270348184622,8.81083062046651,4.240556948219945,-0.45623100479574735,-0.3979545848500607,-0.6332512856069799,0.06843402391585765,0.053646047831715296,-0.06147105465066867
1592167879.3694525,-0.195862,8.97035548359905,4.404580257052387,-0.4533333333333333,-0.4,-0.6344444444444445,0.050927321073096755,0.02466184884053202,-0.03019582434020882
1592167879.3794525,0.08133280731975721,8.911470923132214,4.577048743602556,-0.4533333333333333,-0.4,-0.6344444444444445,0.05530136371912372,0.008101035824146485,0.042712920082068694
1592167879.3894525,0.2734212493710826,8.832191840738615,4.425880231881619,-0.4533333333333333,-0.4,-0.6344444444444445,0.06584701353962011,0.013382,0.0061401835493268345
1592167879.3994524,0.15252390434178914,8.886219960373268,4.397622931492986,-0.4533333333333333,-0.4,-0.6344444444444445,0.05953821305520061,0.04723858391878589,-0.017751360834398173
1592167879.4094524,0.17403127161921295,8.903903850150776,4.510362927123136,-0.4624975076281683,-0.40499864052445544,-0.6394430849688999,0.05539672700270315,0.043190989786313305,0.00011764671233512047
1592167879.4194524,0.22875766358881927,8.942884683385884,4.710867000879276,-0.46555555555555556,-0.4066666666666667,-0.6411111111111111,0.0737457681865972,0.03731372330447231,0.04369321669330917
1592167879.4294524,0.33649354562545314,8.913848464207367,4.763850468319789,-0.46555555555555556,-0.4066666666666667,-0.6411111111111111,0.10713372241350999,0.04932009800548019,0.07439537165560374
1592167879.4394524,0.41007435795081904,8.873956923691457,4.68282824427735,-0.46555555555555556,-0.4066666666666667,-0.6411111111111111,0.1359352098925319,0.08067439876644181,0.06848397499041257
1592167879.4494524,0.38582955892996235,8.849854226798017,4.501784259924882,-0.46555555555555556,-0.4066666666666667,-0.6411111111111111,0.1537013845204953,0.11039909599614157,0.03656997489537727
1592167879.4594524,0.20390254117842962,8.947275342735646,4.384924726792082,-0.46555555555555556,-0.39676981209150325,-0.6411111111111111,0.15574218210081664,0.09767017668366325,0.0397021555572674
1592167879.4694524,0.24647563000515005,8.898155081292208,4.414326077275176,-0.46555555555555556,-0.39444444444444443,-0.6411111111111111,0.15723187401101468,0.09896344931665885,0.06207256127335613
1592167879.4794524,0.2702968205035975,8.876736723759207,4.404845220407798,-0.46555555555555556,-0.39444444444444443,-0.6411111111111111,0.1584795187938389,0.1033105891278919,0.043102487234911044
1592167879.4894524,0.07862110014393107,8.945488238230196,4.338658227029232,-0.46555555555555556,-0.39444444444444443,-0.6411111111111111,0.15823785290217493,0.08357000102524728,0.03215
1592167879.4994524,0.1595269342726796,8.888497488869831,4.252234768830868,-0.46555555555555556,-0.39444444444444443,-0.6411111111111111,0.16244105106154663,0.10358888978415436,0.013133883683640187
1592167879.5094523,0.10528141527046711,8.978929146842653,4.081141121222174,-0.44611413187488735,-0.40821545288491773,-0.6257199840305822,0.1471057523899029,0.059479035512286636,-0.0009461938978181203
1592167879.5194523,0.11777448559205189,9.000247685267414,4.157700840625619,-0.4388888888888889,-0.41333333333333333,-0.62,0.13034722877571306,0.035901266610381545,0.02144662427876612
1592167879.5294523,0.3095780016378893,8.90828794502442,4.2139328233393245,-0.4388888888888889,-0.41333333333333333,-0.62,0.11790751337630716,0.04318631251123464,0.01283829294250565
1592167879.5394523,0.2633875096855527,8.982666034335244,4.107673914520911,-0.4388888888888889,-0.41333333333333333,-0.62,0.10699581552695371,0.027892698275850523,0.0009343510169936346
1592167879.5494523,0.22714417412785198,8.990471097496282,4.180681708182447,-0.4388888888888889,-0.41333333333333333,-0.62,0.103165,0.020620883551856872,0.0037801574262291433
1592167879.5594523,0.2676741804353188,8.951922150533703,4.096837431139414,-0.43097578644563217,-0.42196580872597705,-0.6243162376963218,0.09349330394649302,0.03201443557247843,-0.011670775952745623
1592167879.5694523,0.14485244617674473,9.068852622550425,3.9248164566178523,-0.4266666666666667,-0.4266666666666667,-0.6266666666666667,0.07567788644416969,0.022559323998623045,-0.0095726736678282
1592167879.5794523,0.13143205070015182,9.011215533662444,4.014523546567996,-0.4266666666666667,-0.4266666666666667,-0.6266666666666667,0.05549935763234939,0.013291683468455068,0.012610002364431864
1592167879.5894523,0.18169925297104764,9.011405864117823,3.993702300395281,-0.4266666666666667,-0.4266666666666667,-0.6266666666666667,0.04210947092148554,0.01948362363873167,0.01950947233419855
1592167879.5994523,0.17760701194040954,9.037984550139464,3.952915209532195,-0.4266666666666667,-0.4266666666666667,-0.6266666666666667,0.02409341434448897,0.02532497985205606,0.017864340049314646
1592167879.6094522,0.12817305493368014,8.97678179484036,3.9976831308810192,-0.4176968737633558,-0.42292925295695377,-0.6221817702150112,0.003575116778327045,0.015276078691702886,0.017626026877603094
1592167879.6194522,0.1285053795413948,8.983878052988645,4.173368764561856,-0.41333333333333333,-0.4211111111111111,-0.62,-0.008366252311228525,-0.009313186143755136,0.011576466259681343
1592167879.6294522,0.08897847343891185,9.002403147900823,4.278192338382388,-0.41333333333333333,-0.4211111111111111,-0.62,-0.013348988884346382,-0.030176103921586574,0.03258692690959689
1592167879.6394522,0.033676113012478685,9.05331356394436,4.3950514591259315,-0.41333333333333333,-0.4211111111111111,-0.62,-0.004400860192050193,-0.06821922056557768,0.0629528617077586
1592167879.6494522,0.24728965390538377,8.985439572281171,4.459099505793571,-0.41333333333333333,-0.4211111111111111,-0.62,0.015197840807358799,-0.0646520213820064,0.06470281001147062
1592167879.6594522,0.306803584933822,8.909229769423193,4.278581708646373,-0.4092808000728996,-0.4163831556406051,-0.62,0.032852,-0.045351494548917036,-0.004621850887939705
1592167879.6694522,0.11281379284087058,9.006378231445614,4.210886776631183,-0.4066666666666667,-0.41333333333333333,-0.62,0.02988883056639364,-0.05989416943360636,-0.01719352724646877
1592167879.6794522,0.24786882877232652,8.992286099805455,4.371005437230566,-0.4066666666666667,-0.41333333333333333,-0.62,0.04082751481434712,-0.05115689603086185,-0.01582984448288422
1592167879.6894522,0.32894065082214047,9.005415011813934,4.302270188980994,-0.4066666666666667,-0.41333333333333333,-0.62,0.05496989997267174,-0.04322788439582808,-0.03660664656570159
1592167879.6994522,0.28811524676818545,9.005435765628766,4.343040820454424,-0.4066666666666667,-0.41333333333333333,-0.62,0.06695834270068471,-0.056626663568312766,-0.049221047129307596
1592167879.7094522,0.33132154474563547,8.99643318865901,4.336558946329478,-0.4182024762418683,-0.42102387305013445,-0.6334584445044018,0.08484835705304,-0.05054828100491547,-0.060963367875122076
1592167879.7194521,0.29317609287146323,9.009424092871464,4.295144782144547,-0.4266666666666667,-0.4266666666666667,-0.6433333333333333,0.09586385642772174,-0.05521970389885825,-0.05898361462900888
1592167879.7294521,0.27562074403272535,8.981469852620041,4.181638418091249,-0.4266666666666667,-0.4266666666666667,-0.6433333333333333,0.09342904633009765,-0.057837156908531986,-0.04404904513716347
1592167879.7394521,0.22123144159399438,9.046307508347148,4.1044573721170865,-0.4266666666666667,-0.4266666666666667,-0.6433333333333333,0.08180777868500344,-0.0854578730851635,-0.020861058875165792
1592167879.749452,0.3693055176973717,9.035912811866007,4.105432443429874,-0.4266666666666667,-0.4266666666666667,-0.6433333333333333,0.08077622671447288,-0.06656918802171113,0.002244038692761739
1592167879.759452,0.36232906603200893,9.024766115231753,3.990464295444697,-0.4188324607329843,-0.42209671320535197,-0.6348462769051775,0.06937339873416626,-0.07926281960910388,-0.007166458827311641
1592167879.769452,0.266829697775207,9.02554759860931,3.945852482459401,-0.41333333333333333,-0.41888888888888887,-0.6288888888888889,0.051529915543162906,-0.0915060844568371,0.006011084456837094
1592167879.779452,0.41212640629659436,9.001829273527637,4.033658873549707,-0.41333333333333333,-0.41888888888888887,-0.6288888888888889,0.039740615269063306,-0.07128514040298872,-0.003283172882477943
1592167879.789452,0.5047580703860604,8.932365585692006,4.090968920187155,-0.41333333333333333,-0.41888888888888887,-0.6288888888888889,0.042309788185676114,-0.033945497122278796,-0.05767360483478176
1592167879.799452,0.3506098449754599,8.980547038551359,4.0578517244551895,-0.41333333333333333,-0.41888888888888887,-0.6288888888888889,0.03940078899529634,-0.017528174961588476,-0.11771025925212365
1592167879.809452,0.11683072091881368,9.09969192179261,4.173601029566537,-0.41333333333333333,-0.42196873402001606,-0.6251930747315363,0.04187398468333833,-0.025787269898736476,-0.10826841488152446
1592167879.819452,0.15736635988807063,9.098406065626207,4.292958527803737,-0.41333333333333333,-0.42444444444444446,-0.6222222222222222,0.05584316987727353,-0.032625758739709534,-0.06911627404128082
1592167879.829452,0.24216595952636386,9.126905817176437,4.193091170993846,-0.41333333333333333,-0.42444444444444446,-0.6222222222222222,0.07138380936793974,-0.0458685820432891,-0.0327281917472549
1592167879.839452,0.28496173306028294,9.103978336709558,4.07498568014512,-0.41333333333333333,-0.42444444444444446,-0.6222222222222222,0.07174279562176626,-0.06540564332488553,0.0030252045425784597
1592167879.849452,0.2821401868839978,9.05526452309325,4.029789924505822,-0.41333333333333333,-0.42444444444444446,-0.6222222222222222,0.06357935850265224,-0.09504249406134457,0.03557382986561932
1592167879.859452,0.46177680427183276,9.008111318565533,4.07381930708691,-0.402815876265211,-0.42444444444444446,-0.6259342658933242,0.05726934938431363,-0.09525790301651468,0.03066326709432252
1592167879.869452,0.5965436126945962,8.934939875392166,4.088148573069344,-0.39444444444444443,-0.42444444444444446,-0.6288888888888889,0.05557777905452394,-0.05337290893255251,-0.02111928375910847
1592167879.879452,0.4467048212193283,9.030724225862931,4.023370391195904,-0.39444444444444443,-0.42444444444444446,-0.6288888888888889,0.048920331148781464,-0.06937228814641327,-0.04659966885121854
1592167879.889452,0.3490445405012101,9.08561654702339,4.091177041660099,-0.39444444444444443,-0.42444444444444446,-0.6288888888888889,0.04905853540568569,-0.080353,-0.03855931644626906
1592167879.899452,0.3757759486059582,9.05478818690404,4.0808026606158565,-0.39444444444444443,-0.42444444444444446,-0.6288888888888889,0.05661746581248062,-0.06642934217958141,-0.04368902454505074
1592167879.909452,0.3410759846377029,9.110196586806053,3.8338260645894024,-0.38971031822290547,-0.4318837856497199,-0.6160391177161403,0.057505460585625834,-0.054049549234103246,-0.06842490626829022
1592167879.919452,0.19215929188179037,9.082225948138749,3.6469824738556564,-0.38666666666666666,-0.43666666666666665,-0.6077777777777778,0.03142369730357634,-0.07367011894823412,-0.08189289938416384
1592167879.929452,0.20586338477272959,9.078416563979093,3.6410459951963694,-0.38666666666666666,-0.43666666666666665,-0.6077777777777778,-0.005468220002982725,-0.08673476942892747,-0.08291411528553627
1592167879.939452,0.14770902746158104,9.11816861293812,3.715455695322863,-0.38666666666666666,-0.43666666666666665,-0.6077777777777778,-0.03866866024623403,-0.10670326779376677,-0.057237834637760034
1592167879.949452,0.19344900787177496,9.103476446814136,3.9031300469416457,-0.38666666666666666,-0.43666666666666665,-0.6077777777777778,-0.05900376582299047,-0.12464377703156378,-0.02404259953264329
1592167879.959452,0.21367725611225727,9.16478415683279,4.153040677607185,-0.3901864298951678,-0.4341525500748802,-0.6012410746391329,-0.066208,-0.15278848300159545,0.01066001445800524
1592167879.969452,0.3576629583021563,9.061457837044774,4.359055047944735,-0.39444444444444443,-0.4311111111111111,-0.5933333333333334,-0.06161743744562937,-0.15783497366911373,0.04218431230400241
1592167879.979452,0.4188945518769365,8.948427522442108,4.239187632137027,-0.39444444444444443,-0.4311111111111111,-0.5933333333333334,-0.04626862266269521,-0.14455682193167346,0.009598182269098853
1592167879.989452,0.3112227443372436,9.032921803524342,4.133116297092234,-0.39444444444444443,-0.4311111111111111,-0.5933333333333334,-0.04101174689601139,-0.160248,-0.005142
1592167879.9994519,0.38099945767587867,9.022896454383325,4.122368568005094,-0.39444444444444443,-0.4311111111111111,-0.5933333333333334,-0.03254223184052866,-0.15659792201777908,-0.01027774286264015
1592167880.0094519,0.46785953737967306,9.010261214241387,4.146438095298995,-0.392761681055845,-0.4311111111111111,-0.591314017267014,-0.02578945807287248,-0.13763990766236098,-0.025034344713583102
1592167880.0194519,0.41796069684093656,9.058872736213873,4.140827309627794,-0.3888888888888889,-0.4311111111111111,-0.5866666666666667,-0.013214007391412888,-0.11280366513800287,-0.0325777401927966
1592167880.0294518,0.5527843563381365,8.955144585547734,4.03728036942429,-0.3888888888888889,-0.4311111111111111,-0.5866666666666667,-0.0069036410516411075,-0.07678445158682685,-0.04851887043466453
1592167880.0394518,0.5168118005107488,9.051999387323903,4.170712096352466,-0.3888888888888889,-0.4311111111111111,-0.5866666666666667,-0.00442604267181448,-0.06649988497605559,-0.059464842304241115
1592167880.0494518,0.5159836254311709,9.078265684810226,4.286360745720869,-0.3888888888888889,-0.4311111111111111,-0.5866666666666667,0.011271757901331874,-0.04779565142375743,-0.050020621049334066
1592167880.0594518,0.566575603606713,9.04701716833528,4.27814184361731,-0.3888888888888889,-0.4334223557794049,-0.5902986225739855,0.0309257909989043,-0.029657456181191623,-0.048813
1592167880.0694518,0.4846511874805505,9.091697074469465,4.108982022204399,-0.3888888888888889,-0.4388888888888889,-0.5988888888888889,0.04376422264937292,-0.015405821535977984,-0.043929599341263184
1592167880.0794518,0.416797924313387,9.08788840532662,3.9041635917468724,-0.3888888888888889,-0.4388888888888889,-0.5988888888888889,0.038838532067958335,-0.0028457244104472903,-0.020608425848256957
1592167880.0894518,0.35696017531830865,9.120393774949779,3.7946455437813476,-0.3888888888888889,-0.4388888888888889,-0.5988888888888889,0.022380189662689464,0.006140807301745457,-0.008646434317386873
1592167880.0994518,0.2881989469185076,9.12092615300783,3.8328089880297256,-0.3888888888888889,-0.4388888888888889,-0.5988888888888889,-0.0016404206089531833,0.008882218535945296,0.015348173940841555
1592167880.1094518,0.34941368505636183,9.073326866446639,3.7992046432313016,-0.3867086401905221,-0.4410691375872557,-0.5894411445292994,-0.02582711886929819,-0.005835465059261039,0.031173693915998075
1592167880.1194518,0.38115051124551613,9.080976137110241,3.918014346571549,-0.38222222222222224,-0.44555555555555554,-0.57,-0.048973552664814804,-0.018485398694992862,0.0553825526648148
1592167880.1294518,0.49109459223089585,9.038635877138315,4.046939350292936,-0.38222222222222224,-0.44555555555555554,-0.57,-0.053386981601391284,-0.010397751868951751,0.059746963202782576
1592167880.1394517,0.6101277671397404,9.003990903500325,4.187405116525094,-0.38222222222222224,-0.44555555555555554,-0.57,-0.044298793998105164,0.023338492301335043,0.052919678056289804
1592167880.1494517,0.7075023884744162,8.930283697476206,4.1935644901982,-0.38222222222222224,-0.44555555555555554,-0.57,-0.029869514592695396,0.09419523090839066,0.008117466267855436
1592167880.1594517,0.549319351935164,9.021374648064835,4.192472903681915,-0.3866750553786062,-0.4433291389773636,-0.5725974860078906,-0.014946078337512703,0.13817146017726256,-0.016463801102150056
1592167880.1694517,0.4999480698619578,9.099680493369947,4.339355039267426,-0.39555555555555555,-0.4388888888888889,-0.5777777777777777,0.0015837593906439544,0.14366138676075813,0.014830699021595473
1592167880.1794517,0.534170420127339,9.079055104004984,4.4582047587640945,-0.39555555555555555,-0.4388888888888889,-0.5777777777777777,0.023065958427842016,0.13628111127267045,0.036978093646621274
1592167880.1894517,0.5425790055958835,9.055612504361362,4.497280756205355,-0.39555555555555555,-0.4388888888888889,-0.5777777777777777,0.05050183084114416,0.12654043394816475,0.040447911342640336
1592167880.1994517,0.5374842304971883,8.998430133924094,4.532993414293926,-0.39555555555555555,-0.4388888888888889,-0.5777777777777777,0.08024417325474306,0.11664626788197814,0.038472522437065525
1592167880.2094517,0.5408458957274078,8.987519508914705,4.546469489802459,-0.39555555555555555,-0.4388888888888889,-0.5766870639591534,0.12121322972011489,0.12374659573330013,0.02773866651047138
1592167880.2194517,0.5429641478804208,9.01795041254742,4.4484860225114815,-0.39555555555555555,-0.4388888888888889,-0.57,0.1560224117985824,0.13752823465369624,0.015281735789523961
1592167880.2294517,0.5467776403241876,9.08686825172229,4.297667715978204,-0.39555555555555555,-0.4388888888888889,-0.57,0.18431634775732084,0.15487531255302,0.011902
1592167880.2394516,0.516458313299734,9.101665562031371,4.171176764954595,-0.39555555555555555,-0.4388888888888889,-0.57,0.20252807789806987,0.17314231200318214,0.023879045690528664
1592167880.2494516,0.4840102388539224,9.12248558389697,3.9856735435660724,-0.39555555555555555,-0.4388888888888889,-0.57,0.20168008967932394,0.16702491128022504,0.040038307684492555
1592167880.2594516,0.46352188788528254,9.086142663008001,3.884381430527667,-0.3903623450946476,-0.437522254557071,-0.571913288064545,0.1926224190000051,0.15868720454821295,0.05134152488409901
1592167880.2694516,0.47805962089966403,9.094391,3.772461718806614,-0.37444444444444447,-0.43333333333333335,-0.5777777777777777,0.17587558194843173,0.1587186928477068,0.05254218856221964
1592167880.2794516,0.4252956621257141,9.087376751748613,3.732265246581788,-0.37444444444444447,-0.43333333333333335,-0.5777777777777777,0.15381062663656234,0.14624553897535617,0.04782653897535615
1592167880.2894516,0.3441672044239757,9.029787599065955,3.643691497289813,-0.37444444444444447,-0.43333333333333335,-0.5777777777777777,0.12691139773871124,0.12771078697232374,0.02773242728561677
1592167880.2994516,0.274617853645187,9.102717610000111,3.621873153977894,-0.37444444444444447,-0.43333333333333335,-0.5777777777777777,0.09482791192031714,0.10510160370871882,0.014109795808061947
1592167880.3094516,0.24083995272088585,9.136960245075448,3.6658232017650705,-0.3735279931093885,-0.43534952627045653,-0.5764947459086993,0.06760385162876224,0.09143267925100027,0.007739948675134768
1592167880.3194516,0.3329746612569316,9.16116579811026,3.6868107137568864,-0.3688888888888889,-0.44555555555555554,-0.57,0.04304315802540668,0.07532197903539127,0.012511948621755578
1592167880.3294516,0.45643237106402185,9.115675797514273,3.8516363911120433,-0.3688888888888889,-0.44555555555555554,-0.57,0.02943818550042713,0.08072376199723405,0.021287420330553836
1592167880.3394516,0.5517677112820163,9.113471562479676,3.9479474277622035,-0.3688888888888889,-0.44555555555555554,-0.57,0.0311284822779062,0.09341843325585134,0.02776705995237465
1592167880.3494515,0.6611086209061582,9.097675063721958,4.033058624185362,-0.3688888888888889,-0.44555555555555554,-0.57,0.04042418369655289,0.09573029865876807,0.035714350670615964
1592167880.3594515,0.7013357953100784,9.113378315114712,4.095434895233015,-0.3688888888888889,-0.44555555555555554,-0.565250330919567,0.050546017975747114,0.09364988615429291,0.03499144307714646
1592167880.3694515,0.654332891065428,9.10732106851991,4.114396348148038,-0.3688888888888889,-0.44555555555555554,-0.5422222222222223,0.06735315697545423,0.09052030307697355,0.033639767240758844
1592167880.3794515,0.5847854639691729,9.112185810957824,4.071106309347029,-0.3688888888888889,-0.44555555555555554,-0.5422222222222223,0.08299458341534614,0.0898041740047934,0.028598856344124433
1592167880.3894515,0.5879592424572406,9.09358448241689,3.9827209375240624,-0.3688888888888889,-0.44555555555555554,-0.5422222222222223,0.09059509035784379,0.08842683242398035,0.017009909642156214
1592167880.3994515,0.613598355832541,9.111019730275244,3.9331071233003985,-0.3688888888888889,-0.44555555555555554,-0.5422222222222223,0.09830844389113225,0.0981292549067713,0.0049254251222871775
1592167880.4094515,0.5787381166192,9.123446325883812,3.9752482028652563,-0.3689434573323573,-0.44569743350857344,-0.5423422727978529,0.10589246371096234,0.10773562446137917,-0.007218122885326273
1592167880.4194515,0.49733757401964734,9.140622432469746,3.8708063508630812,-0.37444444444444447,-0.46,-0.5544444444444444,0.10903491753251277,0.10980036642046916,-0.015594355224522339
1592167880.4294515,0.4139028409541087,9.157535889379966,3.816789722237123,-0.37444444444444447,-0.46,-0.5544444444444444,0.10166184154073579,0.0903210397880199,-0.023254
1592167880.4394515,0.3523550061448758,9.172380287286563,3.746534184934786,-0.37444444444444447,-0.46,-0.5544444444444444,0.09184154078531294,0.061653196174702614,-0.021850559293659155
1592167880.4494514,0.2648479061580974,9.158654641291982,3.598917434552302,-0.37444444444444447,-0.46,-0.5544444444444444,0.07446380794121062,0.02810086976372729,-0.01784496049747501
1592167880.4594514,0.15514818685866869,9.163055977419475,3.557199162789451,-0.3753312039555899,-0.45835316090787287,-0.5572314029080442,0.04812561552756542,-0.004314066078514534,-0.015592433143335523
1592167880.4694514,0.12941943269794126,9.167798891807367,3.5248333751455094,-0.38222222222222224,-0.44555555555555554,-0.5788888888888889,0.018764861607045782,-0.02614332796389095,-0.010400721328424307
1592167880.4794514,0.16788642402864679,9.173078418871212,3.5412332460434564,-0.38222222222222224,-0.44555555555555554,-0.5788888888888889,-0.007555375647057338,-0.031357,-0.010452261764666147
1592167880.4894514,0.17870945862957555,9.157681660958668,3.574275680598066,-0.38222222222222224,-0.44555555555555554,-0.5788888888888889,-0.03175767079261972,-0.026129755141109285,-0.016761811450747916
1592167880.4994514,0.18615132200357073,9.13567511237396,3.680529820362322,-0.38222222222222224,-0.44555555555555554,-0.5788888888888889,-0.04673957173992757,-0.014738141455098662,-0.02093628493495381
1592167880.5094514,0.1611394543617566,9.148252415647374,3.7842588321587884,-0.38222222222222224,-0.44555555555555554,-0.5788888888888889,-0.054238048963022936,-0.00711703404291869,-0.02929331561142229
1592167880.5194514,0.07034511120907518,9.158182778494693,3.804598317488307,-0.37444444444444447,-0.4533333333333333,-0.57,-0.0585290027831071,-0.007686111813157115,-0.03485655590657855
1592167880.5294514,0.002881386282225347,9.129342998155854,3.8877408040926693,-0.37444444444444447,-0.4533333333333333,-0.57,-0.06287476215881614,-0.013882312288824581,-0.029934449869991553
1592167880.5394514,-0.008223079901035161,9.135769491904465,3.9227084565720607,-0.37444444444444447,-0.4533333333333333,-0.57,-0.05929488907311045,-0.023362110926889553,-0.025732097506816255
1592167880.5494514,0.08454341093491646,9.137897633260579,3.9358104408392176,-0.37444444444444447,-0.4533333333333333,-0.57,-0.05596951790009177,-0.024756741049954116,-0.022841482099908234
1592167880.5594513,0.14441082724716,9.164663895294906,4.042178163602214,-0.37444444444444447,-0.4533333333333333,-0.57,-0.046776134328537215,-0.014046134328537217,-0.031435751917379885
1592167880.5694513,0.09106038088977679,9.134089929218428,4.116058906555838,-0.3688888888888889,-0.44555555555555554,-0.5777777777777777,-0.030005474177259614,-0.003931633367793112,-0.03656120744167339
1592167880.5794513,-0.026797579961849314,9.150885567229118,4.139887871352617,-0.3688888888888889,-0.44555555555555554,-0.5777777777777777,-0.010285625329867069,0.012565578027435638,-0.033725221596253165
1592167880.5894513,-0.08964487936238354,9.151587111059216,4.182298091244527,-0.3688888888888889,-0.44555555555555554,-0.5777777777777777,0.014066383498656276,0.0364702510534725,-0.026346905911222854
1592167880.5994513,-0.12976738041848934,9.151872023351538,4.137001077502725,-0.3688888888888889,-0.44555555555555554,-0.5777777777777777,0.041428613224650565,0.052461964582041304,-0.013641028752233433
1592167880.6094513,-0.1125946823948081,9.1447792506708,4.045561509234089,-0.3688888888888889,-0.44555555555555554,-0.5777777777777777,0.055774788774806544,0.04541403572730393,-0.0007113109809266929
1592167880.6194513,-0.04921640176479973,9.145447632563119,4.055264651533497,-0.3688888888888889,-0.4533333333333333,-0.5633333333333334,0.07155659687798707,0.04362024879848698,0.010685973391034678
1592167880.6294513,-0.014878661636581653,9.13607854508859,3.9145974577817673,-0.3688888888888889,-0.4533333333333333,-0.5633333333333334,0.07948987236125181,0.037491577528205686,0.014235914907501205
1592167880.6394513,0.007917778429298404,9.151076660900182,3.9036285932073924,-0.3688888888888889,-0.4533333333333333,-0.5633333333333334,0.08351753992105264,0.033488368752291525,0.016760539921052642
1592167880.6494513,-0.014258072997473722,9.145049821972377,3.895141893295841,-0.3688888888888889,-0.4533333333333333,-0.5633333333333334,0.08675732422039147,0.03476385350202203,0.015106
1592167880.6594512,0.012737246611238174,9.158341972093485,3.893443667666682,-0.3688888888888889,-0.4533333333333333,-0.5633333333333334,0.09359265636812306,0.0384311423862119,0.017770142386211895
1592167880.6694512,0.04607437867612313,9.147619210145026,3.888376224425359,-0.3688888888888889,-0.44555555555555554,-0.5722222222222222,0.09621834873983977,0.03840334873983978,0.01884765126016022
1592167880.6794512,0.016719336429037703,9.134928859977965,3.9127718257740702,-0.3688888888888889,-0.44555555555555554,-0.5722222222222222,0.10119378478691436,0.040024,0.019257693042787162
1592167880.6894512,0.08899681696757464,9.178180346336411,3.8954927664013885,-0.3688888888888889,-0.44555555555555554,-0.5722222222222222,0.10911110629444097,0.03761490044352369,0.018295
1592167880.6994512,0.06054077390722727,9.193877811762327,3.6875806423619193,-0.3688888888888889,-0.44555555555555554,-0.5722222222222222,0.10403458573285788,0.026665870960252185,0.01426779966302428
1592167880.7094512,0.10663214627211402,9.16929368760244,3.5518202456018706,-0.3688888888888889,-0.44555555555555554,-0.5722222222222222,0.08754356115575831,0.010362963773768944,0.009274270194353876
1592167880.7194512,0.09252708559067979,9.205547647503696,3.4779550035232125,-0.3688888888888889,-0.46555555555555556,-0.5644444444444444,0.06648731143398806,-0.001217457847833352,0.0012284619822613971
1592167880.7294512,0.10716877412848402,9.188426895553649,3.4819197366117245,-0.3688888888888889,-0.46555555555555556,-0.5644444444444444,0.03875592294376454,-0.008987,-0.002894598395464229
1592167880.7394512,0.02349121497322785,9.213458377418362,3.5080582458816516,-0.3688888888888889,-0.46555555555555556,-0.5644444444444444,0.018823184317782585,-0.008843063850286442,-0.00621
1592167880.7494512,-0.0001795202586216925,9.181071259992619,3.6013254683821394,-0.3688888888888889,-0.46555555555555556,-0.5644444444444444,-0.0007768541432714173,-0.011340277848109523,-0.00244967157236373
1592167880.7594512,-0.0034510839700776313,9.197922475938544,3.6348087850670563,-0.3688888888888889,-0.46555555555555556,-0.5644444444444444,-0.013145144337176395,-0.007919,-0.0014368687062626976
1592167880.7694511,0.005283164541601789,9.18403237986905,3.6419721229990776,-0.3622222222222222,-0.46,-0.5866666666666667,-0.024941270206420264,-0.009653672186187151,0.0014741993400777043
1592167880.7794511,0.012889709139025693,9.186501688260384,3.6188301957063467,-0.3622222222222222,-0.46,-0.5866666666666667,-0.04033977066171704,-0.017017276101506728,0.00444
1592167880.7894511,0.04544249957636823,9.176722666392878,3.577898949472176,-0.3622222222222222,-0.46,-0.5866666666666667,-0.053452046403795105,-0.020861154323137652,0.00353997518938572
1592167880.799451,0.02593836102038242,9.170989390113423,3.617413740467883,-0.3622222222222222,-0.46,-0.5866666666666667,-0.067181293994663,-0.022827,0.00444
1592167880.809451,0.11587965566621913,9.19092962920255,3.671265308601227,-0.3622222222222222,-0.46,-0.5866666666666667,-0.07743576373467963,-0.020423796957366958,0.0011569323191223196
1592167880.819451,0.06187977923024051,9.157304039105583,3.760636991372995,-0.3622222222222222,-0.44555555555555554,-0.5511111111111111,-0.08545427414364605,-0.015248451712707913,-0.0018726566729781989
1592167880.829451,0.06840404215272086,9.16247552107636,3.780642739127515,-0.3622222222222222,-0.44555555555555554,-0.5511111111111111,-0.0865709007326525,-0.013398381128536118,-0.003044480395883621
1592167880.839451,0.044198870540002815,9.157514002437294,3.7698992688845636,-0.3622222222222222,-0.44555555555555554,-0.5511111111111111,-0.09179268664811736,-0.020748596499097008,-0.005142
1592167880.849451,0.03984782620574981,9.140729281609904,3.800703393252446,-0.3622222222222222,-0.44555555555555554,-0.5511111111111111,-0.09598791896818466,-0.030203688750251333,-0.005142
1592167880.859451,0.04086947659478773,9.170954668547683,3.8207327612366795,-0.3622222222222222,-0.44555555555555554,-0.5511111111111111,-0.09915319830442575,-0.03863839660885149,-0.004074
1592167880.869451,0.04985733811344006,9.159922231281888,3.8451521917085434,-0.38222222222222224,-0.44555555555555554,-0.5577777777777778,-0.10038267360403902,-0.045066610808900905,-0.0061373054044504514
1592167880.879451,0.07038900516017423,9.152648484294895,3.9250175339707782,-0.38222222222222224,-0.44555555555555554,-0.5577777777777778,-0.098175,-0.04712192891086993,-0.011112265583443737
1592167880.889451,0.0912685584240755,9.13490880433235,3.928007844403616,-0.38222222222222224,-0.44555555555555554,-0.5577777777777778,-0.09617371591532584,-0.04653443183065167,-0.011536
1592167880.899451,0.06881139392662275,9.142293138407538,3.945872514558608,-0.38222222222222224,-0.44555555555555554,-0.5577777777777778,-0.09210701932617651,-0.050211980673823486,-0.012441490336911745
1592167880.909451,0.09006574921549346,9.12289534927502,4.0268302684687205,-0.38222222222222224,-0.44555555555555554,-0.5577777777777778,-0.08576860647580396,-0.04771360647580396,-0.015412393524196044
1592167880.919451,0.10413538015185858,9.129872754236382,4.03240793161919,-0.37444444444444447,-0.46,-0.5722222222222222,-0.07263562579165395,-0.04159349505487249,-0.02024867536705392
1592167880.929451,0.06562505607635108,9.112561045147272,3.936126609345132,-0.37444444444444447,-0.46,-0.5722222222222222,-0.064575327871442,-0.03775,-0.026197109303771785
1592167880.939451,0.04282618973027036,9.134088533956529,3.954805313491489,-0.37444444444444447,-0.46,-0.5722222222222222,-0.06463052500534097,-0.041459631112018724,-0.025375
1592167880.949451,0.019965388284927037,9.139966896713538,3.9780395156565933,-0.37444444444444447,-0.46,-0.5722222222222222,-0.05859348261394407,-0.044910521808246937,-0.020954434575259185
1592167880.959451,0.013517280969726831,9.132208039127727,4.049357477188273,-0.37444444444444447,-0.46,-0.5722222222222222,-0.05190581385024239,-0.040878431622540255,-0.020385705763766925
1592167880.969451,0.03573015658531144,9.124080582102344,4.094135417897657,-0.38222222222222224,-0.46,-0.5933333333333334,-0.038926626275617084,-0.03527299902305869,-0.01935539418131124
1592167880.979451,0.02582956458084082,9.11874937524205,4.149680934947545,-0.38222222222222224,-0.46,-0.5933333333333334,-0.023535721070102447,-0.026523043724779358,-0.020441293259291768
