time,acc_x,acc_y,acc_z,mag_x,mag_y,mag_z,gyr_x,gyr_y,gyr_z
1592167892.2894402,0.040197460699147196,9.39401274358327,3.1155348354815025,-0.3711111111111111,-0.4444444444444444,-0.54,-0.021938617739401513,-0.007919,-0.00590869294940161
1592167892.2994401,0.029339824494376592,9.40463526456828,3.1181500309222256,-0.3711111111111111,-0.4444444444444444,-0.54,-0.02826885841983289,-0.009393858419832892,-0.0080047318278353
1592167892.3094401,0.04358226371767345,9.430504861097699,3.0994166756164057,-0.3711111111111111,-0.4444444444444444,-0.54,-0.03707507075274486,-0.013951199597163233,-0.009040290385193876
1592167892.3194401,0.046022779546287314,9.421861027060423,3.0715254260825775,-0.35750856759936045,-0.448978625615028,-0.549824059202931,-0.04800991833030797,-0.014699503362568546,-0.009399
1592167892.32944,0.05794447975426584,9.41328161917501,3.1394937215570358,-0.3511111111111111,-0.45111111111111113,-0.5544444444444444,-0.05711024241873717,-0.017747224558511396,-0.011536
1592167892.33944,0.018433034960323218,9.435935440962515,3.240938761480861,-0.3511111111111111,-0.45111111111111113,-0.5544444444444444,-0.058135504801228255,-0.014129181716953742,-0.01428290914152313
1592167892.34944,0.01702502921290696,9.421687151148218,3.373572350288184,-0.3511111111111111,-0.45111111111111113,-0.5544444444444444,-0.05164165381871788,-0.00979237888892033,-0.01545134618128212
1592167892.35944,0.06145448334838353,9.39920171262834,3.3787379298089184,-0.3511111111111111,-0.45111111111111113,-0.5544444444444444,-0.04153106359472365,-0.002971479612434071,-0.01748466409798333
1592167892.36944,0.044363493766055626,9.376861324420465,3.343824252392911,-0.34662313188192406,-0.44662313188192404,-0.5544444444444444,-0.028394057989620306,0.009137506881164636,-0.019521435129215055
1592167892.37944,0.050984422507470206,9.396165553766766,3.27762181567519,-0.34444444444444444,-0.4444444444444444,-0.5544444444444444,-0.023045300536953753,0.018198699463046246,-0.02320307701073986
1592167892.38944,0.04674470466786659,9.406606678315589,3.194428898093743,-0.34444444444444444,-0.4444444444444444,-0.5544444444444444,-0.025742,0.005932557753516076,-0.025849072965122406
1592167892.39944,0.03997223861246617,9.449876216068265,3.2028093133830704,-0.34444444444444444,-0.4444444444444444,-0.5544444444444444,-0.029201837652079943,-0.011212545984699682,-0.027958279217359983
1592167892.40944,0.09907778993632835,9.418469167478177,3.3374306409149805,-0.34444444444444444,-0.4444444444444444,-0.5544444444444444,-0.02577605841734429,-0.020056485469447296,-0.03385554974232851
1592167892.41944,0.2093434948962243,9.40721921427607,3.544313316382337,-0.3490839329620718,-0.45372342147969924,-0.5590839329620718,-0.01051189524060386,-0.012048410736291136,-0.04660804714449778
1592167892.42944,0.29930394988601106,9.38269087813953,3.691815884831895,-0.3511111111111111,-0.4577777777777778,-0.5611111111111111,0.01519082242123233,0.032359610496737516,-0.06018979636894639
1592167892.43944,0.3984658421160937,9.240617451212826,3.464770312155227,-0.3511111111111111,-0.4577777777777778,-0.5611111111111111,0.014251251259572077,0.06698084783940667,-0.03562385558209235
1592167892.44944,0.3527719366656075,9.388607661281153,3.305498035304183,-0.3511111111111111,-0.4577777777777778,-0.5611111111111111,0.014443348933836088,0.10700598666166729,-0.03557052793099113
1592167892.45944,0.13380940594837615,9.316236321479135,3.127248955246809,-0.3511111111111111,-0.4577777777777778,-0.5611111111111111,0.001429995117322897,0.146545,-0.023523243004164376
1592167892.46944,-0.05017473571222895,9.357495298132617,2.799526750700723,-0.34299941154442837,-0.44966607821109505,-0.5570552613277697,-0.024941064148355646,0.12604058113597066,0.0053017073520989205
1592167892.47944,0.058828069693523284,9.385277000117407,2.6095311036385977,-0.3377777777777778,-0.4444444444444444,-0.5544444444444444,-0.06892996401967903,0.07992003598032098,0.03576132164000874
1592167892.48944,0.2986932009464576,9.440215116476834,2.5231873411091184,-0.3377777777777778,-0.4444444444444444,-0.5544444444444444,-0.12051867878613898,0.03514652647690207,0.02781975726465616
1592167892.49944,0.43917307118998217,9.411612772346885,2.6247879170042907,-0.3377777777777778,-0.4444444444444444,-0.5544444444444444,-0.17858392324069153,0.0026087677606839543,0.006901750274757034
1592167892.50944,0.6249229848175114,9.297939001604247,2.795768049468916,-0.3377777777777778,-0.4444444444444444,-0.5544444444444444,-0.2311568860384477,-0.006488962084477797,0.0011297530593359318
1592167892.51944,0.8587751392783568,9.316675302729177,3.048851201571393,-0.3417250597077061,-0.4483917263743728,-0.5583917263743727,-0.2752454945637273,0.00782876618782475,-0.004769499774766078
1592167892.52944,0.8688727741776654,9.280285043052787,3.30106577733212,-0.34444444444444444,-0.45111111111111113,-0.5611111111111111,-0.29783769393007736,0.027760431191620222,0.015151505490089902
1592167892.53944,0.8642025750907821,9.321189959063163,3.4675540133970673,-0.34444444444444444,-0.45111111111111113,-0.5611111111111111,-0.30986260456435105,0.048300993577294,0.05002033637939924
1592167892.54944,0.732624345518449,9.446972061284809,3.4923101509683865,-0.34444444444444444,-0.45111111111111113,-0.5611111111111111,-0.29083433256146757,0.09346795607757918,0.013696376483888368
1592167892.55944,0.38604172576815154,9.367207051794468,3.487797401039776,-0.34444444444444444,-0.45111111111111113,-0.5611111111111111,-0.26875972737030995,0.12393654431078194,-0.04925836125125395
1592167892.56944,-0.2772099544583838,9.314467887126677,3.471431345453864,-0.34444444444444444,-0.4440883210505774,-0.5572804983508199,-0.25725996313847355,0.09127923120627413,-0.03728422900780564
1592167892.5794399,-0.4216487798027252,9.293838551165576,3.3725468314888247,-0.34444444444444444,-0.4388888888888889,-0.5544444444444444,-0.2455756692198693,0.03190320247219397,0.030240575486346618
1592167892.5894399,-0.20465537190691416,9.282680155380493,3.4471367715215524,-0.34444444444444444,-0.4388888888888889,-0.5544444444444444,-0.25231728934362924,-0.027821496928230664,0.03437853665553945
1592167892.5994399,-0.05721019205921555,9.286673189315412,3.7287749830994423,-0.34444444444444444,-0.4388888888888889,-0.5544444444444444,-0.2389330729252512,-0.07125986804409962,0.027351321614741395
1592167892.6094398,0.2243642304894612,9.348719510317562,4.009578156673176,-0.34444444444444444,-0.4388888888888889,-0.5544444444444444,-0.19992270561152373,-0.09536754616085619,-0.007629879167485689
1592167892.6194398,0.5986510934404851,9.330918659862368,4.270924692058222,-0.34444444444444444,-0.4388888888888889,-0.5579147943279638,-0.15037997011502913,-0.10291291789921019,-0.06002910215143277
1592167892.6294398,0.9642065230584355,9.131740392811766,4.423230629326041,-0.34444444444444444,-0.4388888888888889,-0.5611111111111111,-0.08972681921120054,-0.12445282689236199,-0.092719653892663
1592167892.6394398,0.7577231889639076,9.136721464485724,4.094260425293655,-0.34444444444444444,-0.4388888888888889,-0.5611111111111111,-0.04412371827137929,-0.13595037936047996,-0.028331586202395263
1592167892.6494398,0.8418989743007287,9.272179321451311,3.939504276553803,-0.34444444444444444,-0.4388888888888889,-0.5611111111111111,-0.011216709054383867,-0.10877669281807084,-0.029880388007973834
1592167892.6594398,0.705922957386941,9.317126926599789,4.013011835517515,-0.34444444444444444,-0.4388888888888889,-0.5611111111111111,0.011335233758102348,-0.09406557951194161,-0.048813
1592167892.6694398,0.598781800206455,9.327982891439474,3.9227994741336314,-0.36059662424406536,-0.435120046935644,-0.5681103890242802,0.04958185954810064,-0.11108692977405032,-0.037094
1592167892.6794398,0.5076660269482163,9.297198120162,3.751977203414592,-0.37777777777777777,-0.4311111111111111,-0.5755555555555556,0.08660050420104072,-0.124039,-0.05508092885012843
1592167892.6894398,0.338152371113828,9.23398948418255,3.5542805618456734,-0.37777777777777777,-0.4311111111111111,-0.5755555555555556,0.10516457060021604,-0.13096522923961107,-0.038524392062993774
1592167892.6994398,0.5185102006668674,9.333474800004305,3.442627315864555,-0.37777777777777777,-0.4311111111111111,-0.5755555555555556,0.09913719288555012,-0.12597481162005736,-0.020902103034933256
1592167892.7094398,0.5587584807743957,9.34952405643997,3.3031513040494063,-0.37777777777777777,-0.4311111111111111,-0.5755555555555556,0.08613250404588481,-0.10170211127258788,-0.037247740407220356
1592167892.7194397,0.49891013316008115,9.300056513775841,3.244989431257091,-0.353758166730221,-0.4311111111111111,-0.5785580069365002,0.06378246552567025,-0.07138130909752657,-0.032348843571856314
1592167892.7294397,0.49683448702220123,9.266294574356037,3.2199557634409386,-0.3244444444444444,-0.4311111111111111,-0.5822222222222222,0.033668292582401574,-0.05306615825025545,-0.03503744578682011
1592167892.7394397,0.4257652687510192,9.255546843502556,3.2386314507894585,-0.3244444444444444,-0.4311111111111111,-0.5822222222222222,0.006342162506416705,-0.04312633581497055,-0.03712085099523812
1592167892.7494397,0.3670771879988563,9.29458468191597,3.2469386683875188,-0.3244444444444444,-0.4311111111111111,-0.5822222222222222,-0.01886347467140502,-0.03011799399577115,-0.020875042074135902
1592167892.7594397,0.441701997471292,9.281707091373368,3.283072375899509,-0.3244444444444444,-0.4311111111111111,-0.5822222222222222,-0.044796563379761116,-0.01992506013165611,-0.011814119391524278
1592167892.7694397,0.39953001536109856,9.226839099907613,3.3811701231052926,-0.3301663618570924,-0.4368330285237591,-0.5822222222222222,-0.06416220878819832,-0.007409943212310221,0.013349453092184518
1592167892.7794397,0.47720889551443146,9.329883972790904,3.344618349406869,-0.34444444444444444,-0.45111111111111113,-0.5822222222222222,-0.0806158785447698,0.016884554243659408,0.04239435252858488
1592167892.7894397,0.6053241728517029,9.317423461804113,3.3453424037537594,-0.34444444444444444,-0.45111111111111113,-0.5822222222222222,-0.08947654256074966,0.03671910373099534,0.015374708440205762
1592167892.7994397,0.408490236868942,9.314680944343356,3.3920382011545893,-0.34444444444444444,-0.45111111111111113,-0.5822222222222222,-0.10452117280366172,0.05347211603759107,-0.012905803923697235
1592167892.8094397,0.18650534630262317,9.255952279001802,3.458587063691076,-0.34444444444444444,-0.45111111111111113,-0.5822222222222222,-0.1115912153328346,0.0566292153328346,-0.005922741032458358
1592167892.8194396,0.3107961791659101,9.27287844136084,3.477025431771128,-0.34715222651921207,-0.4484033290363435,-0.5822222222222222,-0.11715005706572641,0.06005611660037235,0.00021569153459325037
1592167892.8294396,0.29452337509749466,9.315345386054508,3.533502148103149,-0.3511111111111111,-0.4444444444444444,-0.5822222222222222,-0.12425649023786911,0.06662331130271949,-0.026420225087272816
1592167892.8394396,0.13049701568749286,9.25914610613168,3.624461009083354,-0.3511111111111111,-0.4444444444444444,-0.5822222222222222,-0.126938,0.0752759780430235,-0.028346548629117542
1592167892.8494396,-0.022851487791828606,9.198203466697603,3.634386296305704,-0.3511111111111111,-0.4444444444444444,-0.5822222222222222,-0.12926465762312003,0.07267509252460513,-0.007709874501461413
1592167892.8594396,-0.04073997374386186,9.237068433325478,3.5454427654251033,-0.3511111111111111,-0.4444444444444444,-0.5822222222222222,-0.13350886387497413,0.06966048591407945,0.04226409353679074
1592167892.8694396,0.1981498392322915,9.253586123356092,3.6500631561553942,-0.3511111111111111,-0.4432151687714948,-0.5854183389718912,-0.13609110836907998,0.0839148267479168,0.038451809583793024
1592167892.8794396,0.18409037664772415,9.242057720900878,3.7898339859244863,-0.3511111111111111,-0.4388888888888889,-0.5966666666666667,-0.12789015723354602,0.10166248812133835,0.03920886894837933
1592167892.8894396,0.21574916731200167,9.21708985399701,3.742949208236445,-0.3511111111111111,-0.4388888888888889,-0.5966666666666667,-0.1221570166602898,0.12061671569507236,0.06471350511118511
1592167892.8994396,0.13828110091387455,9.225253772942049,3.6388131927243847,-0.3511111111111111,-0.4388888888888889,-0.5966666666666667,-0.1164658421526149,0.1372616310638678,0.07255794675863798
1592167892.9094396,0.036216961356204926,9.245666924298,3.624432503412622,-0.3511111111111111,-0.4388888888888889,-0.5966666666666667,-0.123734,0.15207849047644137,0.06817717166493668
1592167892.9194396,-0.04009894401276074,9.255471524151174,3.693214200383597,-0.3500813562803527,-0.4370010050324985,-0.601128937599953,-0.12586646790162198,0.17103336265856742,0.06303046790162198
1592167892.9294395,-0.1426010627654787,9.254881487710767,3.7844572088928703,-0.34444444444444444,-0.4266666666666667,-0.6255555555555555,-0.12063229190287929,0.183823,0.0768003206091457
1592167892.9394395,-0.16600540268030034,9.211915921610206,3.884768706167148,-0.34444444444444444,-0.4266666666666667,-0.6255555555555555,-0.10294662454961882,0.18786558582114457,0.07990674489317182
1592167892.9494395,-0.17616972423727184,9.228742657847343,3.841712123247911,-0.34444444444444444,-0.4266666666666667,-0.6255555555555555,-0.08516916087663794,0.18711214729285977,0.07500724598963462
1592167892.9594395,-0.21384271213375378,9.19002648614599,3.846465851005979,-0.34444444444444444,-0.4266666666666667,-0.6255555555555555,-0.07036375578202116,0.1754305050891729,0.06847837465357588
1592167892.9694395,-0.1962636540145719,9.21716853386201,3.827846037830955,-0.3471404223902987,-0.4266666666666667,-0.6245071196877233,-0.060708876466462086,0.16340208123652533,0.07460583159827822
1592167892.9794395,-0.19938253485559487,9.170591213828125,3.898317013837409,-0.36444444444444446,-0.4266666666666667,-0.6177777777777778,-0.053794087069611106,0.1495923424241881,0.07439238049000975
1592167892.9894395,-0.21808996231138184,9.168622091165437,3.9961861426122054,-0.36444444444444446,-0.4266666666666667,-0.6177777777777778,-0.044280304839682955,0.13546698631933238,0.08561748079406795
1592167892.9994395,-0.08741532112721676,9.244960450861674,4.130664181697335,-0.36444444444444446,-0.4266666666666667,-0.6177777777777778,-0.014508791521196718,0.13920167042708945,0.07855123960533052
1592167893.0094395,-0.057675835294616076,9.215302,4.135831753909812,-0.36444444444444446,-0.4266666666666667,-0.6177777777777778,0.02116547631824372,0.1358823892462589,0.0595461095108437
1592167893.0194395,-0.0713160616158516,9.216617210712796,3.9630273641905953,-0.3638310441248771,-0.4274027470501475,-0.6193726186086529,0.05065447836836629,0.130569,0.03922320624591338
1592167893.0294394,-0.09394099901364347,9.190178641192823,3.785176862885919,-0.35888888888888887,-0.43333333333333335,-0.6322222222222222,0.06065260837533973,0.11311192182644432,0.04235230270179296
1592167893.0394394,-0.03756815226900652,9.153430483763627,3.6404303108805,-0.35888888888888887,-0.43333333333333335,-0.6322222222222222,0.05591072331649703,0.098602,0.0580878208712031
1592167893.0494394,0.08782018059848085,9.225242507381342,3.6115144905007646,-0.35888888888888887,-0.43333333333333335,-0.6322222222222222,0.03779763651637614,0.09715064151237028,0.03012554519622862
1592167893.0594394,-0.030485545169285887,9.22350437445126,3.911696702871635,-0.35888888888888887,-0.43333333333333335,-0.6322222222222222,0.04100878212643736,0.11167341033992065,0.012612172213686903
1592167893.0694394,0.018702137200826505,9.111398439262693,3.9885625393774964,-0.35947779968722376,-0.4312132544593278,-0.633517825978559,0.052561383976039794,0.10863816526012357,0.054083961196379746
1592167893.0794394,0.19436007931133625,9.169571030389184,3.7264917060765086,-0.36444444444444446,-0.41333333333333333,-0.6444444444444445,0.058069029996747165,0.10511959864316461,0.08045542796149409
1592167893.0894394,0.26994044153497715,9.19452051592141,3.651668133190798,-0.36444444444444446,-0.41333333333333333,-0.6444444444444445,0.062535001625779,0.1113150008128895,0.07772802209588135
1592167893.0994394,0.17640498199070803,9.252986526209774,3.553412552336799,-0.36444444444444446,-0.41333333333333333,-0.6444444444444445,0.05574978817432602,0.1044385281163727,0.07104055404859551
1592167893.1094394,0.1490714800046301,9.247453605603733,3.361909446225506,-0.36444444444444446,-0.41333333333333333,-0.6444444444444445,0.04320531511699854,0.09127768841564737,0.0684962086234396
1592167893.1194394,0.2843427089318325,9.34902418935144,3.225419927091093,-0.3669771955361475,-0.41755458515283844,-0.6419116933527415,0.01660397651398699,0.09057262433014913,0.05239129164324182
1592167893.1294394,0.3657286634176247,9.20703837273243,3.1669277624089633,-0.37777777777777777,-0.43555555555555553,-0.6311111111111111,-0.02717700688486116,0.08947409512109193,0.03216671189282122
1592167893.1394393,0.46319016391130535,9.273998629555875,3.250356567395837,-0.37777777777777777,-0.43555555555555553,-0.6311111111111111,-0.06762724092099032,0.10537576455715586,0.03361207958512157
1592167893.1494393,0.5202137344128012,9.211893864767069,3.246253459731514,-0.37777777777777777,-0.43555555555555553,-0.6311111111111111,-0.10498137883195682,0.11683079809194036,0.041454618946765866
1592167893.1594393,0.5523023025151889,9.282709254650664,3.4426598428457895,-0.37777777777777777,-0.43555555555555553,-0.6311111111111111,-0.1369204065491981,0.13142525437249789,0.04599
1592167893.1694393,0.6650883759431496,9.251040487451753,3.7065256619307294,-0.37777777777777777,-0.43383930732632564,-0.6326953402457849,-0.14117635446340085,0.14609021757774182,0.029119703979123748
1592167893.1794393,0.49936055094872256,9.218493824039534,3.717847504075047,-0.37777777777777777,-0.4211111111111111,-0.6444444444444445,-0.1406356995883334,0.1476076064174567,0.03381334518142198
1592167893.1894393,0.495530730051627,9.167419594574941,3.6044206029039154,-0.37777777777777777,-0.4211111111111111,-0.6444444444444445,-0.14800260197352025,0.1358539378174619,0.06900247959424605
1592167893.1994393,0.5274727537763841,9.23126235900086,3.5951235460337236,-0.37777777777777777,-0.4211111111111111,-0.6444444444444445,-0.15798045393887694,0.134827,0.06782989132212226
1592167893.2094393,0.3701828260940633,9.181940792938118,3.66595248915649,-0.37777777777777777,-0.4211111111111111,-0.6444444444444445,-0.1687072565881702,0.1273601244397863,0.05026707703919213
1592167893.2194393,0.2529827029038481,9.178993153302315,3.7570835585262237,-0.37482726485809525,-0.4211111111111111,-0.6436397591027129,-0.17649615740364694,0.11898189553905171,0.0672261556221406
1592167893.2294393,0.23111103427650354,9.145631917190398,3.7602348159707724,-0.35333333333333333,-0.4211111111111111,-0.6377777777777778,-0.18066977616018776,0.10404053971028698,0.07880574649568084
1592167893.2394392,0.09811542839551429,9.184363602847984,3.7625563273560885,-0.35333333333333333,-0.4211111111111111,-0.6377777777777778,-0.18939585000597783,0.08597049360203335,0.06305576714539311
1592167893.2494392,0.037849721732294964,9.165728899194535,3.840062074579667,-0.35333333333333333,-0.4211111111111111,-0.6377777777777778,-0.185532,0.07275119580776916,0.04871014664746457
1592167893.2594392,0.1721295323220861,9.172083167559657,3.9094187754726253,-0.35333333333333333,-0.4211111111111111,-0.6377777777777778,-0.18418482587976517,0.06069791991434268,0.05068896526560029
1592167893.2694392,0.28062180341383075,9.16978233332626,3.9066154700875706,-0.35333333333333333,-0.4211111111111111,-0.6377777777777778,-0.17794404965395136,0.04837065586044661,0.03355901102758022
1592167893.2794392,0.36509158836522637,9.155553628487104,3.9633258794240187,-0.38666666666666666,-0.41555555555555557,-0.6444444444444445,-0.17055276596756772,0.039981672598885507,-0.00519822082575488
1592167893.2894392,0.3795958170231095,9.127353353806209,4.143368935710089,-0.38666666666666666,-0.41555555555555557,-0.6444444444444445,-0.1568917940221204,0.0389286141906417,-0.009399
1592167893.2994392,0.42298758170317136,9.055582129841788,4.293285621578536,-0.38666666666666666,-0.41555555555555557,-0.6444444444444445,-0.13685063969217837,0.029605805340222315,0.014321147422364854
1592167893.3094392,0.4867095540357261,9.230788330006988,4.479145322387116,-0.38666666666666666,-0.41555555555555557,-0.6444444444444445,-0.09059378878823311,0.038610949289702115,0.04650537466037534
1592167893.3194392,0.465178376251245,9.136122815624647,4.460603065912965,-0.3894721767227876,-0.41426969677983344,-0.6450289257061363,-0.029373861475230825,0.04705777605660019,0.04031948128769226
1592167893.3294392,0.3028038205271683,9.075790708196633,4.278488297934337,-0.41333333333333333,-0.4033333333333333,-0.65,0.004302558052371249,0.054383218452626426,0.019119074498334106
1592167893.3394392,0.1734723956547664,9.1381740158748,4.242890150636661,-0.41333333333333333,-0.4033333333333333,-0.65,0.031610652758596494,0.0685201254082835,0.02238655977637383
1592167893.3494391,0.09165266253005838,8.989698039221569,4.199983821588568,-0.41333333333333333,-0.4033333333333333,-0.65,0.040314,0.0642191168162392,0.03390020536180811
1592167893.3594391,0.14590741244522512,9.0619715880932,4.1495946670247195,-0.41333333333333333,-0.4033333333333333,-0.65,0.049640938006992104,0.0573230619930079,0.0544707587713499
1592167893.3694391,0.2399059495208507,9.058550742489489,4.026905974885301,-0.41333333333333333,-0.4033333333333333,-0.65,0.04802032678376746,0.04665082146729692,0.03512560653587662
1592167893.379439,0.16582410380621604,9.138805507744879,3.9698393279251714,-0.4066666666666667,-0.41,-0.6644444444444444,0.046707,0.04116115163016406,0.003256717138589797
1592167893.389439,-0.07005116425693575,9.138563164256935,3.9928203113177947,-0.4066666666666667,-0.41,-0.6644444444444444,0.04974328599610444,0.008077698676801429,-0.0042310153217387445
1592167893.399439,-0.015316269127645568,9.180186944517091,3.861480319710056,-0.4066666666666667,-0.41,-0.6644444444444444,0.053101,-0.02712344287852727,-0.015745051011430256
1592167893.409439,-0.16243750113584154,9.191177041497523,3.803589669920157,-0.4066666666666667,-0.41,-0.6644444444444444,0.05592356992831622,-0.059230785151370195,-0.03849713985663244
1592167893.419439,-0.19743264321846418,9.139001793364317,3.7348953585319835,-0.4066666666666667,-0.4095822541010825,-0.6637809656638108,0.05107904058291586,-0.09430966031350457,-0.04444095941708414
1592167893.429439,-0.07624123798969207,9.098329547438675,3.6635516620655593,-0.4066666666666667,-0.39111111111111113,-0.6344444444444445,0.03448585945474074,-0.11534278667229113,-0.059742175680443474
1592167893.439439,-0.0145856432215695,9.107011173062917,3.7384077473550077,-0.4066666666666667,-0.39111111111111113,-0.6344444444444445,0.005667333121944744,-0.12436665114159215,-0.07836256605393642
1592167893.449439,-0.00642446937755828,9.049073078777639,3.8033634889621037,-0.4066666666666667,-0.39111111111111113,-0.6344444444444445,-0.02097221010552847,-0.1309028971272153,-0.07923439493649957
1592167893.459439,0.013394263720733811,9.02866689040554,3.8472238667196685,-0.4066666666666667,-0.39111111111111113,-0.6344444444444445,-0.039883603445060825,-0.13195115723889114,-0.07697415723889114
1592167893.469439,0.15410522532682072,9.019745821379276,3.89036927162501,-0.4065634987932946,-0.39115872705266747,-0.6344920603860008,-0.06189439104697336,-0.11765992567017504,-0.06646398220216233
1592167893.479439,0.3223923328257542,9.052770808636373,3.934037001571884,-0.39222222222222225,-0.3977777777777778,-0.6411111111111111,-0.073669,-0.10236213021972373,-0.07198404810874225
1592167893.489439,0.11980904035271997,9.017712415208262,4.0064017531997695,-0.39222222222222225,-0.3977777777777778,-0.6411111111111111,-0.07614126521709792,-0.09301191047466954,-0.057378244834068656
1592167893.499439,0.15101932245583355,9.006657798858283,4.066378991140234,-0.39222222222222225,-0.3977777777777778,-0.6411111111111111,-0.07416744412984132,-0.08786463426734677,0.005135486142791084
1592167893.509439,0.2644741545169671,9.063577845563618,3.957781087353281,-0.39222222222222225,-0.3977777777777778,-0.6411111111111111,-0.09169344050159531,-0.08191591769341079,-0.013176466918023978
1592167893.519439,0.02285503783838151,9.092116749826047,4.007144582880178,-0.39222222222222225,-0.3977777777777778,-0.6411111111111111,-0.1007695062484003,-0.04875777259300303,-0.042419
1592167893.529439,-0.10059187754510004,9.001998180698989,4.07848250387953,-0.41888888888888887,-0.3977777777777778,-0.62,-0.10775486511250193,-0.02532369165260219,-0.041367
1592167893.539439,-0.2288710267373645,8.926960646933228,4.004379775252655,-0.41888888888888887,-0.3977777777777778,-0.62,-0.12085688798462337,-0.009486773562793578,-0.022050099688191122
1592167893.549439,-0.1860315111412455,9.195366789005908,4.062210588641784,-0.41888888888888887,-0.3977777777777778,-0.62,-0.1178327001466261,-0.0008579120692324832,-0.02267292112426688
1592167893.559439,-0.40692775135937376,9.194516776197233,4.204014842450279,-0.41888888888888887,-0.3977777777777778,-0.62,-0.0931978130827928,-0.006535471368925844,-0.03839168948483593
1592167893.569439,-0.36464341717080273,9.021482875005713,4.085088292012444,-0.41888888888888887,-0.3977777777777778,-0.62,-0.08651581217242917,-0.03662318782757083,0.03099432350497726
1592167893.579439,-0.020898860615089845,9.10343540133796,4.0500973989976865,-0.4311111111111111,-0.40444444444444444,-0.6133333333333333,-0.06489751028310727,-0.05179334155094163,-0.021630123513126195
1592167893.589439,-0.17100698605672324,9.01950159714138,4.085664446603554,-0.4311111111111111,-0.40444444444444444,-0.6133333333333333,-0.06816845219682079,-0.05279471039487365,0.01612262815072785
1592167893.599439,0.0009436472853836392,9.09580540368664,4.082535,-0.4311111111111111,-0.40444444444444444,-0.6133333333333333,-0.06731179680986062,-0.0770519044080031,0.04007592062945805
1592167893.609439,0.17757355457202592,9.061021571589057,4.040447688206895,-0.4311111111111111,-0.40444444444444444,-0.6133333333333333,-0.06456515639330729,-0.06045985274010412,0.01815758402441175
1592167893.619439,0.10768335367623151,9.08874247265054,4.061315717456287,-0.4311111111111111,-0.40444444444444444,-0.6133333333333333,-0.07084745806216017,-0.02848617017395637,-0.0259267911811771
1592167893.6294389,-0.21090404331207646,9.129929842166343,4.104962444290241,-0.4388888888888889,-0.39111111111111113,-0.6266666666666667,-0.06970927421451956,-0.015060040055706315,-0.017479294432981185
1592167893.6394389,-0.16763239128300775,9.163573094587363,4.107712229973663,-0.4388888888888889,-0.39111111111111113,-0.6266666666666667,-0.05537571055308969,-0.015562289446910316,-0.03113633298735065
1592167893.6494389,-0.4361029343029667,9.183456021201488,4.12396403031848,-0.4388888888888889,-0.39111111111111113,-0.6266666666666667,-0.0384661000558785,-0.02178572663735933,-0.04670137294315409
1592167893.6594388,-0.33705017721673525,9.103073011206488,4.222111651670761,-0.4388888888888889,-0.39111111111111113,-0.6266666666666667,-0.005772171655827645,-0.039566767453146606,-0.05614714710578699
1592167893.6694388,-0.2949965604879032,9.01238220766765,4.22220153607807,-0.4388888888888889,-0.39111111111111113,-0.6266666666666667,0.009117434101527936,-0.06071142525085116,-0.03473791633766833
1592167893.6794388,-0.031187239653120438,9.140368198758383,4.297999147345611,-0.4577777777777778,-0.39111111111111113,-0.6055555555555555,0.030563116254426995,-0.06535753663534533,-0.017929
1592167893.6894388,0.12821993230068904,9.092073842760296,4.367680150702679,-0.4577777777777778,-0.39111111111111113,-0.6055555555555555,0.06662815220574134,-0.04399481934305633,-0.037850044287096395
1592167893.6994388,0.16175157065213241,9.148957893368925,4.2356350425241205,-0.4577777777777778,-0.39111111111111113,-0.6055555555555555,0.08717013057270172,-0.02695981856673528,-0.07394098713231274
1592167893.7094388,-0.10032782220941827,8.974231990569264,4.07408178336727,-0.4577777777777778,-0.39111111111111113,-0.6055555555555555,0.09886182811581697,-0.04217640697338663,-0.103149
1592167893.7194388,-0.4560564497515708,9.045911944477181,3.9193901446180206,-0.4577777777777778,-0.39111111111111113,-0.6055555555555555,0.09124736164352867,-0.06378387479514319,-0.01851478944510565
1592167893.7294388,-0.07335569932274646,9.111835508467571,3.792263885304904,-0.44555555555555554,-0.39111111111111113,-0.6055555555555555,0.0853697937593774,-0.07267452866202455,0.024041880216645606
1592167893.7394388,0.1524399336091205,9.10222906639088,3.82111473700884,-0.44555555555555554,-0.39111111111111113,-0.6055555555555555,0.06899283575207633,-0.05287585735607629,0.0006071315965296142
1592167893.7494388,0.09235878912472315,9.18022103206284,3.9161490740318303,-0.44555555555555554,-0.39111111111111113,-0.6055555555555555,0.06017678524369384,-0.020066129112502825,-0.017929
1592167893.7594388,0.09761672736568763,9.092593160258499,4.000614516690466,-0.44555555555555554,-0.39111111111111113,-0.6055555555555555,0.06098250607774376,0.011415376735552325,0.011428324484098445
1592167893.7694387,0.29531783485843255,9.12898288769172,4.025165511561113,-0.44555555555555554,-0.39111111111111113,-0.6055555555555555,0.0644749592909959,0.038749812712311094,0.011111620898169007
1592167893.7794387,0.23649155394261356,9.10967117348327,4.049541440833,-0.4533333333333333,-0.37666666666666665,-0.6,0.063751,0.061809944810374294,-0.009066563031975559
1592167893.7894387,0.13174750577560873,9.125433321913826,4.027253536825483,-0.4533333333333333,-0.37666666666666665,-0.6,0.06867055797443926,0.066132544156045,-0.030812394026088895
1592167893.7994387,-0.10603550791822562,9.081223903069745,3.9444088567789537,-0.4533333333333333,-0.37666666666666665,-0.6,0.07251095866958869,0.05033513898586527,-0.018896541057853027
1592167893.8094387,-0.10279592931835238,9.052961925830957,3.8000203395772187,-0.4533333333333333,-0.37666666666666665,-0.6,0.06561675834766968,0.032291758347669675,0.010093203539640981
1592167893.8194387,0.10433062468758705,9.111597160574616,3.8420874957560645,-0.4533333333333333,-0.37666666666666665,-0.6,0.05328439170984595,0.02985387688540482,0.009964391709845949
1592167893.8294387,0.03633719908246564,9.10377907628585,3.9880830326610512,-0.4577777777777778,-0.3688888888888889,-0.5933333333333334,0.048311684291455895,0.035820840797311466,0.010412842556098383
1592167893.8394387,0.15810635393430225,9.091461959168786,3.8885095702275367,-0.4577777777777778,-0.3688888888888889,-0.5933333333333334,0.04358011223746965,0.04582335214346001,0.012592688855868967
1592167893.8494387,0.04770253998987639,9.124599294227597,3.872017109533529,-0.4577777777777778,-0.3688888888888889,-0.5933333333333334,0.037297439244947356,0.051952786367825944,0.012300225612773294
1592167893.8594387,0.08166453738368575,9.058905033344987,3.809795234923386,-0.4577777777777778,-0.3688888888888889,-0.5933333333333334,0.01867303515000135,0.050035785251521796,-0.002738481373794401
1592167893.8694386,-0.16208167943509674,8.986686991525957,3.862084012958425,-0.4577777777777778,-0.3688888888888889,-0.5933333333333334,0.0006566079227152077,0.03295604711245679,0.015371308921912501
1592167893.8794386,-0.017623254872030758,9.11165947669724,3.945122440573104,-0.4533751803751804,-0.3820966810966811,-0.5867294372294373,-0.004700748878904232,0.009274781101941604,0.03014278104289997
1592167893.8894386,0.0934756014655508,9.136497415821196,4.166524978337363,-0.4533333333333333,-0.38222222222222224,-0.5866666666666667,0.0074243343560183315,0.004496519230403876,0.035339
1592167893.8994386,0.197924486895323,9.119245758756245,4.12212714871735,-0.4533333333333333,-0.38222222222222224,-0.5866666666666667,0.015029891797237311,0.00021107998636136577,0.016003404594649436
1592167893.9094386,0.026920463087530058,9.012265362702587,3.927560034599066,-0.4533333333333333,-0.38222222222222224,-0.5866666666666667,0.0162577756846489,0.007168107167813497,0.017261102177951446
1592167893.9194386,0.05126311964334057,9.202965928280483,3.9258758956679047,-0.4533333333333333,-0.38222222222222224,-0.5866666666666667,0.02814295935592044,0.012663640946390796,0.016557718107218407
1592167893.9294386,0.14372274455638928,9.201755890672372,3.9050959933078677,-0.470400459688826,-0.38222222222222224,-0.5475126709099482,0.037367401667683035,0.029848151532286874,-0.016396963358214146
1592167893.9394386,-0.08387261512810912,9.124101833929075,3.845434593978912,-0.4722222222222222,-0.38222222222222224,-0.5433333333333333,0.03234305397997207,0.02952624672198648,-0.04684524672198648
1592167893.9494386,-0.293999953191287,9.055455143207565,3.768011379905314,-0.4722222222222222,-0.38222222222222224,-0.5433333333333333,0.014551186311688707,0.015631172943724948,-0.015847505780672594
1592167893.9594386,-0.0854481573091409,9.062947782845766,3.8568137938739824,-0.4722222222222222,-0.38222222222222224,-0.5433333333333333,0.011147759657860192,0.005281008336949011,0.010093419188457036
1592167893.9694386,0.05920217051813993,9.145833207363435,3.9118475836297644,-0.4722222222222222,-0.38222222222222224,-0.5433333333333333,0.00021862812970298369,0.0020854074033651963,0.00283523160121521
1592167893.9794385,0.011390399948778713,9.064397923203707,4.021859867032179,-0.4523027393146915,-0.38851258524565296,-0.5506720901940025,0.005820579053660529,-0.004526623029267001,0.02088413786724269
1592167893.9894385,0.17669125904295158,9.113529806336578,4.007708993424287,-0.45111111111111113,-0.3888888888888889,-0.5511111111111111,-0.0004990591290065304,0.00674572857133007,0.04007584860421468
1592167893.9994385,0.2166032951350545,9.213545132770568,4.018515321688833,-0.45111111111111113,-0.3888888888888889,-0.5511111111111111,0.017381859078146388,0.029863859078146388,0.023713201978916347
1592167894.0094385,0.13542059646260518,9.210442383797917,4.05855199263843,-0.45111111111111113,-0.3888888888888889,-0.5511111111111111,0.04256289356768914,0.05290460346760547,0.019070838363799254
1592167894.0194385,0.0062848840146790125,9.102429296971074,3.920888107452312,-0.45111111111111113,-0.3888888888888889,-0.5511111111111111,0.044618299292888595,0.051793281187518254,-0.006134241188911394
1592167894.0294385,-0.17867504267814732,9.160411268170176,3.7540051337130302,-0.46173252817049865,-0.3715083882462547,-0.5569046113253225,0.041382,0.03081649941462522,0.017688460588327487
1592167894.0394385,-0.03512813424311012,9.20633468533537,3.685603449560922,-0.4633333333333333,-0.3688888888888889,-0.5577777777777778,0.04159551852435168,0.03142249238507131,0.017655108323833366
1592167894.0494385,0.004547700431483837,9.181107561975693,3.6038848109930885,-0.4633333333333333,-0.3688888888888889,-0.5577777777777778,0.028320109198272637,0.03169260272538223,-0.003953080033023185
1592167894.0594385,0.06147419330765243,9.160307885491363,3.6535565878553675,-0.4633333333333333,-0.3688888888888889,-0.5577777777777778,0.005356500023899846,0.029612190221674026,-0.03388561924393259
1592167894.0694385,-0.049451048094183395,9.169988320730319,3.7202794579326968,-0.4633333333333333,-0.3688888888888889,-0.5577777777777778,-0.010448144268039129,0.028305,-0.05590189206768648
1592167894.0794384,-0.29638102447339193,9.082212760628092,3.7208407399542622,-0.4633333333333333,-0.36347225910952413,-0.5406251168097894,-0.029556547612490314,0.008575838709612475,-0.035354420860761564
1592167894.0894384,-0.2415607476439912,9.152789832074284,3.5892766135766454,-0.4633333333333333,-0.3622222222222222,-0.5366666666666666,-0.04552747214322132,-0.009825382321597045,0.0110071473858606
1592167894.0994384,-0.2437873809985404,9.097608728845072,3.577642509157847,-0.4633333333333333,-0.3622222222222222,-0.5366666666666666,-0.06648219746860634,-0.028490095950954423,0.02404728024640185
1592167894.1094384,-0.16927963115724792,9.15530425343652,3.5737549936037194,-0.4633333333333333,-0.3622222222222222,-0.5366666666666666,-0.09220591845251676,-0.031079738982939434,0.02874693300401582
1592167894.1194384,-0.08651277984025454,9.140641300334345,3.6227836949060577,-0.4633333333333333,-0.3622222222222222,-0.5366666666666666,-0.11580362825604207,-0.03500485786588451,0.013738042274116133
1592167894.1294384,-0.02870784297737042,9.141647075190571,3.7146168297342066,-0.4633333333333333,-0.3622222222222222,-0.5366666666666666,-0.13884441433032413,-0.021640414399064792,0.004321727618898839
1592167894.1394384,0.06059977769464821,9.13637888276139,3.8570947310191,-0.4633333333333333,-0.3622222222222222,-0.5366666666666666,-0.15353187422974826,0.0004870505923295406,-0.015021400234347795
1592167894.1494384,0.1507202695589225,9.128332551888905,3.919441298530003,-0.4633333333333333,-0.3622222222222222,-0.5366666666666666,-0.1602457874426582,0.03282721115076269,-0.03891900153349752
1592167894.1594384,0.009289334560140063,9.025679220997386,3.9356138325560934,-0.4633333333333333,-0.3622222222222222,-0.5366666666666666,-0.16616529991999973,0.04469890002666676,-0.035016983624970445
1592167894.1694384,-0.04630661675034392,9.017221120796835,3.9526472392539733,-0.4633333333333333,-0.3622222222222222,-0.5366666666666666,-0.1724759186762623,0.05101848464570805,0.00470759845654355
1592167894.1794384,-0.04706116506285115,9.067306535865276,3.9636787945666296,-0.4690292595846757,-0.3671044447233728,-0.5155103691616808,-0.17546051247765834,0.054458512477658344,0.012144049910633375
1592167894.1894383,-0.22265351519515508,8.997913148252442,3.9893388493962494,-0.4711111111111111,-0.3688888888888889,-0.5077777777777778,-0.17963858405642663,0.04737272870675038,0.037379764074074937
1592167894.1994383,-0.1279610502316927,9.101811008149852,4.036687641772917,-0.4711111111111111,-0.3688888888888889,-0.5077777777777778,-0.1833924813250166,0.05012497803262213,0.046002026672348394
1592167894.2094383,-0.07689360816187638,9.126639219698768,4.146764123590146,-0.4711111111111111,-0.3688888888888889,-0.5077777777777778,-0.1807543023791473,0.058070306791974294,0.017014503070082627
1592167894.2194383,-0.10599449337843155,9.03057103004833,4.1417330161699795,-0.4711111111111111,-0.3688888888888889,-0.5077777777777778,-0.176639288381336,0.06477126781554446,0.0005322748507743595
1592167894.2294383,-0.037354432774145074,9.033883724784289,4.096533308830923,-0.4711111111111111,-0.3636058282145656,-0.5007336968786801,-0.177002,0.07269813277402583,-0.0069321327740258275
1592167894.2394383,-0.055294518793745806,9.00441843767047,4.229147403452809,-0.4711111111111111,-0.3622222222222222,-0.4988888888888889,-0.17468350121558654,0.07771979357220243,-0.00026870764338409576
1592167894.2494383,-0.10037975231951698,8.98295029077912,4.420992800837522,-0.4711111111111111,-0.3622222222222222,-0.4988888888888889,-0.1567785316651754,0.07072654010300637,0.00936837931856102
1592167894.2594383,-0.2521646630333051,8.912834820363756,4.5391152559772845,-0.4711111111111111,-0.3622222222222222,-0.4988888888888889,-0.13399591765441643,0.0584754557448587,0.04287457415416487
1592167894.2694383,-0.15172373269888884,9.03626377509093,4.587368050426555,-0.4711111111111111,-0.3622222222222222,-0.4988888888888889,-0.10180928591984265,0.05375733032199539,0.06571629967761755
1592167894.2794383,-0.0999230824927932,9.096456449982949,4.417356605281867,-0.47615334669388726,-0.3420532798911177,-0.49384665330611277,-0.06751561090456959,0.04362719454771521,0.045337510712001095
1592167894.2894382,-0.18828506955291305,9.038815106478786,4.244472523744871,-0.4777777777777778,-0.33555555555555555,-0.4922222222222222,-0.051293864030433456,0.04134034423139589,0.02625851533665651
1592167894.2994382,-0.2261886271585061,9.062479351540368,4.127153170324557,-0.4777777777777778,-0.33555555555555555,-0.4922222222222222,-0.050937758519588504,0.033640332667073336,0.007069313959684955
1592167894.3094382,-0.22729265906926982,9.044747582195843,4.079269796786461,-0.4777777777777778,-0.33555555555555555,-0.4922222222222222,-0.055971918184200824,0.025787505856504425,-0.01274422251051744
1592167894.3194382,-0.1644967697429348,8.990824716628657,4.060556071670213,-0.4777777777777778,-0.33555555555555555,-0.4922222222222222,-0.060546137986155754,0.007161028443912252,-0.02504577488619801
1592167894.3294382,-0.13208620627457854,9.021349516493826,4.197475563786002,-0.4643979396000517,-0.33414715153684754,-0.4887012121754522,-0.07032812840380792,0.01383761478857626,-0.049261725135753553
1592167894.3394382,-0.23500987122515965,8.958297711091634,4.354803561341681,-0.45666666666666667,-0.3333333333333333,-0.4866666666666667,-0.06583750912112155,0.010952512822334049,-0.061137219670858466
1592167894.3494382,-0.4205464139199336,8.782156689257254,4.44493417736256,-0.45666666666666667,-0.3333333333333333,-0.4866666666666667,-0.054789431807288444,-0.015465794747498556,0.004815805390785368
1592167894.3594382,-0.08649082547758824,9.044165943926975,4.404163594269242,-0.45666666666666667,-0.3333333333333333,-0.4866666666666667,-0.03783002036109339,-0.03895401876188929,0.02486848517398581
1592167894.3694382,-0.15513887799820342,9.000425496296375,4.441749228727416,-0.45666666666666667,-0.3333333333333333,-0.4866666666666667,-0.019065397739295234,-0.03901973430378147,0.008874243509425037
1592167894.3794382,-0.13890077125082673,9.003256657660465,4.3890298242269425,-0.45666666666666667,-0.3333333333333333,-0.49109560617461295,-0.004425,-0.04091979880066014,0.0075488073500616
1592167894.3894382,-0.13914402299152429,8.965054474831346,4.25950562915846,-0.45666666666666667,-0.3333333333333333,-0.49333333333333335,-0.006505483344057879,-0.03566951665594212,-0.019745412129688333
1592167894.3994381,-0.29326216422889606,8.864637306110174,4.251542848275587,-0.45666666666666667,-0.3333333333333333,-0.49333333333333335,-0.014910123997496829,-0.025461460248349915,0.02009904721146145
1592167894.4094381,-0.06797468039407695,9.055556166540223,4.357759527954643,-0.45666666666666667,-0.3333333333333333,-0.49333333333333335,-0.009279079592327627,-0.011621733768448245,0.019042849279247334
1592167894.4194381,-0.06391167167705991,9.059990684551822,4.479269210962106,-0.45666666666666667,-0.3333333333333333,-0.49333333333333335,0.009374622118392415,0.016087624780865093,-0.013062485209223288
1592167894.429438,-0.12684082838523744,8.990722146118362,4.442238084134971,-0.4607562577288815,-0.3278805452503802,-0.4674325899393061,0.031744436063438346,0.03519721803171917,-0.04461177273789554
1592167894.439438,-0.3099220419751033,8.815250884305115,4.214846229504128,-0.4633333333333333,-0.3244444444444444,-0.45111111111111113,0.024268019667574612,0.019137356447580342,-0.018147073780506968
1592167894.449438,-0.15514443933125308,8.92894881760125,4.139685701070381,-0.4633333333333333,-0.3244444444444444,-0.45111111111111113,0.020259520604711926,-0.0039412048868186205,0.0400722807662318
1592167894.459438,0.09265339716646336,8.971113303798411,4.253514665213403,-0.4633333333333333,-0.3244444444444444,-0.45111111111111113,0.019610716402462383,-0.013091992705648607,0.05452
1592167894.469438,0.17969561225197997,9.004495905701647,4.217471744828711,-0.4633333333333333,-0.3244444444444444,-0.45111111111111113,0.017389083848349147,-0.015381,0.03227407898823851
1592167894.479438,0.08949883291699919,8.936727319440228,4.289577776267535,-0.4574949872883388,-0.3244444444444444,-0.4430833852992437,0.006686464901896819,0.012057509929094122,0.010037219445264922
1592167894.489438,0.02898890499405675,8.929001003996307,4.229424509020792,-0.45444444444444443,-0.3244444444444444,-0.4388888888888889,-0.008278444135511657,0.030017969935609456,-0.01677153296864605
1592167894.499438,-0.1661706343500655,9.004185597453182,4.20734272220293,-0.45444444444444443,-0.3244444444444444,-0.4388888888888889,-0.016494678057051404,0.04820821302540465,-0.022887684464343496
1592167894.509438,-0.2821299029558892,8.995086081759878,4.283076821196011,-0.45444444444444443,-0.3244444444444444,-0.4388888888888889,-0.011272693763641782,0.03339157647821027,-0.004748917081395333
1592167894.519438,-0.34921632580273104,8.949319450500303,4.197375733450057,-0.45444444444444443,-0.3244444444444444,-0.4388888888888889,-0.008440020553670609,0.014014448288442278,0.01635357226522833
1592167894.529438,-0.2552862935352062,9.015404739188071,4.152438193621258,-0.4671124276382511,-0.3277781242322883,-0.43355500122833873,-0.009320362561375202,-0.012917735598320162,0.02535956138424502
1592167894.539438,-0.1494142142669455,9.03854683307233,4.246180017831673,-0.47555555555555556,-0.33,-0.43,0.0017756883883190075,-0.03520726512255816,0.0034246772293640504
1592167894.549438,-0.1332248378709472,8.975189960889141,4.283076429767264,-0.47555555555555556,-0.33,-0.43,0.008923240655753954,-0.057667649562308576,-0.004158481311507907
1592167894.559438,-0.020452450583413186,8.963311511079002,4.161264859177488,-0.47555555555555556,-0.33,-0.43,0.002422467316356429,-0.06547389423704464,-0.012162940447952738
1592167894.569438,-0.020042732124742453,8.956960739029673,4.068962168584178,-0.47555555555555556,-0.33,-0.43,-0.010746095180373373,-0.06284904569354266,-0.035432954306457334
1592167894.579438,-0.0817368642990921,9.144542556649515,4.136287605181533,-0.4695434659600602,-0.33,-0.4244889178707959,-0.013530140377179497,-0.04380716259256367,-0.05143572964139332
1592167894.589438,-0.06583385604417448,8.927766225766272,4.1416484355985865,-0.4622222222222222,-0.33,-0.4177777777777778,-0.01832492929987599,-0.04047393412514843,-0.07855952922549413
1592167894.599438,-0.28727873235536283,8.992663920055046,4.136011530482081,-0.4622222222222222,-0.33,-0.4177777777777778,-0.027431758290127856,-0.048009442529462,-0.08182085958365841
1592167894.609438,-0.3173771523675593,8.929411866784088,4.3714698389346545,-0.4622222222222222,-0.33,-0.4177777777777778,-0.014395971468395684,-0.0654690349662395,-0.0763965620384338
1592167894.619438,-0.2895772859736988,9.042761251887274,4.4848323711897615,-0.4622222222222222,-0.33,-0.4177777777777778,0.00387897443885309,-0.07974054034373948,-0.09822608876066197
1592167894.629438,-0.5064702418414433,8.832820072630227,4.438048100679413,-0.45865100345868304,-0.3172456472730744,-0.4101251661416224,0.022788717227968394,-0.09586339791762515,-0.06766470004354225
1592167894.639438,-0.4551638569717222,8.931098775100697,4.405653961375758,-0.45444444444444443,-0.3022222222222222,-0.4011111111111111,0.04512755850085742,-0.11832396127877452,-0.019010706434419353
1592167894.649438,-0.25130081562214984,9.02626104459106,4.2587001690332515,-0.45444444444444443,-0.3022222222222222,-0.4011111111111111,0.054936296787185465,-0.128226265129138,-0.004429170821550415
1592167894.659438,-0.2146673744002791,9.02478343230301,4.153314273231844,-0.45444444444444443,-0.3022222222222222,-0.4011111111111111,0.05393716631807944,-0.11212921607701,-0.017592876849569908
1592167894.669438,-0.2822807062093235,8.995596228405708,4.104071623209683,-0.45444444444444443,-0.3022222222222222,-0.4011111111111111,0.0401564828521969,-0.10363610231645504,-0.027512
1592167894.6794379,-0.2354511715916502,8.788777000205274,4.094279386090886,-0.45762288028347253,-0.3022222222222222,-0.4020192356365477,0.019381558452978013,-0.11278183587894698,-0.009177394331924993
1592167894.6894379,-0.06879919375882398,8.930021458502008,4.151275578299774,-0.4622222222222222,-0.3022222222222222,-0.4033333333333333,-0.0026251927027776054,-0.11164767472776299,0.016706664607803876
1592167894.6994379,0.0006571423255142643,9.042539122305522,4.228455408014526,-0.4622222222222222,-0.3022222222222222,-0.4033333333333333,-0.01735846721110935,-0.07268955885192159,-0.002738252868764265
1592167894.7094378,-0.17065604660677341,8.954650779456392,4.216742166159685,-0.4622222222222222,-0.3022222222222222,-0.4033333333333333,-0.011826687344638811,-0.05305413730003377,-0.031769
1592167894.7194378,-0.32892338156925427,8.972067654574117,4.1512068464596386,-0.4622222222222222,-0.3022222222222222,-0.4033333333333333,-0.030420044470474753,-0.02313735716129783,-0.0399877219080863
1592167894.7294378,-0.3758795682892908,8.9719256575603,4.032238100355941,-0.4656008374276115,-0.3022222222222222,-0.39263438518293403,-0.04245209357089573,-0.010168509029833793,-0.05536989632037381
1592167894.7394378,-0.5886770898781086,8.940014676582608,3.973763089878109,-0.4688888888888889,-0.3022222222222222,-0.38222222222222224,-0.06212374632276274,-0.009796650835933559,-0.0034407049012059594
1592167894.7494378,-0.42318649523829976,8.937641558347687,4.11639841433024,-0.4688888888888889,-0.3022222222222222,-0.38222222222222224,-0.07787911357531352,0.01225017808451469,0.02889811357531352
1592167894.7594378,-0.17470909875505958,9.075605355779496,4.134028446710384,-0.4688888888888889,-0.3022222222222222,-0.38222222222222224,-0.08961233410661743,0.015451674573892403,0.014567237154764934
1592167894.7694378,-0.391060923252806,9.018142688442063,4.145365474566505,-0.4688888888888889,-0.3022222222222222,-0.38222222222222224,-0.09373513121309547,0.015275031078073466,0.005204074815771953
1592167894.7794378,-0.3591180686756878,8.93193140836626,4.18823910382332,-0.463509643706917,-0.3022222222222222,-0.3739464604038039,-0.09478196920759976,-0.009509707334867794,0.031874347924044005
1592167894.7894378,-0.18509111947992837,9.107756291197372,4.16231975345921,-0.45444444444444443,-0.3022222222222222,-0.36,-0.08920616063533393,-0.002998391557561467,0.03185359705353891
1592167894.7994378,-0.24465289449728006,8.981359104686456,4.1293819104012215,-0.45444444444444443,-0.3022222222222222,-0.36,-0.10316382229935184,0.007590403908787435,-0.02621868699095638
1592167894.8094378,-0.5206242890424497,8.994405312997882,4.146923546264376,-0.45444444444444443,-0.3022222222222222,-0.36,-0.11254658136325325,0.026870176866901914,-0.03621812412182324
1592167894.8194377,-0.6856426438841569,8.936949334224895,4.256544760253482,-0.45444444444444443,-0.3022222222222222,-0.36,-0.11714864118665101,0.030838717626697976,-0.010364880526276607
1592167894.8294377,-0.6021484731754911,8.912408252155029,4.2820762793657146,-0.4554523404382351,-0.29567089826258286,-0.35395262403725597,-0.11605284743850511,0.023210863901923333,0.03063367989872789
1592167894.8394377,-0.4637187121510322,9.184967353867894,4.2814033455039695,-0.45666666666666667,-0.2877777777777778,-0.3466666666666667,-0.10984989145286107,0.02700759599099923,-0.011975141788216456
1592167894.8494377,-0.6102908947349032,9.017681944091663,4.332910348490404,-0.45666666666666667,-0.2877777777777778,-0.3466666666666667,-0.0935163709592951,0.03459610915474437,-0.05416372684624132
1592167894.8594377,-0.7057218245602189,8.875340011716496,4.282210932116065,-0.45666666666666667,-0.2877777777777778,-0.3466666666666667,-0.087524,0.030941209281373613,-0.05324985109970675
1592167894.8694377,-0.6389586884627984,8.765658009747835,4.258095745789011,-0.45666666666666667,-0.2877777777777778,-0.3466666666666667,-0.10253358068478614,0.02864547723889562,-0.0052959925291154505
1592167894.8794377,-0.5508393473693528,8.861581027196399,4.319246428088585,-0.4612750571929252,-0.28387837040940517,-0.3420582761404081,-0.11408033525791704,0.025480554914027655,0.021820758469393853
1592167894.8894377,-0.42427640656511006,8.946842823013853,4.556590779365989,-0.4711111111111111,-0.27555555555555555,-0.3322222222222222,-0.0994403929015507,0.029716280556539538,0.03589467345809023
1592167894.8994377,-0.4873529005179383,8.945078757031975,4.755932465102037,-0.4711111111111111,-0.27555555555555555,-0.3322222222222222,-0.0707939241088077,0.05465167638825885,0.020662315677961538
1592167894.9094377,-0.5842550435613345,8.84162352111319,4.801759297467826,-0.4711111111111111,-0.27555555555555555,-0.3322222222222222,-0.04054931854036256,0.05667362635185286,0.033977307811490304
1592167894.9194376,-0.6063637228704208,8.939783683068427,4.773081683068426,-0.4711111111111111,-0.27555555555555555,-0.3322222222222222,0.0022060311391251166,0.049606,0.05465886305111515
1592167894.9294376,-0.5886917946949872,8.92613507567067,4.697474338647061,-0.4711111111111111,-0.2728702683875098,-0.32493358562324076,0.040881344985728804,0.043207782180475156,0.06037929008729622
1592167894.9394376,-0.5860743111879944,8.983361751283882,4.485489196642838,-0.4711111111111111,-0.2677777777777778,-0.3111111111111111,0.0614142287337486,0.049957036270992725,0.045782219038514586
1592167894.9494376,-0.5112287989348602,8.921695531323419,4.4791153998763855,-0.4711111111111111,-0.2677777777777778,-0.3111111111111111,0.07072373450468984,0.0692051955256705,0.02281849615092578
1592167894.9594376,-0.5224403508034309,8.95089781345592,4.517188990316792,-0.4711111111111111,-0.2677777777777778,-0.3111111111111111,0.07772977277349963,0.08776074225135153,-0.005142
1592167894.9694376,-0.5551361545551233,8.784587013219719,4.4566935782151,-0.4711111111111111,-0.2677777777777778,-0.3111111111111111,0.07632067344106412,0.09499334688212825,0.0065617871367908455
1592167894.9794376,-0.5681729530245496,8.910796659667946,4.42438243092983,-0.4608995685669153,-0.2655698766871408,-0.306143333657178,0.08401964948013688,0.09210887480227353,0.04069964948013687
1592167894.9894376,-0.4704779916623706,8.943238411556889,4.53840642448918,-0.43,-0.2588888888888889,-0.2911111111111111,0.10532795829657102,0.06731251574202265,0.04775742990201366
1592167894.9994376,-0.602797815188325,9.069555375770776,4.3894497227658835,-0.43,-0.2588888888888889,-0.2911111111111111,0.12926181603083167,0.036487385443285565,0.031206029490885856
1592167895.0094376,-0.7221792003102656,8.952019870895066,4.20451479824753,-0.43,-0.2588888888888889,-0.2911111111111111,0.14181782531364107,-0.005370523076496421,0.0346042439566045
1592167895.0194376,-0.4530357587030003,9.016376971224869,3.975544092402023,-0.43,-0.2588888888888889,-0.2911111111111111,0.13370365577341448,-0.022804450857266366,0.047244851678718475
1592167895.0294375,-0.1480019758019603,9.10668046293077,3.9286174969915155,-0.4322514657422861,-0.261515598921556,-0.29336257685339723,0.10243125948817089,-0.01021724082033414,0.006841696103703714
1592167895.0394375,-0.11472060476686857,8.953926668529762,4.011803925448619,-0.43666666666666665,-0.26666666666666666,-0.29777777777777775,0.07351076370428306,0.009580011252588467,-0.025811225043128477
1592167895.0494375,-0.18707230530854155,8.933859704160804,4.1961112368172735,-0.43666666666666665,-0.26666666666666666,-0.29777777777777775,0.059291454874010066,0.026049411961914903,-0.022803759805608618
1592167895.0594375,-0.22261141169261953,8.922147965906726,4.298890885034264,-0.43666666666666665,-0.26666666666666666,-0.29777777777777775,0.05399301034162842,0.03672340862702269,-0.0028435770388395
1592167895.0694375,-0.20746271823487755,8.954211265586757,4.290181791884187,-0.43666666666666665,-0.26666666666666666,-0.29777777777777775,0.04949641041993267,0.046136233458976855,-0.010733596618782417
1592167895.0794375,-0.3826880950898921,8.912943709844106,4.2822198759667325,-0.4328917806695584,-0.26666666666666666,-0.29777777777777775,0.04573940164144254,0.037487709560615805,-0.019249607139286747
1592167895.0894375,-0.5610533979666725,8.8655733095918,4.22115450370426,-0.42444444444444446,-0.26666666666666666,-0.29777777777777775,0.04091964749071253,0.025310531222704654,0.006630298445553997
1592167895.0994375,-0.5258539984679567,8.944361078677549,4.0763241589843195,-0.42444444444444446,-0.26666666666666666,-0.29777777777777775,0.02197221992011252,0.002616397454682331,0.03092847786967793
1592167895.1094375,-0.48163699403146343,9.075515380819818,4.102358750049127,-0.42444444444444446,-0.26666666666666666,-0.29777777777777775,0.011529826430371412,-0.0015577603544428813,0.014905287248202415
1592167895.1194375,-0.6242210452605509,8.984236386039965,4.244778667943495,-0.42444444444444446,-0.26666666666666666,-0.29777777777777775,0.006277379219150167,-0.011020983779477526,-0.014570604560327358
1592167895.1294374,-0.6435289274131416,9.086454416346472,4.372252543069074,-0.42906231954029517,-0.26358808326943284,-0.29623848607916087,0.019616256954015962,-0.01622462847700798,-0.03452425695401596
1592167895.1394374,-0.7258936426048039,8.931020567290481,4.442493538612514,-0.4444444444444444,-0.25333333333333335,-0.2911111111111111,0.04605280410480547,-0.03885487659871222,-0.02512169425920916
1592167895.1494374,-0.7423740785737385,9.00792296843327,4.343908107682102,-0.4444444444444444,-0.25333333333333335,-0.2911111111111111,0.06904126105073402,-0.06627608463673691,-0.007377175451282283
1592167895.1594374,-0.6686140804870915,9.02688536249,4.125878147050396,-0.4444444444444444,-0.25333333333333335,-0.2911111111111111,0.08039297508775778,-0.09672841298831698,-0.012335983391838517
1592167895.1694374,-0.6696150801760463,9.033754745506869,3.9913577210469335,-0.4444444444444444,-0.25333333333333335,-0.2911111111111111,0.07111608821740294,-0.11281932226347463,-0.029729911782597054
1592167895.1794374,-0.6859205794360684,9.015387002546591,3.986836663578859,-0.44295120839033286,-0.25233784263059233,-0.2900326628498083,0.05868814724502919,-0.1276528683477027,-0.03778386807308579
1592167895.1894374,-0.6899059623334683,8.98256774491878,4.042208880246152,-0.42444444444444446,-0.24,-0.27666666666666667,0.047163517421870776,-0.13510240956584374,-0.03392491949496943
1592167895.1994374,-0.5977594839920397,9.036611780986957,4.026034892473679,-0.42444444444444446,-0.24,-0.27666666666666667,0.0316753044939043,-0.1254881532605216,-0.04147545915367687
1592167895.2094374,-0.5669684069487522,8.99126346047346,4.1522105561996145,-0.42444444444444446,-0.24,-0.27666666666666667,0.019341417384426244,-0.11214159127022234,-0.048305436262323406
1592167895.2194374,-0.6779998969914915,8.953642980892146,4.341654776325152,-0.42444444444444446,-0.24,-0.27666666666666667,0.021733978961383293,-0.10168504449683775,-0.03226777713495904
1592167895.2294374,-0.6443992524804791,8.977712711029096,4.347521479332576,-0.42393804619225967,-0.2407826154806492,-0.27666666666666667,0.031513494703581384,-0.08231281600899298,-0.016800416248467287
1592167895.2394373,-0.6344635289729647,9.004795049245692,4.288789700680541,-0.4122222222222222,-0.2588888888888889,-0.27666666666666667,0.039222862059590094,-0.06057380939010082,-0.016474603344327262
1592167895.2494373,-0.6460452608597119,8.984685849085487,4.2727227449959315,-0.4122222222222222,-0.2588888888888889,-0.27666666666666667,0.04407892544320523,-0.03593654202565364,-0.024989470652161592
1592167895.2594373,-0.7065713917130348,8.99012404683015,4.233607714978797,-0.4122222222222222,-0.2588888888888889,-0.27666666666666667,0.047132620483694466,-0.02239500505852014,-0.024323
1592167895.2694373,-0.6851627856979013,8.982001507997337,4.14402395259621,-0.4122222222222222,-0.2588888888888889,-0.27666666666666667,0.045639,-0.009726713293580002,-0.016538656925827563
1592167895.2794373,-0.6713855633170999,8.977505749737515,4.1346299061427,-0.4122222222222222,-0.2588888888888889,-0.27666666666666667,0.043404443276106396,-0.005783,-0.010368897135318052
1592167895.2894373,-0.6471422139771938,8.999753276219058,4.103456213977194,-0.4122222222222222,-0.24666666666666667,-0.26222222222222225,0.03813417764613995,-0.008518473394535079,-0.003518348959324973
1592167895.2994373,-0.7014358388039253,8.994618226392532,4.132541189619565,-0.4122222222222222,-0.24666666666666667,-0.26222222222222225,0.03606682855451326,-0.03225125663575472,0.003885942357216986
1592167895.3094373,-0.6856768373113076,9.009609262966917,4.027707103256572,-0.4122222222222222,-0.24666666666666667,-0.26222222222222225,0.03456560317425869,-0.0688154625340119,0.01168788296629147
1592167895.3194373,-0.6969117034617551,9.009755025302434,3.917726189647637,-0.4122222222222222,-0.24666666666666667,-0.26222222222222225,0.02271827267104113,-0.11767160500232238,0.024172288018644253
1592167895.3294373,-0.5391577068569261,8.991305070010444,3.944955223660964,-0.4122222222222222,-0.24666666666666667,-0.2605398755684626,0.0007933721404052643,-0.13076296411731111,0.04590422154372187
1592167895.3394372,-0.25217260208022263,9.026256250073455,4.008520102538898,-0.4122222222222222,-0.24666666666666667,-0.24888888888888888,-0.019427180607922905,-0.11223159354017403,0.0665633268621244
1592167895.3494372,0.09711563812801477,9.018591327757171,4.218004169800496,-0.4122222222222222,-0.24666666666666667,-0.24888888888888888,-0.028860539108244158,-0.07303071664125342,0.0664674854138534
1592167895.3594372,0.22114829104798928,9.065620790876487,4.388323917125161,-0.4122222222222222,-0.24666666666666667,-0.24888888888888888,-0.019017852018264947,-0.026484139393944207,0.04852555277330495
1592167895.3694372,0.2774286752920544,9.036225873989062,4.364317725004979,-0.4122222222222222,-0.24666666666666667,-0.24888888888888888,-0.0046228611059811325,0.031695106958604786,0.02432520010965007
1592167895.3794372,0.1916338934781236,9.035623302335672,4.162744698268474,-0.4122222222222222,-0.2468869901778216,-0.25021082995581845,0.001388893016513545,0.06818011901814171,0.00475732749011506
1592167895.3894372,-0.03555365932817049,9.005729834132397,4.01576322350082,-0.4122222222222222,-0.24888888888888888,-0.26222222222222225,-0.006777406385809934,0.08393136741100476,-0.004618480512597414
1592167895.3994372,-0.17795878275890942,9.0195839891854,3.884337631416212,-0.4122222222222222,-0.24888888888888888,-0.26222222222222225,-0.030664019872728838,0.08748384893883768,0.0015837290056490063
1592167895.4094372,-0.19892814282525068,9.013244620915879,3.979878848998068,-0.4122222222222222,-0.24888888888888888,-0.26222222222222225,-0.05360233085614875,0.07758415239954398,0.015065965562870208
1592167895.4194372,-0.02484276177328322,9.017730726474795,4.125131824864984,-0.4122222222222222,-0.24888888888888888,-0.26222222222222225,-0.060707126815981116,0.055643310294699856,0.01793824299993891
1592167895.4294372,0.1143339834289085,9.002181204520449,4.288933534225755,-0.41275136949991165,-0.25005301289980564,-0.2615872454889949,-0.059083546817016476,0.04806662996619618,0.009640599914925888
1592167895.4394372,0.09577174585757829,9.025778293854325,4.43940623258221,-0.4177777777777778,-0.2611111111111111,-0.25555555555555554,-0.04487874914296035,0.05632822683157445,-0.005470226831574448
1592167895.4494371,0.010002307336951517,8.985684134876243,4.541194876723865,-0.4177777777777778,-0.2611111111111111,-0.25555555555555554,-0.019677908232277976,0.06369238945861444,-0.010713235949913058
1592167895.4594371,-0.08985526219477227,8.978931812328556,4.432997031374488,-0.4177777777777778,-0.2611111111111111,-0.25555555555555554,-0.0019244091738868348,0.06654132743538699,-0.01349475430311287
1592167895.4694371,-0.18369686292161688,8.99227481248239,4.422705528212795,-0.4177777777777778,-0.2611111111111111,-0.25555555555555554,0.015057789690276432,0.062207575046597914,-0.006077660115686087
1592167895.479437,-0.2255413543279792,8.980768353716027,4.351741124878223,-0.4177777777777778,-0.2611111111111111,-0.25555555555555554,0.03604700669592471,0.04961223966442028,0.0012484975735633278
1592167895.489437,-0.1430720324563892,8.986166295272415,4.370690735649703,-0.4177777777777778,-0.2677777777777778,-0.25555555555555554,0.04862550114015157,0.039042726949242094,0.014932138166665188
1592167895.499437,0.014296095014556916,9.018404773177679,4.3299158411924275,-0.4177777777777778,-0.2677777777777778,-0.25555555555555554,0.06224362778536384,0.026545478564290174,0.011022680951037964
1592167895.509437,0.04323837890669975,9.024949918455654,4.202649183243448,-0.4177777777777778,-0.2677777777777778,-0.25555555555555554,0.06978064960891868,0.01995721782956723,0.004622217829567229
1592167895.519437,0.03173248564678745,9.026401058778767,4.199414252585788,-0.4177777777777778,-0.2677777777777778,-0.25555555555555554,0.06895802867893516,0.012789440115611783,-0.00466822926681663
1592167895.529437,-0.02888648699790193,9.017017473011325,4.209288254693324,-0.4177777777777778,-0.2677777777777778,-0.25555555555555554,0.071198,0.0005645942648192835,-0.012017247577068242
1592167895.539437,-0.03707931126533599,9.015381,4.178652191739208,-0.42444444444444446,-0.25555555555555554,-0.24888888888888888,0.07422755247557221,-0.011132601618734746,-0.013657
1592167895.549437,-0.06743620491715638,9.008990478460102,4.15512424304508,-0.42444444444444446,-0.25555555555555554,-0.24888888888888888,0.07567574405848346,-0.020288650228945226,-0.015375650228945228
1592167895.559437,-0.08808178620944994,9.010702898893747,4.2251616317754825,-0.42444444444444446,-0.25555555555555554,-0.24888888888888888,0.07818606273342038,-0.02568428797635296,-0.015197937266579618
1592167895.569437,-0.041341591865125885,9.041691695074062,4.199036215704958,-0.42444444444444446,-0.25555555555555554,-0.24888888888888888,0.08426292440599394,-0.03296447523712858,-0.013396449168865354
1592167895.579437,-0.007005822474488657,9.047703473152334,4.080774911372658,-0.42444444444444446,-0.25555555555555554,-0.24888888888888888,0.083984,-0.030873112258396267,-0.017828775483207465
1592167895.589437,0.012459816024075542,9.04282956965886,3.954524506414535,-0.4122222222222222,-0.25555555555555554,-0.27,0.07269481446857881,-0.023048907234289408,-0.02441994264267115
1592167895.599437,-0.05084640643890726,9.042751395846558,3.9842245814201083,-0.4122222222222222,-0.25555555555555554,-0.27,0.05983156767150449,-0.02212381851879627,-0.02999781851879627
1592167895.609437,-0.1210789739116755,9.040107197293803,3.934494653547283,-0.4122222222222222,-0.25555555555555554,-0.27,0.046170733544215574,-0.022150507629280124,-0.028652249600925273
1592167895.619437,-0.13793254665014984,9.036327467706354,3.867680692674598,-0.4122222222222222,-0.25555555555555554,-0.27,0.029762046236709364,-0.025617393084675154,-0.02342101166008514
1592167895.629437,-0.13821355843440541,9.032247898057896,3.8337739805087354,-0.4122222222222222,-0.25555555555555554,-0.27,0.007010211937394988,-0.02984510769440114,-0.01837289230559886
1592167895.639437,-0.1567785054712893,9.020420652885857,3.963332074237359,-0.43,-0.2411111111111111,-0.26222222222222225,-0.010131066830344539,-0.03195331394663872,-0.0105669944188965
1592167895.649437,-0.16269802058933,9.023125166314667,4.086551276488749,-0.43,-0.2411111111111111,-0.26222222222222225,-0.017849560596016483,-0.034484944436906695,-0.00621
1592167895.659437,-0.0789916722158666,9.025817582320212,4.163703850463385,-0.43,-0.2411111111111111,-0.26222222222222225,-0.020416,-0.02652445592079581,-0.0035198206478088195
1592167895.669437,-0.049981246032025375,9.053169019670769,4.1957194203178485,-0.43,-0.2411111111111111,-0.26222222222222225,-0.01409947289609499,-0.024407932804080466,-0.005612798412241403
1592167895.679437,-0.017910773887881145,9.025930423206034,4.222111748330383,-0.43,-0.2411111111111111,-0.26222222222222225,-0.009275608453840855,-0.025549393373290905,-0.0066916066267090945
1592167895.689437,-0.01805946063208412,9.025456156899201,4.193066204043196,-0.4122222222222222,-0.25555555555555554,-0.25555555555555554,-0.006265179644909901,-0.019479213570060067,-0.009854032446813769
1592167895.699437,-0.028601517408403533,9.03981167530368,4.134259510104896,-0.4122222222222222,-0.25555555555555554,-0.25555555555555554,-0.0014577643076167921,-0.01837458912780428,-0.013867410872195717
1592167895.709437,-0.012511086149228814,9.035408926676054,4.1013384198588865,-0.4122222222222222,-0.25555555555555554,-0.25555555555555554,-0.0026993240981976275,-0.01616609589164529,-0.016188324098197628
1592167895.719437,-0.01762545362020411,9.037902115947272,4.018660864451303,-0.4122222222222222,-0.25555555555555554,-0.25555555555555554,-0.00802595945861673,-0.01717889875774632,-0.021485530350435208
1592167895.7294369,-0.07607611455670105,9.024517190416146,4.011959271831769,-0.4122222222222222,-0.25555555555555554,-0.25555555555555554,-0.015377174827664384,-0.01958920980686791,-0.02286579131001146
1592167895.7394369,-0.1302777072125375,9.011008520958816,4.068248375302728,-0.4177777777777778,-0.2611111111111111,-0.25555555555555554,-0.023160885709053763,-0.01795049551081319,-0.02201060980175943
1592167895.7494369,-0.1923522592244004,9.000828969709776,4.105724441524672,-0.4177777777777778,-0.2611111111111111,-0.25555555555555554,-0.025742,-0.02154937597988708,-0.013881624020112919
1592167895.7594368,-0.15189297638001836,9.024903865586419,4.173894372117054,-0.4177777777777778,-0.2611111111111111,-0.25555555555555554,-0.023923234763005414,-0.028474510890757577,-0.0067781565086702765
1592167895.7694368,-0.07041345317014919,9.038274688645885,4.162522984035554,-0.4177777777777778,-0.2611111111111111,-0.25555555555555554,-0.02169112799790244,-0.02171947978573924,-0.003006
1592167895.7794368,-0.05923028034380256,9.023372337509171,4.16729572359357,-0.4177777777777778,-0.2611111111111111,-0.25555555555555554,-0.022151060914107103,-0.015671663000973852,-0.004268334249756537
