time,acc_x,acc_y,acc_z,mag_x,mag_y,mag_z,gyr_x,gyr_y,gyr_z
1592167897.789435,-0.10117971035577229,9.074527518126414,4.0266915566686485,-0.4177777777777778,-0.2611111111111111,-0.24888888888888888,0.020131836767026377,0.003928650451040032,0.004775290791099351
1592167897.799435,-0.10497586004886511,9.073588547385917,4.030919214267531,-0.40444444444444444,-0.27555555555555555,-0.24888888888888888,0.02572515313868754,0.004498135646042895,0.00903215313868754
1592167897.809435,-0.1051989509715764,9.1050158017803,3.9923983570740926,-0.40444444444444444,-0.27555555555555555,-0.24888888888888888,0.029539064064726107,0.006327731754008555,0.016040644289142182
1592167897.819435,-0.0669427995660802,9.107838871480087,3.978323618012426,-0.40444444444444444,-0.27555555555555555,-0.24888888888888888,0.029663,0.006144759289033921,0.01893789435204537
1592167897.8294349,-0.026589619791098553,9.129365947211985,3.9566171313906953,-0.40444444444444444,-0.27555555555555555,-0.24888888888888888,0.029047899395869693,0.008962798791739389,0.01981632345897444
1592167897.8394349,-0.035975613232222516,9.09802583236562,3.9255893585702966,-0.40444444444444444,-0.27555555555555555,-0.24888888888888888,0.026459,0.005455306856367884,0.01781430685636788
1592167897.8494349,-0.05198398302085547,9.102573084958689,3.9185100426178083,-0.4119780374115575,-0.27555555555555555,-0.22736433755428015,0.0242798321133651,0.009176026216809121,0.020432
1592167897.8594348,-0.11176527175625059,9.113905967458715,3.987819433966664,-0.4122222222222222,-0.27555555555555555,-0.22666666666666666,0.024873092069259407,0.014957856609774799,0.02517154191749706
1592167897.8694348,-0.14258726003467054,9.11243054887524,4.040635467591807,-0.4122222222222222,-0.27555555555555555,-0.22666666666666666,0.029589983577658355,0.021838983577658354,0.0336354881222624
1592167897.8794348,-0.16714187650857745,9.111729227214916,4.053370639441665,-0.4122222222222222,-0.27555555555555555,-0.22666666666666666,0.03516181561578653,0.028620286760327372,0.0428333444712457
1592167897.8894348,-0.23475302706496634,9.1485504375866,4.08559716434355,-0.4122222222222222,-0.27555555555555555,-0.22666666666666666,0.04480941203990148,0.029322762761399702,0.057359003797233445
1592167897.8994348,-0.2843171954746406,9.118941610819826,4.077683378344977,-0.4175680387683446,-0.26807141239098425,-0.23415080983123798,0.0544727175127164,0.02338195113245079,0.07694068965685927
1592167897.9094348,-0.22390091027825623,9.125596315944629,4.10019141687196,-0.4177777777777778,-0.2677777777777778,-0.23444444444444446,0.06663176636811767,0.018877914269642464,0.08299171697138549
1592167897.9194348,-0.18110494568086744,9.130042203011055,3.968514050128194,-0.4177777777777778,-0.2677777777777778,-0.23444444444444446,0.06942908943629642,-0.02130525286623789,0.029750159802595277
1592167897.9294348,-0.4257242049235337,9.106069802361661,3.8886384143701758,-0.4177777777777778,-0.2677777777777778,-0.23444444444444446,0.06694,-0.059700591376835095,0.002219332350527672
1592167897.9394348,-0.4828076084729856,9.126578379644057,3.8639262524672664,-0.4177777777777778,-0.2677777777777778,-0.23444444444444446,0.06197615271076683,-0.062191349229621266,0.008416498059611914
1592167897.9494348,-0.4198110144316643,9.174440188986333,3.7229630211810845,-0.4122222222222222,-0.2611111111111111,-0.24888888888888888,0.052010882441933616,-0.07877247516428453,0.0031002330283411436
1592167897.9594347,-0.3854491257911402,9.175265962584712,3.5485788615002782,-0.4122222222222222,-0.2611111111111111,-0.24888888888888888,0.028510928617611783,-0.08661614287744465,-0.007144849607338947
1592167897.9694347,-0.419058195805026,9.146589657121895,3.380832563675196,-0.4122222222222222,-0.2611111111111111,-0.24888888888888888,-0.008111675438628684,-0.09778500376938586,-0.009643961046193257
1592167897.9794347,-0.46513190287739864,9.137926666320324,3.343777790963726,-0.4122222222222222,-0.2611111111111111,-0.24888888888888888,-0.056693758988144695,-0.1135028502940904,-0.002661427392727123
1592167897.9894347,-0.5035303504691149,9.112711179281012,3.4195446775172122,-0.4122222222222222,-0.2611111111111111,-0.24888888888888888,-0.10559688556210066,-0.13545480082428935,-0.00968950980804675
1592167897.9994347,-0.7115167426587872,9.094023895778754,3.6102960268941473,-0.4177777777777778,-0.2677777777777778,-0.26222222222222225,-0.14808500932384466,-0.15602666789040925,-0.04183284660399772
1592167898.0094347,-0.9149700624321631,9.093733083131523,3.9007392455559096,-0.4177777777777778,-0.2677777777777778,-0.26222222222222225,-0.17434496741203176,-0.250981946296052,-0.05023606197444642
1592167898.0194347,-0.8419315845377999,9.056731573457958,4.08635503082993,-0.4177777777777778,-0.2677777777777778,-0.26222222222222225,-0.1834563419149404,-0.29676936246217056,-0.05462747290406136
1592167898.0294347,-0.6483236653516637,9.06004403051547,4.156393462639996,-0.4177777777777778,-0.2677777777777778,-0.26222222222222225,-0.18222699742861181,-0.333792495691032,-0.07355199786381263
1592167898.0394347,-0.498093550100344,9.108243899384142,4.181082146318338,-0.4177777777777778,-0.2677777777777778,-0.26222222222222225,-0.17481487958230707,-0.3232078966054147,-0.08175347342304436
1592167898.0494347,-0.3334394860534983,9.113879033243531,4.140189306494796,-0.4177777777777778,-0.2556401353276353,-0.2346366711991712,-0.15276055815034512,-0.302249440830949,-0.06275607570548364
1592167898.0594347,-0.31399094684254203,9.123983804013102,4.109110779053973,-0.4177777777777778,-0.25555555555555554,-0.23444444444444446,-0.13798012133470935,-0.2947022133284,-0.06277918728735003
1592167898.0694346,-0.358658,9.098820343646864,3.912137429510768,-0.4177777777777778,-0.25555555555555554,-0.23444444444444446,-0.13217888216778384,-0.26991312988815347,-0.062668
1592167898.0794346,-0.4041500760357655,9.05953973049374,3.8737480681533247,-0.4177777777777778,-0.25555555555555554,-0.23444444444444446,-0.1412879091058372,-0.24137098858218062,-0.06255608842002143
1592167898.0894346,-0.4009376960530301,9.000650909748806,3.9746958714952307,-0.4177777777777778,-0.25555555555555554,-0.23444444444444446,-0.15365689404906055,-0.22953981127868042,-0.07831874021931708
1592167898.0994346,-0.3654476474037784,9.004608,4.187364008791881,-0.43590297173087433,-0.26088649495352517,-0.24830488687916535,-0.15301483546923073,-0.20548516426401525,-0.10194118987958486
1592167898.1094346,-0.3003199358459801,9.045625725688694,4.3452780885098,-0.43666666666666665,-0.2611111111111111,-0.24888888888888888,-0.13986452538314895,-0.19255625181975197,-0.10607709462884334
1592167898.1194346,-0.6749263039562041,9.013713193695507,4.2987233908150175,-0.43666666666666665,-0.2611111111111111,-0.24888888888888888,-0.12549056055424676,-0.1765448975103931,-0.06717239718029666
1592167898.1294346,-0.7641103223144612,8.90596043631827,4.9807362826396995,-0.43666666666666665,-0.2611111111111111,-0.24888888888888888,-0.10110158821325668,-0.11974341825126233,-0.02755435822968092
1592167898.1394346,-0.4308715459500772,9.121712060069337,5.007827852132037,-0.43666666666666665,-0.2611111111111111,-0.24888888888888888,-0.003971232422164003,0.004712011181869678,-0.06916157133388212
1592167898.1494346,-0.6673619153742246,9.165033969408649,4.410997191018403,-0.43666666666666665,-0.2799956744486906,-0.24888888888888888,0.05332979546332628,0.003909695873032195,-0.011057789401649198
1592167898.1594346,-0.445046596303855,9.058252567998254,4.3454759223224295,-0.43666666666666665,-0.2822222222222222,-0.24888888888888888,0.07910733412818999,0.046998378450266415,0.04538533412818999
1592167898.1694345,-0.24625828286120444,9.006161023494327,4.163611949998249,-0.43666666666666665,-0.2822222222222222,-0.24888888888888888,0.08995157561684632,0.07543165307956463,0.042966037069562105
1592167898.1794345,-0.25424326489511256,9.07560097445044,3.9250174109267695,-0.43666666666666665,-0.2822222222222222,-0.24888888888888888,0.08519985043173589,0.09335202991426114,0.02909347107122677
1592167898.1894345,-0.3813341866817549,9.06148087800068,3.902935259617653,-0.43666666666666665,-0.2822222222222222,-0.24888888888888888,0.07444458243145285,0.13147984358218012,0.017958630129692527
1592167898.1994345,-0.5114839268100471,9.055657090881214,3.899228154671456,-0.43666666666666665,-0.29408522998926506,-0.23486897061874737,0.06183485608887042,0.14419576148441293,-0.000782419048864755
1592167898.2094345,-0.6701548622688656,9.045959385896795,3.9474159798987376,-0.43666666666666665,-0.29444444444444445,-0.23444444444444446,0.050824327057806644,0.15896518310722668,-0.016571261111062892
1592167898.2194345,-0.9018408039605026,9.083890924513328,3.9467690768599,-0.43666666666666665,-0.29444444444444445,-0.23444444444444446,0.039202755687883964,0.14747595517303455,-0.018931671411408328
1592167898.2294345,-0.9759330949466216,9.12184773491893,4.016488764296902,-0.43666666666666665,-0.29444444444444445,-0.23444444444444446,0.027102973649057796,0.10016262368588828,0.008377007347504014
1592167898.2394345,-0.8557930251569674,9.066920663505691,4.059923748216441,-0.43666666666666665,-0.29444444444444445,-0.23444444444444446,0.022202,0.06141868794809598,0.040953452444074494
1592167898.2494345,-0.7749865162973795,9.068046284562541,3.9930860424800745,-0.4223625573258618,-0.28518884428274716,-0.2554798993573928,0.01674280047097059,0.05445174399786179,0.0634731624019073
1592167898.2594345,-0.5696630707214438,9.009903897506788,3.7669269182291605,-0.4177777777777778,-0.2822222222222222,-0.26222222222222225,-0.00033872007964310964,0.09908342322145586,0.06459098772345734
1592167898.2694345,-0.6309373802705222,9.004423912145661,3.635217113717788,-0.4177777777777778,-0.2822222222222222,-0.26222222222222225,-0.03205911497335403,0.1500537995596225,0.013475131559643269
1592167898.2794344,-1.0299859156489077,9.049924956462887,3.8289341166064346,-0.4177777777777778,-0.2822222222222222,-0.26222222222222225,-0.06280015869832445,0.13052303361589376,-0.01656005675615102
1592167898.2894344,-1.3182560233733709,9.056120919590526,3.99874716336876,-0.4177777777777778,-0.2822222222222222,-0.26222222222222225,-0.07754972406418484,0.10198448679819334,-0.025715251438259982
1592167898.2994344,-1.4108132155187485,9.083955496059547,4.006109161415932,-0.43856887951132467,-0.2960829567112535,-0.26828629356117345,-0.08757110794537042,0.011965191537344513,-0.014631076672639697
1592167898.3094344,-1.1948344297909512,9.06178977794224,3.957471369968296,-0.4444444444444444,-0.3,-0.27,-0.10122765141830564,-0.06700286647972833,0.014455979303008947
1592167898.3194344,-0.8152204560225547,9.024174684721597,3.9143978405283537,-0.4444444444444444,-0.3,-0.27,-0.11771512910303808,-0.12431643828260037,0.018089925981105596
1592167898.3294344,-0.5335709632663955,9.064006789347067,3.889995982364624,-0.4444444444444444,-0.3,-0.27,-0.14384665660277984,-0.14866747040035047,0.01399278688560546
1592167898.3394344,-0.3066054583183503,9.00726269992292,3.9377556644247678,-0.4444444444444444,-0.3,-0.27,-0.1644241590160215,-0.12975096110812573,-0.004172356607377506
1592167898.3494344,-0.23674427745589544,9.020630269934754,4.07575420253996,-0.4497612567640878,-0.2902525107473206,-0.28683657234553717,-0.18249405515998146,-0.12746307048042943,-0.009801969221721796
1592167898.3594344,-0.2596401266217504,9.024350353430473,4.180889723189598,-0.45111111111111113,-0.2877777777777778,-0.2911111111111111,-0.186584,-0.11023681352158561,0.0031527440124550325
1592167898.3694344,-0.2803435201772628,9.00275243027352,4.295954528975112,-0.45111111111111113,-0.2877777777777778,-0.2911111111111111,-0.18497789445045548,-0.11077499678763651,0.017485595705303485
1592167898.3794343,-0.3082842276268256,8.966786389310883,4.575858913406371,-0.45111111111111113,-0.2877777777777778,-0.2911111111111111,-0.16214605866824608,-0.09736537035828481,0.03655121410338604
1592167898.3894343,-0.27370981523814225,8.962180261288683,4.547212705941761,-0.45111111111111113,-0.2877777777777778,-0.2911111111111111,-0.13888644624387764,-0.047153000278402524,0.007250075997144238
1592167898.3994343,-0.5230570498838878,9.025369928699702,4.522132738317278,-0.45111111111111113,-0.3022573486912724,-0.3132563372141029,-0.10430990126015974,-0.07937588205552393,0.002288561676882796
1592167898.4094343,-0.5902090926989139,9.030224591959861,4.4299127102794325,-0.45111111111111113,-0.30666666666666664,-0.32,-0.06961267533118054,-0.07936269632354707,-0.00402387826303476
1592167898.4194343,-0.35489584241008854,8.928607417778057,4.203475478505903,-0.45111111111111113,-0.30666666666666664,-0.32,-0.05482585053084397,-0.008260603270318766,-0.06827647899387036
1592167898.4294343,-0.4507884734363389,9.10152084568635,3.8626787900423896,-0.45111111111111113,-0.30666666666666664,-0.32,-0.06559639210409333,-0.09850718361205503,-0.12563458169355993
1592167898.4394343,-0.6551244826770636,9.03104654004566,4.009396758534047,-0.45111111111111113,-0.30666666666666664,-0.32,-0.08162461271272961,-0.11791642838708383,-0.11485290859057118
1592167898.4494343,-0.6677724947525786,8.97973108742223,4.134310850209413,-0.46502131201007685,-0.31275237955996416,-0.32521632533711214,-0.09091737513937456,-0.1212436042050115,-0.08970763469482948
1592167898.4594343,-0.7039533542913078,9.041870239373903,4.260568931030953,-0.4688888888888889,-0.31444444444444447,-0.32666666666666666,-0.10394208083113077,-0.17444495426133877,-0.05483488603978827
1592167898.4694343,-0.39868598024209845,9.122396372136562,4.349227517495266,-0.4688888888888889,-0.31444444444444447,-0.32666666666666666,-0.08076492622911365,-0.16590338443353106,-0.06373053197530378
1592167898.4794343,-0.4077905528028105,9.089148972131323,4.218436959895778,-0.4688888888888889,-0.31444444444444447,-0.32666666666666666,-0.05854445820477038,-0.202433689848938,-0.11720889694932166
1592167898.4894342,-0.7715377605485578,9.109726437288133,4.300613054730998,-0.4688888888888889,-0.31444444444444447,-0.32666666666666666,-0.045434160286403305,-0.2702438116191709,-0.09812786187737618
1592167898.4994342,-0.6050144598905387,9.11956523141077,4.283729440796706,-0.4688888888888889,-0.31518769819900677,-0.3504507868126608,-0.019929643940055964,-0.303139696817545,-0.050328076536072554
1592167898.5094342,-0.2797863833298802,9.092329618741607,4.2653410325286565,-0.4688888888888889,-0.31555555555555553,-0.3622222222222222,0.002751261237047725,-0.2956660713101538,-0.04641080624831631
1592167898.5194342,-0.0388847949589574,8.990136952623166,4.134432512363078,-0.4688888888888889,-0.31555555555555553,-0.3622222222222222,0.0034530819125099307,-0.2691803412135792,-0.07110150339088486
1592167898.5294342,-0.10586705926405737,8.966177328499409,4.278399320841342,-0.4688888888888889,-0.31555555555555553,-0.3622222222222222,0.001968,-0.291537857340666,-0.11825424357007529
1592167898.5394342,-0.11432895463948824,8.968498827792883,4.567830168500843,-0.4688888888888889,-0.31555555555555553,-0.3622222222222222,0.018335222948412576,-0.2358172340126482,-0.13600647799190893
1592167898.5494342,-0.195328895325931,9.019492253947798,4.551805444531255,-0.4625311470957667,-0.3068136605900126,-0.37732185898088744,0.0487291639706188,-0.21179806873627305,-0.12926540217227755
1592167898.5594342,-0.2863732607560732,8.993447824627221,4.675585642211239,-0.46,-0.30333333333333334,-0.38333333333333336,0.09585121424509868,-0.25293,-0.11343967739854291
1592167898.5694342,-0.11575747813229598,9.0320444108897,4.524362490327603,-0.46,-0.30333333333333334,-0.38333333333333336,0.13233404001209292,-0.19158947965523684,-0.07394627983971136
1592167898.5794342,0.10434569179065417,9.01714882644255,4.357917864645474,-0.46,-0.30333333333333334,-0.38333333333333336,0.15013794694572707,-0.15404365196171968,-0.06002457382293014
1592167898.5894341,0.16067120836189183,8.827337783962065,4.255838816853649,-0.46,-0.30333333333333334,-0.38333333333333336,0.14577085199594336,-0.17355201776384974,-0.07387265603938693
1592167898.5994341,0.09025974462056101,8.885475297548863,4.09954368624888,-0.47112077083181314,-0.3158442005191231,-0.37429770703248516,0.13122219103064692,-0.11925004695194824,-0.08027195684652758
1592167898.6094341,0.11805588304189242,8.807112842238011,3.936572756567103,-0.4777777777777778,-0.3233333333333333,-0.3688888888888889,0.09603634148769788,-0.03301275059428999,-0.08258675135833715
1592167898.619434,-0.11727951801116823,8.849606390599218,3.906489779163245,-0.4777777777777778,-0.3233333333333333,-0.3688888888888889,0.03021617316224616,-0.0692051616983619,-0.06344842488276119
1592167898.629434,-0.22095915732604815,9.05707465830243,4.362688784117873,-0.4777777777777778,-0.3233333333333333,-0.3688888888888889,0.00951461147268623,-0.05104169331423462,-0.0036481076412567797
1592167898.639434,0.0802406410575775,8.827615283174218,4.704026665702941,-0.4777777777777778,-0.3233333333333333,-0.3688888888888889,0.03440045978507614,0.022767241459668706,0.004549604667535954
1592167898.649434,-0.08011237020991915,9.168433647759725,4.478595479419525,-0.4763358306165483,-0.32765917481702184,-0.3833083605011839,0.059842063956754364,-0.026746511834119566,0.009063826946150086
1592167898.659434,-0.15038745214712235,8.828667677880564,4.692342317378398,-0.47555555555555556,-0.33,-0.39111111111111113,0.09275388221985964,0.01935241894124139,0.024771452809048453
1592167898.669434,-0.0671030558800506,9.081780560994238,4.403221572329012,-0.47555555555555556,-0.33,-0.39111111111111113,0.12213875044800941,0.04797264684980784,0.04060328766938258
1592167898.679434,0.052374015547791766,8.872700393116364,4.314343132998103,-0.47555555555555556,-0.33,-0.39111111111111113,0.1335378196447036,0.0851709951341454,0.04056802827707311
1592167898.689434,0.08120730736542192,9.036024936260903,4.163679362447427,-0.47555555555555556,-0.33,-0.39111111111111113,0.14032267848113733,0.10109526907021414,0.03072217782686025
1592167898.699434,0.06536577589550895,8.938125290974055,4.306160562908911,-0.47839320531661916,-0.33733059521608094,-0.4000970020211458,0.1451198712255439,0.13085438051920883,0.024665503326642562
1592167898.709434,0.07216005362157293,9.04957955572761,4.223072479985337,-0.4888888888888889,-0.36444444444444446,-0.43333333333333335,0.1500289825114018,0.15634681387734514,-0.015605405423621849
1592167898.719434,-0.1747758213528155,9.041573180752378,4.2873224188048615,-0.4888888888888889,-0.36444444444444446,-0.43333333333333335,0.16355296723431945,0.1288201901141558,-0.01413195559209578
1592167898.729434,-0.18079837976875313,9.03164550118071,4.169818271337466,-0.4888888888888889,-0.36444444444444446,-0.43333333333333335,0.17158128024133582,0.13902954616617536,-0.012381229080908307
1592167898.739434,-0.3344745740637769,9.083267399116343,4.104455420732384,-0.4888888888888889,-0.36444444444444446,-0.43333333333333335,0.17870936204751622,0.08693549797269934,-0.019546971352635077
1592167898.749434,-0.3081609431096003,9.069192815628604,4.056041491621565,-0.48317213662457503,-0.3575843417272679,-0.4310466324276078,0.17524501751754323,0.08410600614486038,0.01645301403395625
1592167898.759434,-0.14961406076463696,9.043865367081459,3.867594562297511,-0.4722222222222222,-0.34444444444444444,-0.4266666666666667,0.15827430339044865,0.08537986773548509,0.02068052190917555
1592167898.769434,-0.051869811807288176,9.05069618057072,3.991640816475784,-0.4722222222222222,-0.34444444444444444,-0.4266666666666667,0.14363247618954653,0.07200971455555466,0.03853814602352607
1592167898.779434,0.06946448502714347,8.955756390858856,4.074130222229663,-0.4722222222222222,-0.34444444444444444,-0.4266666666666667,0.13209722667179305,0.08991743045187058,0.04589269169574015
1592167898.789434,0.10702408992959826,9.047858966161265,4.103199185902343,-0.4722222222222222,-0.34444444444444444,-0.4266666666666667,0.12350241308658991,0.0769624740127253,0.007254267469430349
1592167898.799434,0.02736972351527825,9.09457473689898,4.187267920824064,-0.4722222222222222,-0.355466404677791,-0.43238175715803157,0.13230979548040422,0.08816316947969349,0.017180420443259153
1592167898.809434,-0.030708482484413116,9.129485645957063,4.270135845907589,-0.4722222222222222,-0.37444444444444447,-0.44222222222222224,0.154289988703084,0.08784420617171099,0.0661012845084298
1592167898.819434,0.0683188048488883,9.012647351384784,4.26643238351648,-0.4722222222222222,-0.37444444444444447,-0.44222222222222224,0.17278596643963118,0.09378963077250024,0.07410465469678909
1592167898.829434,0.12944836029710344,9.087896522468316,4.1632804955141065,-0.4722222222222222,-0.37444444444444447,-0.44222222222222224,0.19526977612165083,0.10492247243378015,0.022531746977547402
1592167898.839434,0.010970940002033157,9.097808178093409,3.963824635083183,-0.4722222222222222,-0.37444444444444447,-0.44222222222222224,0.20743512203087394,0.11769945410035434,-0.02956852088809521
1592167898.849434,-0.2895709281080276,9.187486815033164,3.894160150697097,-0.47996868241388585,-0.3678897473591906,-0.45056456396709077,0.215012,0.09692863951971413,-0.015358558689798395
1592167898.859434,-0.2767806115021221,9.037445144937186,3.8108788011623007,-0.4866666666666667,-0.3622222222222222,-0.4577777777777778,0.20206748151682238,0.11915917374979153,0.003177574170870475
1592167898.8694339,-0.2282142217123154,9.15815445419625,3.6438821226206004,-0.4866666666666667,-0.3622222222222222,-0.4577777777777778,0.17913526730615062,0.08211827006595623,-0.006929995793230947
1592167898.8794339,-0.20230092432692875,8.978055409207935,3.689346535734485,-0.4866666666666667,-0.3622222222222222,-0.4577777777777778,0.14949566645133844,0.10885540340757159,0.004881992211652496
1592167898.8894339,-0.1117491692393541,9.100336049789231,3.581987437180817,-0.4866666666666667,-0.3622222222222222,-0.4577777777777778,0.10181928709229938,0.08444664200896171,0.0026620112483604873
1592167898.8994339,-0.22766151474809979,9.186353338407296,3.628142572424974,-0.4777306152843712,-0.36408389959353377,-0.46522448726302396,0.0732160304238324,0.033257279445622075,0.03927444110875586
1592167898.9094338,-0.14810553694844206,9.021728487507385,3.726452810712186,-0.46,-0.36777777777777776,-0.48,0.040531311296288765,0.04706496743224671,0.09209131499599428
1592167898.9194338,0.05098879226740783,9.092007439350537,3.6531125838520744,-0.46,-0.36777777777777776,-0.48,0.002445336700395746,0.006067152348489077,0.1093329314323097
1592167898.9294338,0.07259748889383394,9.156389773987792,3.8149651672782485,-0.46,-0.36777777777777776,-0.48,-0.006561,-0.012679790323298584,0.08391755061780388
1592167898.9394338,0.010280418594757795,9.057432505689297,3.859142056799192,-0.46,-0.36777777777777776,-0.48,-0.013219920820120351,0.009341175723081616,0.042463193824426496
1592167898.9494338,-0.025251186319635875,9.308723270684812,3.9548128335087425,-0.4621355474790454,-0.37098109899634585,-0.48605071785729526,-0.008957843260414869,-0.012807213359933078,-0.00814232734496243
1592167898.9594338,-0.1527610712184596,9.188847008412536,4.059312391361461,-0.4666666666666667,-0.37777777777777777,-0.4988888888888889,0.017777394487499938,0.01334963607916494,-0.004194241591665002
1592167898.9694338,-0.060091443116973856,9.189602044121173,4.040353451577304,-0.4666666666666667,-0.37777777777777777,-0.4988888888888889,0.042000293092232875,0.01174389252073141,0.01576456481613251
1592167898.9794338,0.08340095888871733,9.116394654613572,3.886617890753537,-0.4666666666666667,-0.37777777777777777,-0.4988888888888889,0.04869246671840048,0.01945763468530243,-0.00608974236832052
1592167898.9894338,-0.022647442748246233,9.186803720214623,3.8594155725685675,-0.4666666666666667,-0.37777777777777777,-0.4988888888888889,0.05629,0.0011717674395222812,-0.010866858116654894
1592167898.9994338,0.10224028030048875,9.115145557985404,3.8752887218153784,-0.46472921957581165,-0.37939231702015697,-0.5011492438282198,0.04106257561809762,0.013350131875387099,0.002579086679639249
1592167899.0094337,0.23606491602184954,9.327548979407938,3.757819779918264,-0.46,-0.38333333333333336,-0.5066666666666667,0.028837108360904945,0.005427251637457983,-0.023669423904129468
1592167899.0194337,-0.05855823739560863,9.071684144359894,4.087177667793375,-0.46,-0.38333333333333336,-0.5066666666666667,0.052032,-0.04067319041167891,0.008045055125825758
1592167899.0294337,0.1479107054174532,8.997840944120655,4.006869035337163,-0.46,-0.38333333333333336,-0.5066666666666667,0.045879994893700995,0.013939570124973846,0.0455551504625457
1592167899.0394337,0.3231447732186816,9.060849591844887,3.9761754561217773,-0.46,-0.38333333333333336,-0.5066666666666667,0.03866816663833166,0.008372361245515424,0.028020886581013697
1592167899.0494337,0.4237469188178725,9.343578567037436,4.1901030823680365,-0.469728923356732,-0.38292796152680286,-0.5147741027972766,0.07205338830763368,0.044281,-0.01482513971816295
1592167899.0594337,0.24811792957537576,9.09916310450052,4.252967034075895,-0.4866666666666667,-0.38222222222222224,-0.5288888888888889,0.12701682380665497,0.07791888723866154,-0.053762096287222644
1592167899.0694337,0.14679760329607708,9.259314712851378,4.001123343595798,-0.4866666666666667,-0.38222222222222224,-0.5288888888888889,0.15541223023968437,0.11114298943215256,-0.0610058945955838
1592167899.0794337,0.02730060012119208,9.193738307021526,3.7808821527933314,-0.4866666666666667,-0.38222222222222224,-0.5288888888888889,0.16780983564102642,0.09901449199312984,-0.036682841545844544
1592167899.0894337,0.0648326613843494,9.166266656881655,3.690450330426302,-0.4866666666666667,-0.38222222222222224,-0.5288888888888889,0.15905037486703016,0.1173969313723467,0.00969353766515415
1592167899.0994337,0.09643429956558656,9.163948254430482,3.58389532695697,-0.4799494998543265,-0.3844612778263356,-0.5244107776806621,0.13723244826355482,0.11261930184687148,0.043713782917087225
1592167899.1094337,0.030700249876781313,9.365143886796318,3.665490244988293,-0.4666666666666667,-0.3888888888888889,-0.5155555555555555,0.13659064639011922,0.06500108037904646,0.1091527309704863
1592167899.1194336,0.14537628743526337,9.158987213553258,3.7094486675046183,-0.4666666666666667,-0.3888888888888889,-0.5155555555555555,0.13037842803757296,0.087151068012933,0.13610894194739445
1592167899.1294336,0.361050686935654,9.29393189314306,3.62834774701082,-0.4666666666666667,-0.3888888888888889,-0.5155555555555555,0.12469720895237643,0.0810440173351523,0.09067782131204442
1592167899.1394336,0.14182584765846887,9.058221615528202,3.705137661595351,-0.4666666666666667,-0.3888888888888889,-0.5155555555555555,0.1308650412498253,0.07408575305226422,0.1077366937745683
1592167899.1494336,0.471805519346099,9.168382219191495,3.4054952187197443,-0.4653041216914253,-0.3882076164012682,-0.5213463717003313,0.08368962193831292,0.13949764594044828,0.07445817524213778
1592167899.1594336,0.4430845768110311,9.31710092396247,3.488071119306035,-0.4622222222222222,-0.38666666666666666,-0.5344444444444445,0.09694411545853156,0.11121588454146844,0.034973750917474275
1592167899.1694336,0.27224712053033207,9.204449720909828,3.491856593075195,-0.4622222222222222,-0.38666666666666666,-0.5344444444444445,0.0889754164491396,0.16830212866342528,0.03099016171090619
1592167899.1794336,0.23852661634433037,9.16977483753848,3.3645130451233465,-0.4622222222222222,-0.38666666666666666,-0.5344444444444445,0.06483144800883314,0.15708348808734862,0.04883510388840973
1592167899.1894336,0.28752314503097487,9.22874303924116,3.233867806399515,-0.4622222222222222,-0.38666666666666666,-0.5344444444444445,0.022366184600025797,0.13421522820197562,0.02331510440509456
1592167899.1994336,0.14328845138101148,9.144947687515366,3.2648274108866127,-0.4638435447136108,-0.3877475483275924,-0.5384977506729158,-0.019800319085607178,0.12278342884072974,-0.014322788489182168
1592167899.2094336,0.06004811503300395,9.216668041075254,3.3181319170864305,-0.4688888888888889,-0.39111111111111113,-0.5511111111111111,-0.06970107958468783,0.08722245720822848,-0.034795771395885765
1592167899.2194335,-0.04656496214343739,9.315276912866393,3.606841462405659,-0.4688888888888889,-0.39111111111111113,-0.5511111111111111,-0.07061990147740489,0.043352674684036994,-0.019174035528567793
1592167899.2294335,0.033299942252177084,9.176446845378406,3.7890762120157198,-0.4688888888888889,-0.39111111111111113,-0.5511111111111111,-0.06939412714697217,0.04218812019444731,0.010276749292542152
1592167899.2394335,0.12710818011735397,9.308040510684291,3.673347971077217,-0.4688888888888889,-0.39111111111111113,-0.5511111111111111,-0.0719723868974079,-0.028872258014270565,-0.0074374172332268545
1592167899.2494335,0.13767921711492542,9.247216277616484,3.840879969660531,-0.46717800433235956,-0.392251700815464,-0.5559586173546109,-0.05322903231619656,-0.049533621927084846,0.006716435650160368
1592167899.2594335,0.2700018069339065,9.203815386450765,3.791546231918401,-0.4622222222222222,-0.39555555555555555,-0.57,-0.044200283070264884,-0.06177373097584462,0.011514092708570924
1592167899.2694335,0.5998719530257963,9.174893563350576,3.6451711980849413,-0.4622222222222222,-0.39555555555555555,-0.57,-0.052657846363945396,-0.04898307316414016,-0.037073523769131304
1592167899.2794335,0.4369362167155197,9.230066730964037,3.6502426100846534,-0.4622222222222222,-0.39555555555555555,-0.57,-0.05301912943421028,-0.05794088823351691,-0.05562287056578972
1592167899.2894335,0.2921692962478532,9.194548049929972,3.778381751091007,-0.4622222222222222,-0.39555555555555555,-0.57,-0.05396174059830567,-0.03401874059830567,-0.046951747656498795
1592167899.2994335,0.26453751341261755,9.401965135366604,3.86642237335974,-0.46070925078119324,-0.39479906983504104,-0.5720172952547052,-0.023574377866813424,-0.05133826763340775,-0.026050428849524656
1592167899.3094335,0.3552214552778624,9.135408729552736,3.84035767300006,-0.4488888888888889,-0.3888888888888889,-0.5877777777777777,-0.0039254309455000755,-0.020263092084422327,0.007355589506863463
1592167899.3194335,0.4969812061360624,9.171343210708383,3.633032649532762,-0.4488888888888889,-0.3888888888888889,-0.5877777777777777,-0.01294508959902176,-0.054248046758369584,-0.007257115976612979
1592167899.3294334,0.45557191304607764,9.23747642941344,3.637698445858819,-0.4488888888888889,-0.3888888888888889,-0.5877777777777777,-0.016144,-0.06112547480960385,-0.06339751916322908
1592167899.3394334,0.2241845412635562,9.228665716618206,3.6036366771837236,-0.4488888888888889,-0.3888888888888889,-0.5877777777777777,-0.021365154120243954,-0.055916109866232445,-0.05445069013436238
1592167899.3494334,0.14829604376661032,9.337994525443158,3.7850187059950096,-0.44882082122514316,-0.38905905804825325,-0.5876756762821591,-0.011186408774893703,-0.0970445912251063,-0.012005279311432988
1592167899.3594334,0.394401506940369,9.178966882623557,3.7009575575820337,-0.4444444444444444,-0.4,-0.5811111111111111,-0.008281698555136345,-0.06762828139017871,-0.00017063062396009254
1592167899.3694334,0.49301093486633507,9.269198055347594,3.553264702734628,-0.4444444444444444,-0.4,-0.5811111111111111,-0.011498518327390999,-0.0932316658327923,-0.003977645202021294
1592167899.3794334,0.4618160259564079,9.208130419473832,3.6270286588061325,-0.4444444444444444,-0.4,-0.5811111111111111,-0.010134238176001105,-0.09088388706313663,0.01725782689371272
1592167899.3894334,0.5611162837339569,9.255175742877462,3.525924947522451,-0.4444444444444444,-0.4,-0.5811111111111111,-0.017212,-0.051904326898736926,0.02075954924345579
1592167899.3994334,0.7025699573696761,9.231854680114338,3.5469681443644023,-0.4444444444444444,-0.4,-0.5811111111111111,-0.01705821169970926,-0.0417200825079222,0.0005023235222307663
1592167899.4094334,0.5974997055020919,9.194913541234223,3.3845620022391243,-0.43666666666666665,-0.4,-0.5955555555555555,-0.03937050033129033,-0.008856989031034846,-0.062186737383484285
1592167899.4194334,0.3503501350387355,9.24404362279466,3.4626548824662065,-0.43666666666666665,-0.4,-0.5955555555555555,-0.06824686365384054,-0.05915231801543702,-0.07946928408653987
1592167899.4294333,0.26570374607263,9.237566875886,3.6782014872107145,-0.43666666666666665,-0.4,-0.5955555555555555,-0.06855892216569771,-0.04819628092153648,-0.0777835364102236
1592167899.4394333,0.2076477285525966,9.24670247669069,3.6235179966850244,-0.43666666666666665,-0.4,-0.5955555555555555,-0.07553520297699325,-0.08486164250931291,-0.03887389767782327
1592167899.4494333,0.43754460913672744,9.134130428166655,3.4636830566598897,-0.43434307079574086,-0.3993165894497277,-0.5963756482158823,-0.10008268953426677,-0.06432078635757035,-0.05070958073387703
1592167899.4594333,0.3090013637960355,9.260788,3.538855356444857,-0.4177777777777778,-0.39444444444444443,-0.6022222222222222,-0.11987074593173823,-0.1172503772339191,-0.089592998895685
1592167899.4694333,0.14830171647874663,9.213758695188504,3.8007499524000186,-0.4177777777777778,-0.39444444444444443,-0.6022222222222222,-0.11597762159669586,-0.08098444712208834,-0.045997552757617015
1592167899.4794333,0.31956116235941623,9.177847010917167,3.8697769631632903,-0.4177777777777778,-0.39444444444444443,-0.6022222222222222,-0.10954938824570548,-0.05234826232605661,-0.01644734942823791
1592167899.4894333,0.3852231199287908,9.165826706726204,4.043189321822208,-0.4177777777777778,-0.39444444444444443,-0.6022222222222222,-0.09579145440522241,-0.06658925508490325,-0.009788603387751626
1592167899.4994333,0.3991389679121815,9.14612642458985,4.051281744240542,-0.41834920083726407,-0.39444444444444443,-0.6059364721088829,-0.08096419050490596,-0.030831016713197948,-0.039271601273156716
1592167899.5094333,0.23135337270111744,9.218131439451316,4.163683032248902,-0.4222222222222222,-0.39444444444444443,-0.6311111111111111,-0.04952629221504247,-0.10213863019971993,-0.02361600887910787
1592167899.5194333,0.173040271405327,9.179710203585326,4.1833128308459395,-0.4222222222222222,-0.39444444444444443,-0.6311111111111111,-0.00961455192307057,-0.0831643302065505,0.040381660089106
1592167899.5294333,0.49543288569896266,9.06896887699585,3.8882170262024545,-0.4222222222222222,-0.39444444444444443,-0.6311111111111111,-0.007250653069163266,-0.061414581852101094,0.022922713052115122
1592167899.5394332,0.43690402475952334,9.172325189041679,3.812356072108354,-0.4222222222222222,-0.39444444444444443,-0.6311111111111111,-0.012747550350564303,-0.10375542833042745,-0.029046450713625632
1592167899.5494332,0.2506438291640788,9.174902480609887,3.966128335748757,-0.4222222222222222,-0.39444444444444443,-0.6311111111111111,-0.0025471304730556275,-0.0663207383551119,-0.03722547003522894
1592167899.5594332,0.23729799905441595,9.216729730946339,4.037341586535779,-0.4177777777777778,-0.4,-0.6233333333333333,0.022366007633000468,-0.05037229460796469,-0.027512
1592167899.5694332,0.2780520298244091,9.182373,4.060231695596485,-0.4177777777777778,-0.4,-0.6233333333333333,0.047388765114921766,-0.05828057098484984,-0.03875278673785445
1592167899.5794332,0.30894754823511,9.18926171319156,4.025602060827145,-0.4177777777777778,-0.4,-0.6233333333333333,0.06766123962898664,-0.05317151889141579,-0.0620820636181771
1592167899.5894332,0.23839735677874915,9.168814101061692,3.9567862825138937,-0.4177777777777778,-0.4,-0.6233333333333333,0.08427452381490753,-0.05323539063929253,-0.07170275545041
1592167899.5994332,0.22063665645995167,9.18438898841347,3.913624300345207,-0.4177777777777778,-0.4,-0.6233333333333333,0.09798481455862498,-0.0691393665966752,-0.05512567555566396
1592167899.6094332,0.21249613979253373,9.20517528639276,3.9242251160934356,-0.4177777777777778,-0.4066666666666667,-0.6288888888888889,0.11026693908739127,-0.0496783607909266,-0.0341143607909266
1592167899.6194332,0.2703314206411123,9.183896022160049,3.8293086099345266,-0.4177777777777778,-0.4066666666666667,-0.6288888888888889,0.11522221102340696,-0.03101810629279829,-0.02470197232867525
1592167899.6294332,0.2584603573801765,9.209064981889695,3.726520581079021,-0.4177777777777778,-0.4066666666666667,-0.6288888888888889,0.11311368745521595,-0.04797533791819643,-0.03807161966745065
1592167899.6394331,0.15855851781112165,9.230512704917226,3.734112347632645,-0.4177777777777778,-0.4066666666666667,-0.6288888888888889,0.11621256876160684,-0.032391181734281634,-0.029747834833912967
1592167899.6494331,0.14649363611928762,9.209282819044105,3.6562417958529467,-0.4177777777777778,-0.4066666666666667,-0.6288888888888889,0.11616350591629722,-0.01197539593995812,-0.0015451807869460658
1592167899.6594331,0.249620357784724,9.189481645393386,3.7032252750060635,-0.3977777777777778,-0.43333333333333335,-0.6077777777777778,0.10879150693591617,0.009447177145183082,0.017543402301437222
1592167899.669433,0.2392069147128098,9.218108695413564,3.5957461218800817,-0.3977777777777778,-0.43333333333333335,-0.6077777777777778,0.10121592205696879,0.03159340788053104,0.01781070394026552
1592167899.679433,0.18639596584567827,9.235149034438663,3.736500665326591,-0.3977777777777778,-0.43333333333333335,-0.6077777777777778,0.09679537230559013,0.04615494856564034,0.02899474461118025
1592167899.689433,0.23236504985171041,9.191168475021641,3.7962060499567176,-0.3977777777777778,-0.43333333333333335,-0.6077777777777778,0.1062992061759338,0.0752347938240662,0.04209501272627864
1592167899.699433,0.20604311750016585,9.25677783969516,3.787809593694659,-0.3977777777777778,-0.43333333333333335,-0.6077777777777778,0.11044683093478262,0.07105505305332908,0.07095481549817698
1592167899.709433,0.3056899891292206,9.231769635487973,3.6293030845673733,-0.38333333333333336,-0.41333333333333333,-0.6144444444444445,0.11076613289685269,0.08415409190630103,0.084335
1592167899.719433,0.45868386672939276,9.177250414468613,3.4613956208080294,-0.38333333333333336,-0.41333333333333333,-0.6144444444444445,0.09649444581615473,0.09694781865611568,0.069133172555312
1592167899.729433,0.37660493651544336,9.215850818816062,3.2770301286099284,-0.38333333333333336,-0.41333333333333333,-0.6144444444444445,0.06555761101867585,0.08257146298647111,0.03649100983792286
1592167899.739433,0.2710727553787724,9.247690264547733,3.2366075259531,-0.38333333333333336,-0.41333333333333333,-0.6144444444444445,0.03292493075428174,0.0687154440313547,0.02186028026795647
1592167899.749433,0.23336017183568752,9.23842273596854,3.2886786323071013,-0.38333333333333336,-0.41333333333333333,-0.6144444444444445,-3.272653917794129e-05,0.067719,0.026797565086983912
1592167899.759433,0.1856235137831735,9.189045860468328,3.335220749315493,-0.38333333333333336,-0.43333333333333335,-0.5933333333333334,-0.0351168722952828,0.06590269277231647,0.03011992168305057
1592167899.769433,0.2324626352868745,9.186876457724445,3.5783995853636514,-0.38333333333333336,-0.43333333333333335,-0.5933333333333334,-0.06282969707285717,0.08110073406505496,0.016632265934945042
1592167899.779433,0.17011057136322622,9.21669655745452,3.7426256076484137,-0.38333333333333336,-0.43333333333333335,-0.5933333333333334,-0.0624887894469534,0.09702639401219741,-0.0024682105530466018
1592167899.789433,0.06090030352098928,9.268397488129349,3.797006410889432,-0.38333333333333336,-0.43333333333333335,-0.5933333333333334,-0.055448860427517066,0.06489471892707244,0.009869528189108565
1592167899.799433,0.17627416573259744,9.207687814328978,3.7189558759019508,-0.38333333333333336,-0.43333333333333335,-0.5933333333333334,-0.050232,0.04505306449946241,0.025200536811834085
1592167899.809433,0.2910878066594788,9.249389072030741,3.716438516235381,-0.36444444444444446,-0.4266666666666667,-0.6144444444444445,-0.0468741434039691,-0.005681012780787278,0.0038241772025008475
1592167899.819433,0.20846527273107007,9.219406199619613,3.680335753542992,-0.36444444444444446,-0.4266666666666667,-0.6144444444444445,-0.04624589030824854,-0.04095278573471914,-0.0056818782969166905
1592167899.829433,0.23790057837569434,9.222780399870423,3.5605624764713286,-0.36444444444444446,-0.4266666666666667,-0.6144444444444445,-0.055218967183647584,-0.07256061227871984,-0.014732645095072251
1592167899.839433,0.3713420830431805,9.151266964385018,3.5663851362347043,-0.36444444444444446,-0.4266666666666667,-0.6144444444444445,-0.07158766085244438,-0.07400489474374515,-0.04191739376360979
1592167899.849433,0.3965100454596142,9.186154173738831,3.638085570737805,-0.36444444444444446,-0.4266666666666667,-0.6144444444444445,-0.090714,-0.07577529733015505,-0.06675276469246738
1592167899.859433,0.3923574293411858,9.240228238823558,3.899051696710004,-0.3977777777777778,-0.4211111111111111,-0.6077777777777778,-0.08083293089371135,-0.0743117572792672,-0.059344839521680876
1592167899.869433,0.421964420887947,9.241956948576261,3.9100844437465665,-0.3977777777777778,-0.4211111111111111,-0.6077777777777778,-0.05981327289986121,-0.040953632780918604,-0.048815094319220195
1592167899.879433,0.3824686100347681,9.280073467728505,3.885891968353787,-0.3977777777777778,-0.4211111111111111,-0.6077777777777778,-0.04096754104349473,-0.06389920338833238,-0.04884494083508144
1592167899.889433,0.27241361530900987,9.219269847076468,3.9291634634090813,-0.3977777777777778,-0.4211111111111111,-0.6077777777777778,-0.01662257433003016,-0.07272621899948216,-0.027160496770793255
1592167899.899433,0.2712632002309972,9.227005540538103,3.9221684493144195,-0.3977777777777778,-0.4211111111111111,-0.6077777777777778,0.004130132642452514,-0.09674449493562906,0.014292358799870373
1592167899.909433,0.40812462000836397,9.205546764888785,3.7737619812016763,-0.35194156165702273,-0.41347174175765194,-0.6001384084243185,0.018524207563861476,-0.09243784432710389,0.031082
1592167899.9194329,0.4752290703681559,9.178590660193539,3.5816347250196134,-0.3511111111111111,-0.41333333333333333,-0.6,0.008637470482199138,-0.08917938059828265,0.017504713805901413
1592167899.9294329,0.478724128462088,9.182848394620281,3.5322788109267,-0.3511111111111111,-0.41333333333333333,-0.6,-0.010294000278868587,-0.07751907120988591,-0.024323507080139667
1592167899.9394329,0.4563216825918499,9.229193423155223,3.636466292258832,-0.3511111111111111,-0.41333333333333333,-0.6,-0.016349329352705378,-0.059752106856405085,-0.03238498805811613
1592167899.9494328,0.5215903584432968,9.232705249712065,3.685133242176317,-0.3511111111111111,-0.41333333333333333,-0.6,-0.01828,-0.003314047895746467,-0.017929
1592167899.9594328,0.5492039446591583,9.205844142446404,3.7059916948072185,-0.38333333333333336,-0.4266666666666667,-0.6,-0.024698088301379817,0.0018831668167276425,-0.019792747713866826
1592167899.9694328,0.47891222930688154,9.203047661865442,3.8016953921927454,-0.38333333333333336,-0.4266666666666667,-0.6,-0.024000038796832334,-0.0024061307369603446,-0.02876759456555621
1592167899.9794328,0.4516006645164585,9.187933427480143,3.9162895356922762,-0.38333333333333336,-0.4266666666666667,-0.6,-0.008390672702705847,0.024949359282958543,-0.024964037893116603
1592167899.9894328,0.4937954155278504,9.206445833009822,3.9747786143427173,-0.38333333333333336,-0.4266666666666667,-0.6,0.009467012259479672,0.03969447566995596,-0.005430062547280824
1592167899.9994328,0.5250810893460457,9.204044275465852,3.8555444751861403,-0.38333333333333336,-0.4266666666666667,-0.6,0.02416809146455417,0.04922334589992866,0.012725861810034104
1592167900.0094328,0.5018575366014447,9.226732391197592,3.7612803153653966,-0.352255441764857,-0.41380684946591784,-0.6,0.03522325668209015,0.06142693854200287,0.03757754839538709
1592167900.0194328,0.5227728160461435,9.216036366348902,3.691840900953295,-0.3511111111111111,-0.41333333333333333,-0.6,0.03372548794612881,0.09841470479979968,0.051031773323745894
1592167900.0294328,0.5604539571589644,9.197005224829367,3.611914380396833,-0.3511111111111111,-0.41333333333333333,-0.6,0.029538862456806668,0.13653637776752373,0.06435027508638666
1592167900.0394328,0.4865175578267016,9.232272453641524,3.6658070601642283,-0.3511111111111111,-0.41333333333333333,-0.6,0.023207135763277736,0.1632042191294691,0.063034
1592167900.0494328,0.3976171720412434,9.222032001836139,3.81268418448766,-0.3511111111111111,-0.41333333333333333,-0.6,0.025405725640103377,0.18066250816854326,0.06354980814797169
1592167900.0594327,0.3025026242378657,9.182125009502707,3.8863251700851955,-0.3566666666666667,-0.4211111111111111,-0.5933333333333334,0.035952217750731826,0.17392271987608354,0.05659268924490561
1592167900.0694327,0.24538339743774348,9.194561484548409,3.908705870761391,-0.3566666666666667,-0.4211111111111111,-0.5933333333333334,0.04580258574537917,0.1571280828826936,0.058880898250619235
1592167900.0794327,0.31878427466481685,9.189525172141533,3.871286592202718,-0.3566666666666667,-0.4211111111111111,-0.5933333333333334,0.05641833095238727,0.14308376342961382,0.04420993163723731
1592167900.0894327,0.3332443614910413,9.213050622478738,3.8989925074345884,-0.3566666666666667,-0.4211111111111111,-0.5933333333333334,0.06779266365336141,0.11289209269516419,0.028946
1592167900.0994327,0.33407679805776996,9.18758353574442,3.8316150835630625,-0.3566666666666667,-0.4211111111111111,-0.5933333333333334,0.0755924096004884,0.10964082809403572,0.037848201380207086
1592167900.1094327,0.42926138449989404,9.19744508876932,3.734324660515154,-0.3461050492499256,-0.4259118463005389,-0.5933333333333334,0.07938788453984008,0.12347244226992003,0.04128747320513264
1592167900.1194327,0.2745386773902948,9.205183766975043,3.6314773428481395,-0.34444444444444444,-0.4266666666666667,-0.5933333333333334,0.07698048559879278,0.120972,0.029161811445522455
1592167900.1294327,0.2777125483996287,9.232265857406933,3.645049228294682,-0.34444444444444444,-0.4266666666666667,-0.5933333333333334,0.065872,0.127365,0.037168707222637626
1592167900.1394327,0.21302461507105774,9.23440632104328,3.7804708814198587,-0.34444444444444444,-0.4266666666666667,-0.5933333333333334,0.06724153602985297,0.12338262720238133,0.034545627202381336
1592167900.1494327,0.12028145043248453,9.212356609303782,3.794545763676413,-0.34444444444444444,-0.4266666666666667,-0.5933333333333334,0.076523,0.11236343243243596,0.03353396639814635
1592167900.1594326,0.019653311595953984,9.199666677904451,3.7825079909324897,-0.35458245415401507,-0.4321964901446143,-0.5933333333333334,0.08060008326621501,0.09338434208942256,0.025318920165225453
1592167900.1694326,0.0248000127584657,9.226014563946027,3.8294988187848586,-0.3566666666666667,-0.43333333333333335,-0.5933333333333334,0.09171403714566574,0.059797537615262186,0.019171753830375147
1592167900.1794326,0.11200881391089622,9.223379887699979,3.7647964307563626,-0.3566666666666667,-0.43333333333333335,-0.5933333333333334,0.10839455997508035,0.046174774655430295,0.017647387327715147
1592167900.1894326,0.12243348291689832,9.215846896374066,3.680609075552073,-0.3566666666666667,-0.43333333333333335,-0.5933333333333334,0.1115508179139935,0.023804449764430052,0.017875214252596937
1592167900.1994326,0.130657319411013,9.248276609345126,3.637952056601697,-0.3566666666666667,-0.43333333333333335,-0.5933333333333334,0.11135884882714386,0.004439023530381218,0.022659319411659835
1592167900.2094326,0.16354691206368283,9.265732325630442,3.5871746337802315,-0.3465174839899843,-0.42318415065665094,-0.5933333333333334,0.10606048481531505,0.0007422747085945632,0.03008763735429728
1592167900.2194326,0.22760086351848807,9.252520369396994,3.567654790834121,-0.34444444444444444,-0.4211111111111111,-0.5933333333333334,0.09991480026469546,-0.0032797654047723233,0.026718956658517645
1592167900.2294326,0.21222552268288908,9.240757196192895,3.630811572496999,-0.34444444444444444,-0.4211111111111111,-0.5933333333333334,0.0978029002831692,-0.019367995750894772,0.02679220365083201
1592167900.2394326,0.2027392327968579,9.23345300636493,3.6252092327968577,-0.34444444444444444,-0.4211111111111111,-0.5933333333333334,0.09781951222130594,0.005848432724763344,0.02152298468088
1592167900.2494326,0.17053437996564844,9.236715100033784,3.5483804788170565,-0.34444444444444444,-0.4211111111111111,-0.5933333333333334,0.08850423624844077,-0.008762301389052162,0.007944246671923961
1592167900.2594326,0.12873774428796458,9.264824151235503,3.4832825998309986,-0.3332679303122537,-0.4211111111111111,-0.5933333333333334,0.07585756107478166,-0.0006134611184476315,-0.005822438925218335
1592167900.2694325,0.09565246227433852,9.264794332467856,3.429181756452925,-0.33,-0.4211111111111111,-0.5933333333333334,0.059483047626440834,-0.014101014859630305,-0.011113419134974642
1592167900.2794325,0.10770399021909544,9.33906882403325,3.4619234686002027,-0.33,-0.4211111111111111,-0.5933333333333334,0.06214973448476141,0.00965919916764015,-0.003274107584104964
1592167900.2894325,0.20448599697076558,9.30181583217497,3.504084782779332,-0.33,-0.4211111111111111,-0.5933333333333334,0.06038542014484105,0.021265529287364998,0.01946463895703529
1592167900.2994325,0.3592667887552943,9.297697833977436,3.5363685897096793,-0.33,-0.4211111111111111,-0.5933333333333334,0.06337225279404123,0.022411701874954178,0.019552550919087044
1592167900.3094325,0.41360789015253907,9.310268663891772,3.6022422918264425,-0.3450493300933487,-0.42982388116515513,-0.5766998632301584,0.07225101000931565,0.05146626935763726,0.022972548051015326
1592167900.3194325,0.41062217313165944,9.305747715814897,3.592826030642786,-0.3511111111111111,-0.43333333333333335,-0.57,0.08161803890120024,0.06214803890120024,0.017380365029127997
1592167900.3294325,0.36042656886967095,9.290965353880768,3.573828951734032,-0.3511111111111111,-0.43333333333333335,-0.57,0.09035881143989735,0.07883811318649445,0.02198804635816389
1592167900.3394325,0.316765482776514,9.284960916371409,3.480878960617038,-0.3511111111111111,-0.43333333333333335,-0.57,0.08961514417495096,0.09373471165009808,0.027572855825049043
1592167900.3494325,0.27000471501726914,9.273343378352754,3.3721818675561184,-0.3511111111111111,-0.43333333333333335,-0.57,0.08066295508538916,0.10159365719992287,0.03400459724722327
1592167900.3594325,0.22630693173003455,9.278481869857782,3.277668020734509,-0.34644683200961524,-0.4286690542318375,-0.5762190388019945,0.06770971425029775,0.12231857600713573,0.04381967278894264
1592167900.3694324,0.29051733048842376,9.338799324499883,3.236992543328364,-0.34444444444444444,-0.4266666666666667,-0.5788888888888889,0.04555242559314543,0.14516369351230865,0.05121739204871136
1592167900.3794324,0.27076649836453315,9.294400963388004,3.1856208857273867,-0.34444444444444444,-0.4266666666666667,-0.5788888888888889,0.024305344430580966,0.1569902269308474,0.06220382619570931
1592167900.3894324,0.2664003270411795,9.364945341711213,3.247102696047476,-0.34444444444444444,-0.4266666666666667,-0.5788888888888889,0.004054409539556661,0.15686953908325313,0.07446384568756015
1592167900.3994324,0.22308937297557194,9.270074918484323,3.387829831945826,-0.34444444444444444,-0.4266666666666667,-0.5788888888888889,-0.009119866324671207,0.13843910367015583,0.077942
1592167900.4094324,0.3408677062860943,9.271499903088424,3.4323273243023706,-0.34004999010987036,-0.4266666666666667,-0.5884102066137995,-0.021554601282979632,0.11498309800949166,0.06705690260618734
1592167900.4194324,0.2698890570409711,9.25622777911335,3.436786924278236,-0.3377777777777778,-0.4266666666666667,-0.5933333333333334,-0.027837816652803285,0.08438383994922037,0.049744983719570195
1592167900.4294324,0.3012468254208288,9.293276825010341,3.4601698370898126,-0.3377777777777778,-0.4266666666666667,-0.5933333333333334,-0.03681102539818709,0.04442891943966207,0.039883469656455596
1592167900.4394324,0.39067881840957397,9.246216698189437,3.465859796808572,-0.3377777777777778,-0.4266666666666667,-0.5933333333333334,-0.044062460269833605,0.025362752606820346,0.021531247949321507
1592167900.4494324,0.388898022624448,9.296642964764203,3.3595225853659882,-0.3377777777777778,-0.4266666666666667,-0.5933333333333334,-0.058473758905098504,0.0061383592030461774,0.0022341181081446805
1592167900.4594324,0.5043524525422631,9.381299904865788,3.5002526578605795,-0.3493159585340926,-0.4266666666666667,-0.5804377195468639,-0.06267307110570526,-0.005267018353647384,-0.0031818761422368795
1592167900.4694324,0.4723463213744158,9.239182487026389,3.50360996146527,-0.3566666666666667,-0.4266666666666667,-0.5722222222222222,-0.06386817572536949,0.011550370006852832,-0.014222206213517692
1592167900.4794323,0.40074145732019834,9.32907905666228,3.524702056092474,-0.3566666666666667,-0.4266666666666667,-0.5722222222222222,-0.06693853605932584,0.005204794094289536,-0.014775325720131446
1592167900.4894323,0.43798893298899594,9.30317903707274,3.7092163250416585,-0.3566666666666667,-0.4266666666666667,-0.5722222222222222,-0.047411095229211254,0.026120849075071985,0.006482735261623362
1592167900.4994323,0.5174390187249164,9.289940440940386,3.6690988682983665,-0.3566666666666667,-0.4266666666666667,-0.5722222222222222,-0.028455562568347092,0.041077,0.0014472511428406006
1592167900.5094323,0.39013033127901076,9.285762972504935,3.679438868914751,-0.34674856925175856,-0.4196656567267315,-0.5757227271921898,-0.010050920371889836,0.04613367675342312,-0.0078091124509217826
1592167900.5194323,0.20279315188708846,9.28288612205194,3.5745492337406635,-0.3377777777777778,-0.41333333333333333,-0.5788888888888889,0.001968,0.049606,-0.0032409954565824793
1592167900.5294323,0.080314089973345,9.29503075788872,3.518100826177749,-0.3377777777777778,-0.41333333333333333,-0.5788888888888889,0.001968,0.049606,-0.00898750671886747
1592167900.5394323,0.00100065152133047,9.280648960203983,3.5023028752769454,-0.3377777777777778,-0.41333333333333333,-0.5788888888888889,-0.000168,0.052085983906330215,-0.004432815921348308
1592167900.5494323,-0.019371821101312192,9.282379652790523,3.5642962000541027,-0.3377777777777778,-0.41333333333333333,-0.5788888888888889,-0.0009327715741765366,0.061465654877088466,-0.004386058348544035
1592167900.5594323,-0.0465244191156325,9.275429816370302,3.6550658538343765,-0.34540877704351436,-0.41778474957167966,-0.580160722099845,0.006459125011885336,0.07539977370362427,0.001485773703624271
1592167900.5694323,-0.07912239444422912,9.28275586825451,3.735308389548249,-0.3511111111111111,-0.4211111111111111,-0.5811111111111111,0.018743091295374107,0.0807571698330772,0.007021032260029961
1592167900.5794322,-0.10162917986008235,9.265694680025105,3.746558919991616,-0.3511111111111111,-0.4211111111111111,-0.5811111111111111,0.03334558474619973,0.0814962006437349,0.017412455933361094
1592167900.5894322,-0.10879349686586375,9.27885864597261,3.7780541437873847,-0.3511111111111111,-0.4211111111111111,-0.5811111111111111,0.049235143924441886,0.08472896255140155,0.025892544825709633
1592167900.5994322,-0.055299555086737145,9.281646858808529,3.7821908670235587,-0.3511111111111111,-0.4211111111111111,-0.5811111111111111,0.07338360763780168,0.08579645166409315,0.03215612461514892
1592167900.6094322,-0.006655006403250108,9.286915943682633,3.6642662352722084,-0.34520903730206054,-0.41766823472249825,-0.573733518849798,0.08811309470073121,0.08157958188738346,0.03217127877098762
1592167900.6194322,-0.0023478325776606288,9.289452924214286,3.5721817617749165,-0.3377777777777778,-0.41333333333333333,-0.5644444444444444,0.09868509972934095,0.0774666460587855,0.032204695923455984
1592167900.6294322,-0.014695819803711183,9.283988688744197,3.4224351914125504,-0.3377777777777778,-0.41333333333333333,-0.5644444444444444,0.09685460299624547,0.07444523778559643,0.03223242879686
1592167900.6394322,-0.021179534329551858,9.291931177826546,3.334994902927,-0.3377777777777778,-0.41333333333333333,-0.5644444444444444,0.08560752346500794,0.07888158083905984,0.032259832183374644
1592167900.6494322,-0.008803522016701254,9.31943495674086,3.3555278345233144,-0.3377777777777778,-0.41333333333333333,-0.5644444444444444,0.07203118803028019,0.09586957886208222,0.034271
1592167900.6594322,-0.005412414162806195,9.290455579625416,3.327711861859577,-0.33361886081304565,-0.4204629052728741,-0.5846448982731434,0.06064554439514507,0.1212072677324028,0.03607303152016755
1592167900.6694322,-0.017812762216930303,9.292821948109744,3.3473272438189157,-0.33,-0.4266666666666667,-0.6022222222222222,0.046843444862985986,0.1265629787608742,0.03727459978749695
1592167900.6794322,0.0465956072309806,9.30994157294541,3.379242489283047,-0.33,-0.4266666666666667,-0.6022222222222222,0.03609794107209882,0.11977989360736968,0.03578435187215081
1592167900.6894321,0.12110049992137609,9.311725437101792,3.4507621778920283,-0.33,-0.4266666666666667,-0.6022222222222222,0.031228214598605482,0.11107209645164166,0.029446730967761105
1592167900.6994321,0.07421092611432376,9.309496384532473,3.4631031886181236,-0.33,-0.4266666666666667,-0.6022222222222222,0.030237505075569292,0.11187843194652711,0.021295789102305736
1592167900.7094321,0.040482467537495764,9.320128532462503,3.4616635199433956,-0.3330282500104941,-0.42147538093439113,-0.5940026864794526,0.030832016565885068,0.10754208551569967,0.016796640832633894
1592167900.719432,0.030867225951915465,9.307041559064634,3.3539781055216533,-0.3377777777777778,-0.41333333333333333,-0.5811111111111111,0.026430842493388552,0.08999865930369848,0.013663228328925702
1592167900.729432,-0.008863734695065637,9.324708857740411,3.346450347592797,-0.3377777777777778,-0.41333333333333333,-0.5811111111111111,0.021188574305882023,0.07841896519858277,0.011582815824450546
1592167900.739432,-0.03946585385445747,9.325051870081579,3.3113350355623745,-0.3377777777777778,-0.41333333333333333,-0.5811111111111111,0.00760345499691109,0.074112,0.011902
1592167900.749432,-0.06566214965067803,9.3177493502101,3.315116133199732,-0.3377777777777778,-0.41333333333333333,-0.5811111111111111,-0.0033169845156462304,0.06902215744217918,0.012338429021087291
1592167900.759432,-0.03744984638880418,9.30770130791737,3.4153868062069623,-0.3377777777777778,-0.4163386842933585,-0.5866924771797293,-0.011887,0.06271954933959538,0.016433414381104558
1592167900.769432,0.01093125990773525,9.310738989863172,3.5161619291557082,-0.3377777777777778,-0.4211111111111111,-0.5955555555555555,-0.009182645482859115,0.056492016516818955,0.01706715572293846
1592167900.779432,0.014603937073867144,9.318135602112692,3.6217364207993725,-0.3377777777777778,-0.4211111111111111,-0.5955555555555555,0.0004793731802488969,0.0457546268197511,0.014589302312894493
1592167900.789432,0.002725960219113022,9.327905760748441,3.6432851011797114,-0.3377777777777778,-0.4211111111111111,-0.5955555555555555,0.015123987877762254,0.040083145961632864,0.013520720198972023
1592167900.799432,-0.008155595293653256,9.312631428305764,3.5685654638122335,-0.3377777777777778,-0.4211111111111111,-0.5955555555555555,0.031114677038938457,0.023935857253141637,0.011997663168650816
1592167900.809432,0.01120180704714781,9.314764331649387,3.530176064472935,-0.3350856660800007,-0.4138039507885733,-0.5855562835352406,0.03879437231330651,0.007448760650473212,0.008855688511049998
1592167900.819432,0.0826874346833937,9.32066294237378,3.4415526929502605,-0.33,-0.4,-0.5666666666666667,0.04180653351879689,0.001025581004819631,0.002095256985541107
1592167900.829432,0.056864176886856556,9.33116707005911,3.3966878358219668,-0.33,-0.4,-0.5666666666666667,0.03805049690346171,0.0008678723525375607,-0.004607501796303414
