time,acc_x,acc_y,acc_z,mag_x,mag_y,mag_z,gyr_x,gyr_y,gyr_z
1592167904.8894281,-0.07632277347547493,8.845313762592076,4.374046602536178,-0.41888888888888887,-0.19,-0.2822222222222222,-0.015472234125866596,0.008057,0.010056663295103385
1592167904.8994281,-0.0919222188750869,8.842433178610403,4.441293671461706,-0.41888888888888887,-0.19,-0.2822222222222222,-0.024915901881215324,0.008845608642022888,0.014038
1592167904.9094281,-0.08894054560499672,8.823338160258356,4.510843923754045,-0.41888888888888887,-0.19,-0.2822222222222222,-0.027863,0.013382,0.013440151598988266
1592167904.919428,-0.07593954719811595,8.832172511555061,4.590187835260922,-0.41888888888888887,-0.19,-0.2822222222222222,-0.024258435897134726,0.012728564102865275,0.018502282051432634
1592167904.929428,-0.02474594044674951,8.83593239958707,4.555096345180255,-0.42438814256160473,-0.18663934497778475,-0.2764174544565777,-0.021292032599471218,0.01445,0.019363
1592167904.939428,-0.050890413165511336,8.824180003901867,4.603717834134756,-0.4388888888888889,-0.17777777777777778,-0.2611111111111111,-0.018741221776586704,0.014601694555853324,0.01951483659195431
1592167904.949428,-0.029159749936031737,8.838279392264361,4.58034863960087,-0.4388888888888889,-0.17777777777777778,-0.2611111111111111,-0.016020841123436224,0.019651841123436226,0.020185566929572296
1592167904.959428,-0.04846023859680902,8.817358519768211,4.531659003038172,-0.4388888888888889,-0.17777777777777778,-0.2611111111111111,-0.015172107059999468,0.0189954111678823,0.01926689294000053
1592167904.969428,-0.11834733062578659,8.823894344658465,4.609643088022685,-0.4388888888888889,-0.17777777777777778,-0.2611111111111111,-0.0137754241070167,0.02391011011724372,0.021607816916289563
1592167904.979428,-0.14877415957593784,8.836115712104034,4.662815777156473,-0.4316632583503749,-0.17898204953419677,-0.2629175187457396,-0.00425504897958154,0.023013607215868665,0.026980429755687246
1592167904.989428,-0.1322358070468982,8.822959687085303,4.678141406126276,-0.4122222222222222,-0.18222222222222223,-0.2677777777777778,0.007293157210605536,0.022980138795313163,0.03533857965977808
1592167904.999428,-0.066572687236023,8.802613629365657,4.685314827843327,-0.4122222222222222,-0.18222222222222223,-0.2677777777777778,0.017776780138850118,0.02819325852544466,0.040581586244766626
1592167905.009428,-0.021883337531569586,8.848555359000896,4.639658399039914,-0.4122222222222222,-0.18222222222222223,-0.2677777777777778,0.02634832447950649,0.022022675520493508,0.03753089422327165
1592167905.019428,0.02647886043051155,8.828378843814052,4.535828230439067,-0.4122222222222222,-0.18222222222222223,-0.2677777777777778,0.03276847713583632,0.030093081617280165,0.03657287265439248
1592167905.029428,-0.019937142596109292,8.830357209702694,4.507023531601638,-0.40904790980850236,-0.17904790980850235,-0.2622948745177162,0.033808683387690414,0.027569386401362604,0.033203
1592167905.039428,-0.042243186154130294,8.849583488320148,4.4670887419556795,-0.4,-0.17,-0.24666666666666667,0.028081487643096,0.026308110360072006,0.03399473307704801
1592167905.049428,-0.03503951014054856,8.846247977236592,4.507389676132041,-0.4,-0.17,-0.24666666666666667,0.02555790410815798,0.02493409589184202,0.03443790410815798
1592167905.059428,-0.012577174127241323,8.84503006862341,4.526900731075417,-0.4,-0.17,-0.24666666666666667,0.023667046258108317,0.025300927111579292,0.033203
1592167905.069428,-0.019677039205159515,8.847775634095111,4.473794241214601,-0.4,-0.17,-0.24666666666666667,0.02265985043339289,0.019393989999543174,0.0336608504333929
1592167905.079428,-0.00035623103420313364,8.848235930411551,4.379742940397849,-0.4032663863487589,-0.17712666112456477,-0.25765360256703734,0.013344427150457645,0.01896371896484235,0.03215
1592167905.089428,-0.03213661270876931,8.854494650238259,4.346284346608488,-0.4122222222222222,-0.19666666666666666,-0.2877777777777778,0.001852639156112718,0.017064653222981094,0.03030320431770683
1592167905.099428,-0.09018627104921169,8.841372105483254,4.413357808186032,-0.4122222222222222,-0.19666666666666666,-0.2877777777777778,-0.008479516391610964,0.018276480147408732,0.0336379965390197
1592167905.109428,-0.15443221958346298,8.823461090286711,4.449351712458814,-0.4122222222222222,-0.19666666666666666,-0.2877777777777778,-0.018683330892666054,0.01767226558365394,0.037817342303542195
1592167905.119428,-0.21305520630761524,8.828210732351826,4.531587136794219,-0.4122222222222222,-0.19666666666666666,-0.2877777777777778,-0.023230672430770788,0.015678041207361403,0.026031141309397623
1592167905.129428,-0.3123118340993131,8.84684243620869,4.489737674141598,-0.41382780747827175,-0.19418530763459013,-0.28427468267366973,-0.027460502164537454,-0.006718283819186105,-8.075736524977041e-05
1592167905.139428,-0.2889585061671798,8.841364027163722,4.3684536914590035,-0.42444444444444446,-0.17777777777777778,-0.2611111111111111,-0.03591667588450477,0.00036788384102701566,0.01735935176900954
1592167905.149428,0.03144400911549769,8.840600578475653,4.310023580789365,-0.42444444444444446,-0.17777777777777778,-0.2611111111111111,-0.05139275398360469,-0.006952800535862846,0.019866056827369236
1592167905.159428,0.1458955347917119,8.838879615028976,4.244515031190334,-0.42444444444444446,-0.17777777777777778,-0.2611111111111111,-0.07204403042310925,-0.014720809154741464,-0.0017894817546648474
1592167905.1694279,0.11180783311792103,8.843092928446056,4.3325222791472315,-0.42444444444444446,-0.17777777777777778,-0.2611111111111111,-0.09137554132824303,-0.013821809601971269,-0.012105109182486385
1592167905.1794279,0.011731945839796767,8.8133648411973,4.402953623740569,-0.42137636019555275,-0.17889344477737476,-0.2611111111111111,-0.10766537546104751,-0.026933547393746798,-0.023639187839102016
1592167905.1894279,-0.31226360044855306,8.811516045304705,4.590689099164364,-0.4122222222222222,-0.18222222222222223,-0.2611111111111111,-0.113083,-0.0537365329591883,-0.03545924875846174
1592167905.1994278,-0.5626276932133747,8.800205626960912,4.809082013182263,-0.4122222222222222,-0.18222222222222223,-0.2611111111111111,-0.10349269287484354,-0.07229563037571644,-0.034514544989300684
1592167905.2094278,-0.6630699835525102,8.800819391922408,4.93252476452002,-0.4122222222222222,-0.18222222222222223,-0.2611111111111111,-0.07962431767959827,-0.0940073650452345,-0.028994281898599473
1592167905.2194278,-0.6810496598646089,8.785908041002266,4.899008603102907,-0.4122222222222222,-0.18222222222222223,-0.2611111111111111,-0.053413376384896544,-0.11860868015422033,-0.024978167953595393
1592167905.2294278,-0.6047124049839994,8.80017922348301,4.910061924154646,-0.4122222222222222,-0.1838034268657217,-0.265402952286324,-0.030557327614586374,-0.13755209584899342,-0.015293118705959837
1592167905.2394278,-0.3967246441649134,8.790615956997618,4.848560511844117,-0.4122222222222222,-0.19,-0.2822222222222222,-0.012358483945238582,-0.13507530718814204,-0.009694704768290728
1592167905.2494278,-0.1830640182496875,8.766314234171297,4.696575202543919,-0.4122222222222222,-0.19,-0.2822222222222222,-0.00473161883429859,-0.13027955005859382,-0.01640623766859718
1592167905.2594278,-0.05192510646174403,8.764998695252817,4.628261652607644,-0.4122222222222222,-0.19,-0.2822222222222222,-0.0035924408233665075,-0.13246231539118625,-0.02199812059455601
1592167905.2694278,-0.190416721090577,8.778513858861412,4.861049298901504,-0.4122222222222222,-0.19,-0.2822222222222222,0.006344991372537234,-0.11926746304426428,-0.03472196866160973
1592167905.2794278,-0.2754590399519305,8.76763337159108,4.855169614398016,-0.41454880489815144,-0.19082114682679854,-0.2814010753954237,0.027569319937490268,-0.10822686143249867,-0.04372484827304639
1592167905.2894278,-0.3026512210377268,8.802499654720057,4.765584584351781,-0.4311111111111111,-0.19666666666666666,-0.27555555555555555,0.042551918057103975,-0.10330851452729832,-0.04513101125807963
1592167905.2994277,-0.4100660938584971,8.77855516787921,4.824126016685937,-0.4311111111111111,-0.19666666666666666,-0.27555555555555555,0.05622554593215531,-0.10238905444672275,-0.02231575115994525
1592167905.3094277,-0.39924385493137954,8.710042030143713,4.724941021621472,-0.4311111111111111,-0.19666666666666666,-0.27555555555555555,0.06347128688502424,-0.09578457377004848,-0.009678844066808615
1592167905.3194277,-0.37772012752612916,8.849656825669785,4.433304808018295,-0.4311111111111111,-0.19666666666666666,-0.27555555555555555,0.05916359659559965,-0.09676503239025784,-0.008134419276054319
1592167905.3294277,-0.48272307401121267,8.874862446720792,4.59163854037149,-0.4311111111111111,-0.19666666666666666,-0.27555555555555555,0.05341124776083403,-0.1049359081175315,0.04073648022649584
1592167905.3394277,-0.21149915458455798,8.64795398950058,4.70862960025279,-0.41888888888888887,-0.18222222222222223,-0.27555555555555555,0.05695832405499395,-0.1111820653346511,0.0562310220605166
1592167905.3494277,-0.21674800618649345,8.784096080706165,4.340773489271027,-0.41888888888888887,-0.18222222222222223,-0.27555555555555555,0.038035117054015764,-0.1352364367721747,-0.023522203485766283
1592167905.3594277,-0.603402501588903,8.92804573653896,4.100511347775709,-0.41888888888888887,-0.18222222222222223,-0.27555555555555555,0.02016067991203696,-0.09111065953056632,-0.0434642090160105
1592167905.3694277,-0.28305726347010884,8.713134239786326,4.718150670516972,-0.41888888888888887,-0.18222222222222223,-0.27555555555555555,0.010284654540344128,-0.09238962831870164,-0.08996318401297851
1592167905.3794277,-0.546337772587039,8.900991431679534,4.182208719765487,-0.42043766029618596,-0.18334077934971457,-0.2771903698188136,0.00895415505361283,-0.08301734879573644,-0.1154067022279372
1592167905.3894277,-0.6199272838303823,8.841403590489422,4.167963235807226,-0.4388888888888889,-0.19666666666666666,-0.2966666666666667,-0.027409154929458147,-0.092072,-0.08104312334614164
1592167905.3994277,-0.4558860533200535,8.871626575664132,4.354710543714699,-0.4388888888888889,-0.19666666666666666,-0.2966666666666667,-0.052575647427161414,-0.089951,-0.07663115461034602
1592167905.4094276,-0.5448376280587196,8.861130390486307,4.472469737902135,-0.4388888888888889,-0.19666666666666666,-0.2966666666666667,-0.05829253423856439,-0.09267287790539215,-0.06422800323222755
1592167905.4194276,-0.6387111895824764,8.81789965350741,4.422013629280913,-0.4388888888888889,-0.19666666666666666,-0.2966666666666667,-0.07200761820341071,-0.10977301996191749,-0.02976871115011261
1592167905.4294276,-0.5984891267224496,8.869682095335612,4.45509913691678,-0.4388888888888889,-0.19666666666666666,-0.2966666666666667,-0.08368408261770335,-0.110184,0.0025354003079660556
1592167905.4394276,-0.5235865090986453,8.882181351078438,4.738965801163592,-0.42444444444444446,-0.19666666666666666,-0.2822222222222222,-0.07399849587945685,-0.09419064626888318,0.02756350412054314
1592167905.4494276,-0.41027053687774306,8.79594623416774,4.84166489611502,-0.42444444444444446,-0.19666666666666666,-0.2822222222222222,-0.05006043167592232,-0.06605118340716552,0.0284560824903295
1592167905.4594276,-0.38834872920204344,8.817679890108346,4.785722655056969,-0.42444444444444446,-0.19666666666666666,-0.2822222222222222,-0.027230192736674763,-0.04884267008076899,0.008692239149787315
1592167905.4694276,-0.4483061506948914,8.769582699573911,4.687296791182801,-0.42444444444444446,-0.19666666666666666,-0.2822222222222222,-0.011072622659313181,-0.010022174479316168,0.017791707165003175
1592167905.4794276,-0.3646248550426101,8.754710720967838,4.566592046541089,-0.42444444444444446,-0.19666666666666666,-0.2822222222222222,-0.016471986896602002,0.017306149444564725,0.02012321629520844
1592167905.4894276,-0.390280138877666,8.795843760054197,4.446790698408393,-0.4388888888888889,-0.2088888888888889,-0.2822222222222222,-0.025254760563940194,0.004571693134803807,-0.006912496436716764
1592167905.4994276,-0.5476013645301073,8.790674032433209,4.513032590131682,-0.4388888888888889,-0.2088888888888889,-0.2822222222222222,-0.03429593870162606,0.014029606860720495,-0.02005
1592167905.5094275,-0.6500919696675875,8.817294497618988,4.704935974660956,-0.4388888888888889,-0.2088888888888889,-0.2822222222222222,-0.032062013449644024,0.006718734098523683,-0.01163405932620347
1592167905.5194275,-0.6668558898584397,8.826448322870549,4.657721387306005,-0.4388888888888889,-0.2088888888888889,-0.2822222222222222,-0.01875598063480435,0.00948494190441305,-0.002782237417942057
1592167905.5294275,-0.761865052716888,8.819460605972267,4.5605125860826465,-0.4388888888888889,-0.2088888888888889,-0.2822222222222222,-0.019912225617049747,-0.011974161054499992,0.006817484203350748
1592167905.5394275,-0.9050075049513563,8.831733837559623,4.626607532746054,-0.4311111111111111,-0.19,-0.28888888888888886,-0.02147167041689287,-0.042577912005406005,0.03164001183433267
1592167905.5494275,-0.8148654720062921,8.812072940544809,4.652776599242081,-0.4311111111111111,-0.19,-0.28888888888888886,-0.020917494327503193,-0.06534355248536908,0.046549361878657734
1592167905.5594275,-0.5724852700532693,8.705858412958001,4.45004100183437,-0.4311111111111111,-0.19,-0.28888888888888886,-0.028961707626545142,-0.0734073857398237,0.026755319286534924
1592167905.5694275,-0.3346386557903409,8.820195250287602,4.212982876521706,-0.4311111111111111,-0.19,-0.28888888888888886,-0.06073823822544783,-0.08496580466020047,-0.00266519533979953
1592167905.5794275,-0.2825498140495424,8.751935530817713,4.217410179556327,-0.4311111111111111,-0.19,-0.28888888888888886,-0.0968963074343838,-0.06602089015335856,-0.007036783487551195
1592167905.5894275,-0.13033647008469107,8.665325826694986,4.236331339357324,-0.41888888888888887,-0.21666666666666667,-0.31777777777777777,-0.14016744319998806,-0.042140303404285546,-0.025122765875125855
1592167905.5994275,-0.24788096580876795,8.855127544943977,4.345510751909928,-0.41888888888888887,-0.21666666666666667,-0.31777777777777777,-0.1794949364368133,-0.07680960389024835,-0.025366275956643383
1592167905.6094275,-0.377322821143518,8.810866886182406,4.701829256689286,-0.41888888888888887,-0.21666666666666667,-0.31777777777777777,-0.17651055532581675,-0.06535285177339363,-0.0007184282802266957
1592167905.6194274,-0.3921642315990189,8.73762742940567,4.99210633922437,-0.41888888888888887,-0.21666666666666667,-0.31777777777777777,-0.15301497839659645,-0.048887249001090344,-0.018198767089710882
1592167905.6294274,-0.5594703847913822,8.755850129882598,4.954505041730573,-0.41888888888888887,-0.21666666666666667,-0.31777777777777777,-0.12500579662890193,-0.028903638031808784,-0.01762989649273285
1592167905.6394274,-0.3590755437629215,8.725326936110774,4.8785382956625485,-0.44555555555555554,-0.2088888888888889,-0.3322222222222222,-0.10497651062217576,-0.0024373148083650176,-0.02249960037109938
1592167905.6494274,-0.36768419836310867,8.78199955042001,4.654559994546755,-0.44555555555555554,-0.2088888888888889,-0.3322222222222222,-0.100311,-0.006420983124091312,-0.024944983124091314
1592167905.6594274,-0.3725328398148646,8.815134694363616,4.5846470241075465,-0.44555555555555554,-0.2088888888888889,-0.3322222222222222,-0.10655245048845724,-0.007292917536510905,-0.016247897885273282
1592167905.6694274,-0.46287626210602634,8.78416272895148,4.679036986589765,-0.44555555555555554,-0.2088888888888889,-0.3322222222222222,-0.11688241592250564,-0.04593024776751693,0.01916486413115238
1592167905.6794274,-0.44421275766904394,8.738951580769765,4.700883242330956,-0.44555555555555554,-0.2088888888888889,-0.3322222222222222,-0.120665698579309,-0.06142946182106119,0.044922
1592167905.6894274,-0.3558057149764636,8.733933630362548,4.550705435476478,-0.4488888888888889,-0.21666666666666667,-0.35333333333333333,-0.12999568040833287,-0.07763163764995054,0.04357394432569158
1592167905.6994274,-0.26688509672670957,8.709028930360466,4.477664941841795,-0.4488888888888889,-0.21666666666666667,-0.35333333333333333,-0.1522322478932856,-0.07024387593458865,0.03786988145447137
1592167905.7094274,-0.14128938742800543,8.627512562090399,4.653176487584932,-0.4488888888888889,-0.21666666666666667,-0.35333333333333333,-0.17072361047573825,-0.04410579650808726,0.010453002441608029
1592167905.7194273,-0.2999139528709768,8.715069201377494,4.9333768882693345,-0.4488888888888889,-0.21666666666666667,-0.35333333333333333,-0.1737090390158171,-0.06139561981287077,0.0035633905804198047
1592167905.7294273,-0.4139596434816201,8.750314932021208,5.256090523892534,-0.4488888888888889,-0.21666666666666667,-0.35333333333333333,-0.14429395171275836,-0.09925557213711174,0.04454049599563629
1592167905.7394273,-0.26904748049758354,8.700155012836515,5.318392596511565,-0.4488888888888889,-0.23777777777777778,-0.36,-0.10121210156142646,-0.07592873608041159,0.06494474576027623
1592167905.7494273,-0.10489576582135743,8.647380980577559,5.054900107644553,-0.4488888888888889,-0.23777777777777778,-0.36,-0.06404911306699072,-0.046107304596529244,0.031518314520709
1592167905.7594273,-0.13414371472085065,8.73408123862965,4.88920869224962,-0.4488888888888889,-0.23777777777777778,-0.36,-0.06397980111824828,-0.1025055466370643,0.039488723131789756
1592167905.7694273,0.05106197092067065,8.611783055172719,4.935581120340484,-0.4488888888888889,-0.23777777777777778,-0.36,-0.04918714893985781,-0.06667648415030442,0.01951631284927233
1592167905.7794273,0.04365210503526883,8.692428674179748,4.818874534725338,-0.4488888888888889,-0.23777777777777778,-0.36,-0.04670455963997435,-0.04554806367210413,-0.021622290291836488
1592167905.7894273,-0.0747081443799258,8.623563314396776,4.797931928804834,-0.4688888888888889,-0.21777777777777776,-0.37333333333333335,-0.039104226254234084,-0.02132284536409837,-0.03311971133719984
1592167905.7994273,-0.13478026431109477,8.709204894470217,4.7410364060942225,-0.4688888888888889,-0.21777777777777776,-0.37333333333333335,-0.0514158883278883,-0.013469807675921151,-0.0016144411821349194
1592167905.8094273,-0.06623292674669633,8.67061261730995,4.87069643638704,-0.4688888888888889,-0.21777777777777776,-0.37333333333333335,-0.06169839857631643,0.00046468273245692075,0.04378104051953566
1592167905.8194273,0.08235599521375424,8.602883884171883,4.927715005326988,-0.4688888888888889,-0.21777777777777776,-0.37333333333333335,-0.05432709060996281,0.03027313420812322,0.019173108877368016
1592167905.8294272,-0.2262290281518753,8.673805209112535,4.823925483333575,-0.4688888888888889,-0.21777777777777776,-0.37333333333333335,-0.0564464379929118,-0.013783349300701868,0.0017639215826568463
1592167905.8394272,-0.26777348516476057,8.794937164427362,5.006427601376045,-0.4622222222222222,-0.24444444444444444,-0.37444444444444447,-0.054034841639538735,-0.03527158371969198,0.04695987709741854
1592167905.8494272,0.07168153016852183,8.703060133099449,5.118590311580268,-0.4622222222222222,-0.24444444444444444,-0.37444444444444447,-0.007266799033746094,-0.031684579943092164,0.009631044000607748
1592167905.8594272,-0.07243440888067651,8.757511363879592,4.900115562492443,-0.4622222222222222,-0.24444444444444444,-0.37444444444444447,0.028908956524713834,-0.02110400377621634,-0.04152875812783015
1592167905.8694272,-0.07241629638798802,8.745388317090853,4.7735928085446675,-0.4622222222222222,-0.24444444444444444,-0.37444444444444447,0.04307335689937752,-0.0019889912454215276,-0.041367
1592167905.8794272,0.0886844241618876,8.723247484248747,4.801586752727964,-0.4622222222222222,-0.24444444444444444,-0.37444444444444447,0.046394925072220455,0.015978024975926514,-0.056240141651918193
1592167905.8894272,-0.09898820522537602,8.714377425259526,4.769127858953645,-0.4811111111111111,-0.24666666666666667,-0.4011111111111111,0.045539604898408456,-0.015503042288437333,-0.07739623138954874
1592167905.8994272,-0.3420645120061368,8.783738303681174,4.899233883985982,-0.4811111111111111,-0.24666666666666667,-0.4011111111111111,0.05066903975789278,-0.03830238761901331,-0.049477470960267694
1592167905.9094272,-0.1915760436583622,8.750930504547606,5.059641727425511,-0.4811111111111111,-0.24666666666666667,-0.4011111111111111,0.07856520292960863,-0.04824288945842718,-0.0344484061287491
1592167905.9194272,-0.12828246041477043,8.709044049426582,4.930319365372935,-0.4811111111111111,-0.24666666666666667,-0.4011111111111111,0.08595282756184887,-0.05323217476842307,-0.018503174768423065
1592167905.9294271,-0.10273264857878131,8.784221892370187,4.7704768199369125,-0.4811111111111111,-0.24666666666666667,-0.4011111111111111,0.09186606149665058,-0.10109151672666518,-0.015123614126958245
1592167905.9394271,-0.012115168354870018,8.708630471421943,4.700651176913123,-0.48,-0.24,-0.43,0.0816177700327358,-0.08694444239257564,0.00866580532905327
1592167905.9494271,0.21662458472190602,8.717787428826387,4.622328315060989,-0.48,-0.24,-0.43,0.07424904483258911,-0.08421801494419638,-0.017975164364184615
1592167905.959427,0.12436440575245176,8.673745598017325,4.7768578528523005,-0.48,-0.24,-0.43,0.07165643951060022,-0.07915082282575103,-0.039577247503253275
1592167905.969427,0.10674512590119488,8.657249070958121,5.034686252475229,-0.48,-0.24,-0.43,0.09913127885892646,-0.059031207321843485,-0.07077786282230805
1592167905.979427,0.013315373639655992,8.832465795516855,5.2697184646491415,-0.48,-0.24,-0.43,0.14196003037472715,-0.06156783315714003,-0.07915739635708363
1592167905.989427,0.01155813209039,8.796113877024524,5.108357477911771,-0.46,-0.2611111111111111,-0.41555555555555557,0.18680970103733335,-0.059876696078953316,-0.09202346953965132
1592167905.999427,0.044556625554983374,8.79013250259484,5.052675927734043,-0.46,-0.2611111111111111,-0.41555555555555557,0.22198173739661528,-0.09710586371560352,-0.08144371178524858
1592167906.009427,0.1564626183335912,8.6154413927515,4.879442029773683,-0.46,-0.2611111111111111,-0.41555555555555557,0.24257562008331213,-0.08167555405635991,-0.08938778223261945
1592167906.019427,0.31485214061920097,8.565190378102164,4.517077594086793,-0.46,-0.2611111111111111,-0.41555555555555557,0.2182932309844566,-0.045212,-0.10120832546870767
1592167906.029427,0.1201963811025474,8.645239823553196,4.269960756092149,-0.46,-0.2611111111111111,-0.41555555555555557,0.15732805101825567,-0.06987273928229891,-0.09300900814745132
1592167906.039427,0.07643320314401264,8.617693414005304,4.410124940924167,-0.4577777777777778,-0.2677777777777778,-0.43666666666666665,0.11398571215356901,-0.04219358337054019,-0.05583379168527009
1592167906.049427,0.1281278272092719,8.643075552171066,4.38913916075463,-0.4577777777777778,-0.2677777777777778,-0.43666666666666665,0.06115107001427097,0.0005267387344540749,-0.02589580874872504
1592167906.059427,0.14263579263034984,8.6114378688478,4.51651560063494,-0.4577777777777778,-0.2677777777777778,-0.43666666666666665,0.03563837733422223,0.005772017707447582,-0.0377485479435995
1592167906.069427,0.009983560740110912,8.637970998720744,4.54228327849135,-0.4577777777777778,-0.2677777777777778,-0.43666666666666665,-0.004911721330125554,0.0006222394013684666,-0.035338403205991915
1592167906.079427,0.17646666521960652,8.739835852978624,4.589192993856976,-0.4577777777777778,-0.2677777777777778,-0.43666666666666665,-0.022715843817693215,0.04520975824649806,-0.017059775488077893
1592167906.089427,0.20252420725477754,8.648697877555419,4.5667485400168175,-0.4949016830182659,-0.26159046023769644,-0.45007252133684295,-0.04473686230516944,0.028432506806096918,-0.02645722360176538
1592167906.099427,0.15448950800570174,8.705755093301311,4.736284629799562,-0.49777777777777776,-0.2611111111111111,-0.45111111111111113,-0.05863569164206258,0.05541188779235565,-0.015835089649384453
1592167906.109427,0.0890939330797354,8.778650856146173,4.79713678804002,-0.49777777777777776,-0.2611111111111111,-0.45111111111111113,-0.05378450091123993,0.04149531887449435,0.0005541290453050535
1592167906.119427,0.04072182608364826,8.742744732337664,4.80998956592358,-0.49777777777777776,-0.2611111111111111,-0.45111111111111113,-0.04520003086100481,0.05734223664748565,0.006962541733827125
1592167906.129427,0.05131363137717801,8.756401131170092,4.794252439221181,-0.49777777777777776,-0.2611111111111111,-0.45111111111111113,-0.033689882728563735,0.06470546745369522,0.02888828831809511
1592167906.139427,0.08339927135753646,8.7347022834934,4.715802565986703,-0.4836074714455101,-0.2589310639830699,-0.4740016059555435,-0.03212,0.08020131306714202,0.044461517371736814
1592167906.149427,0.021389148196022008,8.794756391310754,4.819025702708417,-0.48333333333333334,-0.2588888888888889,-0.47444444444444445,-0.035686116356098516,0.051936490872596275,0.08923786307015524
1592167906.159427,0.14307991038964585,8.691434291623613,4.9692506677131,-0.48333333333333334,-0.2588888888888889,-0.47444444444444445,-0.021221996262181263,0.08080322223594821,0.10928244422163949
1592167906.169427,0.1197782159241238,8.6788179904134,4.92190958479044,-0.48333333333333334,-0.2588888888888889,-0.47444444444444445,-0.006078417620853452,0.05763029030484826,0.10197687236731101
1592167906.179427,0.06622987102656133,8.7446386749628,4.981559827966978,-0.48333333333333334,-0.2588888888888889,-0.47444444444444445,0.014989799730714879,0.05592915111546294,0.106959770915736
1592167906.189427,0.25950425734512395,8.711840213070472,4.767681782680417,-0.47555555555555556,-0.26666666666666666,-0.5011111111111111,0.03332266601274674,0.10086075286410316,0.0932861402069867
1592167906.199427,0.31448468164893784,8.69744906176062,4.545374219905499,-0.47555555555555556,-0.26666666666666666,-0.5011111111111111,0.021396889116633688,0.08855620136722907,0.07587760016033082
1592167906.2094269,0.30678684336760453,8.721354972526008,4.440218581736762,-0.47555555555555556,-0.26666666666666666,-0.5011111111111111,-0.00045822637848076664,0.10820899846250502,0.057709
1592167906.2194269,0.2184223664449801,8.738272261083383,4.555236319566871,-0.47555555555555556,-0.26666666666666666,-0.5011111111111111,-0.02612473016089294,0.0896995181496417,0.06613101065468854
1592167906.2294269,0.147786457477342,8.740009700269361,4.654405801142488,-0.47555555555555556,-0.26666666666666666,-0.5011111111111111,-0.03366474417490641,0.06683979106213729,0.07865419297866495
1592167906.2394269,0.16443157982103493,8.690056738591128,4.808881834684713,-0.48225232561008713,-0.2704933924121133,-0.5011111111111111,-0.03602604045541038,0.06301680928766168,0.07837784343662456
1592167906.2494268,0.2229219146153785,8.695293875859448,4.746089955328522,-0.48333333333333334,-0.27111111111111114,-0.5011111111111111,-0.03438027381194189,0.0777493763589976,0.03732105398175661
1592167906.2594268,-0.018690404968744342,8.776079239506606,4.751737562863765,-0.48333333333333334,-0.27111111111111114,-0.5011111111111111,-0.03865739028510644,0.040809704925544296,0.05427383856260912
1592167906.2694268,0.2143748949240614,8.731399197618897,4.760150654187729,-0.48333333333333334,-0.27111111111111114,-0.5011111111111111,-0.03742639434509101,0.06305677392180822,0.08479763432701941
1592167906.2794268,0.19633788619000916,8.796975921429956,4.476206421028402,-0.48333333333333334,-0.27111111111111114,-0.5011111111111111,-0.050446769195823714,0.046587490227966155,0.09125692986947569
1592167906.2894268,0.3522482599554433,8.582798116591722,4.4807780891851,-0.48333333333333334,-0.2909916149738047,-0.5140334386218619,-0.07002995356976799,0.06770861235079263,0.07862321073953481
1592167906.2994268,0.3794784805154064,8.779063818309956,4.1178746094285845,-0.48333333333333334,-0.29333333333333333,-0.5155555555555555,-0.11777560227152517,0.04463610257354245,0.018184235738191258
1592167906.3094268,0.11909321195851658,8.620775759659644,4.325730630458365,-0.48333333333333334,-0.29333333333333333,-0.5155555555555555,-0.16051484679225503,0.013004471677131674,-0.002966527697047566
1592167906.3194268,0.08184665161000326,8.709102714518664,4.624807886010769,-0.48333333333333334,-0.29333333333333333,-0.5155555555555555,-0.19096182604074133,-0.012118581604550763,0.009367357187459234
1592167906.3294268,0.17268227592185798,8.6795733395022,4.964508749049455,-0.48333333333333334,-0.29333333333333333,-0.5155555555555555,-0.18618960467839038,-0.025348705744986492,0.02321060467839036
1592167906.3394268,0.2878640417083359,8.633262119994194,5.006885744576558,-0.4762815384771966,-0.26109655684813693,-0.547792332040752,-0.16483266011523187,-0.021910320230463742,-0.013045630779553348
1592167906.3494267,0.3215859711358614,8.615374669243385,4.901181612458058,-0.47555555555555556,-0.2577777777777778,-0.5511111111111111,-0.15448028249429013,-0.0016844003870466365,-0.06692203703272966
1592167906.3594267,0.11253976941916236,8.731185774061226,4.969055011264227,-0.47555555555555556,-0.2577777777777778,-0.5511111111111111,-0.1526938689725159,-0.030102973148036238,-0.04726812665247876
1592167906.3694267,0.13213958426017577,8.776940213379712,5.1228701874628495,-0.47555555555555556,-0.2577777777777778,-0.5511111111111111,-0.13862898779721605,-0.048401,-0.002074994136769065
1592167906.3794267,0.2471700896427845,8.534329353961008,5.256420033982998,-0.47555555555555556,-0.2577777777777778,-0.5511111111111111,-0.10218903406686072,-0.032004424676632635,-0.007116710207732048
1592167906.3894267,0.15678105133805387,8.732606206280451,5.079885883993481,-0.48142995109941306,-0.2577777777777778,-0.5578247060183769,-0.08347336902081184,-0.049601517115715255,-0.017855148094903416
1592167906.3994267,0.1736643784298871,8.644174833482102,5.009780471065946,-0.48333333333333334,-0.2577777777777778,-0.56,-0.060565386927208996,-0.032584929637784435,-0.029648
1592167906.4094267,0.14089176478796644,8.667041928791605,4.957058944740219,-0.48333333333333334,-0.2577777777777778,-0.56,-0.05331663283388379,-0.03336086411030404,-0.025784176392667627
1592167906.4194267,0.17075876879975305,8.707273067056565,4.961316528126812,-0.48333333333333334,-0.2577777777777778,-0.56,-0.03788841250479776,-0.022673236645541238,0.0003642726890585043
1592167906.4294267,0.3666120399508844,8.568736327148034,4.974953800992199,-0.48333333333333334,-0.2577777777777778,-0.56,-0.024673,0.01940624394256769,-0.002353537015425466
1592167906.4394267,0.23186452338751434,8.646910060621659,4.83836008929619,-0.48889599851625165,-0.27539288419035257,-0.5776151064125747,-0.025530949604738857,0.026380010768825686,-0.027554321033071517
1592167906.4494267,0.044546245461906955,8.645774891561208,4.9087010534255775,-0.49,-0.2788888888888889,-0.5811111111111111,-0.01715409489369044,0.04521844486484398,-0.02849302672075562
1592167906.4594266,-0.011647603145203946,8.67478223004203,5.061033599515789,-0.49,-0.2788888888888889,-0.5811111111111111,-0.006640424872077293,0.031546879524622,-0.022186
1592167906.4694266,0.003224192759727039,8.680633761297987,5.008782624221467,-0.49,-0.2788888888888889,-0.5811111111111111,0.008101753667216771,0.043213,-0.04836245261422062
1592167906.4794266,-0.1584829473969523,8.643884476059975,4.881563608159913,-0.49,-0.2788888888888889,-0.5811111111111111,0.010633575143343586,0.0163270432311843,-0.04249435806565276
1592167906.4894266,-0.21700994353878822,8.683648523069403,4.915570914477543,-0.49,-0.269640444176868,-0.5701811309969046,0.00814228513241825,-0.022416122493495755,-0.018402972995985867
1592167906.4994266,-0.0957237616758695,8.661100346857486,4.836748149391205,-0.49,-0.26666666666666666,-0.5666666666666667,0.007703998177613491,-0.025483692931294877,-0.0026245444554581507
1592167906.5094266,-0.05811604624977824,8.64306464609462,4.799141130174991,-0.49,-0.26666666666666666,-0.5666666666666667,-0.0016435894432869982,-0.04985805711535911,0.00034810263917825035
1592167906.5194266,-0.050416221335179916,8.698354014642021,4.863539662102632,-0.49,-0.26666666666666666,-0.5666666666666667,-0.005493,-0.05836897338859448,0.021504377566243002
1592167906.5294266,0.18447784093750805,8.59363328586906,4.890918006584011,-0.49,-0.26666666666666666,-0.5666666666666667,-0.004425,-0.013894900106535515,0.005808598960000282
1592167906.5394266,0.09024636981878177,8.641871921784121,4.680314197923574,-0.47101241900647944,-0.26666666666666666,-0.591983441324694,-0.02710149503860671,-0.04217506666464791,-0.005604657173339205
1592167906.5494266,-0.09159265841095413,8.655912126913407,4.757909959202872,-0.4633333333333333,-0.26666666666666666,-0.6022222222222222,-0.04380551193509091,-0.06709878421769935,-0.011569229378186472
1592167906.5594265,-0.1418218037318678,8.707354868569892,4.86421707403924,-0.4633333333333333,-0.26666666666666666,-0.6022222222222222,-0.05039205715908953,-0.07580341660929246,0.02608186236026721
1592167906.5694265,0.04235377140335501,8.636988616413134,4.966829464535432,-0.4633333333333333,-0.26666666666666666,-0.6022222222222222,-0.04267435780952455,-0.07778274231087241,0.046217339789937854
1592167906.5794265,0.23754605455610586,8.531803090974783,4.885684540176206,-0.4633333333333333,-0.26666666666666666,-0.6022222222222222,-0.03675809248729514,-0.03510353304816726,0.0025811311981113437
1592167906.5894265,0.04375156890423158,8.697475961153746,4.7312103710189755,-0.47178596450049254,-0.26282456159068524,-0.6006853801918296,-0.04866198716884788,-0.03089806058916087,0.0045480477580087525
1592167906.5994265,0.05364204900665246,8.671322463699754,4.9337971709226816,-0.47555555555555556,-0.2611111111111111,-0.6,-0.051088227192314324,-0.03776251115418533,0.03021326165350035
1592167906.6094265,0.18729322557296055,8.623163764748957,4.959191307525113,-0.47555555555555556,-0.2611111111111111,-0.6,-0.04185456040719687,-0.010804653063057505,0.03913646775133624
1592167906.6194265,0.08529812644109447,8.669781670839175,4.879211629694087,-0.47555555555555556,-0.2611111111111111,-0.6,-0.04402134425362483,-0.031847134915933446,0.03791295974755886
1592167906.6294265,0.1491927000240314,8.66150594883631,4.889776610173785,-0.47555555555555556,-0.2611111111111111,-0.6,-0.04649292866369587,0.004024062314294528,0.043669321127396944
1592167906.6394265,0.09328005329661233,8.654751168631956,4.784753964695216,-0.47555555555555556,-0.2611111111111111,-0.6137391756635178,-0.05390405258238389,-0.008207976941848886,0.027901444823291644
1592167906.6494265,-0.04158684435574967,8.673712056016155,4.747726090438285,-0.47555555555555556,-0.2611111111111111,-0.6222222222222222,-0.07058089524868769,-0.010993649819441932,0.04888530665697957
1592167906.6594265,0.2551198984019691,8.627791588786215,4.806842993252826,-0.47555555555555556,-0.2611111111111111,-0.6222222222222222,-0.07167417426816408,0.021238976553814785,0.026906828602071563
1592167906.6694264,-0.005216737772999219,8.637446865992708,4.761723467945073,-0.47555555555555556,-0.2611111111111111,-0.6222222222222222,-0.07454720406263439,-0.016940215054946972,-0.02688230750723265
1592167906.6794264,-0.10464532788520137,8.697997645778402,4.947879917412923,-0.47555555555555556,-0.2611111111111111,-0.6222222222222222,-0.06912566965051467,-0.016735330349485336,-0.008562614811886344
1592167906.6894264,0.010547797600263385,8.634221130857966,5.196414514181847,-0.4670095826403738,-0.26965708402629285,-0.6268836619941396,-0.0586990214129448,-0.011245605908985991,0.021674995934007422
1592167906.6994264,0.13902335946807298,8.616043511517276,5.215956962130008,-0.4633333333333333,-0.2733333333333333,-0.6288888888888889,-0.03440624636376759,-0.0205201100483135,0.025286584338130746
1592167906.7094264,0.010200834186807756,8.602280072876942,5.242313060086929,-0.4633333333333333,-0.2733333333333333,-0.6288888888888889,0.002410262497384339,-0.04524645949519944,-0.03108998880012071
1592167906.7194264,-0.062417143035324786,8.58473504336086,5.194459006263017,-0.4633333333333333,-0.2733333333333333,-0.6288888888888889,0.02817733052711005,-0.010287929837346506,-0.04929285967469301
1592167906.7294264,-0.1678007006681418,8.557324136740192,5.018534085017928,-0.4633333333333333,-0.2733333333333333,-0.6288888888888889,0.0336607333687614,-0.051795359669625,-0.08932933210129779
1592167906.7394264,-0.25658342173980686,8.67133757508471,5.032641803734994,-0.47003888279560063,-0.28125807360692195,-0.6173065761813362,0.04094838928933509,-0.07391497063890656,-0.10573316250186197
1592167906.7494264,-0.22866046247149094,8.622293680154357,5.086273536538322,-0.47555555555555556,-0.2877777777777778,-0.6077777777777778,0.05248977188320831,-0.07143064172933945,-0.08117548770396311
1592167906.7594264,0.08547429676238345,8.670300235798381,4.912629988203736,-0.47555555555555556,-0.2877777777777778,-0.6077777777777778,0.05893602788733629,-0.09808291998661654,-0.08604469747346466
1592167906.7694263,-0.041431853324511915,8.634116155075967,4.892311144392704,-0.47555555555555556,-0.2877777777777778,-0.6077777777777778,0.07016537973667131,-0.10385759959582147,-0.09595664809532387
1592167906.7794263,0.03445013195461853,8.670614758078822,4.859621124405557,-0.47555555555555556,-0.2877777777777778,-0.6077777777777778,0.05343459180430294,-0.08330498970752998,-0.0377783899451948
1592167906.7894263,0.2013788551394855,8.704550152484895,4.730340574706971,-0.47214204793028325,-0.2911912854030501,-0.6293966594045025,0.03562777561066984,-0.0858264414562775,-0.004417073268001968
1592167906.7994263,0.2035780262761958,8.57209978671857,4.916996808560521,-0.4688888888888889,-0.29444444444444445,-0.65,0.04356127678279751,-0.08288067985422477,-0.041692659448990185
1592167906.8094263,-0.04550121827820025,8.541732261622336,4.890420950286747,-0.4688888888888889,-0.29444444444444445,-0.65,0.03382897902740928,-0.05509800262748942,-0.06640804425977952
1592167906.8194263,-0.12522980317470342,8.667477211052299,4.974473509532092,-0.4688888888888889,-0.29444444444444445,-0.65,0.032844608049055986,-0.07499360552854994,-0.016972356726338116
1592167906.8294263,0.2901633392733304,8.589999869117706,5.055061363189391,-0.4688888888888889,-0.29444444444444445,-0.65,0.03165828981451772,-0.01594864986226871,0.04245493524461667
1592167906.8394263,0.4249537555539652,8.57184900038847,4.902635071941737,-0.4724719466234212,-0.2956387970226219,-0.65,0.0341151973959441,6.319969472060906e-05,0.034401743693238195
1592167906.8494263,0.40237941418273354,8.533204059192563,4.947306039768215,-0.47555555555555556,-0.2966666666666667,-0.65,0.03771051706857843,0.044764486600183305,-0.0269688737413421
1592167906.8594263,0.10496610240682466,8.535766381918016,4.81649477813462,-0.47555555555555556,-0.2966666666666667,-0.65,0.04079770816740967,0.058121,-0.10084828988167467
1592167906.8694263,-0.1298771953889378,8.605315676432634,4.853866234267025,-0.47555555555555556,-0.2966666666666667,-0.65,0.015619764930273753,0.0593642134249104,-0.04547783021788421
1592167906.8794262,0.22629920300035794,8.646407375504001,4.911837597504122,-0.47555555555555556,-0.2966666666666667,-0.65,-0.00440190168978339,0.06909018549943421,0.03168044335943395
1592167906.8894262,0.4313822007158652,8.549551334807326,4.97755662294942,-0.46198356794325923,-0.2896092331082726,-0.65,0.0013344953732869638,0.10501112480110895,0.011856698518606237
1592167906.8994262,0.17288791685199648,8.704254065325806,4.9653443461765026,-0.4477777777777778,-0.2822222222222222,-0.65,0.003021,0.08016205285597426,0.014481456176020542
1592167906.9094262,0.16698011794116338,8.638498594702932,4.912262323999508,-0.4477777777777778,-0.2822222222222222,-0.65,0.00994948901220319,0.08849096383147341,0.0396024528436766
1592167906.9194262,0.21980254745964758,8.662358060863184,4.793118322306988,-0.4477777777777778,-0.2822222222222222,-0.65,8.552413068863181e-05,0.054459430547596374,0.056861316352172966
1592167906.9294262,0.25139973853904024,8.528580360923044,4.894343349430871,-0.4477777777777778,-0.2822222222222222,-0.65,-0.006883342989690989,0.07469073091527886,0.0415618849246179
1592167906.9394262,0.18504944446924165,8.59402267077845,4.794478236210394,-0.45060150427774676,-0.28834029630548835,-0.6650598746665012,-0.0154834959068681,0.06720029476614242,-0.01658064752063945
1592167906.9494262,0.024248575941987142,8.618173718103504,5.041242926742749,-0.45444444444444443,-0.2966666666666667,-0.6855555555555556,-0.01026425123994779,0.04734372510044498,-0.023254
1592167906.9594262,0.1722592145262656,8.556604355846384,5.1779921480404765,-0.45444444444444443,-0.2966666666666667,-0.6855555555555556,0.010693774523205088,0.05787375009259994,-0.062099150869619875
1592167906.9694262,0.07405499431948313,8.643475708731417,5.187654201246717,-0.45444444444444443,-0.2966666666666667,-0.6855555555555556,0.02896251564022404,0.053495890275488726,-0.08486153713298773
1592167906.9794261,0.034282052308280464,8.764740738625228,5.294950748275216,-0.45444444444444443,-0.2966666666666667,-0.6855555555555556,0.05036108712298164,0.02816592164572834,-0.03299082575403673
1592167906.9894261,0.2231806174116309,8.66756328759029,5.30791631080587,-0.45114741973440914,-0.2966666666666667,-0.6894020843839301,0.0835377866634015,0.0028785679216635444,0.02225962946004848
1592167906.9994261,0.4174105098868918,8.674238639399531,5.253267507472834,-0.4477777777777778,-0.2966666666666667,-0.6933333333333334,0.11389993290116131,-0.0009192370163083694,0.052391970640335274
1592167907.009426,0.4798504028827947,8.635998109259992,5.04863692136967,-0.4477777777777778,-0.2966666666666667,-0.6933333333333334,0.13664831877096598,0.010985502697197412,0.0415451785318366
1592167907.019426,0.4741647447691364,8.554459357569721,5.092478987477475,-0.4477777777777778,-0.2966666666666667,-0.6933333333333334,0.1460529023936386,0.03459499614216156,0.05973551295097775
1592167907.029426,0.5228542209604639,8.704272789268341,4.961067431072947,-0.4477777777777778,-0.2966666666666667,-0.6933333333333334,0.15442887210086964,0.04508125361672284,0.08109076638954985
1592167907.039426,0.6081987032050258,8.520547211179364,5.166928952552538,-0.44269026655150334,-0.3077666911603563,-0.6863958180247773,0.17410422069992826,0.07963501814841063,0.07326868798030235
1592167907.049426,0.5523564292646846,8.670484539027981,4.891310480353201,-0.43555555555555553,-0.3233333333333333,-0.6766666666666666,0.18984031369660945,0.12194841965105838,0.01633636236045082
1592167907.059426,0.3043541083176061,8.671829038033286,4.843781451547482,-0.43555555555555553,-0.3233333333333333,-0.6766666666666666,0.1891099475481851,0.07823382221487173,0.01299711171352432
1592167907.069426,0.2880027886803759,8.650010228273281,4.845997217388017,-0.43555555555555553,-0.3233333333333333,-0.6766666666666666,0.19224848697965322,0.05184495985585081,0.008538722462412721
1592167907.079426,0.2914919245844968,8.677630623079322,4.7506478429659476,-0.43555555555555553,-0.3233333333333333,-0.6766666666666666,0.1935659363272151,0.03196436841932935,-0.011357187063184424
1592167907.089426,0.1945571144019739,8.766372966291982,4.682845563238059,-0.426546498596955,-0.3201801633978231,-0.6834234593856171,0.1846311084940308,0.005331288406804735,-0.01728861648746907
1592167907.099426,0.41491608692323956,8.709688233206212,4.787916531928128,-0.41333333333333333,-0.31555555555555553,-0.6933333333333334,0.18223942842228788,0.03560832806943642,-0.018673661076287464
1592167907.109426,0.5138028714696435,8.72459903427995,4.675762195203004,-0.41333333333333333,-0.31555555555555553,-0.6933333333333334,0.17494218060380906,0.045032893136193644,-0.038354545885987815
1592167907.119426,0.3992443578412346,8.748079341925694,4.881327476973619,-0.41333333333333333,-0.31555555555555553,-0.6933333333333334,0.18157905546418193,0.036276915695433676,-0.021530124162351113
1592167907.129426,0.5112447236992644,8.755559305382366,4.913210734632328,-0.41333333333333333,-0.31555555555555553,-0.6933333333333334,0.20402491321210597,0.0947536759902668,-0.013585980300818703
1592167907.139426,0.5449590795685155,8.761796232620288,4.8259891100382974,-0.4096679613584304,-0.31514829200278854,-0.6880389071473625,0.21967776092516023,0.11055314878708926,-0.022322253641720077
1592167907.149426,0.42858971048330646,8.82603089046217,4.734715141132089,-0.4033333333333333,-0.31444444444444447,-0.6788888888888889,0.22748779749645648,0.09360237968086929,-0.011926110087161011
1592167907.159426,0.4349466547755627,8.812706429946656,4.694681570199217,-0.4033333333333333,-0.31444444444444447,-0.6788888888888889,0.24082442315797878,0.10662415559162111,0.024661203152648494
1592167907.169426,0.4913142272299614,8.809193731729584,4.502818413329543,-0.4033333333333333,-0.31444444444444447,-0.6788888888888889,0.2381710207818842,0.11055254064390217,0.05622187906646986
1592167907.179426,0.5014417835861633,8.821012353440057,4.440634924504659,-0.4033333333333333,-0.31444444444444447,-0.6788888888888889,0.22772490422701822,0.13165864507311223,0.08442031841983262
1592167907.189426,0.5334901094464591,8.760506116761537,4.339494227587872,-0.40586765740146163,-0.31444444444444447,-0.6843799243698335,0.20776693097313023,0.1295787084077234,0.08969216506926346
1592167907.199426,0.4438327162886161,8.754566945923102,4.351288,-0.41,-0.31444444444444447,-0.6933333333333334,0.18663881794190093,0.14735431090638523,0.07918350513104822
1592167907.209426,0.29328966708275844,8.830789644785469,4.386818720925915,-0.41,-0.31444444444444447,-0.6933333333333334,0.16665453111669923,0.1232469584205444,0.06935582996945995
1592167907.219426,0.2868785386125292,8.846277086268223,4.48973192469116,-0.41,-0.31444444444444447,-0.6933333333333334,0.1597209637783025,0.1213485508298754,0.08587951460817787
1592167907.229426,0.4837304529213242,8.819155260217482,4.5067818381463125,-0.41,-0.31444444444444447,-0.6933333333333334,0.14985574208046312,0.10714565572943166,0.07431700732990412
1592167907.239426,0.43986549289117116,8.837884855978196,4.508234822888245,-0.39980231579426284,-0.3216678040901749,-0.6958827543847677,0.14544920563694277,0.06979252955697732,0.07411516378899831
1592167907.249426,0.53111839971039,8.811431707676334,4.490558472797419,-0.38333333333333336,-0.3333333333333333,-0.7,0.14119711454097045,0.08175031923307578,0.07707512724991616
1592167907.2594259,0.658527676573063,8.848465272504805,4.372373227188792,-0.38333333333333336,-0.3333333333333333,-0.7,0.13193902295154103,0.090746495570676,0.0700738781853954
1592167907.2694259,0.585437447092404,8.89628525503792,4.33970124049715,-0.38333333333333336,-0.3333333333333333,-0.7,0.12045336613083524,0.07362326773832951,0.07533226773832952
1592167907.2794259,0.6719485817206392,8.85715576411078,4.336010302553069,-0.38333333333333336,-0.3333333333333333,-0.7,0.11305973786836944,0.09931830102148172,0.077668963948283
1592167907.2894258,0.6671030028975398,8.86931739193141,4.204082760373882,-0.37940215474503075,-0.33148336693883795,-0.6956063298130735,0.10028178009546547,0.08599235140704967,0.06624269583938502
1592167907.2994258,0.5336003770030886,8.91732741954413,4.169043296170884,-0.36444444444444446,-0.3244444444444444,-0.6788888888888889,0.07486460606979954,0.04614610017191728,0.07601144342320455
1592167907.3094258,0.5552987570405468,8.839675667973752,4.187388532749248,-0.36444444444444446,-0.3244444444444444,-0.6788888888888889,0.05067889550399449,0.050674,0.06595582034355404
1592167907.3194258,0.5085788384450135,8.84409925848191,4.172436208731807,-0.36444444444444446,-0.3244444444444444,-0.6788888888888889,0.020960241222235058,0.007513344558190561,0.03951456594739096
1592167907.3294258,0.4156844174304328,8.868382577870465,4.192126889070474,-0.36444444444444446,-0.3244444444444444,-0.6788888888888889,-0.005586106961027033,-0.03793643197030966,0.03260661571202743
1592167907.3394258,0.49719538328684715,8.8753313752585,4.209333126655254,-0.36771535920976883,-0.3269457322061631,-0.6790812956397904,-0.02596943430004322,-0.05765245087659564,0.036679945947736846
1592167907.3494258,0.8695256729031103,8.735964853424559,4.240067824088632,-0.38333333333333336,-0.3388888888888889,-0.68,-0.042035785370320676,-0.018923376871273316,-0.02431141610106105
1592167907.3594258,0.7711787533860419,8.9054990239366,4.302962585135573,-0.38333333333333336,-0.3388888888888889,-0.68,-0.062162758706523394,-0.03300925361873109,-0.077576
1592167907.3694258,0.6382052853613126,9.001215857922427,4.636087805865017,-0.38333333333333336,-0.3388888888888889,-0.68,-0.0502586885036662,-0.0313676885036662,-0.04352820926735898
1592167907.3794258,0.8480638783204667,8.92733343105621,4.677942512801025,-0.38333333333333336,-0.3388888888888889,-0.68,-0.01868474774744758,-0.01481803520542254,-0.01103096479457746
1592167907.3894258,0.8195468418426067,8.867816704352947,4.595361579678672,-0.381568808796465,-0.33712436435202053,-0.6764709509262633,-0.002774807844322944,-0.03272985672270441,-0.014725
1592167907.3994257,0.6613350186168195,8.948309056717324,4.4817598517867605,-0.37666666666666665,-0.3322222222222222,-0.6666666666666666,0.002665834278144326,-0.03280102597211842,0.010530237209792945
1592167907.4094257,0.7010479227682063,8.9004201270299,4.354264315027817,-0.37666666666666665,-0.3322222222222222,-0.6666666666666666,0.006463170519603998,-0.0054335096545757395,0.040132708427999486
1592167907.4194257,0.7477369392217419,8.853426258939896,4.267491020665914,-0.37666666666666665,-0.3322222222222222,-0.6666666666666666,-0.0020996916184203604,0.009411956636188525,0.04376516158288403
1592167907.4294257,0.7658131578300982,8.864525481707044,4.220269921045945,-0.37666666666666665,-0.3322222222222222,-0.6666666666666666,-0.015055869940156395,0.03146579773792317,0.027919565835531356
1592167907.4394257,0.6693726818930954,8.830955771739532,4.2756725523404615,-0.37666666666666665,-0.3322222222222222,-0.6666666666666666,-0.03268945610682031,0.04747,-0.0006968613879628548
1592167907.4494257,0.5185934475451045,8.883102,4.332444083288846,-0.38333333333333336,-0.3322222222222222,-0.6877777777777778,-0.04183554569856759,0.04683287877991367,-0.001346956452169598
1592167907.4594257,0.5454962980331037,8.86456879117899,4.377643345817539,-0.38333333333333336,-0.3322222222222222,-0.6877777777777778,-0.048118482406075934,0.05144296455310649,-0.0022303004022443842
1592167907.4694257,0.5064927925229825,8.855192992135324,4.434194729950527,-0.38333333333333336,-0.3322222222222222,-0.6877777777777778,-0.05474262503115146,0.022584027113786855,-0.017138444047258363
1592167907.4794257,0.3844922342502506,8.891021849969945,4.530735397033318,-0.38333333333333336,-0.3322222222222222,-0.6877777777777778,-0.05281634277460788,0.009817840756593017,-0.028373447591535962
1592167907.4894257,0.3932901985430954,8.855843805430982,4.5230148091652564,-0.38333333333333336,-0.3322222222222222,-0.6877777777777778,-0.04987452227369654,-0.01025415035263289,-0.02858
1592167907.4994256,0.3936702242238321,8.864758503068995,4.460988860577419,-0.3711111111111111,-0.3233333333333333,-0.6877777777777778,-0.050079790819419275,-0.026795439120879207,-0.024472928893231202
1592167907.5094256,0.46941107232545753,8.84273252698711,4.422017910008113,-0.3711111111111111,-0.3233333333333333,-0.6877777777777778,-0.049164,-0.016634586785800494,-0.029895083457872302
1592167907.5194256,0.45382742856378494,8.89275534382595,4.392399485499148,-0.3711111111111111,-0.3233333333333333,-0.6877777777777778,-0.05183662899444288,-0.005515315053452471,-0.02688563904950215
1592167907.5294256,0.4160716189147918,8.906395927439569,4.342469519210114,-0.3711111111111111,-0.3233333333333333,-0.6877777777777778,-0.06335397703845005,-0.000737016538361727,-0.01332275652615785
1592167907.5394256,0.41684654182181724,8.881647399679455,4.4039939040444205,-0.3711111111111111,-0.3233333333333333,-0.6877777777777778,-0.07482210465649348,-0.010111937904177703,0.00035163128680444514
1592167907.5494256,0.43418915901633515,8.875161877429987,4.51049059104442,-0.3711111111111111,-0.35,-0.6877777777777778,-0.08006188622628276,-0.019640606139692086,0.012972606139692089
1592167907.5594256,0.4680925129316723,8.83778669256359,4.647799994812935,-0.3711111111111111,-0.35,-0.6877777777777778,-0.07479284148716485,-0.03539540429694686,0.02145699005407424
1592167907.5694256,0.4477721935200891,8.816640138258652,4.721664791314234,-0.3711111111111111,-0.35,-0.6877777777777778,-0.06027016328356827,-0.03465642856162812,0.019472653080156013
1592167907.5794256,0.4800148186157953,8.840226207633783,4.710950812854863,-0.3711111111111111,-0.35,-0.6877777777777778,-0.037219826322442064,-0.020300976108387075,0.018211991971423515
1592167907.5894256,0.49878279681594495,8.83558469482378,4.637363045359065,-0.3711111111111111,-0.35,-0.6877777777777778,-0.02107769824858571,-0.007625159976630068,0.018516707299659402
1592167907.5994256,0.44301425457252497,8.829504284772751,4.476551421871212,-0.37333333333333335,-0.33,-0.6822222222222222,-0.01599897065164723,0.001663,0.0029874141174034037
1592167907.6094255,0.30644492601702883,8.822612616962358,4.286029815921596,-0.37333333333333335,-0.33,-0.6822222222222222,-0.026657931089166836,-0.010971931089166838,-0.029183773610921095
1592167907.6194255,0.196627143648556,8.79998654089344,4.356968493662607,-0.37333333333333335,-0.33,-0.6822222222222222,-0.04524289586621802,-0.02396273343291359,-0.05188411658903598
1592167907.6294255,0.22410305162739041,8.797129271624634,4.580885687885298,-0.37333333333333335,-0.33,-0.6822222222222222,-0.05675692155375658,-0.03384476575873379,-0.0533165458313118
1592167907.6394255,0.2856217423756472,8.81070673897623,4.8079079832058955,-0.37333333333333335,-0.33,-0.6822222222222222,-0.04433700205681373,-0.03453986307566723,-0.05681747817883465
1592167907.6494255,0.30359382333957147,8.823850791135806,4.944235189382255,-0.3655555555555556,-0.34444444444444444,-0.6533333333333333,-0.015378492517392366,-0.02460430165223995,-0.06330884183638133
1592167907.6594255,0.28476809960131844,8.830937226368144,4.894471223709137,-0.3655555555555556,-0.34444444444444444,-0.6533333333333333,0.02244850323337476,-0.0013972898792297996,-0.07673881880275747
1592167907.6694255,0.2217483215900452,8.839854999242652,4.711540535862458,-0.3655555555555556,-0.34444444444444444,-0.6533333333333333,0.04820070624889128,0.014514744641712037,-0.08935942065370041
1592167907.6794255,0.12367944364687457,8.883197594365543,4.548306211159407,-0.3655555555555556,-0.34444444444444444,-0.6533333333333333,0.056610374110887436,0.016896624292693004,-0.08343997909407205
1592167907.6894255,0.07158930222232401,8.857691968577567,4.489874111417433,-0.3655555555555556,-0.34444444444444444,-0.6533333333333333,0.0556236066923187,0.018844196113184872,-0.06586957245168674
1592167907.6994255,0.025163040878287735,8.861011809513425,4.586779495689225,-0.35,-0.3377777777777778,-0.6755555555555556,0.055012202940499404,0.006160574675928839,-0.04776994259069661
1592167907.7094254,0.07030990281457775,8.86050227834666,4.63142104643208,-0.35,-0.3377777777777778,-0.6755555555555556,0.06101425613732641,0.009126483215787965,-0.02902656032357355
1592167907.7194254,0.11257223695519494,8.83875010129911,4.739816585718327,-0.35,-0.3377777777777778,-0.6755555555555556,0.07585390814039886,0.018326847820346107,-0.014052152179653894
1592167907.7294254,0.12560176217129657,8.833451360833307,4.799939803050942,-0.35,-0.3377777777777778,-0.6755555555555556,0.09915374562975175,0.04244098027190615,-0.01698051188623574
1592167907.7394254,0.11719590696372777,8.852382678907578,4.700423825409561,-0.35,-0.3377777777777778,-0.6755555555555556,0.12068400581606321,0.07082877336359844,-0.025871058171515728
1592167907.7494254,0.037376226861759676,8.856615343150485,4.588953812019605,-0.3466666666666667,-0.35,-0.6822222222222222,0.13398230288289983,0.0909995810337127,-0.03908102131948658
1592167907.7594254,-0.0934792830760439,8.87476712579067,4.376663923536012,-0.3466666666666667,-0.35,-0.6822222222222222,0.1332871379144054,0.08566316827903317,-0.04394696963537224
1592167907.7694254,-0.20388883157169418,8.870614810846092,4.263252489915932,-0.3466666666666667,-0.35,-0.6822222222222222,0.11802994908339677,0.06338952920920699,-0.037285824627849344
1592167907.7794254,-0.25087148624748545,8.914733644509738,4.22434157516868,-0.3466666666666667,-0.35,-0.6822222222222222,0.09972051228460015,0.038700512284600155,-0.014509074310106205
1592167907.7894254,-0.13034229157436605,8.863301108683237,4.312671591313874,-0.3466666666666667,-0.35,-0.6822222222222222,0.08425919627314954,0.02670274211515503,0.001303018614500356
1592167907.7994254,-0.08679657320367688,8.876893360774812,4.467736067378408,-0.3322222222222222,-0.3377777777777778,-0.6611111111111111,0.07934172206197078,0.003843597280610342,0.010756371789409698
1592167907.8094254,0.02862255047522112,8.918077462664478,4.609342967492363,-0.3322222222222222,-0.3377777777777778,-0.6611111111111111,0.08724286054732978,0.0015357018485184421,0.0192312978136471
1592167907.8194253,0.14567212031002968,8.896625692403195,4.580151841910973,-0.3322222222222222,-0.3377777777777778,-0.6611111111111111,0.10061388144218779,0.013825202047418961,0.027667320605231176
1592167907.8294253,0.21896066692586033,8.900227845881199,4.486739564133277,-0.3322222222222222,-0.3377777777777778,-0.6611111111111111,0.11032831605032432,0.026426979787314637,0.028946
1592167907.8394253,0.24040963330999698,8.905994902193175,4.353109943366169,-0.3322222222222222,-0.3377777777777778,-0.6611111111111111,0.11040224757378496,0.02639275242621504,0.03175011468838929
1592167907.8494253,0.1458590151892472,8.901476442658288,4.210190832395233,-0.3388888888888889,-0.35,-0.6533333333333333,0.10121073419082507,0.021610857997552968,0.0389201008388139
1592167907.8594253,0.11731797302984383,8.909337222071887,4.137063451548467,-0.3388888888888889,-0.35,-0.6533333333333333,0.08248427397732375,0.007889842058837587,0.04296581021726968
1592167907.8694253,0.16736077711583558,8.915169988249499,4.231555239299174,-0.3388888888888889,-0.35,-0.6533333333333333,0.06411714408727853,0.017198642613477404,0.043294486775195644
1592167907.8794253,0.2974086826751948,8.898887145030791,4.231784755511805,-0.3388888888888889,-0.35,-0.6533333333333333,0.05135811653505572,0.033740996291034935,0.025463708804275238
1592167907.8894253,0.30771076302998207,8.893962319889892,4.238047535624602,-0.3388888888888889,-0.35,-0.6533333333333333,0.039844927879390694,0.03827864889619089,-0.006235670186744374
1592167907.8994253,0.2103633218595894,8.91021779998926,4.25028481475876,-0.35888888888888887,-0.35,-0.6611111111111111,0.03270104108299775,0.051777556325919856,-0.030953781629599258
1592167907.9094253,0.15802349704636617,8.954915261617296,4.330407677607911,-0.35888888888888887,-0.35,-0.6611111111111111,0.025368557120982054,0.05159106392936708,-0.035927187109253717
1592167907.9194252,0.15142292040111982,8.951840244468489,4.443446636133191,-0.35888888888888887,-0.35,-0.6611111111111111,0.027511977152534416,0.040049085187442525,-0.015863229103172442
1592167907.9294252,0.21076373706460017,8.921161231280829,4.458856962504637,-0.35888888888888887,-0.35,-0.6611111111111111,0.03593989249268469,0.022378639618072946,0.0010174061484347092
1592167907.9394252,0.15911582965655466,8.928451734009672,4.379918414581787,-0.35888888888888887,-0.35,-0.6611111111111111,0.040246947510618726,-0.019301601933548882,0.009565784280302535
1592167907.9494252,0.15334029858793727,8.8939263655369,4.324675466293511,-0.3466666666666667,-0.3566666666666667,-0.6533333333333333,0.03420320660250391,-0.06055267524740514,0.009577639635023269
1592167907.9594252,0.2877030027381142,8.910459953312873,4.350751363336337,-0.3466666666666667,-0.3566666666666667,-0.6533333333333333,0.028717639985289603,-0.09782109278960918,0.010711360014710397
1592167907.9694252,0.4291333051515173,8.911415836969516,4.370463555997502,-0.3466666666666667,-0.3566666666666667,-0.6533333333333333,0.02951256626661851,-0.09921505583357344,-0.0036418883328531203
1592167907.9794252,0.3935792752932724,8.931568705211454,4.345392259731195,-0.3466666666666667,-0.3566666666666667,-0.6533333333333333,0.03266733890584838,-0.0864168172802527,-0.017891626989783416
1592167907.9894252,0.396056502723054,8.941702245405335,4.40874374268228,-0.3466666666666667,-0.3566666666666667,-0.6533333333333333,0.036262164548662844,-0.07096523435617104,-0.024315709706748803
1592167907.9994252,0.344555711770458,8.959529456033858,4.316949311477513,-0.35,-0.35,-0.6322222222222222,0.040314,-0.059292248590059944,-0.036723882737590606
1592167908.0094252,0.2712080733154724,8.95093808575721,4.209629091896005,-0.35,-0.35,-0.6322222222222222,0.038445293313794114,-0.06597651061264195,-0.048544552950464316
1592167908.0194252,0.19074078787528204,8.930389,4.155585285352883,-0.35,-0.35,-0.6322222222222222,0.0253366975998284,-0.08409178522965344,-0.043894302428184706
1592167908.0294251,0.24954372143868786,8.907221503188165,4.070406900713909,-0.35,-0.35,-0.6322222222222222,0.0073806720698833365,-0.10812058297257614,-0.03169119034005316
1592167908.0394251,0.4211876605268595,8.937870896465773,4.051235809797814,-0.35,-0.35,-0.6322222222222222,-0.014359194612808865,-0.12439740269359557,-0.02751690665561987
1592167908.0494251,0.5282281334214357,8.937100140478961,4.07861625567682,-0.33,-0.3511111111111111,-0.6322222222222222,-0.035052974408311455,-0.10491622495521737,-0.02460911456063751
1592167908.059425,0.5681238435015674,8.893013741400662,4.150178706941235,-0.33,-0.3511111111111111,-0.6322222222222222,-0.050961138665318,-0.07465210978986059,-0.02987991742673854
1592167908.069425,0.5157995461251298,8.92839855731973,4.357611152669138,-0.33,-0.3511111111111111,-0.6322222222222222,-0.058316591788315365,-0.04733481553116135,-0.034973
1592167908.079425,0.4366259144663676,8.950321023337953,4.445599886201199,-0.33,-0.3511111111111111,-0.6322222222222222,-0.04771460558687481,-0.026451585969936433,-0.03163906437252692
1592167908.089425,0.3756453966960409,8.941021743890875,4.477574915418919,-0.33,-0.3511111111111111,-0.6322222222222222,-0.036161977711823466,-0.01799882593402588,-0.02915117406597412
1592167908.099425,0.3796922026077173,8.92213789869614,4.602853721064466,-0.33,-0.36444444444444446,-0.6322222222222222,-0.020379573681020325,-0.023914244594027422,-0.03231183948303121
1592167908.109425,0.3664340772885977,8.908728717538098,4.547014021551087,-0.33,-0.36444444444444446,-0.6322222222222222,-0.0014157458625189225,-0.029221,-0.033905
1592167908.119425,0.3290798674692093,8.941422403515574,4.4926943524006235,-0.33,-0.36444444444444446,-0.6322222222222222,0.01486880739801414,-0.02555607461451828,-0.03319811798746758
1592167908.129425,0.303984278264402,8.937516139313468,4.429490524781842,-0.33,-0.36444444444444446,-0.6322222222222222,0.02309626327467163,-0.00833869320417751,-0.01995662175204755
1592167908.139425,0.33362768275501115,8.939557530195485,4.297776402681098,-0.33,-0.36444444444444446,-0.6322222222222222,0.023719145380333793,0.013306599741532431,-0.014495675779146787
1592167908.149425,0.28932734437853114,8.930781613347445,4.243414836924083,-0.3321814886980507,-0.34699253486003867,-0.6322222222222222,0.015331663685898226,0.03535792437902231,-0.015405555512459316
1592167908.159425,0.14858981460902207,8.909469265327651,4.217447019419102,-0.3322222222222222,-0.3466666666666667,-0.6322222222222222,0.007267022845709709,0.05605604948962695,-0.01720585542270719
1592167908.169425,-0.008551293235288686,8.919505861638116,4.231403535789127,-0.3322222222222222,-0.3466666666666667,-0.6322222222222222,-0.003946987032259523,0.07337352303294895,-0.014150012967740478
1592167908.179425,-0.11625714929266195,8.930421618596283,4.239593516204519,-0.3322222222222222,-0.3466666666666667,-0.6322222222222222,-0.015218477596547104,0.07154859990565814,0.0007531585171977663
1592167908.189425,-0.11679560434964649,8.92272680702097,4.291477914092522,-0.3322222222222222,-0.3466666666666667,-0.6322222222222222,-0.020681751519330018,0.05999124848066998,0.019894753508428918
1592167908.199425,-0.05553586833206438,8.928343685033848,4.437788100063853,-0.34572874042382024,-0.35809525899109573,-0.6322222222222222,-0.018981118892445973,0.04888687610376926,0.032626049245913044
1592167908.209425,0.04647925860289111,8.93457111049592,4.477366144507934,-0.3466666666666667,-0.35888888888888887,-0.6322222222222222,-0.012110319454218813,0.04364525734820697,0.03405908578273566
1592167908.219425,0.0245711229482142,8.938698428793277,4.371023530723323,-0.3466666666666667,-0.35888888888888887,-0.6322222222222222,-0.007813292866945274,0.03486712046950192,0.031082
1592167908.229425,0.01669531757269027,8.93501379086116,4.308299403518965,-0.3466666666666667,-0.35888888888888887,-0.6322222222222222,-0.008995540627820042,0.03622153280536324,0.030782213782536032
1592167908.239425,0.047877823675334455,8.927094300239862,4.283901753582756,-0.3466666666666667,-0.35888888888888887,-0.6322222222222222,-0.013319583203259032,0.0323178012787202,0.028122198721279804
1592167908.249425,0.08969038695959183,8.919006,4.293261719588672,-0.3466666666666667,-0.35888888888888887,-0.6322222222222222,-0.021381837281455058,0.030250432928742816,0.026634432928742815
1592167908.259425,0.11351400001553023,8.935704217371248,4.383102065416324,-0.3466666666666667,-0.35888888888888887,-0.6322222222222222,-0.019414511864731577,0.03156051186473158,0.021285398561208802
1592167908.269425,0.1200693812485849,8.914640135204932,4.344727653135225,-0.3466666666666667,-0.35888888888888887,-0.6322222222222222,-0.023605,0.028074622879627396,0.012816595432281218
1592167908.279425,0.09182031194940331,8.908582406955313,4.25451965325808,-0.3466666666666667,-0.35888888888888887,-0.6322222222222222,-0.026816530637834374,0.02192549046264623,0.0065815179724384365
1592167908.289425,0.03596698156601884,8.90522320473052,4.222915252964631,-0.3466666666666667,-0.35888888888888887,-0.6322222222222222,-0.038412020655880716,0.018807995139417912,0.006593869378933114
1592167908.299425,0.015136676736499627,8.909838855197872,4.272747279524435,-0.34005770263016644,-0.34850337397438846,-0.6388311862587225,-0.04790783689231641,0.022827580112330076,0.00444
1592167908.3094249,0.010796403693574284,8.929811575249138,4.3598345909369804,-0.3388888888888889,-0.3466666666666667,-0.64,-0.05327821902516458,0.02100178097483542,0.004362217525046024
1592167908.3194249,0.033858201830434,8.927214527821105,4.434011232462651,-0.3388888888888889,-0.3466666666666667,-0.64,-0.052686554332595836,0.022766631528872778,0.006363531637266445
1592167908.3294249,0.036748961740977935,8.904595255186873,4.532994498245045,-0.3388888888888889,-0.3466666666666667,-0.64,-0.04255644082658171,0.021912,0.006436800837851425
1592167908.3394248,0.013328230213580752,8.917110511114144,4.526290486573895,-0.3388888888888889,-0.3466666666666667,-0.64,-0.02797272738865615,0.025101,0.005339294445043585
1592167908.3494248,-0.04383044510432447,8.895538610914794,4.482841585392014,-0.3388888888888889,-0.35665951462658013,-0.6509012886835419,-0.018191735835713152,0.021430737573725676,0.007448500869006265
1592167908.3594248,-0.028759114290142614,8.905193947705794,4.4130285113845495,-0.3388888888888889,-0.35888888888888887,-0.6533333333333333,-0.015919707160049524,0.024655564500435434,0.0142088286401981
1592167908.3694248,-0.049738438333846086,8.889086152365536,4.389286252128394,-0.3388888888888889,-0.35888888888888887,-0.6533333333333333,-0.015887027635723572,0.02859069206959033,0.01991781466061917
1592167908.3794248,0.013285821878085306,8.912343900438508,4.388701715189823,-0.3388888888888889,-0.35888888888888887,-0.6533333333333333,-0.014578829768124076,0.0320022393282824,0.023340857603901633
1592167908.3894248,0.03341096660111812,8.91785792557245,4.40924874459122,-0.3388888888888889,-0.35888888888888887,-0.6533333333333333,-0.017664651832211546,0.03985033684529811,0.024689
1592167908.3994248,0.024996521038283478,8.882823109822715,4.459843006482038,-0.3336863633193434,-0.3528192757244192,-0.6368586690297727,-0.014702001321724731,0.042145,0.023621
1592167908.4094248,-0.007377521317425312,8.886599803868972,4.472076957365149,-0.3322222222222222,-0.3511111111111111,-0.6322222222222222,-0.009431852298878943,0.046771695403397505,0.023621
1592167908.4194248,-0.0005672068728726586,8.909420022820388,4.480119239925226,-0.3322222222222222,-0.3511111111111111,-0.6322222222222222,-0.0037639064386001137,0.04054037389280217,0.022552
1592167908.4294248,0.027974164956953325,8.910063888955262,4.464217218660031,-0.3322222222222222,-0.3511111111111111,-0.6322222222222222,0.0006614200638819616,0.033862462988851566,0.024253473354627318
1592167908.4394248,0.07409015431645131,8.882893554566994,4.463173203684849,-0.3322222222222222,-0.3511111111111111,-0.6322222222222222,0.006828055916110094,0.032096055916110096,0.022416324445011918
1592167908.4494247,0.09094936851619648,8.927189538598126,4.4315273030789895,-0.3374364679598309,-0.34763494728603866,-0.6487340003913165,0.012619,0.031494,0.018214475664071618
1592167908.4594247,0.07950599176215305,8.916112374825593,4.341933789063734,-0.3388888888888889,-0.3466666666666667,-0.6533333333333333,0.010979594739394694,0.037415853775559595,0.015073738277857723
1592167908.4694247,0.011858638746189107,8.895744660724583,4.253515625433175,-0.3388888888888889,-0.3466666666666667,-0.6533333333333333,0.005777027497884679,0.045349,0.01297
1592167908.4794247,-0.011015337412116492,8.915578610443422,4.320722988829415,-0.3388888888888889,-0.3466666666666667,-0.6533333333333333,4.4754591691630735e-06,0.049426630142864435,0.015589986737241308
1592167908.4894247,0.01894768598518625,8.897626504371365,4.318584574455305,-0.3388888888888889,-0.3466666666666667,-0.6533333333333333,-0.007943758125995338,0.053400479010132014,0.017368825225109425
1592167908.4994247,0.03430745343013192,8.907755513373163,4.378143500346837,-0.32769468786278694,-0.3604441448526383,-0.6430002246938546,-0.01274471963086285,0.05087530368115164,0.017655859815431423
1592167908.5094247,-0.003957929920708269,8.890568178853854,4.436657210939965,-0.3244444444444444,-0.36444444444444446,-0.64,-0.011084492334636088,0.043478867864662,0.019363
1592167908.5194247,0.004970956999279911,8.903498804887713,4.492398820931355,-0.3244444444444444,-0.36444444444444446,-0.64,-0.0068824553601868396,0.037094531483312314,0.02079968022522633
1592167908.5294247,0.04015109801052577,8.925798279351438,4.493180767332057,-0.3244444444444444,-0.36444444444444446,-0.64,0.00010949777519327292,0.031148521428239324,0.022206521428239322
1592167908.5394247,0.08562505483151814,8.905699364114692,4.463928164274772,-0.3244444444444444,-0.36444444444444446,-0.64,0.008982369647996511,0.02660163035200349,0.016278407393510826
1592167908.5494246,0.09669912785697156,8.891773422458366,4.463836739275391,-0.3350640751324066,-0.35464170842478704,-0.6498027360196573,0.016876,0.030136108923764168,0.011036398275172218
1592167908.5594246,0.04440914485462837,8.900669009405279,4.383295280303978,-0.3388888888888889,-0.3511111111111111,-0.6533333333333333,0.016351805240299395,0.03308251361672518,0.004702097379850301
1592167908.5694246,-0.0038678581446306565,8.901601078459873,4.381130076576715,-0.3388888888888889,-0.3511111111111111,-0.6533333333333333,0.012619,0.032794900755251134,0.007645
1592167908.5794246,0.020477543411017457,8.909922318244094,4.392310284740405,-0.3388888888888889,-0.3511111111111111,-0.6533333333333333,0.011551,0.0344869150907512,0.008039963050823083
1592167908.5894246,0.033315776245019274,8.931527907136926,4.382627317250805,-0.3388888888888889,-0.3511111111111111,-0.6533333333333333,0.01172432662217589,0.031494,0.01066067337782411
1592167908.5994246,0.016216222866492536,8.911167247509445,4.399322982196892,-0.3388888888888889,-0.35952557866380686,-0.6533333333333333,0.011695488723703067,0.027237,0.009766
1592167908.6094246,0.04452680735950842,8.888638828311562,4.446591897644808,-0.3388888888888889,-0.36444444444444446,-0.6533333333333333,0.01485026136260347,0.023924287252039836,0.008382112671213367
1592167908.6194246,0.02538901000620652,8.9028986124206,4.447707076622579,-0.3388888888888889,-0.36444444444444446,-0.6533333333333333,0.018190244591505717,0.02092646761484105,0.004605012446549926
1592167908.6294246,0.014715010901304542,8.900945010901305,4.421945383810364,-0.3388888888888889,-0.36444444444444446,-0.6533333333333333,0.021187725059454224,0.017530420157995875,0.008713
