time,acc_x,acc_y,acc_z,mag_x,mag_y,mag_z,gyr_x,gyr_y,gyr_z
1592167918.9894147,0.009169410633406943,9.229090804066443,3.559305611497967,-0.3244444444444444,-0.35888888888888887,-0.6311111111111111,-0.01250193479691901,-0.02830978910838904,-0.013356214711954126
1592167918.9994147,0.009176933246744734,9.254154245393911,3.56652682818713,-0.3244444444444444,-0.35888888888888887,-0.626720291183907,-0.020475083872448094,-0.033552083872448096,-0.013989863726630742
1592167919.0094147,0.02969399994537665,9.23752871019764,3.6848214301596314,-0.3244444444444444,-0.35888888888888887,-0.6233333333333333,-0.02007822195799962,-0.03172656448360646,-0.018636342525606836
1592167919.0194147,-7.487499530887238e-05,9.245752603021517,3.8085972280449716,-0.3244444444444444,-0.35888888888888887,-0.6233333333333333,-0.01557134911400285,-0.0271,-0.021118
1592167919.0294147,-0.03732376924352219,9.24180684575844,3.8768680218519576,-0.3244444444444444,-0.35888888888888887,-0.6233333333333333,-0.0030758686548870845,-0.018750734910904465,-0.020466244970301486
1592167919.0394146,-0.04698565419359854,9.200416993971206,3.806974406933943,-0.3244444444444444,-0.35888888888888887,-0.6233333333333333,0.01054002054145848,-0.017952472331017603,-0.020667527668982395
1592167919.0494146,-0.07354054342182888,9.261408284190976,3.7204879037069327,-0.33270764092538285,-0.3544394753991528,-0.619519550342131,0.02088493900971457,-0.019860935683345973,-0.017817532158327015
1592167919.0594146,0.016432556699765566,9.248611392911059,3.64222500290099,-0.3388888888888889,-0.3511111111111111,-0.6166666666666667,0.022202,-0.031017796375196187,-0.01904498792798699
1592167919.0694146,0.03266021478390096,9.246173454718281,3.5572466020576012,-0.3388888888888889,-0.3511111111111111,-0.6166666666666667,0.018470062781173014,-0.048402460138133395,-0.023780937218826986
1592167919.0794146,0.07475438711176487,9.268163000153605,3.494260710636923,-0.3388888888888889,-0.3511111111111111,-0.6166666666666667,0.00855804012360857,-0.0647485729342797,-0.030640816374386336
1592167919.0894146,0.06931603649152632,9.239090471354245,3.655324427464129,-0.3388888888888889,-0.3511111111111111,-0.6166666666666667,-0.000168,-0.061208693926642896,-0.037922869451558094
1592167919.0994146,0.03157831296080088,9.247604389339175,3.8048283207767577,-0.33437506030543057,-0.3511111111111111,-0.6023728761523819,0.00674916357732216,-0.03606383628416311,-0.045000331357613395
1592167919.1094146,-0.021997984509032807,9.103088987342655,3.8480381549415235,-0.3322222222222222,-0.3511111111111111,-0.5955555555555555,0.014980775028072144,-0.0058232559349061675,-0.01372775213362697
1592167919.1194146,0.4805523162217663,9.15614063214585,3.684751868112988,-0.3322222222222222,-0.3511111111111111,-0.5955555555555555,-0.00017626270911009004,0.08536025395331243,0.07523451556175811
1592167919.1294146,0.6717473426067085,9.242534497451457,3.4106067132576676,-0.3322222222222222,-0.3511111111111111,-0.5955555555555555,-0.020747538623266136,0.12452939666051148,0.05312379203418527
1592167919.1394145,0.3004691685340333,9.286332353777501,3.469156310146731,-0.3322222222222222,-0.3511111111111111,-0.5955555555555555,-0.039306078161419344,0.14542858204675402,0.015569019935571516
1592167919.1494145,-0.025491274587081156,9.237233387956726,3.2390272342070716,-0.3322222222222222,-0.3511111111111111,-0.6087284452600562,-0.05964399105997662,0.12685174832135443,0.004070137226930944
1592167919.1594145,-0.04045386780720671,9.279143384685158,3.113918434922191,-0.3322222222222222,-0.3511111111111111,-0.6166666666666667,-0.09201327048718944,0.048916738658938225,0.011350492145122402
1592167919.1694145,0.027951700907529513,9.227770572946241,3.2146252496443446,-0.3322222222222222,-0.3511111111111111,-0.6166666666666667,-0.1277516739880161,-0.03324319033922911,0.02905921212379559
1592167919.1794145,0.23794285570319712,9.272665679030043,3.283633497495601,-0.3322222222222222,-0.3511111111111111,-0.6166666666666667,-0.1654312111820885,-0.07332129130000058,0.027928536710841063
1592167919.1894145,0.32536892628082786,9.275219474779608,3.4395327138984286,-0.3322222222222222,-0.3511111111111111,-0.6166666666666667,-0.19265445233489736,-0.05454757711967783,0.0003414817894725865
1592167919.1994145,0.27460731308298464,9.209308197006095,3.535651404937017,-0.3276012850498696,-0.3557320482834637,-0.6206274699572546,-0.21255693419472751,0.010511101977445012,-0.014138694595159606
1592167919.2094145,0.21564079268179367,9.183211728910308,3.4603232767426872,-0.3244444444444444,-0.35888888888888887,-0.6233333333333333,-0.2360756486545029,0.057784571267003856,-0.0006464018386129044
1592167919.2194145,0.18824409792166602,9.139102881698548,3.53256307042551,-0.3244444444444444,-0.35888888888888887,-0.6233333333333333,-0.2631345686339414,0.08415032715654605,0.000639241477395359
1592167919.2294145,0.1467611816244774,9.091629274801546,3.729855940660079,-0.3244444444444444,-0.35888888888888887,-0.6233333333333333,-0.2794571944104798,0.0873166141447676,0.01297
1592167919.2394145,0.15028633109798323,9.156344683000315,3.9062806015727203,-0.3244444444444444,-0.35888888888888887,-0.6233333333333333,-0.2801189973994065,0.06064404072316321,0.007286796856104869
1592167919.2494144,0.11752648364939883,9.103931961574343,4.0842585287279665,-0.3244444444444444,-0.35888888888888887,-0.6274804227788513,-0.2674507290015607,0.016342826307413072,-0.006177502799301425
1592167919.2594144,0.16152742225397632,9.062331277454657,4.205410465549214,-0.3244444444444444,-0.35888888888888887,-0.6311111111111111,-0.2443061603841448,-0.04466259990428845,0.00014393736036323905
1592167919.2694144,0.329756933474307,9.12525567768572,4.369421875027958,-0.3244444444444444,-0.35888888888888887,-0.6311111111111111,-0.21823628733258582,-0.08802186816283675,-0.025636815647812543
1592167919.2794144,0.41427211503733674,9.049822129218773,4.6065904314608535,-0.3244444444444444,-0.35888888888888887,-0.6311111111111111,-0.17033374369225457,-0.11224477594634596,-0.020050861971365526
1592167919.2894144,0.5625148069559814,9.12628010350841,4.6127376900073385,-0.3244444444444444,-0.35888888888888887,-0.6311111111111111,-0.11518256745762401,-0.124039,-0.021421146095299763
1592167919.2994144,0.5542131763134963,9.095359254151557,4.502460048238788,-0.3174245796241345,-0.3505926850103408,-0.6470653493390882,-0.06800413524538412,-0.11913954768778602,-0.04156590462442797
1592167919.3094144,0.43647558446903006,9.180980773463315,4.374544470812802,-0.31222222222222223,-0.34444444444444444,-0.6588888888888889,-0.023280906596428907,-0.0971579048794884,-0.0636344926587491
1592167919.3194144,0.30508768719948787,9.114999734300795,4.309868161814001,-0.31222222222222223,-0.34444444444444444,-0.6588888888888889,0.010702921105054967,-0.0826139970843214,-0.06453039834005259
1592167919.3294144,0.4423653507810034,9.087401196421462,4.1290278627875905,-0.31222222222222223,-0.34444444444444444,-0.6588888888888889,0.03529863406104719,-0.07479990688010317,-0.05246799672968275
1592167919.3394144,0.4983936758086087,9.095476894307016,4.127603793025574,-0.31222222222222223,-0.34444444444444444,-0.6588888888888889,0.042231906873868776,-0.08735625866403363,-0.06317419386416154
1592167919.3494143,0.290876849059668,9.145269122161386,4.058513361561016,-0.31222222222222223,-0.34797996202670683,-0.6400327951168228,0.06018212032229495,-0.07228468152988039,-0.034064029252797445
1592167919.3594143,0.45956619723868175,9.207525084864805,3.890517674340944,-0.31222222222222223,-0.3511111111111111,-0.6233333333333333,0.06749661328999844,-0.052073566668979505,-0.028896908187435538
1592167919.3694143,0.5280835000966376,9.108919807372178,3.821160071054433,-0.31222222222222223,-0.3511111111111111,-0.6233333333333333,0.06581469178606919,-0.01984792122602403,-0.025352263857643834
1592167919.3794143,0.28787236648632275,9.10661283895768,3.619045207437593,-0.31222222222222223,-0.3511111111111111,-0.6233333333333333,0.04621932572500909,0.00947074257856226,-0.03107992929629755
1592167919.3894143,0.1270121248524695,9.135573469078432,3.534243803641179,-0.31222222222222223,-0.3511111111111111,-0.6233333333333333,0.019364366240061697,0.030534097180820466,-0.021931446088594833
1592167919.3994143,0.06394812853129471,9.113574785663253,3.6015591368099877,-0.3272494741528872,-0.34475342760198363,-0.6296910168424608,-0.005851554398018041,0.03745307635686509,-0.011442884026622548
1592167919.4094143,0.19212106863832504,9.177415446728883,3.6844144671429664,-0.3411111111111111,-0.3388888888888889,-0.6355555555555555,-0.020375319345783245,0.0394183105399683,0.013139059574280154
1592167919.4194143,0.2233901547244616,9.242013185608991,3.605973994774888,-0.3411111111111111,-0.3388888888888889,-0.6355555555555555,-0.03625182838293626,0.030748637952500983,-0.016405848044099124
1592167919.4294143,-0.008603355747609108,9.150203334999585,3.5286516336063998,-0.3411111111111111,-0.3388888888888889,-0.6355555555555555,-0.06052197636157127,0.006244791628556437,-0.034973
1592167919.4394143,-0.1402545245542769,9.086703544092755,3.618202977597362,-0.3411111111111111,-0.3388888888888889,-0.6355555555555555,-0.08358712977580121,-0.024782738201233893,-0.017005494033864862
1592167919.4494143,-0.008022550993310985,9.126531220135629,3.703937545525587,-0.33728055992298456,-0.3475076290621736,-0.6355555555555555,-0.10584216792318374,-0.03862746835285355,-0.007361693357669162
1592167919.4594142,0.1414642925314232,9.091409114072034,3.862746954273615,-0.3322222222222222,-0.35888888888888887,-0.6355555555555555,-0.11751397083092867,-0.03634905833814267,-0.0022393162765702657
1592167919.4694142,0.3741213370175742,9.054090213440968,4.09140475580994,-0.3322222222222222,-0.35888888888888887,-0.6355555555555555,-0.1192603273409038,-0.00444856532335805,0.004032978733907673
1592167919.4794142,0.5213014767566179,9.116486692990492,4.137629438886555,-0.3322222222222222,-0.35888888888888887,-0.6355555555555555,-0.11296179602259587,0.049554785592503835,0.011757329331871449
1592167919.4894142,0.47274342039683204,9.102517089595867,4.105771889586804,-0.3322222222222222,-0.35888888888888887,-0.6355555555555555,-0.10665143962519698,0.09558640410877249,0.02657957474504545
1592167919.4994142,0.4008135168319076,9.075823485355121,3.914738701680398,-0.32704079161332733,-0.34758394937857273,-0.6426211427495031,-0.11654525747880218,0.13579402051058004,0.0352545789760736
1592167919.5094142,0.2762733186854837,9.050294556752187,3.952542074143864,-0.32,-0.3322222222222222,-0.6522222222222223,-0.13051623296234266,0.1877161177173088,0.047874885991103656
1592167919.5194142,0.12712661932072505,9.050008474369504,4.0175710328266065,-0.32,-0.3322222222222222,-0.6522222222222223,-0.1388634581668936,0.19996666370267324,0.061185091007100664
1592167919.5294142,0.039103356795596046,9.045450799233388,4.23753513194196,-0.32,-0.3322222222222222,-0.6522222222222223,-0.1310149189721154,0.21468135823024956,0.06222374455952702
1592167919.5394142,-0.044697581062068115,9.09574564182111,4.4786943776222365,-0.32,-0.3322222222222222,-0.6522222222222223,-0.10585201816024468,0.22413648948911755,0.056757484255976265
1592167919.5494142,-0.1937704504489139,9.07541055348042,4.616641486575022,-0.31694178713750765,-0.337027985291853,-0.6544066599811453,-0.06358616499924559,0.22259177980255282,0.04648547302101641
1592167919.5594141,-0.24056264817242234,9.079826522716683,4.519977872907139,-0.31222222222222223,-0.34444444444444444,-0.6577777777777778,-0.009792591655385402,0.18910003579398643,0.04754485572757041
1592167919.5694141,-0.16329639436552945,9.138516549127974,4.379393843504855,-0.31222222222222223,-0.34444444444444444,-0.6577777777777778,0.031147130488933132,0.173172,0.04118161468026385
1592167919.5794141,-0.14790016503344575,9.085183042300688,4.2207904165355625,-0.31222222222222223,-0.34444444444444444,-0.6577777777777778,0.05511874107803652,0.15133151099575834,0.022444538917342882
1592167919.5894141,-0.1856512719845055,9.020038890680619,4.214693749165346,-0.31222222222222223,-0.34444444444444444,-0.6577777777777778,0.07594688508612527,0.12633260682121483,0.02401821775123057
1592167919.599414,-0.0719891891275905,9.027869871192502,4.235837031837016,-0.3174117086601473,-0.33885576674206364,-0.6685559419180837,0.0907922601352924,0.10702825282577272,0.03975262076134094
1592167919.609414,0.1404442939728925,9.046583199608579,4.334861116841533,-0.32666666666666666,-0.3288888888888889,-0.6877777777777778,0.11189027555456912,0.10608164622603268,0.04607798328991011
1592167919.619414,0.20748248060828334,9.052472134955092,4.304336492027915,-0.32666666666666666,-0.3288888888888889,-0.6877777777777778,0.14134805771501704,0.10395844256518924,0.05659039541129903
1592167919.629414,0.2659495876448107,9.08556935806535,4.2562741674478195,-0.32666666666666666,-0.3288888888888889,-0.6877777777777778,0.15824585391696716,0.10890136405965133,0.06094210937095283
1592167919.639414,0.23223552624240015,9.10590692791285,4.21091952571229,-0.32666666666666666,-0.3288888888888889,-0.6877777777777778,0.16991316939979437,0.13403510238426108,0.05977283115849397
1592167919.649414,0.2442345943716983,9.135618218072661,4.17294212142153,-0.3246299597066036,-0.3288888888888889,-0.6853707604613396,0.18458393880436005,0.15639760965687274,0.044652296745197224
1592167919.659414,0.15011629896328532,9.039905425596356,4.174590928003319,-0.31444444444444447,-0.3288888888888889,-0.6733333333333333,0.20133417467754391,0.15531551267473698,0.05243162400959442
1592167919.669414,0.16069262165935946,9.086184371001327,4.055059275402811,-0.31444444444444447,-0.3288888888888889,-0.6733333333333333,0.21637243426632366,0.148666,0.06394644991482323
1592167919.679414,0.17087929653108325,9.094661698106478,4.027297422846657,-0.31444444444444447,-0.3288888888888889,-0.6733333333333333,0.2228076246682432,0.14480534727993574,0.06781154355501581
1592167919.689414,0.1137324959901358,9.087622436008399,3.9452282248794828,-0.31444444444444447,-0.3288888888888889,-0.6733333333333333,0.2326888576119224,0.122927084971152,0.07855805741692559
1592167919.699414,0.16550218786533727,9.114754066643053,3.8580064069458,-0.31633917519810284,-0.3316448608942102,-0.6710941060790098,0.23336936494180122,0.10532175714436609,0.0848259596260573
1592167919.709414,0.22268405283467133,9.100514504729162,3.8318481293961035,-0.32666666666666666,-0.3466666666666667,-0.6588888888888889,0.22172384747675195,0.09595548088124514,0.08565610466234228
1592167919.719414,0.3497304336962425,9.03835554305356,3.8505192367498626,-0.32666666666666666,-0.3466666666666667,-0.6588888888888889,0.206151700266072,0.09297784969745583,0.09669845003647216
1592167919.729414,0.4119705316854643,9.264280921821213,3.7947845083482465,-0.32666666666666666,-0.3466666666666667,-0.6588888888888889,0.2030506324798182,0.09574174618547196,0.08541077378250383
1592167919.739414,0.433861854480898,9.116967966064271,3.684131615834726,-0.32666666666666666,-0.3466666666666667,-0.6588888888888889,0.19697620439238622,0.08411253678885783,0.06483293304918121
1592167919.749414,0.3896559779586531,9.212318074813792,3.4814927416883306,-0.32666666666666666,-0.3482906464021015,-0.6659261344091065,0.17697378323128987,0.08571682053471404,0.056567161745280474
1592167919.759414,0.33421455856668036,9.193026584356707,3.3041149288385934,-0.32666666666666666,-0.35333333333333333,-0.6877777777777778,0.14069405104579877,0.07938792654532313,0.04340136550299354
1592167919.769414,0.15857950530145629,9.146473835363427,3.222126624141772,-0.32666666666666666,-0.35333333333333333,-0.6877777777777778,0.09254500569644496,0.0797788498669836,0.05015749507674129
1592167919.779414,0.2183728557762078,9.181108399437832,3.2367106758797797,-0.32666666666666666,-0.35333333333333333,-0.6877777777777778,0.04350554819532966,0.09535825824769276,0.04779874441896265
1592167919.789414,0.23547476450179244,9.246760870989414,3.36170683964066,-0.32666666666666666,-0.35333333333333333,-0.6877777777777778,0.006828491477819663,0.100559367197206,0.03135088973906568
1592167919.799414,0.09596888721546959,9.187142703023005,3.393709790827519,-0.325845090241211,-0.35333333333333333,-0.6868068238204211,-0.020395511328844533,0.0975371907599686,0.04329454152817461
1592167919.809414,0.2469431635286977,9.328208921624896,3.4727004944003528,-0.31444444444444447,-0.35333333333333333,-0.6733333333333333,-0.015076,0.09363572159220825,0.04069815321250974
1592167919.819414,0.22853158629948797,9.266336997738021,3.6086841313251377,-0.31444444444444447,-0.35333333333333333,-0.6733333333333333,-0.021838039767500265,0.07706247451804989,-0.001838293821125147
1592167919.829414,0.0048415271292752676,9.154484379462582,3.525673772605972,-0.31444444444444447,-0.35333333333333333,-0.6733333333333333,-0.030098947104763876,0.05657533856591483,-0.005098787675377334
1592167919.839414,0.09755037720071019,9.183620367235577,3.5019853802192107,-0.31444444444444447,-0.35333333333333333,-0.6733333333333333,-0.04019601531825752,0.03834098468174248,0.01825636872682455
1592167919.8494139,0.2655503265993464,9.312739852104182,3.605141152861755,-0.3151072349976603,-0.3526705427801175,-0.6729718112133974,-0.043733932878628964,0.04225558484066253,0.011067984333717416
1592167919.8594139,0.2660319970815502,9.228201581123093,3.7326310497595547,-0.32666666666666666,-0.3411111111111111,-0.6666666666666666,-0.04206839611648769,0.03968337114008424,-0.006229005182008036
1592167919.8694139,0.26243264302374814,9.28149912958456,3.8147826784881262,-0.32666666666666666,-0.3411111111111111,-0.6666666666666666,-0.025475285457172977,0.05056458055070458,-0.02669867095172654
1592167919.8794138,0.08661167647658552,9.23785843633795,3.8006652475163314,-0.32666666666666666,-0.3411111111111111,-0.6666666666666666,-0.013779150632002784,0.03291165422559175,-0.023136270540287482
1592167919.8894138,-0.03698760716878459,9.262564726529682,3.7570396396011145,-0.32666666666666666,-0.3411111111111111,-0.6666666666666666,0.003039752893814282,0.011500288360119874,-0.030192640751320363
1592167919.8994138,-0.10435638425542845,9.211707338443517,3.603227616713643,-0.32906185052940384,-0.3411111111111111,-0.6666666666666666,0.00419628344011026,-0.0067854007960709405,-0.0450380508743069
1592167919.9094138,-0.20623006865419316,9.179299318654689,3.4915242060032217,-0.3411111111111111,-0.3411111111111111,-0.6666666666666666,-0.009329063516071733,-0.042423990273635845,-0.04477406806953407
1592167919.9194138,-0.33716095965121945,9.106569037314992,3.52016992545528,-0.3411111111111111,-0.3411111111111111,-0.6666666666666666,-0.026522344115708897,-0.06484449141648561,-0.025435194758828324
1592167919.9294138,-0.26668581915182127,9.172013225616784,3.5089182452611047,-0.3411111111111111,-0.3411111111111111,-0.6666666666666666,-0.044200369533662236,-0.08737436267008977,-0.0017825699103583455
1592167919.9394138,-0.17173560219609368,9.166988972967784,3.599477736740481,-0.3411111111111111,-0.3411111111111111,-0.6666666666666666,-0.06259455174216827,-0.09698755174216826,0.002962672596955532
1592167919.9494138,-0.11052070444703606,9.171864350169374,3.7547467977043896,-0.3411111111111111,-0.34055603560163994,-0.6675389281815498,-0.06922075383075862,-0.10388562308462068,0.018848652910720836
1592167919.9594138,-0.01706761565591504,9.144156840866236,4.013593106782318,-0.3411111111111111,-0.3333333333333333,-0.6788888888888889,-0.05922042511688613,-0.09812680597493421,0.05725051137249883
1592167919.9694138,0.19923510291734595,9.245645819851822,3.9739796474337257,-0.3411111111111111,-0.3333333333333333,-0.6788888888888889,-0.04355983798512203,-0.08224934876311067,0.06473073311530281
1592167919.9794137,0.2400174406957837,9.212260963564455,3.896567566623984,-0.3411111111111111,-0.3333333333333333,-0.6788888888888889,-0.03318985444496216,-0.06970570078685644,0.0417397828466016
1592167919.9894137,0.15145527453804494,9.223438628330872,3.776741738684559,-0.3411111111111111,-0.3333333333333333,-0.6788888888888889,-0.026794,-0.06325256046081648,0.021710982210860662
1592167919.9994137,-0.004132075687074056,9.186418047663715,3.6812243634928477,-0.3411111111111111,-0.3333333333333333,-0.6788888888888889,-0.04126903214165584,-0.062311423582044126,0.0015875416748244537
1592167920.0094137,-0.05608885687569589,9.165070833297994,3.6604147116134826,-0.35333333333333333,-0.35333333333333333,-0.6644444444444444,-0.060129219528712155,-0.055862,0.007226067015540119
1592167920.0194137,0.0005492131358619829,9.128668714834571,3.6726881698305736,-0.35333333333333333,-0.35333333333333333,-0.6644444444444444,-0.07799183049799371,-0.04693423329086154,0.006910831528946889
1592167920.0294137,-0.0462906606140696,9.159242430696453,3.801083285720325,-0.35333333333333333,-0.35333333333333333,-0.6644444444444444,-0.090436771923797,-0.036589330459512875,0.012413583252995668
1592167920.0394137,-0.053097431977878945,9.114862224459305,3.9221771720624865,-0.35333333333333333,-0.35333333333333333,-0.6644444444444444,-0.09054745846251308,-0.022770133386989123,0.0185334081504978
1592167920.0494137,0.11269026043441364,9.194927031941694,3.9406438639383574,-0.35333333333333333,-0.35333333333333333,-0.6644444444444444,-0.08945274224139854,0.004551585486944199,0.01791307791545329
1592167920.0594137,0.03528732382515629,9.158122587846103,4.035059324893084,-0.35333333333333333,-0.3411111111111111,-0.6855555555555556,-0.0758927012108834,0.0248340694261207,0.008877020584363769
1592167920.0694137,-0.009984285018735585,9.12389038333504,4.02319607317802,-0.35333333333333333,-0.3411111111111111,-0.6855555555555556,-0.0632257233873951,0.023743397724394925,0.015651265107105163
1592167920.0794137,-0.013797350952321518,9.163909038012063,3.9632749779122918,-0.35333333333333333,-0.3411111111111111,-0.6855555555555556,-0.05038296797810929,0.026101016010945357,0.024822761858940584
1592167920.0894136,0.00013425407756900178,9.142335920005214,3.8792229170879176,-0.35333333333333333,-0.3411111111111111,-0.6855555555555556,-0.0494005803741686,0.028305,0.022210198228428336
1592167920.0994136,-0.040201787590381115,9.125917961934013,3.7879582896907076,-0.35333333333333333,-0.3411111111111111,-0.6855555555555556,-0.060567476895684896,0.04078842287355583,0.01794798199262364
1592167920.1094136,-0.11070784207029863,9.069147299104513,3.7725277975749516,-0.35333333333333333,-0.3466666666666667,-0.6855555555555556,-0.07813741921960965,0.049807034376993735,0.04214445359660338
1592167920.1194136,-0.06654779942181183,9.16175889726776,3.83891653596305,-0.35333333333333333,-0.3466666666666667,-0.6855555555555556,-0.09097641202198561,0.06210402155196725,0.053049017525270296
1592167920.1294136,0.054320999321693986,9.205573496339897,3.996143807846086,-0.35333333333333333,-0.3466666666666667,-0.6855555555555556,-0.0743419063883749,0.08643329510953088,0.0355914584592621
1592167920.1394136,0.06291666720902046,9.10064061367691,3.9518621168222285,-0.35333333333333333,-0.3466666666666667,-0.6855555555555556,-0.06758566329816046,0.10454046228172627,0.023621
1592167920.1494136,0.08544651564902686,9.106595311667446,3.760021860527892,-0.35333333333333333,-0.3466666666666667,-0.6855555555555556,-0.07338243792981719,0.11477687950943143,0.030692040391876507
1592167920.1594136,0.1245182229039371,9.110689718537863,3.71189324540198,-0.38,-0.3333333333333333,-0.6855555555555556,-0.09136534800427581,0.11664688021723237,0.03215
1592167920.1694136,0.007608448284513038,9.107956177014474,3.7418647319294296,-0.38,-0.3333333333333333,-0.6855555555555556,-0.10600949068868219,0.10761667317209565,0.046890786093316754
1592167920.1794136,-0.025118321732817,9.096359496510402,3.757273972725609,-0.38,-0.3333333333333333,-0.6855555555555556,-0.12964600275647709,0.10238923521653356,0.07011092802548381
1592167920.1894135,0.011783287734745178,9.187447738055404,3.783613637095299,-0.38,-0.3333333333333333,-0.6855555555555556,-0.15003880703104272,0.1061447629078957,0.08703830424159903
1592167920.1994135,0.1254133899946609,9.098264419130725,3.8922331894080258,-0.38,-0.3333333333333333,-0.6855555555555556,-0.16164702240161888,0.12925764955623212,0.06948230564053008
1592167920.2094135,0.014745798735739737,9.031082771311933,3.9029169630824008,-0.39444444444444443,-0.3211111111111111,-0.6788888888888889,-0.1797684576584193,0.13190366165994272,0.037784254285737846
1592167920.2194135,-0.20272065457358196,9.073379415832544,4.0514409094398465,-0.39444444444444443,-0.3211111111111111,-0.6788888888888889,-0.180191,0.12148967198981886,0.024320844032218174
1592167920.2294135,-0.3853760913488913,9.16302741126711,4.0408680383012765,-0.39444444444444443,-0.3211111111111111,-0.6788888888888889,-0.1743352576250867,0.076953153030154,0.028218362220019406
1592167920.2394135,-0.3212286676301511,9.204902484994514,4.0963033657143635,-0.39444444444444443,-0.3211111111111111,-0.6788888888888889,-0.147258095291815,0.03147133136083348,0.012922410701617995
1592167920.2494135,-0.31416634267746385,8.946600778947788,3.950726445741064,-0.39444444444444443,-0.3211111111111111,-0.6788888888888889,-0.14263184720255043,-0.01687086179665821,0.006577
1592167920.2594135,-0.20431931808551806,9.159928299483404,3.7524678592296064,-0.38,-0.31444444444444447,-0.7,-0.16660798097634866,-0.0603332955983676,-0.005785736697370201
1592167920.2694135,-0.06459183839124935,9.07874449111791,3.910794543026938,-0.38,-0.31444444444444447,-0.7,-0.17242832067364747,-0.07585820988665502,-0.03594914937455312
1592167920.2794135,0.011749661281325645,9.042460941055822,3.994381315973716,-0.38,-0.31444444444444447,-0.7,-0.18474900663946717,-0.09052965547752087,-0.048430688236313885
1592167920.2894135,0.10882262775042857,9.01260634954159,3.964030679768774,-0.38,-0.31444444444444447,-0.7,-0.20449801550095853,-0.09990948396979092,-0.09586549947074943
1592167920.2994134,-0.07808067846910689,8.877089174411344,4.040789383896162,-0.38,-0.31444444444444447,-0.7,-0.2299978899088444,-0.11310766574304854,-0.09503272975527831
1592167920.3094134,0.0031046088017644136,9.054747051356957,4.247017878796049,-0.38,-0.30333333333333334,-0.6855555555555556,-0.2334988099050688,-0.14458743503258661,-0.051473248298540455
1592167920.3194134,0.14808860560079679,9.019447629426658,4.486832065615443,-0.38,-0.30333333333333334,-0.6855555555555556,-0.2000533300805578,-0.1516556487372837,-0.07964746605330925
1592167920.3294134,0.08089794639498209,9.105152689738473,4.401867811811734,-0.38,-0.30333333333333334,-0.6855555555555556,-0.1850370744808071,-0.14999281048928514,-0.12269503814074947
1592167920.3394134,-0.22510932072971798,8.910877910104547,4.339045586469863,-0.38,-0.30333333333333334,-0.6855555555555556,-0.16312554190370376,-0.17131063531994517,-0.14810931201993177
1592167920.3494134,-0.4605760360637574,8.971459315256018,4.431126835616426,-0.38,-0.30333333333333334,-0.6855555555555556,-0.14725525599792444,-0.2112657634787908,-0.05656269945331837
1592167920.3594134,-0.11776769644717537,8.964521781942192,4.452017910866388,-0.38666666666666666,-0.30333333333333334,-0.7066666666666667,-0.11974614644752335,-0.2450296850136315,-0.035602209961261885
1592167920.3694134,-0.0447536653136252,9.125500093109014,4.474887838417343,-0.38666666666666666,-0.30333333333333334,-0.7066666666666667,-0.09915834107594863,-0.23958120898384339,-0.10819966864647226
1592167920.3794134,-0.1851088629078608,8.923490592131039,4.566937314171952,-0.38666666666666666,-0.30333333333333334,-0.7066666666666667,-0.07883513015589756,-0.2370550610614253,-0.12465312212285061
1592167920.3894134,-0.16557989678805735,9.089822778033904,4.784928244734831,-0.38666666666666666,-0.30333333333333334,-0.7066666666666667,-0.03144006802290385,-0.23224457219618713,-0.1152803057965912
1592167920.3994133,0.02848862852844069,9.007003815392839,4.83024771221975,-0.38666666666666666,-0.30333333333333334,-0.7066666666666667,0.02769027038728298,-0.2329618864348179,-0.12287662505488178
1592167920.4094133,0.06122250866844616,9.093971667626018,4.719087514204264,-0.38666666666666666,-0.31555555555555553,-0.7,0.08463784076125173,-0.22829686578151343,-0.14445759583005088
1592167920.4194133,-0.14864070392504442,9.025323340426786,4.51296317392058,-0.38666666666666666,-0.31555555555555553,-0.7,0.12830708187175752,-0.2397233521915947,-0.15002047018280806
1592167920.4294133,-0.2859102326352812,9.025478723786813,4.283819092285216,-0.38666666666666666,-0.31555555555555553,-0.7,0.15886980780007728,-0.2597736564990127,-0.1046538361740047
1592167920.4394133,-0.08836447093266858,8.986795962344546,4.061097054924255,-0.38666666666666666,-0.31555555555555553,-0.7,0.15829750937369838,-0.27529461407266664,-0.09115732101269032
1592167920.4494133,-0.08277874941444954,9.083546818765496,3.87263479101501,-0.38666666666666666,-0.31555555555555553,-0.7,0.13595601090661583,-0.2659507880782566,-0.10840687626153701
1592167920.4594133,-0.12052719582606679,9.024092022385032,3.8916064174211504,-0.4066666666666667,-0.3088888888888889,-0.6577777777777778,0.11204323233806335,-0.2549117237950925,-0.12173202847917056
1592167920.4694133,-0.09933195069035666,9.006872750704584,3.853933735427779,-0.4066666666666667,-0.3088888888888889,-0.6577777777777778,0.08544534374055524,-0.24017362382384394,-0.10991747982925673
1592167920.4794133,0.056464932636913455,9.02003639350718,3.9517137779852525,-0.4066666666666667,-0.3088888888888889,-0.6577777777777778,0.061600648371093004,-0.21600929812451286,-0.09975181829303441
1592167920.4894133,0.13115960935682944,9.035736,3.952559158471595,-0.4066666666666667,-0.3088888888888889,-0.6577777777777778,0.045330283673555086,-0.19469584017223396,-0.10042904683040826
1592167920.4994133,0.08495785708054526,9.034597824863267,3.86530605844095,-0.4066666666666667,-0.3088888888888889,-0.6577777777777778,0.024117101975034975,-0.1797644755980311,-0.09914450054993201
1592167920.5094132,0.021451846092606027,9.024641856169081,3.7548539333360385,-0.41333333333333333,-0.31555555555555553,-0.6644444444444444,-0.007574868617248547,-0.1671994849638658,-0.09198008652281564
1592167920.5194132,-0.029797052818865695,9.03853152152168,3.737240200354677,-0.41333333333333333,-0.31555555555555553,-0.6644444444444444,-0.0444956642238353,-0.15264930705939173,-0.07303008024682181
1592167920.5294132,0.041719909052692856,9.022590061189359,3.6916594207723756,-0.41333333333333333,-0.31555555555555553,-0.6644444444444444,-0.0844871749694272,-0.13245314950079495,-0.06481314529669303
1592167920.5394132,0.017500694723354117,8.999366028337016,3.775229988903193,-0.41333333333333333,-0.31555555555555553,-0.6644444444444444,-0.128042469386997,-0.10730394843935352,-0.06058369170770776
1592167920.5494132,-0.07130674340820253,8.957685325344718,3.905457063295816,-0.41333333333333333,-0.31555555555555553,-0.6644444444444444,-0.16240625544859943,-0.08882979990851032,-0.047913104949784284
1592167920.5594132,-0.0811991338111768,8.952743036715557,4.052225319184647,-0.43555555555555553,-0.3022222222222222,-0.65,-0.18548903403003222,-0.06899983566691674,-0.02102491274350145
1592167920.5694132,-0.05256387042677589,9.008851401471103,4.266594647727004,-0.43555555555555553,-0.3022222222222222,-0.65,-0.19213947155261096,-0.052465242235396684,-0.010045375336983083
1592167920.5794132,-0.07803465939091156,8.980873028240529,4.3744854385895735,-0.43555555555555553,-0.3022222222222222,-0.65,-0.184246213202161,-0.04801045466915501,-0.00621
1592167920.5894132,-0.12178339954835077,9.011347419874472,4.4617707174517705,-0.43555555555555553,-0.3022222222222222,-0.65,-0.16592267382420853,-0.04481874883976337,-0.005484496834601823
1592167920.5994132,-0.13606590815927844,8.963689778624474,4.384730119817905,-0.43555555555555553,-0.3022222222222222,-0.65,-0.1515974687723435,-0.028733112721428127,-0.000885
1592167920.6094131,-0.07018501337388042,8.99714723069225,4.506951234536249,-0.4399741467058336,-0.3022222222222222,-0.6444767610621525,-0.137623828840985,-0.014047098366872455,-0.0055734286279489065
1592167920.6194131,-0.15328918791160556,8.919254644201486,4.498213943029014,-0.44,-0.3022222222222222,-0.6444444444444445,-0.12369391739463893,-0.003911189821776056,-0.010989870989118423
1592167920.6294131,-0.12491073463341863,8.929625649810962,4.488489702264598,-0.44,-0.3022222222222222,-0.6444444444444445,-0.10604865565590717,0.0029761429783122257,-0.007764842937266134
1592167920.639413,-0.07895842097171044,8.939566324719461,4.496147801402627,-0.44,-0.3022222222222222,-0.6444444444444445,-0.09133140453604766,0.008491698460332646,-0.01580869349310456
1592167920.649413,-0.11439070684534777,8.963423975355212,4.5671935369671814,-0.44,-0.3022222222222222,-0.6444444444444445,-0.0737260367993527,0.0035435964328671293,-0.028956448668706624
1592167920.659413,-0.23390599271088916,8.919214388930488,4.542577650908663,-0.43563935395260694,-0.29459109163928443,-0.6444444444444445,-0.053212178057343476,-0.007919,-0.018436775060237467
1592167920.669413,-0.1590863545284231,8.932278399030743,4.492312616235898,-0.43555555555555553,-0.29444444444444445,-0.6444444444444445,-0.03550638569797583,-0.013750302249526456,-0.0034419270663076395
1592167920.679413,-0.04723774220480831,8.953207046438038,4.389709712039141,-0.43555555555555553,-0.29444444444444445,-0.6444444444444445,-0.025542425358342037,-0.019067302277411633,0.0011512593742205402
1592167920.689413,-0.04169880116256195,8.941783709572356,4.393992169017006,-0.43555555555555553,-0.29444444444444445,-0.6444444444444445,-0.021326972334051886,-0.024749456281608424,0.001251
1592167920.699413,0.0012415460507848343,8.900994231086509,4.45690100551823,-0.43555555555555553,-0.29444444444444445,-0.6444444444444445,-0.014850743695048452,-0.0174270911535274,0.006915414222961075
1592167920.709413,0.017313414070069054,8.914316971719973,4.468168303058706,-0.4291872700003092,-0.288985913968519,-0.6371664038098772,-0.0033422233252777406,-0.00996680008614724,0.02258178596831612
1592167920.719413,0.07415431210446957,8.95461824914697,4.375140539553276,-0.42777777777777776,-0.2877777777777778,-0.6355555555555555,0.002967647007271183,0.003727779024758052,0.019469973670588912
1592167920.729413,0.035634472631169714,8.9661645292118,4.277516076345263,-0.42777777777777776,-0.2877777777777778,-0.6355555555555555,1.400559062623985e-05,0.01626700922911384,0.006895990770886159
1592167920.739413,-0.007625294640326609,8.950736364730682,4.233321012697429,-0.42777777777777776,-0.2877777777777778,-0.6355555555555555,-0.008331685526900025,0.01984852425304992,-0.006691387881887032
1592167920.749413,-0.09178820373598874,8.936837608985506,4.225292800174483,-0.42777777777777776,-0.2877777777777778,-0.6355555555555555,-0.020661850297995197,0.01753917281698249,-0.009601593247966203
1592167920.759413,-0.06449930264964455,8.930444934307516,4.213341951632631,-0.4388647750415433,-0.3008805927258643,-0.6436188262928396,-0.030260772009536453,-4.833565526394905e-05,-0.008600457181047952
1592167920.769413,-0.048162027721698565,8.927008838968812,4.26027083560079,-0.44,-0.3022222222222222,-0.6444444444444445,-0.03786221095737291,-0.013662210957372911,0.006340975914115794
1592167920.779413,0.06997740550560984,8.945576975553479,4.429420819311819,-0.44,-0.3022222222222222,-0.6444444444444445,-0.0399633074795488,-0.017693064290200337,0.002585945443328579
1592167920.789413,0.14898592549334566,8.940889303716512,4.625303255736203,-0.44,-0.3022222222222222,-0.6444444444444445,-0.0249384956431513,-0.008380137340148051,-0.0055534258861117194
1592167920.799413,0.13119798960324733,8.9166157980234,4.682417769575666,-0.44,-0.3022222222222222,-0.6444444444444445,0.0021270843516748225,0.0022840421758374115,-0.012097829201875288
1592167920.809413,0.07166649848250795,8.925461397909201,4.5730745152069,-0.44653917332341764,-0.31062973078090206,-0.6341686006505024,0.02287071454679602,0.02308695625314646,0.00013142834453831178
1592167920.819413,0.02131116563138693,8.895307575142215,4.4345450389413035,-0.4477777777777778,-0.31222222222222223,-0.6322222222222222,0.03467289328154484,0.02998821343691032,0.008006595802475843
1592167920.829413,0.015469376640465105,8.942772410069598,4.289344507128405,-0.4477777777777778,-0.31222222222222223,-0.6322222222222222,0.03566898491541279,0.02932888538201385,0.02263609215033034
1592167920.839413,0.15014970740514275,8.954178168716368,4.200890249787877,-0.4477777777777778,-0.31222222222222223,-0.6322222222222222,0.03076987563389472,0.028305,0.030058082010347657
1592167920.849413,0.2319094626123281,8.961021556917425,4.119113294142734,-0.4477777777777778,-0.31222222222222223,-0.6322222222222222,0.015795708535451935,0.026169,0.013346793024986165
1592167920.859413,0.19368724044521024,8.930138794224487,4.110780779425347,-0.43884479230944107,-0.2907830570982141,-0.6268624309412202,-0.0027364407052022544,0.029999718500642456,0.005081718500642455
1592167920.869413,0.11625533525610113,8.892541605757879,4.240825788484241,-0.43666666666666665,-0.28555555555555556,-0.6255555555555555,-0.018145623764400164,0.03088007524711997,0.028092503265999328
1592167920.879413,0.20455596373397933,8.851418154949428,4.228177728595776,-0.43666666666666665,-0.28555555555555556,-0.6255555555555555,-0.03213446732641824,0.03401133216370947,0.05712539166186044
1592167920.8894129,0.30518959478908486,8.91237483091332,4.351983438889378,-0.43666666666666665,-0.28555555555555556,-0.6255555555555555,-0.04391786227970286,0.05888675848843861,0.07107547561011326
1592167920.8994129,0.367371,8.972634225791436,4.470652884475461,-0.43666666666666665,-0.28555555555555556,-0.6255555555555555,-0.0417494316103152,0.08783308478132916,0.07105154129565652
1592167920.9094129,0.37799054475652394,8.903826172118402,4.521595063690723,-0.4463292966910098,-0.28555555555555556,-0.6194066091764281,-0.031706022917868726,0.1121565860386534,0.06326707510628246
1592167920.9194129,0.33451439461368265,8.906605194859603,4.566543065095967,-0.4488888888888889,-0.28555555555555556,-0.6177777777777778,-0.019401461030761222,0.12071850838990289,0.061366522189433004
1592167920.9294128,0.32185351589291056,8.829324414534927,4.633194,-0.4488888888888889,-0.28555555555555556,-0.6177777777777778,-0.003482090307575408,0.12241927589322457,0.07019258940926215
1592167920.9394128,0.33366453025306375,8.90936028238803,4.609052451820182,-0.4488888888888889,-0.28555555555555556,-0.6177777777777778,0.02493197501616213,0.11645938278013127,0.08758167997871767
1592167920.9494128,0.4690880301217011,8.975409835429053,4.519935442150813,-0.4488888888888889,-0.28555555555555556,-0.6177777777777778,0.04972637541092218,0.13873371515017707,0.08870950259065213
1592167920.9594128,0.40814652916446725,8.924771234179094,4.395321304712098,-0.4441546870611619,-0.27214198371032905,-0.6130435759500508,0.060547,0.15786716267678158,0.06872937530936987
1592167920.9694128,0.23575841626786428,8.9311558710417,4.291587171660766,-0.44222222222222224,-0.26666666666666666,-0.6111111111111112,0.057158958581532235,0.16879705867183964,0.07239166950345528
1592167920.9794128,0.31021754609184027,9.005698370633967,4.2951496659988075,-0.44222222222222224,-0.26666666666666666,-0.6111111111111112,0.053674727473564145,0.17666083499748375,0.07216081217389667
1592167920.9894128,0.3740206464479451,8.9804864407412,4.286796503430011,-0.44222222222222224,-0.26666666666666666,-0.6111111111111112,0.05496065679749733,0.17878537093285218,0.04556164688871496
1592167920.9994128,0.2505129157973655,8.908162056504839,4.284383814479244,-0.44222222222222224,-0.26666666666666666,-0.6111111111111112,0.051102056834237776,0.16645022842333013,0.02627548631910198
1592167921.0094128,0.19543721321180146,8.943168135532273,4.1988781545267155,-0.44308030267064785,-0.2669306914200284,-0.6102530306626855,0.04092764730267999,0.15339046630361033,0.06533237342531698
1592167921.0194128,0.41608617869992226,9.003902932922099,4.27643763821327,-0.45666666666666667,-0.27111111111111114,-0.5966666666666667,0.0433742596679332,0.14832583834839003,0.0611545306953242
1592167921.0294127,0.25337473440440145,8.784264678849722,4.206209864420468,-0.45666666666666667,-0.27111111111111114,-0.5966666666666667,0.025536046261648175,0.14093473858430913,0.06957979960023997
1592167921.0394127,0.30656259934298735,8.867216622142287,4.1768176449415835,-0.45666666666666667,-0.27111111111111114,-0.5966666666666667,-0.0014375162479813644,0.1379019287815407,0.11972339232918237
1592167921.0494127,0.34602499356592675,8.978068703318275,4.216206174235751,-0.45666666666666667,-0.27111111111111114,-0.5966666666666667,-0.015250752514941473,0.137231986259043,0.11471096964980299
1592167921.0594127,0.14840431501925472,8.929794089029585,4.166462762596468,-0.4464992585166155,-0.2562510530456517,-0.590409800112789,-0.027970350112186747,0.11543205363877387,0.10559832494390663
1592167921.0694127,0.14939479538360828,9.009951386800997,4.25508892552985,-0.44222222222222224,-0.25,-0.5877777777777777,-0.026742600885582897,0.10697707565371592,0.09800919434574917
1592167921.0794127,0.31806217018491684,9.088942099959459,4.340008993340872,-0.44222222222222224,-0.25,-0.5877777777777777,-0.0193575353388689,0.10287117512040864,0.06521576783589676
1592167921.0894127,0.24139330564524447,8.903165852622891,4.201151267950497,-0.44222222222222224,-0.25,-0.5877777777777777,-0.015966152279372408,0.10401711856379275,0.019747956592662784
1592167921.0994127,0.23210606247804283,9.02103456547742,4.163464974473362,-0.44222222222222224,-0.25,-0.5877777777777777,-0.026539163748468337,0.11301442955383756,0.03282029665115295
1592167921.1094127,0.44261640010795494,8.965924837442529,4.322434907673442,-0.4465694298597813,-0.2543472076375591,-0.5884465789527868,-0.027069267776242023,0.1307073036452488,0.030745241761910947
1592167921.1194127,0.5136473538517455,8.941403066194406,4.396762561334315,-0.4559252167109354,-0.26370299448871315,-0.5898859307760413,-0.028931,0.14504610922420588,0.00243145339275231
1592167921.1294127,0.36827120971569577,8.849615579165018,4.414836723436184,-0.45666666666666667,-0.2644444444444444,-0.59,-0.024211754151410792,0.16631368866001134,-0.032824694195225726
1592167921.1394126,-0.046783718776644376,8.83876950804628,4.364582263466605,-0.45666666666666667,-0.2644444444444444,-0.59,-0.04117320292463667,0.16111133943932215,0.008043356104751646
1592167921.1494126,-0.056226513214046175,8.96276546768508,4.543698391717385,-0.45666666666666667,-0.2644444444444444,-0.59,-0.022270081235259635,0.1375395491155593,0.07574182919316655
1592167921.1594126,0.14391110804376875,8.892097168740396,4.575655928226701,-0.4494195616805436,-0.2644444444444444,-0.5930660828787444,0.0027923623524483566,0.12559544868364297,0.08705980057521412
1592167921.1694126,0.025541117534759177,8.901244776770495,4.384046397290369,-0.42777777777777776,-0.2644444444444444,-0.6022222222222222,0.004342144467312476,0.12630902703767383,0.09475318877307277
1592167921.1794126,0.03241442214418923,9.049635481508174,4.255953602434909,-0.42777777777777776,-0.2644444444444444,-0.6022222222222222,0.017552525471548744,0.14836634257365142,0.09549150599176497
1592167921.1894126,-0.07370228474998793,8.956814454514817,4.202764260771705,-0.42777777777777776,-0.2644444444444444,-0.6022222222222222,0.010376532677870897,0.15953443620173888,0.09946903028663184
1592167921.1994126,0.020976773775166498,9.012443544318632,4.240497924812715,-0.42777777777777776,-0.2644444444444444,-0.6022222222222222,0.009415,0.16963038574697048,0.10028595354567586
1592167921.2094126,0.08025076225239507,8.906116082904976,4.287516241663934,-0.43783032850944564,-0.2644444444444444,-0.5967770905759021,0.0038756465947958393,0.17666930821863275,0.058119914651459756
1592167921.2194126,-0.19396725739416742,8.76208494813437,4.1276602736609105,-0.45444444444444443,-0.2644444444444444,-0.5877777777777777,-0.02763484477600047,0.1705505408355909,0.0402623413725654
1592167921.2294126,-0.3773208171717625,8.801113247806224,4.169494067463742,-0.45444444444444443,-0.2644444444444444,-0.5877777777777777,-0.054392699425851045,0.16137353999076542,0.10908694361883939
1592167921.2394125,-0.1131147983869621,9.010547412639513,4.267776867058138,-0.45444444444444443,-0.2644444444444444,-0.5877777777777777,-0.07306691345607066,0.14140702355203774,0.13553328671273343
1592167921.2494125,0.005855915560893325,8.885816234667915,4.28779346968521,-0.45444444444444443,-0.2644444444444444,-0.5877777777777777,-0.08100135857511194,0.13083850523233612,0.10171245630581503
1592167921.2594125,-0.09461106270137606,8.926970823605684,4.1981165628712604,-0.45099772143633654,-0.2541042754201207,-0.5877777777777777,-0.10515692421746264,0.124176,0.06829901034747005
1592167921.2694125,0.020586586679117305,8.747968530049985,4.2481269787765275,-0.4477777777777778,-0.24444444444444444,-0.5877777777777777,-0.12121478554541937,0.11224883468942642,0.04773629301593462
1592167921.2794125,-0.08995574173175692,8.710930736063949,4.254932518014591,-0.4477777777777778,-0.24444444444444444,-0.5877777777777777,-0.16002183287796623,0.08473058356101688,0.05219159290014726
1592167921.2894125,-0.01749645946298088,9.018941467826641,4.375811574403583,-0.4477777777777778,-0.24444444444444444,-0.5877777777777777,-0.17506385002134564,0.069318917295176,0.08850389945939892
1592167921.2994125,0.07032376409621277,8.814197514421958,4.559618045694327,-0.4477777777777778,-0.24444444444444444,-0.5877777777777777,-0.14623634103354843,0.062023704979777806,0.07912761295312534
1592167921.3094125,-0.000659747722041637,8.670986025448043,4.164904940662576,-0.44351649511744523,-0.2474882177732534,-0.5762114391283037,-0.18987564785523908,0.04631076488212756,0.05964207710612778
1592167921.3194125,0.10432626585851285,9.050531192813333,4.442519884504646,-0.44,-0.25,-0.5666666666666667,-0.19790012546481528,0.057436679747115214,0.03701199297324725
1592167921.3294125,0.03282540689022738,8.873619697714755,4.599620116485364,-0.44,-0.25,-0.5666666666666667,-0.18599415165875416,0.05673535823724173,-0.007724026982925219
1592167921.3394125,-0.30700179386683923,8.897607576670428,4.522729765380545,-0.44,-0.25,-0.5666666666666667,-0.17228410152832221,0.04579658554325263,-0.0048458990866361296
1592167921.3494124,-0.144141432510457,8.962581343156316,4.6819818427260635,-0.44,-0.25,-0.5666666666666667,-0.1462306002122461,0.04929261987545133,0.026030163055614973
1592167921.3594124,-0.01660609061380841,8.777948861472208,4.800679740407436,-0.45565472624110687,-0.2350259140302456,-0.5489700196115024,-0.11553921844273744,0.03958470434546292,0.015560135990011652
1592167921.3694124,-0.09370962077553677,8.96498627469759,4.709907907063539,-0.46555555555555556,-0.22555555555555556,-0.5377777777777778,-0.09908289916105252,0.03987497996520326,-0.0028238670853003895
1592167921.3794124,-0.18746100529049137,8.679769963380709,4.710643307415593,-0.46555555555555556,-0.22555555555555556,-0.5377777777777778,-0.07071238765573826,0.04867802301436529,-0.019866495818615333
1592167921.3894124,-0.18268074241997417,9.02469520751309,4.58107448994116,-0.46555555555555556,-0.22555555555555556,-0.5377777777777778,-0.06544522796788853,0.04823197632280976,-0.017015088935595855
1592167921.3994124,-0.11361411702357646,8.957826812174915,4.760055445739508,-0.46555555555555556,-0.22555555555555556,-0.5377777777777778,-0.02429655566214673,0.04497334572750191,-0.037096548746406194
1592167921.4094124,-0.3366338943644033,8.766123507376927,4.666817905058202,-0.4610753872863248,-0.23643596420940172,-0.5377777777777778,-0.0002654245536010605,0.02286791910244125,-0.046480536437652875
1592167921.4194124,-0.6015279201993767,8.999185812020157,4.677963038052241,-0.4577777777777778,-0.24444444444444444,-0.5377777777777778,0.021315551017594494,0.018499085543240246,0.04254020715124617
1592167921.4294124,-0.13466824958200213,8.785201246065089,4.731845441624653,-0.4577777777777778,-0.24444444444444444,-0.5377777777777778,0.04281094592342067,0.004951086516992314,0.06859257006202109
1592167921.4394124,-0.08950883764628034,9.048208682672144,4.732184254705071,-0.4577777777777778,-0.24444444444444444,-0.5377777777777778,0.06729012285909593,0.018917071085624234,0.03387874721111314
1592167921.4494123,-0.18039058412638775,8.822550005223503,4.752395770021634,-0.4577777777777778,-0.24444444444444444,-0.5377777777777778,0.10304142630869609,0.03784673581156188,-0.03130281123271269
1592167921.4594123,-0.607005245261516,8.863404798565696,4.67276726942385,-0.4550030504447227,-0.237970080667316,-0.5350030504447227,0.11147186255594244,0.03396122541523947,-0.01465176541913318
1592167921.4694123,-0.35699051528550746,8.847687402352072,4.724880370741173,-0.45111111111111113,-0.2288888888888889,-0.5311111111111111,0.1352854896329834,0.021535431642636358,0.04148637095476586
1592167921.4794123,-0.03036741138239136,8.822135061062548,4.742321602273543,-0.45111111111111113,-0.2288888888888889,-0.5311111111111111,0.15959966682721743,0.010410145226241483,0.014301449631033306
1592167921.4894123,-0.14664872785432287,8.851205278737305,4.526711743593969,-0.45111111111111113,-0.2288888888888889,-0.5311111111111111,0.17120884464498146,0.010193,-0.03646203826178861
1592167921.4994123,-0.5306343615485968,8.689102913862255,4.381272902589405,-0.45111111111111113,-0.2288888888888889,-0.5311111111111111,0.145708429825511,-0.003343694356409574,0.030114806310774962
1592167921.5094123,-0.13323754818182615,8.860819861946851,4.468768076181156,-0.4471816184197956,-0.23183600840737556,-0.5153931403458488,0.13374116049888382,-0.007919,0.0734980534618727
1592167921.5194123,-0.010216748511687197,8.971385390538853,4.4550010379038705,-0.44222222222222224,-0.23555555555555555,-0.4955555555555556,0.1325663183597698,0.009116412084840864,0.02217171947558665
1592167921.5294123,-0.2642518759873673,8.97390257651365,4.41770872559231,-0.44222222222222224,-0.23555555555555555,-0.4955555555555556,0.1375785689642277,0.02255138200913606,-0.03314456349135362
1592167921.5394123,-0.34887521519732695,8.905577283206306,4.375829772388888,-0.44222222222222224,-0.23555555555555555,-0.4955555555555556,0.1520865351135258,0.026169,-0.047156058325426034
1592167921.5494123,-0.39814883569656645,8.864717851057405,4.160527164098646,-0.44222222222222224,-0.23555555555555555,-0.4955555555555556,0.13465133843667615,0.0028754491442999804,-0.0654065006937749
1592167921.5594122,-0.5489639937094842,9.001023033899834,4.0397690473493135,-0.4488135178736979,-0.22836505120849118,-0.49915080772908776,0.11793675896052534,-0.022384495531603002,-0.03520862192194269
1592167921.5694122,-0.3732779310762269,8.781780239647713,4.029707506549634,-0.45444444444444443,-0.2222222222222222,-0.5022222222222222,0.09018895791738026,-0.05747388241580173,0.0011262904401150766
1592167921.5794122,-0.26253550875335585,8.971000184228135,4.01413146998301,-0.45444444444444443,-0.2222222222222222,-0.5022222222222222,0.04822473397083294,-0.08159068785526821,0.04233626602916706
1592167921.5894122,-0.011818472088284699,8.924421528664256,4.1339748575791235,-0.45444444444444443,-0.2222222222222222,-0.5022222222222222,0.03025294163931816,-0.09574538291436271,0.028675108960233592
1592167921.5994122,-0.008530478556574135,8.885183120835626,3.9407650057466004,-0.45444444444444443,-0.2222222222222222,-0.5022222222222222,-0.012977990506248718,-0.09023593264161792,0.016468764597236032
1592167921.6094122,-0.0693523856806947,8.761795587559053,3.846108438887583,-0.45985054594261254,-0.2163246569514934,-0.48993562790820383,-0.072069966520961,-0.08829818527797506,0.02566993320827999
1592167921.6194122,-0.05292461703441247,8.775669451471963,4.005190909793478,-0.4666666666666667,-0.2088888888888889,-0.47444444444444445,-0.1365870434590223,-0.0823574920665585,0.03371497891613116
1592167921.6294122,0.021503192364514496,9.010982918024041,4.234066901300649,-0.4666666666666667,-0.2088888888888889,-0.47444444444444445,-0.1636752274370309,-0.05966038657297479,0.02631228173952297
1592167921.6394122,0.02337862445736318,8.901234633068974,4.383898940694325,-0.4666666666666667,-0.2088888888888889,-0.47444444444444445,-0.16578343368926848,-0.049595293805977665,0.006051678089989049
1592167921.6494122,0.10448345994220698,9.039030425514246,4.352993447409391,-0.4666666666666667,-0.2088888888888889,-0.47444444444444445,-0.1645897985546849,-0.033975518672439774,-0.039171972496730545
1592167921.6594121,-0.012578859298128226,8.923187646381816,4.520021569349692,-0.45843760129659644,-0.2176020169277868,-0.47444444444444445,-0.15113144802268885,-0.02026758763050782,-0.07824385084788395
1592167921.6694121,-0.2507374539555783,8.917307776183431,4.520584971815543,-0.4477777777777778,-0.2288888888888889,-0.47444444444444445,-0.13807218417987802,-0.0363030697149309,-0.11636828422271946
1592167921.6794121,-0.3466835541468886,9.100949078469762,4.476490201155056,-0.4477777777777778,-0.2288888888888889,-0.47444444444444445,-0.11820027454405928,-0.05392008506817363,-0.12521524148157234
1592167921.689412,-0.3937911327812463,8.961684087840235,4.653899284494621,-0.4477777777777778,-0.2288888888888889,-0.47444444444444445,-0.08243566957553022,-0.07437483443739859,-0.10593308880769003
1592167921.699412,-0.15264280711906697,9.041701298703247,4.728632811749175,-0.4477777777777778,-0.2288888888888889,-0.47444444444444445,-0.02913634067551841,-0.08840998204197091,-0.10867001201936631
1592167921.709412,-0.37766861227491344,8.837958253293861,4.529402427826117,-0.4424080659037955,-0.22739730225722715,-0.472356223160118,0.0017887712784485027,-0.11144749606287027,-0.11099035728618076
1592167921.719412,-0.4422585117707095,9.037899751911466,4.438060646854797,-0.42777777777777776,-0.22333333333333333,-0.4666666666666667,0.021646101255794706,-0.12614614533516172,-0.04536525514258917
1592167921.729412,-0.14543058645990886,8.949262111081268,4.486485846429816,-0.42777777777777776,-0.22333333333333333,-0.4666666666666667,0.03841464482678241,-0.1542232005403367,-0.05200882392674146
1592167921.739412,-0.16575997988786156,8.945293540573681,4.364236838626399,-0.42777777777777776,-0.22333333333333333,-0.4666666666666667,0.042435,-0.15536505790447794,-0.09052622433911037
1592167921.749412,-0.2695444850491579,8.856471995337518,4.3819200863707835,-0.42777777777777776,-0.22333333333333333,-0.4666666666666667,0.039043538426976,-0.14977883502546097,-0.10206054370995143
1592167921.759412,-0.26974364700584064,8.906061355406566,4.4650135971043285,-0.43533613655704056,-0.21681750679948608,-0.45676261033521887,0.032203068570981486,-0.1401992889453708,-0.08569899649708783
1592167921.769412,-0.21242427061190391,8.866429957882598,4.647575466343417,-0.46,-0.19555555555555557,-0.42444444444444446,0.05393633185719272,-0.13031218608333578,-0.0705846131964073
1592167921.779412,-0.2382422360386852,8.822169331826215,4.579349023732646,-0.46,-0.19555555555555557,-0.42444444444444446,0.06411559188893763,-0.13061365360498864,-0.06141706171605103
1592167921.789412,-0.18137432065456335,8.861293677734993,4.3538446489241,-0.46,-0.19555555555555557,-0.42444444444444446,0.06535349001556157,-0.13154279259688792,-0.06542314929113276
1592167921.799412,-0.3028447238768589,8.851008983358925,4.193630772133062,-0.46,-0.19555555555555557,-0.42444444444444446,0.042165824933361566,-0.1378184236338996,-0.07396783068773397
1592167921.809412,-0.31880404077289665,8.816005434495288,4.210415310494669,-0.45524874841737234,-0.1979311813468694,-0.42444444444444446,0.021095604130203366,-0.1357702017000596,-0.04454941566758053
1592167921.819412,-0.14682705907703453,8.824522382312777,4.25055213746412,-0.43333333333333335,-0.2088888888888889,-0.42444444444444446,-0.012572224512170306,-0.13486778509578023,-0.042393794703730794
1592167921.829412,-0.1780207739771594,8.799187660843586,4.320247567235847,-0.43333333333333335,-0.2088888888888889,-0.42444444444444446,-0.03575286078740652,-0.1013995366434968,-0.04679801503635808
1592167921.839412,-0.18130852389631003,8.836900399881817,4.5549863254589695,-0.43333333333333335,-0.2088888888888889,-0.42444444444444446,-0.044907,-0.06460447058165253,-0.0352965636157061
1592167921.849412,-0.1632291633827353,8.90243417313161,4.676780063536121,-0.43333333333333335,-0.2088888888888889,-0.42444444444444446,-0.03920390824043627,-0.03890090141834325,-0.037586603318685775
1592167921.859412,-0.3192955819203851,8.877941553265003,4.6532754533767005,-0.43611884152832797,-0.20631765055504772,-0.4203733170825293,-0.012301310199978129,-0.025704724732427332,-0.04378546977627953
1592167921.869412,-0.3586652178687232,8.863632486082274,4.494146685544588,-0.4477777777777778,-0.19555555555555557,-0.4033333333333333,0.004449793469634584,-0.025146368857365316,-0.038869206530365415
1592167921.879412,-0.35072440773513325,8.88927328554868,4.305254086840053,-0.4477777777777778,-0.19555555555555557,-0.4033333333333333,-0.003401790480179084,-0.035408781639968315,-0.018496982319578456
1592167921.889412,-0.31758785567473735,8.72281366774152,4.225577482499344,-0.4477777777777778,-0.19555555555555557,-0.4033333333333333,-0.02900665444454726,-0.049732448418516845,-0.0033328000070967584
1592167921.899412,-0.3395829373898571,8.836708925210953,4.171647644639468,-0.4477777777777778,-0.19555555555555557,-0.4033333333333333,-0.06389626868332418,-0.048401,0.018062633723894595
1592167921.909412,-0.2795548572391159,8.869647827910715,4.380320330336895,-0.4458537653556873,-0.1945195488667376,-0.4014093209112429,-0.07920125455327759,-0.046842199207964584,0.029643055345313016
1592167921.919412,-0.22785138573207642,8.978199331374109,4.506256119507275,-0.43333333333333335,-0.18777777777777777,-0.3888888888888889,-0.07524681928084667,-0.05108047696761011,-0.005259269308747094
1592167921.929412,-0.349858970415201,9.030499820981472,4.50602490745605,-0.43333333333333335,-0.18777777777777777,-0.3888888888888889,-0.05257125230207203,-0.0558872727896454,-0.06001999929948493
1592167921.9394119,-0.417082351842035,8.92951844663536,4.414956463780848,-0.43333333333333335,-0.18777777777777777,-0.3888888888888889,-0.041339231007657795,-0.0793374699039077,-0.08233148291071614
1592167921.9494119,-0.30913540241601783,8.998536685296433,4.243947935877485,-0.43333333333333335,-0.18777777777777777,-0.3888888888888889,-0.04474286943713988,-0.09428040346935217,-0.12980509746452137
1592167921.9594119,-0.5286634218617697,8.852942597842201,4.1746699875839095,-0.4329954436082527,-0.18856618713629925,-0.3882131094387276,-0.057118165817388634,-0.1277784941435146,-0.16036073612514049
1592167921.9694118,-0.6901794211145809,8.732802707353692,4.150116940252312,-0.43,-0.19555555555555557,-0.38222222222222224,-0.08524607695960952,-0.16496284743136044,-0.09293234537859067
1592167921.9794118,-0.3507157518502423,8.765483759057638,4.266072455770564,-0.43,-0.19555555555555557,-0.38222222222222224,-0.10997259260505704,-0.18605914502637327,-0.033578574483180815
1592167921.9894118,-0.21380450992266234,8.80022482091141,4.411893165229456,-0.43,-0.19555555555555557,-0.38222222222222224,-0.13555405325627615,-0.1777142733023149,-0.02485903042208267
1592167921.9994118,-0.26989659552929657,8.719043558976589,4.60277360364415,-0.43,-0.19555555555555557,-0.38222222222222224,-0.14914195862347265,-0.14989398717891353,-0.012679020688263681
1592167922.0094118,-0.14747450525153866,8.88677900644808,4.630346282096037,-0.4244364757423333,-0.19694643661997224,-0.37920864658265274,-0.15532206293548514,-0.12514131186925131,-0.039532638464827546
1592167922.0194118,-0.3144857220334162,8.909152309680621,4.698020570571011,-0.4033333333333333,-0.20222222222222222,-0.36777777777777776,-0.13640592028048432,-0.1013652772170536,-0.08663826152384481
1592167922.0294118,-0.4580617265856448,8.869514044704031,4.744655481292574,-0.4033333333333333,-0.20222222222222222,-0.36777777777777776,-0.11373638428174927,-0.09825926809871499,-0.10527971994159803
1592167922.0394118,-0.36536669112077685,8.8476251998393,4.786447575553583,-0.4033333333333333,-0.20222222222222222,-0.36777777777777776,-0.08367971980887212,-0.09393756124738666,-0.10419801752818733
1592167922.0494118,-0.3370787546567393,8.878080305314462,4.702954302057233,-0.4033333333333333,-0.20222222222222222,-0.36777777777777776,-0.05732201312445258,-0.09285828174372546,-0.13852951902972438
1592167922.0594118,-0.8082907529240935,8.751999310519603,4.55917778318883,-0.40627295325154356,-0.1981519792585465,-0.3661949055141261,-0.05521862700041423,-0.10477665998039072,-0.1262837766544355
1592167922.0694118,-0.7798463880378456,8.789843107369418,4.5675687540304954,-0.4177777777777778,-0.18222222222222223,-0.36,-0.04626154570237496,-0.11567686246823936,-0.061994279047595614
1592167922.0794117,-0.4655216666097388,8.804827192569991,4.74916096381528,-0.4177777777777778,-0.18222222222222223,-0.36,-0.038965916931671694,-0.11786948394323105,-0.05510225738741426
1592167922.0894117,-0.49769731258553107,8.785381016729795,4.768998261500133,-0.4177777777777778,-0.18222222222222223,-0.36,-0.02502746946904351,-0.11288124345767889,-0.0748901978587374
1592167922.0994117,-0.5819631495151604,8.777103734882735,4.807024351653365,-0.4177777777777778,-0.18222222222222223,-0.36,-0.008177244982802307,-0.11276800072407686,-0.07538303448541568
1592167922.1094117,-0.667949953489573,8.7658567634846,4.79618039403465,-0.41772081103433956,-0.1821937388505031,-0.3598813192845036,0.007751480415810603,-0.111252,-0.05379155565409256
1592167922.1194117,-0.6492162566246322,8.79178363854877,4.757245442610758,-0.40444444444444444,-0.17555555555555555,-0.3322222222222222,0.023343431615254127,-0.10494880488568088,-0.033905
1592167922.1294117,-0.6352750610587126,8.811220381914667,4.767772608900609,-0.40444444444444444,-0.17555555555555555,-0.3322222222222222,0.0353928827840618,-0.09299132025096762,-0.03617469130499124
1592167922.1394117,-0.6475520354764887,8.778971004647554,4.813577230118797,-0.40444444444444444,-0.17555555555555555,-0.3322222222222222,0.049581200805347225,-0.07054740424857014,-0.031231403177528906
1592167922.1494117,-0.6183024497976053,8.75685579919042,4.8430709074531135,-0.40444444444444444,-0.17555555555555555,-0.3322222222222222,0.0647078027043308,-0.04728418080831792,-0.019651082492909373
1592167922.1594117,-0.5945909834673474,8.784500672370987,4.823837551185384,-0.40444444444444444,-0.17555555555555555,-0.3322222222222222,0.08653724934712839,-0.018309660820594473,-0.006965446314753138
1592167922.1694117,-0.5781104241187035,8.780672231580098,4.77937424520378,-0.4122222222222222,-0.18666666666666668,-0.30333333333333334,0.10224064445021103,-0.008897316954229831,0.001233012865186377
1592167922.1794116,-0.5188323639006591,8.847820074342415,4.792772779675628,-0.4122222222222222,-0.18666666666666668,-0.30333333333333334,0.121179200154946,-0.003662,0.000183
1592167922.1894116,-0.49297143908349134,8.857610395504596,4.678586709471179,-0.4122222222222222,-0.18666666666666668,-0.30333333333333334,0.14212781665045135,-0.027642615928261942,-0.009173925928390982
1592167922.1994116,-0.3926266883926346,8.866547609520687,4.379962472681127,-0.4122222222222222,-0.18666666666666668,-0.30333333333333334,0.1480983251004253,-0.05320468404231315,-0.011470605891142875
1592167922.2094116,-0.315498735644082,8.854910939472395,4.107062020159081,-0.41496505060672145,-0.18529525247441705,-0.3055047391377286,0.12265926955642417,-0.05295507483624786,-0.025752606981678673
1592167922.2194116,-0.3113276580612695,8.828870527480431,4.095613086662804,-0.4388888888888889,-0.17333333333333334,-0.3244444444444444,0.08320885028100321,-0.04050819539123403,-0.022693871331301865
1592167922.2294116,-0.23743924972075,8.8394525005585,4.183315271728209,-0.4388888888888889,-0.17333333333333334,-0.3244444444444444,0.05297750207560589,-0.04124956325770984,-0.018841791034518433
1592167922.2394116,-0.25430698908659066,8.836656726952587,4.311232236785633,-0.4388888888888889,-0.17333333333333334,-0.3244444444444444,0.029535060675093917,-0.03138444601893296,-0.01049461736978842
1592167922.2494116,-0.28006073991594416,8.851630583744528,4.515939110120509,-0.4388888888888889,-0.17333333333333334,-0.3244444444444444,0.020922203538610108,-0.034127367701677944,-0.007485835836932167
1592167922.2594116,-0.23080745424771754,8.868756954547852,4.6330249505432946,-0.43646663670826275,-0.17333333333333334,-0.3238125525712376,0.02573175033236698,-0.0404553071354501,-0.005966443196916881
1592167922.2694116,-0.21217382342111346,8.84314099422283,4.678193992398437,-0.41333333333333333,-0.17333333333333334,-0.31777777777777777,0.037339851794885776,-0.03512224326617777,-0.011808817781166174
1592167922.2794116,-0.20229689102508067,8.833197879028567,4.641699655667558,-0.41333333333333333,-0.17333333333333334,-0.31777777777777777,0.046572553884285606,-0.016413058630464668,-0.002539223057857195
1592167922.2894115,-0.23720415173850806,8.83927956654926,4.605691797685141,-0.41333333333333333,-0.17333333333333334,-0.31777777777777777,0.051298838889907966,0.004717703168155681,-0.005811677779815929
1592167922.2994115,-0.35225190952092106,8.836876130677352,4.605009466579077,-0.41333333333333333,-0.17333333333333334,-0.31777777777777777,0.05626976254295981,0.017986827879443917,0.00760005093963826
1592167922.3094115,-0.39244483608170905,8.867090030516762,4.609854563047489,-0.4125023418305948,-0.17333333333333334,-0.3164274165858277,0.06634913325000302,0.02838155594887775,0.008810795640008088
1592167922.3194115,-0.43222837417541055,8.924510574721392,4.5807280884961425,-0.39555555555555555,-0.17333333333333334,-0.28888888888888886,0.07550577320978757,0.03551944026739788,-0.007365154827689681
1592167922.3294115,-0.5839251884756302,8.894671828491134,4.571349601609549,-0.39555555555555555,-0.17333333333333334,-0.28888888888888886,0.08770776333514611,0.018452014069329815,-0.022186
1592167922.3394115,-0.6905586480824403,8.83371835191756,4.543406365568986,-0.39555555555555555,-0.17333333333333334,-0.28888888888888886,0.10305021215839931,-0.006751598096919287,-0.016740615258447573
1592167922.3494115,-0.6696700778773954,8.870734384193986,4.484420230547078,-0.39555555555555555,-0.17333333333333334,-0.28888888888888886,0.11497899536160427,-0.04024144041597287,-0.010363615649486714
1592167922.3594115,-0.6089235097279924,8.899063113055993,4.368579215641645,-0.39555555555555555,-0.17333333333333334,-0.28888888888888886,0.1186088287380858,-0.062237553256008854,-0.009935330450387383
1592167922.3694115,-0.5244741087504752,8.897064760174633,4.319487136153734,-0.4011111111111111,-0.15555555555555556,-0.3022222222222222,0.11023219638399455,-0.06606786745808799,-0.007329328925906563
1592167922.3794115,-0.3912184716513189,8.888709286214468,4.354241228641567,-0.4011111111111111,-0.15555555555555556,-0.3022222222222222,0.1026948500578621,-0.0568351134192574,-0.01033974009957745
1592167922.3894114,-0.3544906171354999,8.903534275990694,4.424126636017214,-0.4011111111111111,-0.15555555555555556,-0.3022222222222222,0.102097,-0.0381514960451358,-0.01517379001824345
1592167922.3994114,-0.36918881550524757,8.904399956441033,4.371354405468521,-0.4011111111111111,-0.15555555555555556,-0.3022222222222222,0.0995449165988645,-0.017575863036948632,-0.023217068481525684
1592167922.4094114,-0.3714317398392861,8.894585960347037,4.400201807558755,-0.4011111111111111,-0.15555555555555556,-0.3022222222222222,0.09559139243299462,-0.0024823924329946305,-0.026836570689490868
1592167922.4194114,-0.4630767603376911,8.897000405263645,4.33069023251023,-0.4033333333333333,-0.1688888888888889,-0.3022222222222222,0.09247590582199218,-0.001188817549145402,-0.025324337355226732
1592167922.4294114,-0.4204054458453495,8.909785482051506,4.1550799585786855,-0.4033333333333333,-0.1688888888888889,-0.3022222222222222,0.08314470860813215,-0.0025195442404193145,-0.012336615675497677
1592167922.4394114,-0.457796106139846,8.901762740388087,4.103589464096046,-0.4033333333333333,-0.1688888888888889,-0.3022222222222222,0.06458688578338631,-0.004901618600331095,-0.0058021214568103
1592167922.4494114,-0.5058915845656068,8.908354656535822,4.324810036455452,-0.4033333333333333,-0.1688888888888889,-0.3022222222222222,0.049374237017175866,-0.00019896349791899518,0.01160139538653977
1592167922.4594114,-0.44980794244774963,8.927075851015733,4.446880165271823,-0.4033333333333333,-0.1688888888888889,-0.3022222222222222,0.05343851675531707,-0.003295498581905869,0.02089834587445608
1592167922.4694114,-0.4543797025802545,8.915673993551385,4.498395574472223,-0.41555555555555557,-0.17555555555555555,-0.3022222222222222,0.06392311860581473,-0.008126138985143907,0.025307507700022394
1592167922.4794114,-0.43122030834556296,8.931918559115722,4.534613732403943,-0.41555555555555557,-0.17555555555555555,-0.3022222222222222,0.07902341092905187,-0.004191964288782861,0.029660862054510413
1592167922.4894114,-0.3544172015088224,8.932557552878764,4.560324008905843,-0.41555555555555557,-0.17555555555555555,-0.3022222222222222,0.0926541548501732,0.0054720774250866,0.03290202555353332
1592167922.4994113,-0.3195744484968307,8.922547091772623,4.4827130077938495,-0.41555555555555557,-0.17555555555555555,-0.3022222222222222,0.10497380827849187,0.016875974693515736,0.030383535053982565
1592167922.5094113,-0.3149443188206574,8.919363844104046,4.389290074400234,-0.41555555555555557,-0.17555555555555555,-0.3022222222222222,0.1130349818341313,0.03468299816355218,0.0401714361515137
1592167922.5194113,-0.23580646908763986,8.933077078639535,4.2576752853431925,-0.41,-0.18222222222222223,-0.29444444444444445,0.11347510621907417,0.05767961731621246,0.05158678736510464
1592167922.5294113,-0.11224498834401495,8.949993082933931,4.12081449159352,-0.41,-0.18222222222222223,-0.29444444444444445,0.0997233532600356,0.07763950717531032,0.06096588576907923
1592167922.5394113,-0.16437649602365012,8.934310971527047,4.094665225388579,-0.41,-0.18222222222222223,-0.29444444444444445,0.08182619154361744,0.09222744741033158,0.0651945101828282
1592167922.5494113,-0.24073430409999425,8.948885652968766,4.158521865619838,-0.41,-0.18222222222222223,-0.29444444444444445,0.06820300622208655,0.09437291029820269,0.07669399377791344
1592167922.5594113,-0.3114450127128531,8.954149672968711,4.220247214183867,-0.41,-0.18222222222222223,-0.29444444444444445,0.062683,0.08710748873199638,0.09549679529857366
1592167922.5694113,-0.18479364071502008,8.966575011280833,4.336183165365227,-0.41555555555555557,-0.17555555555555555,-0.29444444444444445,0.06357187992868484,0.079793982276961,0.11451877758040865
1592167922.5794113,0.029924679203584048,8.996756111095419,4.369032994200788,-0.41555555555555557,-0.17555555555555555,-0.29444444444444445,0.07357829237495156,0.0849930585665893,0.11345167987545635
1592167922.5894113,0.17443936647947897,8.998709707211091,4.401230601289446,-0.41555555555555557,-0.17555555555555555,-0.29444444444444445,0.08325761096816918,0.0801635254429166,0.10148840398441457
1592167922.5994112,0.23404133059527585,8.976337001072332,4.314696907226169,-0.41555555555555557,-0.17555555555555555,-0.29444444444444445,0.09590603259098295,0.08014547495314081,0.07772457804061425
1592167922.6094112,0.27864184133490516,8.972262142360258,4.242264838525251,-0.41555555555555557,-0.17555555555555555,-0.29444444444444445,0.0965697254645404,0.07576882360637877,0.055861640646429116
1592167922.6194112,0.30781876256772966,8.986088913975546,4.244363308243938,-0.41555555555555557,-0.17777777777777778,-0.3022222222222222,0.09654330340191862,0.07029460639522461,0.028707675016335355
1592167922.6294112,0.3106265984980787,8.99400376297425,4.265218984431729,-0.41555555555555557,-0.17777777777777778,-0.3022222222222222,0.096771,0.049535523928724914,0.00038556730848148847
1592167922.6394112,0.16805467056968507,9.019530714656845,4.252599244886073,-0.41555555555555557,-0.17777777777777778,-0.3022222222222222,0.10365082110071565,0.027425627262170533,-0.020929372737829466
1592167922.6494112,0.02782540561010037,8.996227583020826,4.218144920942522,-0.41555555555555557,-0.17777777777777778,-0.3022222222222222,0.10603511686008128,0.002064759010899893,-0.031247062996191767
1592167922.6594112,-0.015327539519611192,9.00411212455427,4.187303386202217,-0.41555555555555557,-0.17777777777777778,-0.3022222222222222,0.10883667688794015,-0.027552967743660523,-0.036041
1592167922.6694112,-0.017343975298467287,8.989067969416434,4.135317707029721,-0.41,-0.17,-0.27111111111111114,0.1060265350154735,-0.05077426071079524,-0.03882213035539762
1592167922.6794112,-0.06953687457640025,9.009999514923962,4.047897400770916,-0.41,-0.17,-0.27111111111111114,0.0972807636616072,-0.0697449132558497,-0.04002203216933395
1592167922.6894112,-0.06462500091600963,9.009124996932277,4.041551646156644,-0.41,-0.17,-0.27111111111111114,0.08761129418084303,-0.08078048298172354,-0.037521482981723545
1592167922.6994112,-0.06053885741135478,9.01491634682669,4.035211509592703,-0.41,-0.17,-0.27111111111111114,0.07502855124855604,-0.07975502369227741,-0.033760011022511444
1592167922.7094111,-0.09290626001615097,9.040758994672721,4.039655024406784,-0.41,-0.17,-0.27111111111111114,0.06251531780451271,-0.06839056547852287,-0.028496158902256354
1592167922.7194111,-0.13041860256753296,9.010004316151344,4.184408218137789,-0.4037836689608293,-0.1637836689608293,-0.29183221457501346,0.06112338040217776,-0.056318551179151445,-0.023190191207218873
1592167922.7294111,-0.06605983655077821,9.013927120281453,4.27962222435176,-0.4033333333333333,-0.16333333333333333,-0.29333333333333333,0.066912666105927,-0.04258251363787639,-0.017956333894073
1592167922.739411,-0.0770075425417405,9.038888425850182,4.105203741161573,-0.4033333333333333,-0.16333333333333333,-0.29333333333333333,0.070145,-0.034819335445213276,-0.014725
1592167922.749411,-0.03430706424117124,9.027123735673438,4.068550755049259,-0.4033333333333333,-0.16333333333333333,-0.29333333333333333,0.0672352044086346,-0.019606236737128524,-0.012453437400020199
1592167922.759411,-0.08786441527110732,9.039028873595957,3.984704404110827,-0.4033333333333333,-0.16333333333333333,-0.29333333333333333,0.059468455622185876,-0.008971005911379299,-0.010674560500396472
1592167922.769411,-0.036375097090193396,9.0493332408038,3.8961349657648476,-0.41,-0.17777777777777778,-0.28,0.04521479245076141,-0.00473,-0.004739275551806844
1592167922.779411,0.011157972718563593,9.060371525470174,3.7538244896723594,-0.41,-0.17777777777777778,-0.28,0.01944338371073111,-0.0029166287025417536,-0.006950136948459242
1592167922.789411,-0.001916754093008826,9.059127291400879,3.660061918952952,-0.41,-0.17777777777777778,-0.28,-0.013135717351202197,-0.004314445311848844,-0.011536
1592167922.799411,-0.0754376682356505,9.046241308711108,3.7500983541936037,-0.41,-0.17777777777777778,-0.28,-0.0506557524671365,-0.005038514793934322,-0.01090988783035361
1592167922.809411,-0.055193979470015773,9.04089723217352,3.8858074759181833,-0.41,-0.17777777777777778,-0.28,-0.0748781892768424,-0.006565884156193708,-0.009186614493819445
1592167922.819411,0.02684876144045315,9.039322,4.0113199236727795,-0.4040298875214054,-0.17777777777777778,-0.28696513122502704,-0.08910403011752162,-0.006554966287854424,-0.011793322095951474
1592167922.829411,0.0053791220451456685,9.025083560767323,4.110889221140298,-0.4033333333333333,-0.17777777777777778,-0.2877777777777778,-0.09285,-0.012636056695795934,-0.01838483298304456
1592167922.839411,-0.023010134303796895,9.058831646511543,4.1187172964247285,-0.4033333333333333,-0.17777777777777778,-0.2877777777777778,-0.094971,-0.01703215934037203,-0.020730141435895553
1592167922.849411,-0.06317700821206507,9.006347572276482,4.1190977264473165,-0.4033333333333333,-0.17777777777777778,-0.2877777777777778,-0.09800749293879814,-0.02193915443393779,-0.018997
1592167922.859411,-0.030743139364586045,9.029043946388969,4.161233752986712,-0.4033333333333333,-0.17777777777777778,-0.2877777777777778,-0.09752614047382058,-0.024034713491273525,-0.017649573017452947
1592167922.869411,-0.07128411763521342,8.999793818200558,4.18358659408501,-0.4142471528264197,-0.18869159727086415,-0.2877777777777778,-0.09901916051305816,-0.02485108025652908,-0.015569160513058166
1592167922.879411,-0.049840196675088266,9.01282284367107,4.290081582037554,-0.41555555555555557,-0.19,-0.2877777777777778,-0.09570367756341792,-0.01823467756341792,-0.014725
1592167922.889411,-0.06427696377495663,8.994991512220086,4.372654133113345,-0.41555555555555557,-0.19,-0.2877777777777778,-0.08499259615693673,-0.012177,-0.013608096987697249
1592167922.899411,-0.05530009490566526,8.97110541017873,4.4231199582760645,-0.41555555555555557,-0.19,-0.2877777777777778,-0.06712065075054424,-0.010009253746642974,-0.012572845554704958
1592167922.909411,-0.061441005016634354,8.970992290205249,4.491159173862436,-0.41555555555555557,-0.19,-0.2877777777777778,-0.04715242282403162,-0.0047542210195962295,-0.00941120757659046
1592167922.919411,-0.103512304470934,8.975039257657608,4.4721713846178766,-0.38480028154143936,-0.16451705867401803,-0.293050110465912,-0.02393891902166439,0.0005619874443890151,-0.005275461015418768
1592167922.929411,-0.12979561748842666,8.988298631994457,4.4783412889015946,-0.37666666666666665,-0.15777777777777777,-0.29444444444444445,-0.003921825235690389,0.0046841129207567875,-0.0019992765680598287
1592167922.939411,-0.12784365323828714,8.998139702494049,4.468972496194532,-0.37666666666666665,-0.15777777777777777,-0.29444444444444445,0.018058302059335115,0.008839829560920737,0.007168732280170541
1592167922.949411,-0.08859133399935551,8.972597786312871,4.482113039402154,-0.37666666666666665,-0.15777777777777777,-0.29444444444444445,0.03707078432883759,0.012192434032380087,0.012723404646879263
1592167922.959411,-0.037602137868523115,8.99306537786819,4.355449660805166,-0.37666666666666665,-0.15777777777777777,-0.29444444444444445,0.05249649282980347,0.012165030645865446,0.01297
1592167922.969411,0.024064310703274975,8.999673974471204,4.242945157620087,-0.40377358267390556,-0.1794633105835689,-0.2537840704335861,0.05965508656985412,0.01445,0.010302655517406082
1592167922.979411,0.02831341256711281,9.010539138228886,4.1627861414713285,-0.41,-0.18444444444444444,-0.24444444444444444,0.059692112533568285,0.01445,0.00465311253356829
1592167922.9894109,0.021093189174929576,9.008588781703873,4.074278997770963,-0.41,-0.18444444444444444,-0.24444444444444444,0.05406124161013562,0.010671429047474196,-0.0018048521085336673
1592167922.9994109,-0.03702290355143408,9.01119416477501,3.9993276677318423,-0.41,-0.18444444444444444,-0.24444444444444444,0.04112312632683884,0.006738326210466298,-0.00621
1592167923.0094109,-0.05716121919656349,9.030745006425605,3.9836168759460535,-0.41,-0.18444444444444444,-0.24444444444444444,0.02119738068863697,0.0022559875544780747,-0.008513682906727256
1592167923.0194108,-0.062332134386144385,8.996993014908796,4.0220354014974555,-0.41,-0.18010784846837047,-0.2930143193764727,0.003260899139940277,-0.000458,-0.007278
1592167923.0294108,-0.08182569608179828,9.027371681827924,4.027733047612341,-0.41,-0.17888888888888888,-0.30666666666666664,-0.007608980068990745,-0.0036544547101044758,-0.006568515096631841
