time,acc_x,acc_y,acc_z,mag_x,mag_y,mag_z,gyr_x,gyr_y,gyr_z
1592167924.3394096,-0.11207204958495647,8.982222954616185,4.344693922321408,-0.3977777777777778,-0.17888888888888888,-0.3022222222222222,0.037109,-0.003319496989027043,0.008883648082281804
1592167924.3494096,-0.05945876120187793,8.978401109234747,4.313624283767697,-0.3977777777777778,-0.17888888888888888,-0.3022222222222222,0.04155558466496599,0.004809811851097948,0.012911866283416847
1592167924.3594096,-0.06602171037911432,8.999794385796468,4.30803041467458,-0.3977777777777778,-0.17888888888888888,-0.3022222222222222,0.047895933750596795,0.0038293683766473983,0.015135913845285042
1592167924.3694096,-0.12301140077084562,8.989064766932836,4.324244482358441,-0.3977777777777778,-0.17888888888888888,-0.3022222222222222,0.05737061932079228,0.005933469026365042,0.0193680263998874
1592167924.3794096,-0.08661748813499337,9.003193609570928,4.327892655525795,-0.38333333333333336,-0.17222222222222222,-0.29444444444444445,0.06992364584191917,0.006926082260883214,0.023557607633902605
1592167924.3894095,-0.08695602208759937,9.019323568263633,4.315902885560331,-0.38333333333333336,-0.17222222222222222,-0.29444444444444445,0.07735393492810487,0.0058765249009199005,0.027759885126265083
1592167924.3994095,-0.0659903653500643,9.000344077973647,4.285741938168459,-0.38333333333333336,-0.17222222222222222,-0.29444444444444445,0.08496473115313613,-0.009271724351873128,0.027878
1592167924.4094095,-0.09541860453380616,9.01287655102129,4.322695759541571,-0.38333333333333336,-0.17222222222222222,-0.29444444444444445,0.09489917788529323,-0.02415917788529323,0.028602428263798434
1592167924.4194095,-0.06650092478194879,9.010510389492632,4.432908750747795,-0.38333333333333336,-0.17222222222222222,-0.29444444444444445,0.11224759505271595,-0.022969856160069923,0.030939143839930076
1592167924.4294095,-0.07001637475633074,9.01748291404267,4.463034549595346,-0.3977777777777778,-0.17888888888888888,-0.29444444444444445,0.13514549996956218,-0.02424704661492259,0.02253783242313438
1592167924.4394095,-0.20954563439356244,8.99784595048609,4.332722278423145,-0.3977777777777778,-0.17888888888888888,-0.29444444444444445,0.14986929844241065,-0.040216156322222585,-0.037404856142997954
1592167924.4494095,-0.6476322082668455,9.033573273108397,4.187336092013829,-0.3977777777777778,-0.17888888888888888,-0.29444444444444445,0.1578592542557342,-0.04169582468489889,-0.04285106534244314
1592167924.4594095,-0.6450089703623076,9.033830040426833,4.093155138523005,-0.3977777777777778,-0.17888888888888888,-0.29444444444444445,0.16255419326839093,-0.030374493184154513,-0.003136374909177106
1592167924.4694095,-0.3337694136269179,9.03849069087874,3.923287230933857,-0.3977777777777778,-0.17888888888888888,-0.29444444444444445,0.1534691514987897,-0.05394794483971037,0.005461709838373415
1592167924.4794095,-0.2807317430912577,9.040485174363601,3.7210112165571054,-0.4033333333333333,-0.17888888888888888,-0.2877777777777778,0.13053548755238095,-0.08256483292806287,-0.0189869729064956
1592167924.4894094,-0.44486922022853526,9.062821504060786,3.579287621064108,-0.4033333333333333,-0.17888888888888888,-0.2877777777777778,0.09500486285832105,-0.11620927802463335,-0.03461628637234853
1592167924.4994094,-0.5297724728685708,9.05203497293894,3.5402362463527663,-0.4033333333333333,-0.17888888888888888,-0.2877777777777778,0.04875192075520875,-0.15675597225348542,-0.03777749262420263
1592167924.5094094,-0.5949089796182202,9.05770474585126,3.604700347052538,-0.4033333333333333,-0.17888888888888888,-0.2877777777777778,0.007892132911905375,-0.19291805558709244,-0.05388688308333596
1592167924.5194094,-0.7701687977680766,9.054401417419875,3.660391435986043,-0.4033333333333333,-0.17888888888888888,-0.2877777777777778,-0.030615604669277968,-0.2297428030477222,-0.06961561187846042
1592167924.5294094,-0.7185979042514932,9.060622390008696,3.7350618880907307,-0.3977777777777778,-0.18666666666666668,-0.26666666666666666,-0.06121272425707984,-0.2620391697792074,-0.08542523975256586
1592167924.5394094,-0.5565732454083862,8.991088891015487,3.8700750477256887,-0.3977777777777778,-0.18666666666666668,-0.26666666666666666,-0.0913325052956992,-0.2768626822544117,-0.10353163699275358
1592167924.5494094,-0.4106491112963676,8.930622624148784,3.8718891406741203,-0.3977777777777778,-0.18666666666666668,-0.26666666666666666,-0.12553487642791836,-0.2876674694302549,-0.12835998590119532
1592167924.5594094,-0.5516410209823545,8.96242190207677,4.0871117531855585,-0.3977777777777778,-0.18666666666666668,-0.26666666666666666,-0.15184933881563675,-0.2950570664053785,-0.1478189213911016
1592167924.5694094,-0.6293528402474827,8.988272319003316,4.16054303478697,-0.3977777777777778,-0.18666666666666668,-0.26666666666666666,-0.1624667316035337,-0.30084142886855164,-0.1586109715349827
1592167924.5794094,-0.6503826131830864,8.953209564535364,4.252946696543496,-0.41555555555555557,-0.17888888888888888,-0.25222222222222224,-0.16650958194400178,-0.32094741805599825,-0.180908
1592167924.5894094,-0.7904395186069335,9.036895595586431,4.261085471049153,-0.41555555555555557,-0.17888888888888888,-0.25222222222222224,-0.16059750032083367,-0.33239824551987646,-0.1589741979454751
1592167924.5994093,-0.7487058475967914,9.04875567128499,4.408689416636287,-0.41555555555555557,-0.17888888888888888,-0.25222222222222224,-0.14202983358368976,-0.32277528426056185,-0.11297290020971315
1592167924.6094093,-1.0103687173526132,9.05751803820199,4.39458114373204,-0.41555555555555557,-0.17888888888888888,-0.25222222222222224,-0.1129861781185693,-0.29439420229390245,-0.016821630820985038
1592167924.6194093,-0.44043475773456553,9.029930292713113,4.7944490005183855,-0.41555555555555557,-0.17888888888888888,-0.25222222222222224,-0.07765331284586302,-0.2630880287999879,0.0036109283763756297
1592167924.6294093,-0.11633657118793973,8.918887131905942,4.5250116891696415,-0.4033333333333333,-0.1988888888888889,-0.26666666666666666,-0.036805928310563125,-0.179307899030239,-0.06612223552525007
1592167924.6394093,-0.39806673854026864,8.949274515410355,4.32581988488857,-0.4033333333333333,-0.1988888888888889,-0.26666666666666666,-0.02355090212243855,-0.144487267334647,-0.09529407389503529
1592167924.6494093,-0.7116568758848015,8.969998352874235,4.5242615592777735,-0.4033333333333333,-0.1988888888888889,-0.26666666666666666,-0.009356697579975029,-0.07971589194499942,-0.05718741675982544
1592167924.6594093,-0.8262247682422271,8.926360623787378,4.42158988573999,-0.4033333333333333,-0.1988888888888889,-0.26666666666666666,0.004554565498313051,-0.04927588452510301,-0.04747254997658394
1592167924.6694093,-0.8775871720952654,9.085754354830424,4.3101258692644295,-0.4033333333333333,-0.1988888888888889,-0.26666666666666666,0.025293797966758683,-0.05093810213756212,-0.010500526502827224
1592167924.6794093,-0.561004587140882,9.04379003685903,4.062296571079581,-0.4033333333333333,-0.17888888888888888,-0.27111111111111114,0.022202,-0.05370994004178335,-0.022797610373733138
1592167924.6894093,-0.5814890760633367,9.187873510832883,3.8548681920397603,-0.4033333333333333,-0.17888888888888888,-0.27111111111111114,0.02327,-0.1100219159564356,-0.06227896974609039
1592167924.6994092,-0.7009031480338862,9.232094453257819,3.875289161351108,-0.4033333333333333,-0.17888888888888888,-0.27111111111111114,0.02327,-0.13093799417889695,-0.03765610121717377
1592167924.7094092,-0.5931585634434717,9.07252417958657,3.9199100362595307,-0.4033333333333333,-0.17888888888888888,-0.27111111111111114,0.016580683557850185,-0.15913971353540396,0.011203405697544692
1592167924.7194092,-0.39628041313277346,8.998030315222506,3.940893771636347,-0.4033333333333333,-0.17888888888888888,-0.27111111111111114,0.005579076633046081,-0.12653547469107104,0.00695247469107104
1592167924.7294092,-0.34073226463723766,8.94871878652124,3.9061323792174445,-0.41,-0.21333333333333335,-0.27111111111111114,-0.023770019376379934,-0.08954739735535919,-0.040793299209309825
1592167924.7394092,-0.4750982421943606,9.008024048383747,3.9136930400014296,-0.41,-0.21333333333333335,-0.27111111111111114,-0.04578671979127116,-0.04866768734969085,-0.08374948945399785
1592167924.7494092,-0.6047926259056011,9.036417079397971,4.0553775398443745,-0.41,-0.21333333333333335,-0.27111111111111114,-0.059612973733397655,-0.02539701178475058,-0.08099698551814824
1592167924.7594092,-0.6198246528221354,9.039706860497946,4.182992188465376,-0.41,-0.21333333333333335,-0.27111111111111114,-0.06202231309711228,-0.0036607584639192867,-0.046903696166813544
1592167924.7694092,-0.5142022518931798,9.024574417911273,4.196197838066665,-0.41,-0.21333333333333335,-0.27111111111111114,-0.056823306486471874,0.01937996457046759,-0.028105249119333032
1592167924.7794092,-0.5432635653702128,9.051830875091445,4.196191919204895,-0.42205633466012527,-0.20566112036779907,-0.2853595066185319,-0.05370079579276542,0.025902331535432848,-0.01645779848961615
1592167924.7894092,-0.6503013295213467,9.083418331603282,4.256822415815004,-0.4222222222222222,-0.20555555555555555,-0.28555555555555556,-0.044231625517744025,0.016160248781990853,0.03552218194021515
1592167924.7994092,-0.5927836981930202,9.018925075334066,4.308361945393186,-0.4222222222222222,-0.20555555555555555,-0.28555555555555556,-0.03482276510457425,0.021156136300922043,0.09297615925221389
1592167924.8094091,-0.34957238102345767,8.968388505954307,4.21716321424782,-0.4222222222222222,-0.20555555555555555,-0.28555555555555556,-0.03128701515444924,0.03712911874179088,0.09149974713919987
1592167924.8194091,-0.31427755737546503,9.034195964721674,3.9863933054758003,-0.4222222222222222,-0.20555555555555555,-0.28555555555555556,-0.035388227914795865,0.07523405950984753,0.061594552187834745
1592167924.8294091,-0.33041481186778077,9.000847767739584,3.8662050542307145,-0.43,-0.22555555555555556,-0.30666666666666664,-0.052223903298024905,0.1588171179308525,0.055352295464928244
1592167924.839409,-0.3387351370725778,8.957316504728013,3.681871224825469,-0.43,-0.22555555555555556,-0.30666666666666664,-0.09114144489509801,0.19661469542939602,0.03156414602291202
1592167924.849409,-0.5848156191696242,8.99120122536558,3.6170001854555136,-0.43,-0.22555555555555556,-0.30666666666666664,-0.14153890573851302,0.16263408733273577,-0.0031479650239224877
1592167924.859409,-0.8902718229839688,8.980822230879971,3.7147922507462656,-0.43,-0.22555555555555556,-0.30666666666666664,-0.19657640062060708,0.13045867245203924,0.007126012640898408
1592167924.869409,-1.0736654580889964,8.9682344579619,3.969651129532517,-0.43,-0.22555555555555556,-0.30666666666666664,-0.2325808389757867,0.06060877659031777,0.03674167875512661
1592167924.879409,-1.0653437763862668,8.939473629574637,4.280813031211041,-0.43,-0.22555555555555556,-0.3511111111111111,-0.24859267876694233,-0.005224694854211802,0.07949843345205815
1592167924.889409,-0.7379499341139618,8.91366708588705,4.461570717376009,-0.43,-0.22555555555555556,-0.3511111111111111,-0.2408741827152952,-0.029018124240808733,0.0947904716125725
1592167924.899409,-0.3095311378870896,8.914055634589417,4.380905954461929,-0.43,-0.22555555555555556,-0.3511111111111111,-0.23297927338249544,0.009821820147486357,0.0381971017526109
1592167924.909409,-0.2708331664483235,8.923758924009052,4.216203046019397,-0.43,-0.22555555555555556,-0.3511111111111111,-0.23780440254186763,-0.0010593565200883001,-9.659998409460805e-05
1592167924.919409,-0.3541957215364815,8.941101558172493,4.312750740863047,-0.43,-0.22555555555555556,-0.3511111111111111,-0.24462075682090031,-0.002640268725436291,0.00010574036909744445
1592167924.929409,-0.3040924795067119,8.908647921820071,4.47309938266224,-0.42777777777777776,-0.22555555555555556,-0.34444444444444444,-0.246317082948258,0.02957312508885396,0.02226913328444912
1592167924.939409,-0.32269557495901374,8.954926,4.5419614591547814,-0.42777777777777776,-0.22555555555555556,-0.34444444444444444,-0.23090213244397512,0.023190713429333633,0.04041109980911598
1592167924.949409,-0.21169715349008322,8.962061902067678,4.783257464706651,-0.42777777777777776,-0.22555555555555556,-0.34444444444444444,-0.19788664590584515,0.08192980603871264,0.03738047876206466
1592167924.959409,-0.1831888453208203,8.912724738530946,4.909829086609217,-0.42777777777777776,-0.22555555555555556,-0.34444444444444444,-0.1487018451638443,0.12241296633163726,0.00522260978996956
1592167924.969409,-0.5508373907323788,8.951968900210998,5.053669474626712,-0.42777777777777776,-0.22555555555555556,-0.34444444444444444,-0.09165477358346454,0.07356700575690488,0.005464648270673054
1592167924.979409,-0.8503049646734514,8.959594917017478,5.030793583045776,-0.4477777777777778,-0.23777777777777778,-0.3566666666666667,-0.029863303732268497,0.05747074957105543,0.0439935958874776
1592167924.989409,-0.7152994147366936,9.124060268281932,5.1751419482333025,-0.4477777777777778,-0.23777777777777778,-0.3566666666666667,0.0514213592244196,0.054660081210194805,0.103516
1592167924.999409,-0.3788508045514888,8.933921467583144,5.14647942858186,-0.4477777777777778,-0.23777777777777778,-0.3566666666666667,0.13927911792154593,0.10849569531831045,0.08104946739653007
1592167925.009409,-0.5108915848759367,8.948294935984556,4.84204871076184,-0.4477777777777778,-0.23777777777777778,-0.3566666666666667,0.1906572662130043,-0.03296651778840092,0.050578284865218884
1592167925.019409,-0.497857095752346,8.94832440084368,4.730515070712714,-0.4477777777777778,-0.23777777777777778,-0.3566666666666667,0.25758535236472885,-0.005518905006776268,0.036042035228942663
1592167925.029409,-0.3239394673278045,8.858205365665208,4.566250613745627,-0.4477777777777778,-0.23255237231732515,-0.38383877506102027,0.2763620443463886,-0.046089800391718706,0.03492369278021758
1592167925.039409,-0.1649393725334405,8.91837332510925,4.396242837250919,-0.4477777777777778,-0.23222222222222222,-0.38555555555555554,0.27663877318898483,-0.04612620769932273,0.03497064722462878
1592167925.049409,-0.07380432271052276,8.811860518866487,4.413468002930302,-0.4477777777777778,-0.23222222222222222,-0.38555555555555554,0.2838019374170972,-0.0637651983429353,0.011913203535698027
1592167925.059409,-0.20723664845477932,8.835496202698748,4.26569435154522,-0.4477777777777778,-0.23222222222222222,-0.38555555555555554,0.26638867342989075,-0.08517313462098525,-0.0031435959745619913
1592167925.069409,-0.28690688708879536,8.943117422683732,4.280898436431656,-0.4477777777777778,-0.23222222222222222,-0.38555555555555554,0.24937013501651303,-0.13270288925150786,0.03472004466228106
1592167925.079409,0.027219961355498257,8.881574099626391,4.361984012692601,-0.43910837836564426,-0.23222222222222222,-0.39205760511465576,0.25668556080241106,-0.064377,0.020689649884026433
1592167925.0894089,0.08022826483248102,8.803237457354546,4.134375845684066,-0.4388888888888889,-0.23222222222222222,-0.39222222222222225,0.2472418325210522,-0.08376329336737547,-0.03778176285773266
1592167925.0994089,-0.1096680940605103,8.788722910534421,3.9010604932979915,-0.4388888888888889,-0.23222222222222222,-0.39222222222222225,0.1904965977332453,-0.09846339344840915,-0.07012303410016318
1592167925.1094089,-0.009891909389825676,8.905471497578295,3.954079590269096,-0.4388888888888889,-0.23222222222222222,-0.39222222222222225,0.1281646221762693,-0.06610461667524609,-0.022708185780978715
1592167925.1194088,0.0672772580319875,8.793606044558823,3.9481245450852835,-0.4388888888888889,-0.23222222222222222,-0.39222222222222225,0.08435228472486647,-0.08385654631842178,-0.03182435734702842
1592167925.1294088,0.007854436789415171,8.829527003604339,3.9553339323080294,-0.4442817133443163,-0.23401983037403137,-0.3985138507535542,0.02861516706828719,-0.07956969821055124,-0.0055672940120512875
1592167925.1394088,0.1357053896544096,8.864449003881198,4.007764778207961,-0.44555555555555554,-0.23444444444444446,-0.4,-0.013085121802544356,-0.029716657039794876,0.03675745327433164
1592167925.1494088,0.29918330264781573,8.93273689622742,4.194504379712306,-0.44555555555555554,-0.23444444444444446,-0.4,-0.05389798263874625,-0.00684545309332742,0.04626747718139833
1592167925.1594088,0.2964323650047329,8.93469653913323,4.298245079611059,-0.44555555555555554,-0.23444444444444446,-0.4,-0.054867564649433556,0.02651493232530184,0.021637904538481967
1592167925.1694088,0.14971685897104797,8.99340745768706,4.408270951731858,-0.44555555555555554,-0.23444444444444446,-0.4,-0.04604171969190196,0.019042612151604674,0.04211963226089142
1592167925.1794088,0.2541651859713077,8.895403885105878,4.475275302368189,-0.4526838710754007,-0.26397603731237435,-0.4193482849824368,-0.0254272232208759,0.09610423548709413,0.03427233514701326
1592167925.1894088,0.2429428167379743,8.975793000577765,4.256038609268731,-0.4533333333333333,-0.26666666666666666,-0.4211111111111111,-0.024410218980662535,0.0910339069174681,0.010285995371371176
1592167925.1994088,-0.001969503686790523,8.96020747262605,4.363010355455763,-0.4533333333333333,-0.26666666666666666,-0.4211111111111111,-0.022917792729219944,0.05725335680497983,0.012192574767099888
1592167925.2094088,-0.0829959702912535,8.998387344987721,4.341205904222087,-0.4533333333333333,-0.26666666666666666,-0.4211111111111111,-0.015394368515131476,0.032186454327079124,0.021308485626117025
1592167925.2194088,-0.0319657642544368,9.012943332892329,4.270237279794582,-0.4533333333333333,-0.26666666666666666,-0.4211111111111111,-0.01830951321097536,0.015037067025019411,0.04420016226300821
1592167925.2294087,0.18098675088455815,8.965321104872862,4.071661803885578,-0.4475518824054768,-0.255929686372076,-0.4417591501391701,-0.031274856296159934,0.03357565749860845,0.019363
1592167925.2394087,0.06949044521882644,9.014386925072277,4.12854740050829,-0.44555555555555554,-0.25222222222222224,-0.4488888888888889,-0.04327961723087692,-0.031664367318695125,0.04035725048713646
1592167925.2494087,0.22899373765691125,8.93755990333565,4.215264469968237,-0.44555555555555554,-0.25222222222222224,-0.4488888888888889,-0.042786,0.013057667267231933,0.03455797862703375
1592167925.2594087,0.27912324327429733,8.962821519055675,4.137872073328146,-0.44555555555555554,-0.25222222222222224,-0.4488888888888889,-0.0523236311982779,0.006111774944664502,0.013610111569891132
1592167925.2694087,0.15369844800624213,8.97458591370379,4.05587348948953,-0.44555555555555554,-0.25222222222222224,-0.4488888888888889,-0.062191854246006505,-0.022629986229259248,0.006732471014106959
1592167925.2794087,0.0823429442379586,9.011466223279006,4.267099478486876,-0.44960883703485216,-0.26276075406839344,-0.45051020148060755,-0.06780467740037516,-0.037729257777339945,0.020962797681087268
1592167925.2894087,0.2509886381190944,8.899615222538156,4.250150022341571,-0.45111111111111113,-0.26666666666666666,-0.45111111111111113,-0.06616382634655178,0.0029279523957920404,0.00019399746706113934
1592167925.2994087,0.19677279954229362,8.930998748269591,4.109617208540655,-0.45111111111111113,-0.26666666666666666,-0.45111111111111113,-0.07547582564153799,-0.0065880175866767235,-0.030545194565724784
1592167925.3094087,0.16622202538084607,8.973117460787005,4.192876910468034,-0.45111111111111113,-0.26666666666666666,-0.45111111111111113,-0.083252,-0.00021200068270226143,-0.03545399609642936
1592167925.3194087,0.13327073457484093,9.045107394633959,4.287169461517073,-0.45111111111111113,-0.26666666666666666,-0.45111111111111113,-0.08432,-0.0025750325682681896,-0.015204107898160695
1592167925.3294086,0.16075807626909724,8.942833119667007,4.427526596588562,-0.4595499296765119,-0.27126965861143076,-0.47566040148318633,-0.07184872007714294,5.564873078608068e-05,0.017598474462561197
1592167925.3394086,0.27559763464524467,9.01470879006578,4.510871106290203,-0.4633333333333333,-0.2733333333333333,-0.4866666666666667,-0.05040603875611105,0.017101132280257676,0.026120828963631274
1592167925.3494086,0.30110037271835566,8.991824382288291,4.458556834388599,-0.4633333333333333,-0.2733333333333333,-0.4866666666666667,-0.023050187166017515,0.03499039896288594,0.016379788203131577
1592167925.3594086,0.14533114777770156,8.97519088668456,4.345464962934505,-0.4633333333333333,-0.2733333333333333,-0.4866666666666667,-0.006508139040770888,0.03900886095922911,-0.001938
1592167925.3694086,0.04998887665545518,8.989347505685721,4.295711806641646,-0.4633333333333333,-0.2733333333333333,-0.4866666666666667,0.00820945332995075,0.040250134584042974,-0.005142
1592167925.3794086,0.06584307798460293,8.978884752767309,4.399934463670611,-0.46930707447912035,-0.2682129837798016,-0.48495988348215613,0.021754088860595967,0.048106194431455404,-0.010895110263217904
1592167925.3894086,0.042301243961034726,8.919752375604379,4.400164973404316,-0.4711111111111111,-0.26666666666666666,-0.48444444444444446,0.0401116519263268,0.09060227745721687,-0.03139413131511311
1592167925.3994086,-0.19018451384881724,9.006560421831121,4.338448681745832,-0.4711111111111111,-0.26666666666666666,-0.48444444444444446,0.044381618212013176,0.02027567731226801,-0.0399000308069987
1592167925.4094086,-0.2352511599268753,8.947180298069346,4.412396319061299,-0.4711111111111111,-0.26666666666666666,-0.48444444444444446,0.04735108266595063,0.04702133949863704,0.0016749173340493673
1592167925.4194086,-0.09110702454485863,8.934590842686077,4.353176742982979,-0.4711111111111111,-0.26666666666666666,-0.48444444444444446,0.05869170945150745,0.028291131685576034,-0.02711069281029505
1592167925.4294086,-0.24159880283901503,8.888210797033372,4.302270692632831,-0.4711111111111111,-0.27096857028219873,-0.512406817945403,0.053307973188851054,-0.01177474352028153,-0.04339287230445684
1592167925.4394085,-0.22583397692149387,8.912511328026975,4.146066827586541,-0.4711111111111111,-0.2733333333333333,-0.5277777777777778,0.03389522822562521,0.012968390986334847,-0.01584643503759548
1592167925.4494085,-0.09051346092138633,8.8908823818173,4.108027792124514,-0.4711111111111111,-0.2733333333333333,-0.5277777777777778,-0.0009221219390716633,-0.0031088230468214306,0.006979598023181161
1592167925.4594085,-0.07009323982348066,8.893458452196231,4.058051769147533,-0.4711111111111111,-0.2733333333333333,-0.5277777777777778,-0.032413439450054475,0.0015052987986210313,0.020364120286003276
1592167925.4694085,-0.05122792633587384,8.872477815562819,4.213246023530548,-0.4711111111111111,-0.2733333333333333,-0.5277777777777778,-0.05335539220986514,0.013174943533315296,0.005634610734833187
1592167925.4794085,-0.17855861324420375,8.903945293041659,4.344729688825334,-0.4711111111111111,-0.26852018596060406,-0.517349291803531,-0.05967235587405439,0.020207349991096808,-0.0323652482006865
1592167925.4894085,-0.3083636271806701,8.978135337370956,4.563404423832723,-0.4711111111111111,-0.26666666666666666,-0.5133333333333333,-0.04486164865389279,0.02918481441939918,-0.003107025221923007
1592167925.4994085,-0.22282049250139302,8.923144885049947,4.653302056302376,-0.4711111111111111,-0.26666666666666666,-0.5133333333333333,-0.013404165283396672,0.06882761978792097,-0.01768125607151597
1592167925.5094085,-0.17103123942443976,8.942107494852216,4.6954818920287495,-0.4711111111111111,-0.26666666666666666,-0.5133333333333333,0.015752640230709214,0.051059956143111616,-0.05463646742275646
1592167925.5194085,-0.3299176312261932,8.957380590098207,4.584540002892421,-0.4711111111111111,-0.26666666666666666,-0.5133333333333333,0.043759138440110826,0.05313803552450272,-0.07269216355200998
1592167925.5294085,-0.5243529097084731,9.015471932669298,4.4978753904798054,-0.4797431561771126,-0.2882467793316704,-0.5212460413105013,0.06421395368196119,0.011889448755686515,-0.052460644595003415
1592167925.5394084,-0.5057150640562309,8.986845807224743,4.303238274958652,-0.48444444444444446,-0.3,-0.5255555555555556,0.07610079010865758,-0.0026019963831219544,-0.020896612003834348
1592167925.5494084,-0.3435736552064406,8.969459759511514,4.112462279341492,-0.48444444444444446,-0.3,-0.5255555555555556,0.06947686861244565,-0.0195693187247981,-0.010468
1592167925.5594084,-0.349008255790408,8.94986948868198,4.041500050804916,-0.48444444444444446,-0.3,-0.5255555555555556,0.05051373383116799,-0.03820052330279419,-0.010493876410957965
1592167925.5694084,-0.37896042393839136,8.964255049922913,4.10468519050925,-0.48444444444444446,-0.3,-0.5255555555555556,0.03496492514367717,-0.043236478546571255,0.006136900386595472
1592167925.5794084,-0.3080980506762753,8.9497766450554,4.327847165692161,-0.4642534533269358,-0.2872123722922445,-0.5356510511143099,0.02679120779258716,-0.05031353845371739,0.002171891971725003
1592167925.5894084,-0.24732102423986704,8.915833662016338,4.58076772662656,-0.45111111111111113,-0.2788888888888889,-0.5422222222222223,0.04064871889251391,-0.027093664010629133,-0.021446080626036975
1592167925.5994084,-0.34107852845270054,8.966035810304561,4.691427158554967,-0.45111111111111113,-0.2788888888888889,-0.5422222222222223,0.07036618999428122,-0.0633718443966187,-0.0637838443966187
1592167925.6094084,-0.41957567856554767,9.022974518531514,4.54497369070331,-0.45111111111111113,-0.2788888888888889,-0.5422222222222223,0.10226572670337992,-0.0851488385873677,-0.07533164539824114
1592167925.6194084,-0.4876907515011621,9.000604494745952,4.429955699750368,-0.45111111111111113,-0.2788888888888889,-0.5422222222222223,0.12330121289821504,-0.1241448298597497,-0.0560351781777287
1592167925.6294084,-0.40610524872968734,8.962423940159988,4.334015314723669,-0.4582126261480417,-0.2827624425453965,-0.5448045913265607,0.1348491054641109,-0.14660759950445368,-0.045995357806036474
1592167925.6394083,-0.3635899745200842,9.064679732707983,4.196350094654356,-0.4633333333333333,-0.28555555555555556,-0.5466666666666666,0.13623332712510924,-0.18184596724807842,-0.00969623437834756
1592167925.6494083,0.035144236774453524,8.991233093090857,4.278908523559063,-0.4633333333333333,-0.28555555555555556,-0.5466666666666666,0.13462394126149693,-0.12230973778322188,0.012023633735747108
1592167925.6594083,0.1961410043504074,8.946640181062769,4.138953707489709,-0.4633333333333333,-0.28555555555555556,-0.5466666666666666,0.12028471551403264,-0.11004674160044367,-0.03162560068200517
1592167925.6694083,-0.11165634011834222,9.076588137409916,4.331151847323745,-0.4633333333333333,-0.28555555555555556,-0.5466666666666666,0.1282829321688899,-0.18193676776574605,-0.013698738737552441
1592167925.6794083,-0.07883003017934995,8.974339648989533,4.469878606327515,-0.45693494157822195,-0.28555555555555556,-0.5478300106221414,0.16808569537791787,-0.11017371801948475,0.017227
1592167925.6894083,0.16271382727513112,8.970506760675537,4.289115853163934,-0.45111111111111113,-0.28555555555555556,-0.5488888888888889,0.1775637163699344,-0.08621766925047522,-0.0045393395916281795
1592167925.6994083,0.03113915616476154,9.107130572029337,3.910171618873032,-0.45111111111111113,-0.28555555555555556,-0.5488888888888889,0.16796824161639806,-0.09788374308647427,-0.025712283073342057
1592167925.7094083,0.012009690771804719,9.005141910502227,3.929111372074226,-0.45111111111111113,-0.28555555555555556,-0.5488888888888889,0.15357030882223774,-0.09346139232718619,-0.009397639766222914
1592167925.7194083,0.028019670152887383,9.071450893468445,3.8509840851219086,-0.45111111111111113,-0.28555555555555556,-0.5488888888888889,0.13824481424013985,-0.08321540254670301,0.012870032963201241
1592167925.7294083,0.20671513429111554,8.969717281864565,4.056793670126496,-0.4614259253964169,-0.2947242793647163,-0.563788065078775,0.123398,-0.036464966838701506,0.03092387391567559
1592167925.7394083,0.21550307557642231,9.052915008236724,4.075370071643825,-0.4711111111111111,-0.30333333333333334,-0.5777777777777777,0.123398,-0.002868761771220145,0.01643464763349666
1592167925.7494082,0.20478682436134585,9.056602800872346,4.274701194144827,-0.4711111111111111,-0.30333333333333334,-0.5777777777777777,0.1326592737463617,0.021788965816715605,0.045288024717329345
1592167925.7594082,0.29888170433538175,9.051193052057666,4.17958013974172,-0.4711111111111111,-0.30333333333333334,-0.5777777777777777,0.14939004966445737,0.09115944108286866,0.04599
1592167925.7694082,0.3458276179055207,8.98663345362718,4.097761039238428,-0.4711111111111111,-0.30333333333333334,-0.5777777777777777,0.1514531521932502,0.10960506766828962,0.03250054928560705
1592167925.7794082,0.26359277252401675,9.059089976597264,4.02812321302789,-0.4594949665246728,-0.30333333333333334,-0.5777777777777777,0.146835,0.13390875004218797,0.02240224995781203
1592167925.7894082,0.20155587543369927,9.099207248450476,3.9745817751706136,-0.44222222222222224,-0.30333333333333334,-0.5777777777777777,0.14151,0.13793522461644783,0.021160312027684314
1592167925.7994082,0.12890410822183726,9.067691921262684,3.8840529272481814,-0.44222222222222224,-0.30333333333333334,-0.5777777777777777,0.13417793138537032,0.14155711348419844,0.03299490606835003
1592167925.8094082,0.11734711742752862,9.121705923160865,3.970344003003518,-0.44222222222222224,-0.30333333333333334,-0.5777777777777777,0.11813936879851722,0.10898578991438883,0.06030771729752738
1592167925.8194082,0.23617002784936456,9.031707601560372,4.109689221511593,-0.44222222222222224,-0.30333333333333334,-0.5777777777777777,0.12449814143741762,0.15888289263054003,0.05880914143741763
1592167925.8294082,0.18756306140582604,9.121812794240983,4.153323053497334,-0.439976919606794,-0.30520441884619015,-0.5822683830086341,0.12876230901149457,0.13382880441674444,0.06945318689513401
1592167925.8394082,0.24234578500372966,9.037910291900216,4.107737724644527,-0.43555555555555553,-0.3088888888888889,-0.5911111111111111,0.14248510466597555,0.1737285628509441,0.07165689533402445
1592167925.8494081,0.23525965407521138,9.085879595793788,3.9518393206173204,-0.43555555555555553,-0.3088888888888889,-0.5911111111111111,0.1406469592250125,0.16242449329290212,0.05796447937106543
1592167925.8594081,0.24875728216656726,9.075756595848556,3.9430548434280515,-0.43555555555555553,-0.3088888888888889,-0.5911111111111111,0.13921704291379497,0.18588746259378494,0.04852013174970673
1592167925.8694081,0.2501774543107015,9.147571822497358,3.7435507609896908,-0.43555555555555553,-0.3088888888888889,-0.5911111111111111,0.12127427225087578,0.16880068988542823,0.04652536387456211
1592167925.8794081,0.13168650364603315,9.119415623767724,3.8244624280651562,-0.44105416626492644,-0.3052231484159749,-0.5970679393795962,0.10549853164857051,0.1336178130523563,0.07477700703482666
1592167925.889408,0.25779847880958784,9.072889521190412,3.9136535578098517,-0.4488888888888889,-0.3,-0.6055555555555555,0.10226687192701314,0.15417448608534162,0.07151284572040735
1592167925.899408,0.22227997443409764,9.103128293558434,3.92931247237953,-0.4488888888888889,-0.3,-0.6055555555555555,0.09696764215878588,0.12786755956408577,0.0555004489658566
1592167925.909408,0.15723715519501696,9.120741484878234,3.9076728536917575,-0.4488888888888889,-0.3,-0.6055555555555555,0.09127259143649452,0.11402510930211937,0.059557688940107566
1592167925.919408,0.2445677220320332,9.027466103719062,3.8044895142633415,-0.4488888888888889,-0.3,-0.6055555555555555,0.08362175864761426,0.10870091675729687,0.030476348013936786
1592167925.929408,0.20978089409104916,9.15209508570325,3.731054306654653,-0.4488888888888889,-0.3058060167447141,-0.6076946143562396,0.06546598830067364,0.0969153367039968,0.017439651596676844
1592167925.939408,0.16815685454279344,9.154853870386104,3.7809691446884233,-0.4488888888888889,-0.3211111111111111,-0.6133333333333333,0.0528453864497307,0.09202440974092843,0.03721677231711073
1592167925.949408,0.335075028255619,9.115086802739592,3.779128245702987,-0.4488888888888889,-0.3211111111111111,-0.6133333333333333,0.04201941961034481,0.1068682949448587,0.04275433016664593
1592167925.959408,0.33771196828046457,9.090625682233002,3.726476627509239,-0.4488888888888889,-0.3211111111111111,-0.6133333333333333,0.02941251339942909,0.0991428576795744,0.011374857679574395
1592167925.969408,0.22190575814142396,9.147168533269827,3.8299382750924753,-0.4488888888888889,-0.3211111111111111,-0.6133333333333333,0.019150522410242357,0.0933661694464271,0.01095534592833473
1592167925.979408,0.25361486440774056,9.14575191521484,3.8797496933502513,-0.4398209803603562,-0.31909602032699275,-0.6163559695095109,0.017307859578702293,0.1128888595787023,0.020194486707414215
1592167925.989408,0.3558012698056743,9.160227338509118,3.852352091997809,-0.4088888888888889,-0.31222222222222223,-0.6266666666666667,0.015341912849512258,0.10685380243410704,0.014225889584594777
1592167925.999408,0.3458729061512116,9.136377434888068,3.8790905585120012,-0.4088888888888889,-0.31222222222222223,-0.6266666666666667,0.01622164269475049,0.12087772074288983,0.01632641293646915
1592167926.009408,0.24137374570547937,9.179482581901826,3.9325202181330425,-0.4088888888888889,-0.31222222222222223,-0.6266666666666667,0.01902897781257607,0.0961785313947988,0.031694605120051886
1592167926.019408,0.14548902115364018,9.139228716069303,3.909538054922668,-0.4088888888888889,-0.31222222222222223,-0.6266666666666667,0.022720531816755776,0.07413521911672377,0.026391074516262537
1592167926.029408,0.14028193213707896,9.109972668983142,3.8281820787928775,-0.4109196186694791,-0.31476063444796,-0.6238744132183551,0.022374588232157606,0.06387740408904248,0.011100463975704092
1592167926.039408,0.13136669410416996,9.165258466716514,3.816185957849287,-0.4177777777777778,-0.3233333333333333,-0.6144444444444445,0.01914561338528329,0.03465345831258082,0.022164705585525697
1592167926.049408,0.20534201987743617,9.206082884607781,3.819482806422974,-0.4177777777777778,-0.3233333333333333,-0.6144444444444445,0.014313530222821011,0.02271431130167449,0.057185951486698916
1592167926.059408,0.4273396342780736,9.204113410680163,3.7832807093807013,-0.4177777777777778,-0.3233333333333333,-0.6144444444444445,0.010219092933165499,0.02525463925080396,0.08606357947419443
1592167926.069408,0.6513703349196827,9.08185792247946,3.7070166823683257,-0.4177777777777778,-0.3233333333333333,-0.6144444444444445,-0.0031481428190295855,0.06281630431330126,0.04184956281991875
1592167926.079408,0.451706934635589,9.192436636519163,3.752439315288996,-0.4202964890623784,-0.32249376290513315,-0.6308160677943483,-0.008028172690042912,0.05258229144107794,0.024997491804410764
1592167926.089408,0.5149824450279468,9.110782330053343,3.6660006928202002,-0.42444444444444446,-0.3211111111111111,-0.6577777777777778,-0.010478253428060138,0.11970571350484005,0.032605418623481486
1592167926.099408,0.5425582738003234,9.182629017369004,3.3350312720682718,-0.42444444444444446,-0.3211111111111111,-0.6577777777777778,-0.044167881080636066,0.12187114168779592,0.02040102295634711
1592167926.109408,0.3879378533606503,9.236142010499796,3.413743507548604,-0.42444444444444446,-0.3211111111111111,-0.6577777777777778,-0.0817528714376804,0.10384398764432562,0.05803725583785535
1592167926.119408,0.411711143163557,9.120599421932324,3.445843630844486,-0.42444444444444446,-0.3211111111111111,-0.6577777777777778,-0.11846842910759553,0.11619189687866072,0.06914282917572105
1592167926.129408,0.367900479460403,9.073228197608145,3.5127360521431075,-0.4171954022988506,-0.3211111111111111,-0.6554712643678161,-0.15791451735987405,0.09173444043717051,0.024983481374704727
1592167926.1394079,0.2409062576273323,9.104271160093495,3.7317249576448095,-0.4,-0.3211111111111111,-0.65,-0.18561928588632148,0.09852606257818151,0.0059163490056464
1592167926.1494079,0.19440654945678404,9.114222254846542,3.8905959587822974,-0.4,-0.3211111111111111,-0.65,-0.200439,0.07025988933606316,0.0026263756388183864
1592167926.1594079,0.16640944262708454,9.216596473039402,4.118772172386009,-0.4,-0.3211111111111111,-0.65,-0.1883604522510081,0.04225047547281056,0.04675463864562221
1592167926.1694078,0.5172514222234261,9.086690605049892,4.250375609833075,-0.4,-0.3211111111111111,-0.65,-0.15921931447021093,0.11360615202735003,0.0953977161013645
1592167926.1794078,0.727707,9.05485042793742,4.140144145623763,-0.4018086711598431,-0.32261833707764703,-0.6539187875129934,-0.1457228161606929,0.11153222297911228,0.0730866418999678
1592167926.1894078,0.5388637654189937,9.082121744800615,4.210719787197636,-0.4066666666666667,-0.32666666666666666,-0.6644444444444444,-0.12784384031644963,0.08912123098650712,0.051112538026985746
1592167926.1994078,0.3553838015306825,9.07171579083249,4.274689281951914,-0.4066666666666667,-0.32666666666666666,-0.6644444444444444,-0.10790985952834017,0.08277787248784933,0.031206190976282966
1592167926.2094078,0.19603805957160586,9.052870509046887,4.337137958563378,-0.4066666666666667,-0.32666666666666666,-0.6644444444444444,-0.0848611996512742,0.04817748524603957,0.02165091058173184
1592167926.2194078,0.19605613589589196,9.073891553635034,4.43847209988695,-0.4066666666666667,-0.32666666666666666,-0.6644444444444444,-0.058732810647046496,0.010095299018913945,0.025478888401675656
1592167926.2294078,0.44787544029792664,9.021248532326101,4.493611807728213,-0.4056955996081129,-0.3256955996081129,-0.6655920691500079,-0.01808609868268662,0.050369107734790114,-0.01017664997634936
1592167926.2394078,0.5294429515130041,9.051138586486635,4.336332580410311,-0.39444444444444443,-0.31444444444444447,-0.6788888888888889,0.012064108278446584,0.06627470262895294,-0.06417973018563353
1592167926.2494078,0.40285210855594533,9.087910343393718,4.273880283088399,-0.39444444444444443,-0.31444444444444447,-0.6788888888888889,0.036195834781618655,0.0400220580902096,-0.0870071517689646
1592167926.2594078,0.28305321223174357,9.14776724570795,4.341522306873959,-0.39444444444444443,-0.31444444444444447,-0.6788888888888889,0.05927351796335671,0.01360248203664329,-0.06980854189541533
1592167926.2694077,0.3072896646427781,9.127654859682167,4.305599250176099,-0.39444444444444443,-0.31444444444444447,-0.6788888888888889,0.0914393946942021,-0.0008881190961323561,-0.03198923240060211
1592167926.2794077,0.28479319019460236,9.110326347477656,4.135443885521443,-0.3940890806394464,-0.31444444444444447,-0.6783913795618917,0.11182536676054036,-0.018965508312861014,-0.02226093296982299
1592167926.2894077,0.193510262409642,9.06866312064569,3.9843253077540806,-0.3888888888888889,-0.31444444444444447,-0.6711111111111111,0.11516019460279851,-0.02946208364048226,-0.04183001843751758
1592167926.2994077,0.05191367870111763,9.098693130162365,3.9874341002407006,-0.3888888888888889,-0.31444444444444447,-0.6711111111111111,0.11823109275800253,-0.04627906780422444,-0.040749650665060685
1592167926.3094077,-0.011656099261027614,9.109091022907041,4.034384022907042,-0.3888888888888889,-0.31444444444444447,-0.6711111111111111,0.12600738602004297,-0.08243690309314507,-0.014635545033735946
1592167926.3194077,0.20629342103720516,9.14907769598804,4.044669094999257,-0.3888888888888889,-0.31444444444444447,-0.6711111111111111,0.1361253066445713,-0.055413493381604055,0.018193550558067262
1592167926.3294077,0.41600556248425197,9.109874270660503,3.8785311927436976,-0.38806951842884047,-0.3146720473500135,-0.6714752757600215,0.134174090367582,-0.04860764250773015,8.644785985184936e-05
1592167926.3394077,0.29237579928764573,9.116273377976105,3.871904301561275,-0.3688888888888889,-0.32,-0.68,0.12721741890185922,-0.09658256814029323,-0.003413094207090929
1592167926.3494077,0.22876810031247616,9.139069397572829,3.863817862278356,-0.3688888888888889,-0.32,-0.68,0.1278290592690329,-0.05861449840121852,0.012237474397599504
1592167926.3594077,0.28731216716969665,9.098299876565106,3.7304288341645626,-0.3688888888888889,-0.32,-0.68,0.11810334896845238,-0.06406783624779308,0.006823360806216988
1592167926.3694077,0.28250825695332227,9.163488519363932,3.6286237590280925,-0.3688888888888889,-0.32,-0.68,0.09329208616937877,-0.08854389468803062,-0.004250789415767602
1592167926.3794076,0.3996918246765923,9.15819948252987,3.5895228065840272,-0.3705759711672255,-0.3208435411391683,-0.6773287863926337,0.07658987905901098,-0.062256,-0.016813596970612334
1592167926.3894076,0.47430893959462067,9.13954466847236,3.5907592114946576,-0.38222222222222224,-0.32666666666666666,-0.6588888888888889,0.052838740005659746,-0.06707734042847173,-0.03478388355878297
1592167926.3994076,0.476909639768803,9.138814621676337,3.58293651375545,-0.38222222222222224,-0.32666666666666666,-0.6588888888888889,0.035006632917389674,-0.04546740369160733,-0.039949158875115715
1592167926.4094076,0.48711436674107084,9.212280974937237,3.4948231832438386,-0.38222222222222224,-0.32666666666666666,-0.6588888888888889,0.01279865945531151,-0.05043946209233538,-0.027957676952140693
1592167926.4194076,0.4955245562345477,9.183759643524613,3.568007611594491,-0.38222222222222224,-0.32666666666666666,-0.6588888888888889,-0.012855077434526036,-0.040939,-0.002929141350572223
1592167926.4294076,0.5037838924658944,9.189498070851991,3.5668401027221983,-0.38099549384283954,-0.32692223507903806,-0.6582244110167232,-0.034947284990561246,-0.05197908500327851,0.02227454000039678
1592167926.4394076,0.5173197408859573,9.146144334594803,3.785178119036138,-0.35555555555555557,-0.3322222222222222,-0.6444444444444445,-0.05024787376581694,-0.036587303775863056,0.030668236078042938
1592167926.4494076,0.4549229018768796,9.128986429963014,3.7467667726472476,-0.35555555555555557,-0.3322222222222222,-0.6444444444444445,-0.05682942690863873,-0.03175144602992141,0.0018488953249055145
1592167926.4594076,0.2687530125452611,9.132973365317701,3.649824995191652,-0.35555555555555557,-0.3322222222222222,-0.6444444444444445,-0.07588484369540024,-0.08896184369540024,-0.010468
1592167926.4694076,0.25809068245093697,9.172347445565013,3.7409450132150672,-0.35555555555555557,-0.3322222222222222,-0.6444444444444445,-0.08940562797542305,-0.11342249485874989,0.002874180282829447
1592167926.4794075,0.5420045644442438,9.130360475295083,3.769899930510869,-0.35615858238036535,-0.332825249047032,-0.646454533860477,-0.09887917227406806,-0.12053310239349739,0.005658587720411648
1592167926.4894075,0.7767978004714787,9.103628702068011,3.6203130995906823,-0.3622222222222222,-0.3388888888888889,-0.6666666666666666,-0.11313397927444253,-0.08309044815161945,-0.04901125664486678
1592167926.4994075,0.6770168185906471,9.151764092682416,3.48957180809278,-0.3622222222222222,-0.3388888888888889,-0.6666666666666666,-0.1482134754636435,-0.11780871687501736,-0.07652057280905107
1592167926.5094075,0.5922303465049212,9.117451500315367,3.541975627450217,-0.3622222222222222,-0.3388888888888889,-0.6666666666666666,-0.18203323294714266,-0.12403194390775174,-0.056722634636148836
1592167926.5194075,0.706187617841068,9.150619306915203,3.6826812853139783,-0.3622222222222222,-0.3388888888888889,-0.6666666666666666,-0.20996093802833632,-0.11538292616479916,-0.03371580304785678
1592167926.5294075,0.6745509777435863,9.13342356738137,3.8637940283304006,-0.3622222222222222,-0.3388888888888889,-0.6666666666666666,-0.22300556017487685,-0.11590074001144696,-0.014714587692237048
1592167926.5394075,0.604597016053005,9.112614222129636,3.9166092722668435,-0.35555555555555557,-0.3322222222222222,-0.6666666666666666,-0.22508498270190958,-0.12027208923901078,-0.004285459017877549
1592167926.5494075,0.5651203150382601,9.081019580782362,3.862586122736135,-0.35555555555555557,-0.3322222222222222,-0.6666666666666666,-0.22937115178374212,-0.0935731940575372,-0.009780376279153602
1592167926.5594075,0.5744112856310717,9.034564853544353,3.792880787596752,-0.35555555555555557,-0.3322222222222222,-0.6666666666666666,-0.24099695721616218,-0.06966825797044741,-0.0319040949381476
1592167926.5694075,0.51006221368876,9.023342262550118,3.860539395042147,-0.35555555555555557,-0.3322222222222222,-0.6666666666666666,-0.2588786433292847,-0.06021637111871957,-0.06449986854597863
1592167926.5794075,0.46850772009186453,9.082988423630534,4.007965859688931,-0.3556515143383603,-0.33243013291829904,-0.6664587559705898,-0.26638546142134834,-0.06109375546981131,-0.06720707176100015
1592167926.5894074,0.5062330961744803,9.074383917754657,4.169813508276062,-0.3622222222222222,-0.3466666666666667,-0.6522222222222223,-0.2645195136002731,-0.062335726802399787,-0.0534882525637049
1592167926.5994074,0.6028257743826277,9.038294854244931,4.328635888596452,-0.3622222222222222,-0.3466666666666667,-0.6522222222222223,-0.2473344701086229,-0.0530930405832699,-0.053085
1592167926.6094074,0.6216023170016406,9.02932714708441,4.4186254615067835,-0.3622222222222222,-0.3466666666666667,-0.6522222222222223,-0.22244946425226012,-0.05131804903074386,-0.05786312329484609
1592167926.6194074,0.5654506056102395,9.051088596374004,4.4348519041819525,-0.3622222222222222,-0.3466666666666667,-0.6522222222222223,-0.19388229740913837,-0.06781265928648926,-0.04743156653927369
1592167926.6294074,0.5645367021539186,9.032113848268107,4.442186167820041,-0.3622222222222222,-0.3466666666666667,-0.6522222222222223,-0.16933901844788987,-0.06601986985544275,-0.016539641536025433
1592167926.6394074,0.5652010001461045,8.989672418316175,4.375327699386332,-0.3477777777777778,-0.31444444444444447,-0.6588888888888889,-0.1521720347253,-0.055467017467878056,-0.004691211253876599
1592167926.6494074,0.5015132222687732,8.945665596398408,4.217033034747405,-0.3477777777777778,-0.31444444444444447,-0.6588888888888889,-0.146103,-0.06422542330786722,-0.01371039133377691
1592167926.6594074,0.3567207963926992,8.968568810248385,4.29482017942766,-0.3477777777777778,-0.31444444444444447,-0.6588888888888889,-0.149307,-0.078232,-0.012379053610481083
1592167926.6694074,0.38909104011536444,8.99383446659567,4.374365004579862,-0.3477777777777778,-0.31444444444444447,-0.6588888888888889,-0.14490804449295502,-0.0569914468386227,0.007741086894178763
1592167926.6794074,0.4877118771453787,8.959711137571212,4.528044055523196,-0.3477777777777778,-0.31444444444444447,-0.6588888888888889,-0.1274878639675721,-0.022214274585816634,0.015031328236161018
1592167926.6894073,0.6275009079178198,8.927144603244528,4.634434602763421,-0.37444444444444447,-0.31444444444444447,-0.6644444444444444,-0.09383564346015635,0.028004777346994067,-0.014483014082732962
1592167926.6994073,0.5646024532327355,8.944790053772074,4.657892945558812,-0.37444444444444447,-0.31444444444444447,-0.6644444444444444,-0.05848259194847903,0.059599252921329456,-0.044966252921329455
1592167926.7094073,0.36612674333065115,8.962892575158683,4.655433707868575,-0.37444444444444447,-0.31444444444444447,-0.6644444444444444,-0.023182766196639056,0.07347174203769859,-0.057983257962301415
1592167926.7194073,0.21806295701207914,8.999817,4.544943367273157,-0.37444444444444447,-0.31444444444444447,-0.6644444444444444,0.004416475777324392,0.05580780517546574,-0.056274
1592167926.7294073,0.049368175250350005,8.96537472749976,4.494819224370731,-0.37444444444444447,-0.31444444444444447,-0.6644444444444444,0.023565358578761623,0.02566371866377678,-0.0449154893539475
1592167926.7394073,0.007864628486310615,8.949487938923616,4.473029849636543,-0.33555555555555555,-0.32666666666666666,-0.6577777777777778,0.034528484585889405,0.010637515414110593,-0.012818258423457522
1592167926.7494073,0.16777619866910115,8.945737621493022,4.4507495473297665,-0.33555555555555555,-0.32666666666666666,-0.6577777777777778,0.0450325983883014,0.01594334111893572,0.024486168679517185
1592167926.7594073,0.14967380325135887,8.953605610108433,4.423385005054443,-0.33555555555555555,-0.32666666666666666,-0.6577777777777778,0.0555362490729599,0.02026387910967026,0.047671955469689366
1592167926.7694073,0.10199836521502233,8.996414184190183,4.3779712029932165,-0.33555555555555555,-0.32666666666666666,-0.6577777777777778,0.06816910199543484,0.032752028767485036,0.0670060426576354
1592167926.7794073,0.17057854047738397,8.956868965590935,4.396216247501387,-0.33555555555555555,-0.32666666666666666,-0.6577777777777778,0.08211600046220494,0.06632701938554812,0.06148898107665681
1592167926.7894073,0.1823473721177401,8.967963430053276,4.385667139893449,-0.3422222222222222,-0.32666666666666666,-0.6577777777777778,0.09492403646503343,0.09022219087861592,0.04064401087130304
1592167926.7994072,0.08088374628151776,8.98269548209108,4.289540934776147,-0.3422222222222222,-0.32666666666666666,-0.6577777777777778,0.10033081318138068,0.08897556045585796,0.02644439486891961
1592167926.8094072,0.04963831547770537,9.00424144218497,4.221396297687547,-0.3422222222222222,-0.32666666666666666,-0.6577777777777778,0.09927877882193505,0.0851008805654523,0.026742298911536642
1592167926.8194072,0.03115385998567845,8.988993703183834,4.137070877757964,-0.3422222222222222,-0.32666666666666666,-0.6577777777777778,0.09199529889901752,0.07660410100145917,0.03904770110098249
1592167926.8294072,0.030330309237830047,8.959383558980921,4.0557493239882225,-0.3422222222222222,-0.32666666666666666,-0.6577777777777778,0.07800644534065618,0.06258774115303496,0.05631824544376847
1592167926.8394072,0.026079698021011587,8.996488772458521,4.060086896807482,-0.3477777777777778,-0.3388888888888889,-0.6433333333333333,0.06538581746560482,0.06472269360661802,0.07443082072409235
1592167926.8494072,0.1834365542554509,8.999321696922499,3.996772656234676,-0.3477777777777778,-0.3388888888888889,-0.6433333333333333,0.05064418959055348,0.0882311149853461,0.08341087847442298
1592167926.8594072,0.28314729790321674,9.026583391464026,4.040308443636948,-0.3477777777777778,-0.3388888888888889,-0.6433333333333333,0.03675437690453953,0.10504661241158648,0.075821
1592167926.8694072,0.18841052978029238,9.006315544012876,4.090021979994606,-0.3477777777777778,-0.3388888888888889,-0.6433333333333333,0.025612109483197202,0.0945662684938087,0.0739061094831972
1592167926.8794072,0.1290939943970799,8.973890521647398,4.175085625135424,-0.3477777777777778,-0.3388888888888889,-0.6615829136261445,0.015808,0.08387948921076509,0.06365927735866302
1592167926.8894072,0.12938414976631749,8.956019388102932,4.24496747472837,-0.3477777777777778,-0.3388888888888889,-0.6788888888888889,0.01699023583716441,0.0728585077006276,0.05135808633735077
1592167926.8994071,0.1743803841796695,8.98722869257514,4.273576915746536,-0.3477777777777778,-0.3388888888888889,-0.6788888888888889,0.019183670104514623,0.04597100362727941,0.036234115821196025
1592167926.9094071,0.21684291672624725,9.01386097832673,4.255345403176483,-0.3477777777777778,-0.3388888888888889,-0.6788888888888889,0.025443214527699726,0.03619389236781957,0.03199335641690082
1592167926.9194071,0.24292029084072667,9.006653058083483,4.173873312631256,-0.3477777777777778,-0.3388888888888889,-0.6788888888888889,0.02324557901946003,0.012143739118819651,0.029092182891940096
1592167926.9294071,0.25946305851313184,9.02042119831148,4.182864365756475,-0.3477777777777778,-0.3388888888888889,-0.6788888888888889,0.021136375925244196,0.006982301835881253,0.0395835531434146
1592167926.939407,0.3413542163288257,9.042519478516503,4.1181927456870495,-0.33555555555555555,-0.3322222222222222,-0.6433333333333333,0.022233166515368354,0.014325771670483996,0.051221938185852356
1592167926.949407,0.3418589969924139,9.036565453964116,4.046341415240028,-0.33555555555555555,-0.3322222222222222,-0.6433333333333333,0.012879657891716877,0.01877239408699874,0.05144584940441601
1592167926.959407,0.3120935811640382,8.977519906548606,3.981679764267953,-0.33555555555555555,-0.3322222222222222,-0.6433333333333333,-0.004470464198908214,0.0034752811147122573,0.03733634796633063
1592167926.969407,0.2675713274265906,8.95091989613341,4.034112173734527,-0.33555555555555555,-0.3322222222222222,-0.6433333333333333,-0.020625527278720985,-0.008383791264999899,0.011214380635814324
1592167926.979407,0.2771494017271124,9.01198314969155,4.247014525622475,-0.33555555555555555,-0.3322222222222222,-0.6433333333333333,-0.025888546486764325,-0.01508344933866103,0.002319
1592167926.989407,0.361872130565171,8.99665989630618,4.4747942205411375,-0.33555555555555555,-0.3322222222222222,-0.6496201785160974,-0.008675034466293698,-0.007193238054077207,0.0007127072362559639
1592167926.999407,0.3513005993455716,8.98204121873315,4.382543320535533,-0.33555555555555555,-0.3322222222222222,-0.65,0.015192589107898696,0.00017636774508771698,-0.016245391732955316
1592167927.009407,0.25838364872388286,8.984593552823021,4.207278846575553,-0.33555555555555555,-0.3322222222222222,-0.65,0.022202,0.003321819625412149,-0.03389681590107949
1592167927.019407,0.15718830950970167,8.981106301790755,4.066179547862141,-0.33555555555555555,-0.3322222222222222,-0.65,0.019541026523471793,-0.008991367393785124,-0.04881920560564855
1592167927.029407,0.08876460630880051,9.048095559899274,4.126597020007466,-0.33555555555555555,-0.3322222222222222,-0.65,0.012139355366404501,-0.01886417768320225,-0.03665332191083069
1592167927.039407,0.18548498492443033,9.033796221131137,4.197335197067075,-0.33555555555555555,-0.3322222222222222,-0.65,0.008347,-0.02814602835762375,-0.010488971642376253
1592167927.049407,0.31303952131896534,9.015584649751986,4.397077867948458,-0.33555555555555555,-0.3322222222222222,-0.65,0.018694468610807726,-0.030964913463262002,-0.004792234820889424
1592167927.059407,0.3666892163970557,9.016437247716553,4.584711787257176,-0.33555555555555555,-0.3322222222222222,-0.65,0.04483593928014407,-0.020784584465830824,-0.000885
1592167927.069407,0.4006591536900934,9.010357784802498,4.634158123014817,-0.33555555555555555,-0.3322222222222222,-0.65,0.08478242422298297,-0.00798140101448538,-0.003258381377928271
1592167927.079407,0.35152582520698783,8.982244368790571,4.550342614317331,-0.33555555555555555,-0.3322222222222222,-0.65,0.12012264864199024,0.0033658535772186767,-0.024654795064771563
1592167927.089407,0.20861816255186813,8.999887882589933,4.350696120549712,-0.35555555555555557,-0.3388888888888889,-0.6433333333333333,0.1419548328555373,-0.014726293948610865,-0.048335952514449804
1592167927.099407,0.18550726543517237,9.045015660902171,4.117423194005709,-0.35555555555555557,-0.3388888888888889,-0.6433333333333333,0.146835,-0.04144117349245191,-0.05087819542662481
1592167927.109407,0.2621897347378529,9.033723596878787,3.9375479431553537,-0.35555555555555557,-0.3388888888888889,-0.6433333333333333,0.13667718096879408,-0.06547250002932602,-0.04561479020654744
1592167927.119407,0.3472125221627075,9.045237747158431,3.8591957235758434,-0.35555555555555557,-0.3388888888888889,-0.6433333333333333,0.1156719477035974,-0.06817674086754605,-0.03353267058631165
1592167927.129407,0.37308929942729346,9.059442854631321,3.7659694460717335,-0.35555555555555557,-0.3388888888888889,-0.6433333333333333,0.09253937418138752,-0.05637093952943834,-0.022287964776535565
1592167927.139407,0.3270733006479284,9.025411746104925,3.7795601090860074,-0.34259475455024524,-0.3324084883862337,-0.6292924655775806,0.06541704447065068,-0.032408881621836,-0.027256810465155674
1592167927.149407,0.16832861344044414,9.060180411391418,3.782539854514779,-0.3422222222222222,-0.3322222222222222,-0.6288888888888889,0.040675506248771004,-0.01898456254995797,-0.05129455279202369
1592167927.159407,0.04740792929345053,9.069738442444587,3.8967568359835023,-0.3422222222222222,-0.3322222222222222,-0.6288888888888889,0.01979958177146894,-0.02514254358272228,-0.06033941250828841
1592167927.169407,-0.21498189809560697,9.051433873996011,3.7586531405833887,-0.3422222222222222,-0.3322222222222222,-0.6288888888888889,-0.0037569299300500647,-0.04951383851046408,-0.052682186306187415
1592167927.179407,-0.08228310516295814,9.081732961877142,4.011979205235462,-0.3422222222222222,-0.3322222222222222,-0.6288888888888889,-0.018942362870662987,-0.06334805581000233,-0.0449208959156572
1592167927.1894069,0.2276626304093367,9.044405909471907,4.172226499451008,-0.3422222222222222,-0.3322222222222222,-0.6231315566269363,-0.021024322625182307,-0.10286202650807297,-0.07027028968724862
1592167927.1994069,0.14316547461519596,9.04278427157028,4.095890482496352,-0.3422222222222222,-0.3322222222222222,-0.6222222222222222,-0.016144,-0.11797090186107602,-0.0722260729086684
1592167927.2094069,0.15979585019774628,9.02957072103405,4.107607216226248,-0.3422222222222222,-0.3322222222222222,-0.6222222222222222,-0.01672926726441443,-0.13753432510185007,-0.06455102360928296
1592167927.2194068,0.1557153663021282,9.02535805989306,4.244213403089407,-0.3422222222222222,-0.3322222222222222,-0.6222222222222222,-0.009115418270656822,-0.1323425638952677,-0.06777942737996963
1592167927.2294068,0.15286608457930156,9.067733079730855,4.364685415391142,-0.3422222222222222,-0.3322222222222222,-0.6222222222222222,0.008089798065588901,-0.11554331825690646,-0.05747892596269235
1592167927.2394068,0.1734893888813768,9.056821585642835,4.40013560217916,-0.35289821141656513,-0.327773893391246,-0.6320085456503699,0.031710297863154505,-0.0841024386170189,-0.047273263519826615
1592167927.2494068,0.18443891259608125,9.055059681161811,4.3035743554196415,-0.35555555555555557,-0.32666666666666666,-0.6344444444444445,0.05745806721496613,-0.05882161929590855,-0.03751287059907173
1592167927.2594068,0.16367372819686463,9.053948912254082,4.091292391752252,-0.35555555555555557,-0.32666666666666666,-0.6344444444444445,0.0689745062827455,-0.04743539783912798,-0.030701
1592167927.2694068,0.13282343320497428,9.028181593814935,3.968469381331119,-0.35555555555555557,-0.32666666666666666,-0.6344444444444445,0.06454466629448308,-0.04393818550417094,-0.025238796397612034
1592167927.2794068,0.06550062435003189,9.07641242479118,3.929392700425476,-0.35555555555555557,-0.32666666666666666,-0.6344444444444445,0.05383112201707834,-0.03660124696129661,-0.021037814047242562
1592167927.2894068,0.027989942839469886,9.068323392085578,3.878672318494293,-0.344302968823967,-0.3435455467640495,-0.6297558666396159,0.039145679494304635,-0.026961931179536814,-0.016823251685232184
1592167927.2994068,0.02344847807085222,9.066916351963691,3.8242059266482022,-0.3422222222222222,-0.3466666666666667,-0.6288888888888889,0.023376263195906247,-0.0038289077057800987,-0.007368852824914349
1592167927.3094068,0.023249211779456207,9.097226177235935,3.896725228655148,-0.3422222222222222,-0.3466666666666667,-0.6288888888888889,0.005549494251577539,0.025531484424899557,0.002024836371590246
1592167927.3194067,0.11945545455234463,9.076630952881588,3.968825306946394,-0.3422222222222222,-0.3466666666666667,-0.6288888888888889,-0.0022267679149648315,0.05575823640060209,0.016919156380154763
1592167927.3294067,0.108681540413634,9.064519033886233,3.9679612030148332,-0.3422222222222222,-0.3466666666666667,-0.6288888888888889,-0.0073139225016072285,0.07688237175073094,0.029280195913543423
1592167927.3394067,0.08378021409440843,9.065097791831201,4.003408495508148,-0.3370911235007426,-0.33554928610346085,-0.6237577901674093,-0.014546462756875099,0.09088441071476672,0.043191643175931604
1592167927.3494067,0.10208165729441694,9.015917690365727,3.983876248703806,-0.33555555555555555,-0.3322222222222222,-0.6222222222222222,-0.01673241581906071,0.08902,0.04903338667129409
1592167927.3594067,0.10746598477560147,9.055069161387463,3.9706558066604742,-0.33555555555555555,-0.3322222222222222,-0.6222222222222222,-0.026043017859672092,0.08675721179504144,0.042801
1592167927.3694067,0.23837965601129607,9.049878074828698,4.063288181786923,-0.33555555555555555,-0.3322222222222222,-0.6222222222222222,-0.03043849448005769,0.0857803943419202,0.0495862041975936
1592167927.3794067,0.32972512782203134,9.063715558476513,4.198580539465706,-0.33555555555555555,-0.3322222222222222,-0.6222222222222222,-0.023785858160177416,0.10242871365449223,0.04372939098305492
1592167927.3894067,0.23027606916816257,9.028283505435832,4.288312513358379,-0.33555555555555555,-0.344323857658659,-0.6222222222222222,-0.008267664619340488,0.11847555731413577,0.029780665800428777
1592167927.3994067,0.05487755772436348,9.014241455020716,4.298187560980483,-0.33555555555555555,-0.3466666666666667,-0.6222222222222222,0.01089586453553971,0.131899600108381,0.02756742147571957
1592167927.4094067,-0.03311524900789883,9.061345629267427,4.383290261029543,-0.33555555555555555,-0.3466666666666667,-0.6222222222222222,0.03086736811892194,0.13371104833843198,0.03364256243302644
1592167927.4194067,-0.040712917493047986,9.054277302700736,4.407867605606064,-0.33555555555555555,-0.3466666666666667,-0.6222222222222222,0.05577768155988096,0.11719537649607716,0.04308698405392818
1592167927.4294066,0.09873203263205915,9.08179110445994,4.360093881201034,-0.33555555555555555,-0.3466666666666667,-0.6222222222222222,0.08003681135348391,0.0913462528977095,0.044249830748777384
1592167927.4394066,0.19948537177490153,9.074010350699483,4.304023902787246,-0.33701347443548885,-0.3335453967472672,-0.6302407760618552,0.09978155715593802,0.06020051810479368,0.036807193850519615
1592167927.4494066,0.19468815194512182,9.076199432867286,4.093374387563887,-0.3377777777777778,-0.32666666666666666,-0.6344444444444445,0.10927174526594285,0.02943733864845649,0.023864924835344133
1592167927.4594066,0.19529456006096224,9.083249988672497,3.940375753404584,-0.3377777777777778,-0.32666666666666666,-0.6344444444444445,0.10759860317382576,0.012599907990951134,0.010637170388258963
1592167927.4694066,0.13704912331408475,9.046732530304961,3.8784576686323815,-0.3377777777777778,-0.32666666666666666,-0.6344444444444445,0.09613419676773866,0.004271798809101574,-0.0009594538126847419
1592167927.4794066,0.025556766920053084,9.060318863891213,3.9082676048533593,-0.3377777777777778,-0.32666666666666666,-0.6344444444444445,0.08459415547144067,0.0016356661496437729,-0.003553666925178114
1592167927.4894066,-0.05001030520857523,9.121587190877202,3.8825049875688737,-0.3271931601525262,-0.33073767344560956,-0.6238598268191929,0.07259605790020508,0.004292000716932563,0.0032142404602263034
1592167927.4994066,-0.04946667808686267,9.090113501588611,3.8783280130486144,-0.3233333333333333,-0.3322222222222222,-0.62,0.06115025421017217,0.007918491579655655,0.010230745789827828
1592167927.5094066,-0.020750678228479716,9.105038920930875,3.866498055938573,-0.3233333333333333,-0.3322222222222222,-0.62,0.05430506354129958,0.013818952042065404,0.015973767117247867
1592167927.5194066,0.03395900077523524,9.0961463289114,3.8408194440958847,-0.3233333333333333,-0.3322222222222222,-0.62,0.03893241373471789,0.013382,0.018045316587839002
1592167927.5294065,0.110255506255471,9.090908398643823,3.826659351253061,-0.3233333333333333,-0.3322222222222222,-0.62,0.029125160664152046,0.011175262605154564,0.017156262605154564
1592167927.5394065,0.16335993624492262,9.096356835896891,3.7771663213951596,-0.3318341688062925,-0.3361456847482034,-0.625231283367975,0.014405970293237324,0.007715682688421295,0.0076541759148319125
1592167927.5494065,0.18863835875679943,9.11733113015586,3.814685770423968,-0.3377777777777778,-0.3388888888888889,-0.6288888888888889,-0.00548876095897177,0.000595,-0.005985873211122477
1592167927.5594065,0.11786417061728674,9.113797817279535,3.854070051943412,-0.3377777777777778,-0.3388888888888889,-0.6288888888888889,-0.020801652597043856,0.002731,-0.013183004161188736
1592167927.5694065,0.04941029913063219,9.082586556060392,3.966688100941578,-0.3377777777777778,-0.3388888888888889,-0.6288888888888889,-0.025479578131598783,0.0035368236151052394,-0.01553082361510524
1592167927.5794065,-0.03578017377012151,9.072998508777829,4.125208195307038,-0.3377777777777778,-0.3388888888888889,-0.6288888888888889,-0.01947780309222381,0.010294451904004732,-0.011301450773055952
1592167927.5894065,-0.05162949071568921,9.090170342583106,4.170045164569001,-0.332089388309681,-0.334013126487663,-0.6394530407582115,-0.00794005510491961,0.018707,-0.007728629485450702
1592167927.5994065,-0.018458332584820363,9.09026520538435,4.237343127792666,-0.33,-0.3322222222222222,-0.6433333333333333,0.010978024874831028,0.01641205912615197,-0.001766502115953207
1592167927.6094065,-0.018313342590089366,9.076155060357435,4.259137112643542,-0.33,-0.3322222222222222,-0.6433333333333333,0.030828071752334135,0.015808241623995856,0.002319
1592167927.6194065,-0.014766511914191942,9.092822234569425,4.188429606018051,-0.33,-0.3322222222222222,-0.6433333333333333,0.04741556882115959,0.018707,0.0037405086861900362
1592167927.6294065,0.013447177376675314,9.08742331031668,4.092575492483262,-0.33,-0.3322222222222222,-0.6433333333333333,0.057626787812623835,0.01968498263283717,0.007554982632837172
1592167927.6394064,0.05761949597416785,9.100255377401973,4.062556512928645,-0.33842849558921534,-0.33611229710955237,-0.6297180712276778,0.06806438501503183,0.017808049553954153,0.006577
1592167927.6494064,0.037311641450282124,9.084447547276667,4.031352162656062,-0.34444444444444444,-0.3388888888888889,-0.62,0.06913367622070195,0.024033,0.0054794614786847365
1592167927.6594064,0.02897538418337217,9.093796,3.989491167645417,-0.34444444444444444,-0.3388888888888889,-0.62,0.07014425522644716,0.027238479086802974,0.0055087454709063545
1592167927.6694064,0.02494066309164987,9.123586245492332,3.922118276184948,-0.34444444444444444,-0.3388888888888889,-0.62,0.0711319028489751,0.03142743540094805,0.008646435400948048
1592167927.6794064,0.0279645439604916,9.102904994382495,3.8755977497511873,-0.34444444444444444,-0.3388888888888889,-0.62,0.06712278587867704,0.03262290961573388,0.009645036240663336
1592167927.6894064,0.06665000467726515,9.11562369755638,3.8275322676706636,-0.34444444444444444,-0.3388888888888889,-0.6212809179946879,0.056734100482654246,0.024477100482654245,0.006666070293985866
1592167927.6994064,0.11171899176074157,9.12344989226711,3.783132579466091,-0.34444444444444444,-0.3388888888888889,-0.6222222222222222,0.045432351874280415,0.01613287201211868,0.0016191612554724887
1592167927.7094064,0.10592888830951606,9.11834228096892,3.789055206743253,-0.34444444444444444,-0.3388888888888889,-0.6222222222222222,0.03452224354112682,0.009427182805695768,-0.004688725791456348
1592167927.7194064,0.0756739194208306,9.136042096566706,3.8700547006380903,-0.34444444444444444,-0.3388888888888889,-0.6222222222222222,0.01990408081662031,0.011779856980059676,-0.011178062203320014
1592167927.7294064,0.00022745599657864393,9.125585616148184,3.951576287713803,-0.34444444444444444,-0.3388888888888889,-0.6222222222222222,0.020309187198792822,0.020467956983178773,-0.01108513390252518
1592167927.7394063,-0.0766124270486899,9.111854902181259,4.061088902181258,-0.34444444444444444,-0.3354073209732486,-0.6146788250716683,0.02469087521559184,0.03232752735348137,-0.004542945293037263
1592167927.7494063,-0.11464786424087448,9.12520316527776,4.028200819320845,-0.34444444444444444,-0.3322222222222222,-0.6077777777777778,0.03448683958330238,0.04136188433393045,0.003394617939649395
1592167927.7594063,-0.10547623763200387,9.11616086852351,3.9686966450340364,-0.34444444444444444,-0.3322222222222222,-0.6077777777777778,0.04234683330911219,0.04165712028464562,0.015200652882143765
1592167927.7694063,-0.05035432089265363,9.118490706235583,3.982137102561074,-0.34444444444444444,-0.3322222222222222,-0.6077777777777778,0.044893345698404474,0.044381962904786576,0.022229654301595524
1592167927.7794063,0.04878252525787129,9.137169861398936,3.9603037285346505,-0.34444444444444444,-0.3322222222222222,-0.6077777777777778,0.04920853870686165,0.04461638004223285,0.023973081250905495
1592167927.7894063,0.16947672048744347,9.136937437230793,3.9114269221995346,-0.34016802459187634,-0.3322222222222222,-0.6280907720774763,0.049896,0.03925600887069509,0.017399186995649206
1592167927.7994063,0.20960318630581415,9.132745765954079,3.8854738923383,-0.33555555555555555,-0.3322222222222222,-0.65,0.046875491664704304,0.03616510257068178,-0.00011891409990961999
1592167927.8094063,0.14573314644969065,9.12886607705971,3.8698545317466864,-0.33555555555555555,-0.3322222222222222,-0.65,0.04394489631866901,0.03700379360206397,-0.011453311055027003
1592167927.8194063,-0.024492761303565966,9.121079267544202,3.850382008928692,-0.33555555555555555,-0.3322222222222222,-0.65,0.041382,0.042408837344932546,-0.01353678294371578
1592167927.8294063,-0.148054639101955,9.127765119605435,3.8502570279105814,-0.33555555555555555,-0.3322222222222222,-0.65,0.03429650964457455,0.04096459221726833,-0.003953669709224879
1592167927.8394063,-0.13557559082866827,9.1476073140645,3.8330355254748936,-0.33886209137441314,-0.3322222222222222,-0.6421469774302133,0.03019928882454788,0.029351799199124926,0.004457125294873467
1592167927.8494062,-0.056085668286297206,9.139949003472529,3.841098623574876,-0.34444444444444444,-0.3322222222222222,-0.6288888888888889,0.025449151631215403,0.020894533727443338,0.013478495076785455
1592167927.8594062,0.09341936715831577,9.130627293786674,3.8646183053323098,-0.34444444444444444,-0.3322222222222222,-0.6288888888888889,0.021614151423900396,0.018226298670976967,0.012702493354884836
1592167927.8694062,0.12240560267551216,9.147093939739229,3.890393162900965,-0.34444444444444444,-0.3322222222222222,-0.6288888888888889,0.021930160049443245,0.015518,0.004621322765949804
1592167927.8794062,-0.005327396295304494,9.147360871013955,3.942973169305023,-0.34444444444444444,-0.3322222222222222,-0.6288888888888889,0.023688680220161015,0.015748639559677972,-0.0015252001200097864
1592167927.8894062,-0.0020418221134486676,9.150650868368247,3.945018545323963,-0.3327265076655112,-0.34394015900115543,-0.6225416731336334,0.027240772944030222,0.015231772944030223,0.002319
1592167927.8994062,0.002082708096493781,9.126832114732707,3.8942293777921266,-0.31777777777777777,-0.35888888888888887,-0.6144444444444445,0.029663,0.01800209272425269,0.004803092724252689
1592167927.9094062,-0.010692050503189356,9.141434297288253,3.8315026262579734,-0.31777777777777777,-0.35888888888888887,-0.6144444444444445,0.026525812325816984,0.01804111130230725,0.005508
1592167927.9194062,-0.017637021130546975,9.132739167338649,3.757431251238191,-0.31777777777777777,-0.35888888888888887,-0.6144444444444445,0.018839297980279064,0.017196691563032208,0.006884505228344364
1592167927.9294062,-0.011962026712687097,9.140060128796271,3.75149082079836,-0.31777777777777777,-0.35888888888888887,-0.6144444444444445,0.01012031582700862,0.022190036538524152,0.008713
1592167927.9394062,0.03890313788637753,9.161966272024904,3.7286081341385273,-0.32925772061403025,-0.354211875140786,-0.619971824328566,-0.0037736867602716456,0.024523968238964692,0.007645
1592167927.9494061,0.012280254084997812,9.136684480119124,3.772111579024517,-0.3477777777777778,-0.3466666666666667,-0.6288888888888889,-0.012946699472915182,0.03085107381674119,0.007007190270292365
1592167927.9594061,0.06899689527364193,9.148915615939826,3.8563630755674665,-0.3477777777777778,-0.3466666666666667,-0.6288888888888889,-0.022537,0.036199683710072546,0.003872977215542631
1592167927.9694061,0.05759336045502982,9.12503581167355,3.9248367904235852,-0.3477777777777778,-0.3466666666666667,-0.6288888888888889,-0.020569482688854543,0.04884933810388727,-0.001038482688854543
1592167927.979406,0.04267887564696537,9.123326013480584,3.978300921335779,-0.3477777777777778,-0.3466666666666667,-0.6288888888888889,-0.018836498783275132,0.06379615607649783,-0.005269875304181217
1592167927.989406,-0.012294553876899306,9.1223597554245,4.0058105590527155,-0.3382426946794336,-0.34388560076298297,-0.631272659663475,-0.010318997857743371,0.07873783474490578,-0.006009836887162411
1592167927.999406,-0.1358128902944552,9.14926866081178,4.015597138547597,-0.3211111111111111,-0.3388888888888889,-0.6355555555555555,0.0001924237631583774,0.06203257623684162,-0.00030764512680920956
1592167928.009406,-0.11129617584211998,9.137597198049768,4.0079161124041995,-0.3211111111111111,-0.3388888888888889,-0.6355555555555555,0.010571988121020937,0.05794364867453833,0.012079351325461672
1592167928.019406,-0.0474230297288268,9.131496971433565,4.01130357140809,-0.3211111111111111,-0.3388888888888889,-0.6355555555555555,0.01909528264575296,0.053814117979731145,0.019312899061773848
1592167928.029406,0.017400758517130094,9.145870808075237,4.001902505114421,-0.3211111111111111,-0.3388888888888889,-0.6355555555555555,0.028525556300609926,0.0454358657973343,0.016159
1592167928.039406,-0.007661582183805252,9.136190903689629,3.9354598695466363,-0.3250723365340649,-0.3388888888888889,-0.635250845907636,0.03592099517645573,0.0359770098877369,0.014083320796113971
1592167928.049406,0.01643967939394154,9.14018180223962,3.919503023399088,-0.33555555555555555,-0.3388888888888889,-0.6344444444444445,0.040314,0.026460431287268285,0.011975114544233622
1592167928.059406,0.03263308626916126,9.137494073846035,3.8684018398848035,-0.33555555555555555,-0.3388888888888889,-0.6344444444444445,0.044571,0.01900981935948639,0.010934908292022297
1592167928.069406,0.030106493233305366,9.152919289160645,3.835751680549585,-0.33555555555555555,-0.3388888888888889,-0.6344444444444445,0.04044270203978472,0.017383403533348885,0.006834404079569438
1592167928.079406,0.024639874720442056,9.137921117199246,3.8291974701047455,-0.33555555555555555,-0.3388888888888889,-0.6344444444444445,0.037597940758271754,0.017639,0.0015768588017686304
1592167928.089406,-0.02578325579522591,9.166932621786907,3.795969511342193,-0.3338284794927788,-0.3388888888888889,-0.6327173683816677,0.033233446297293474,0.022789276851353263,0.0016324462972934753
1592167928.099406,-0.07387651871041241,9.183120421138929,3.802886035867973,-0.33,-0.3388888888888889,-0.6288888888888889,0.029247481632604416,0.027018483103285824,0.005924313763559709
1592167928.109406,0.014143897719779554,9.163168214842653,3.778044312822896,-0.33,-0.3388888888888889,-0.6288888888888889,0.022694621289110126,0.028305,0.008466689355444937
1592167928.119406,0.03779289333452116,9.146203180756016,3.8300777747869317,-0.33,-0.3388888888888889,-0.6288888888888889,0.016630313176952453,0.026987463396161482,0.006851104392317485
1592167928.129406,0.018427945541186465,9.156631,3.802767706660178,-0.33,-0.3388888888888889,-0.6288888888888889,0.015352971279334587,0.023588666705743753,0.0014046379850783408
