time,acc_x,acc_y,acc_z,mag_x,mag_y,mag_z,gyr_x,gyr_y,gyr_z
1592167799.5895286,0.01986166099448524,9.446562209278223,3.198499325780487,-0.4488888888888889,-0.41888888888888887,-0.1111111111111111,-0.012444957370462462,-0.027865795909433364,0.01244550655979165
1592167799.5995286,0.06087783113053975,9.440684255115324,3.1969723391397253,-0.4488888888888889,-0.41888888888888887,-0.1111111111111111,-0.0021304339620911296,-0.03501911306566469,0.01143309405551165
1592167799.6095285,0.015823020954705738,9.453684437820492,3.2592348697868574,-0.4488888888888889,-0.41888888888888887,-0.1111111111111111,0.006805162262604984,-0.03233442484375252,0.007231681551036495
1592167799.6195285,-0.05272266262647732,9.44717695717353,3.288817311021337,-0.44323000870666784,-0.41689163705986965,-0.11344123824496684,0.020075848180249774,-0.0271,0.006579263906427985
1592167799.6295285,-0.07096401554683632,9.42632814539823,3.1861694899247777,-0.43,-0.4122222222222222,-0.11888888888888889,0.030910659143890528,-0.030873021028270796,0.01297
1592167799.6395285,-0.05348396899232037,9.466310871133476,3.1410111019945526,-0.43,-0.4122222222222222,-0.11888888888888889,0.036057,-0.03967418092208057,0.02086359146606992
1592167799.6495285,-0.04484009004820738,9.474026511293847,3.082097047106871,-0.43,-0.4122222222222222,-0.11888888888888889,0.036501620908963195,-0.04799161367023514,0.024689
1592167799.6595285,-0.020884291042821867,9.459503,3.034821296217266,-0.43,-0.4122222222222222,-0.11888888888888889,0.03226317695191897,-0.06577239831522547,0.028466823048081027
1592167799.6695285,-0.0698270777052471,9.441483098458606,3.092838003363223,-0.43196827524575515,-0.41419049746797737,-0.12315348525469169,0.029663,-0.06639776158456381,0.03012211804339756
1592167799.6795285,-0.02366892378516057,9.434299236502284,3.257763157605935,-0.43666666666666665,-0.41888888888888887,-0.13333333333333333,0.03653270793113506,-0.05906590286131927,0.03162319806078099
1592167799.6895285,-0.07053515456875485,9.407579256232903,3.278681678746574,-0.43666666666666665,-0.41888888888888887,-0.13333333333333333,0.049694507842859004,-0.051666992159101664,0.012390435167503142
1592167799.6995285,-0.17195287899790293,9.462311852043003,3.230710429480903,-0.43666666666666665,-0.41888888888888887,-0.13333333333333333,0.0638388829227912,-0.04605154596383016,-0.005142
1592167799.7095284,-0.20781932053669194,9.46070124407593,3.203846488981222,-0.43666666666666665,-0.41888888888888887,-0.13333333333333333,0.07403345496343534,-0.04528687565898361,-0.005142
1592167799.7195284,-0.19311706300071202,9.431159346226197,3.1590448184538205,-0.4355005383494838,-0.41772276057170604,-0.12944623894272383,0.08137375033874716,-0.05891416393187595,-0.011872413593128798
1592167799.7295284,-0.18980949679959416,9.447993985630495,3.0813593957741863,-0.43,-0.4122222222222222,-0.1111111111111111,0.08573924329759589,-0.08279272483293072,-0.028039797486753507
1592167799.7395284,-0.2446493400503502,9.445385139831696,3.0824209316527527,-0.43,-0.4122222222222222,-0.1111111111111111,0.08399614885737072,-0.1080308508936395,-0.03744760583892382
1592167799.7495284,-0.2775437713579421,9.46396343367545,3.186573466314861,-0.43,-0.4122222222222222,-0.1111111111111111,0.08807129653215659,-0.12329681209077792,-0.039460672350600745
1592167799.7595284,-0.2905053351160131,9.471585085914825,3.1564667774658988,-0.43,-0.4122222222222222,-0.1111111111111111,0.09902716676456927,-0.1200640183430155,-0.04331333407243882
1592167799.7695284,-0.284635147923111,9.454273539083104,3.0912210697569034,-0.43,-0.41551237206892083,-0.11232327158094745,0.1060918193850171,-0.12323960646167237,-0.053087653284025524
1592167799.7795284,-0.4397929955880118,9.475700435214941,3.0102960897666926,-0.43,-0.43333333333333335,-0.11888888888888889,0.10849,-0.125107,-0.058643682504257444
1592167799.7895284,-0.6068876237237106,9.472410353597631,2.901519955733255,-0.43,-0.43333333333333335,-0.11888888888888889,0.10745190677431427,-0.12719809322568573,-0.06308148276651257
1592167799.7995284,-0.7506952969945286,9.466009604354143,2.976486236966142,-0.43,-0.43333333333333335,-0.11888888888888889,0.10137611472819295,-0.12844338792093943,-0.08139385909436501
1592167799.8095284,-0.9099485470663055,9.503698554677044,2.8306309499445184,-0.43,-0.43333333333333335,-0.11888888888888889,0.09509781202653164,-0.16744713028595345,-0.0953142834651503
1592167799.8195283,-1.0237029581254844,9.516311147370324,2.5609562269103354,-0.42882362887544234,-0.43192168798386416,-0.11441867861556981,0.06269647105896815,-0.18816690961171692,-0.0622836274951602
1592167799.8295283,-0.8044647547145928,9.529128451198401,2.694396443105429,-0.42444444444444446,-0.4266666666666667,-0.09777777777777778,0.028655352579134416,-0.20156832530536006,-0.044471838942247245
1592167799.8395283,-0.6751854292260189,9.506019292628185,2.726400793243852,-0.42444444444444446,-0.4266666666666667,-0.09777777777777778,0.0066754901631304545,-0.21782942008837047,-0.0425317873983608
1592167799.8495283,-0.6416434797296027,9.512008315839859,2.6923286588877255,-0.42444444444444446,-0.4266666666666667,-0.09777777777777778,-0.015361361062372127,-0.21461257356221763,-0.04458457356221764
1592167799.8595283,-0.6656983359428078,9.50846588960788,2.815612005929922,-0.42444444444444446,-0.4266666666666667,-0.09777777777777778,-0.031069328489801044,-0.215651220185918,-0.042416671510198956
1592167799.8695283,-0.7128754191945521,9.495556467950454,2.9216309912067473,-0.4239547820913283,-0.427564380980713,-0.09981803758242848,-0.034256,-0.21146104180104128,-0.04442128444683342
1592167799.8795283,-0.8176066363646735,9.486590726268552,2.907312378131958,-0.4177777777777778,-0.4388888888888889,-0.12555555555555556,-0.034256,-0.21346119231855717,-0.06020387236409596
1592167799.8895283,-0.9319077883443763,9.508515141056701,2.8027161980302444,-0.4177777777777778,-0.4388888888888889,-0.12555555555555556,-0.04778059428164503,-0.22768290739857738,-0.06979859428164503
1592167799.8995283,-1.0242551239204216,9.52496779973408,2.7948937521220483,-0.4177777777777778,-0.4388888888888889,-0.12555555555555556,-0.059834711312094696,-0.2508137113120947,-0.07852717099878088
1592167799.9095283,-1.0273356807760177,9.484461273866666,2.6961976440781066,-0.4177777777777778,-0.4388888888888889,-0.12555555555555556,-0.07726345655508438,-0.275848214507897,-0.07559759132302307
1592167799.9195282,-1.0115263634339915,9.515075249643584,2.6730938659031174,-0.4182742739985924,-0.4388888888888889,-0.1252621714250742,-0.10748485370865231,-0.28667316742757365,-0.061528152280451096
1592167799.9295282,-0.8653848681289027,9.496772953270671,2.8652656579175284,-0.44222222222222224,-0.4388888888888889,-0.1111111111111111,-0.12919833607502418,-0.2874853698980732,-0.028372901557432485
1592167799.9395282,-0.5346347885339995,9.402798228463665,3.080799740823719,-0.44222222222222224,-0.4388888888888889,-0.1111111111111111,-0.1359082210509304,-0.25146433041727734,-0.04214110428512715
1592167799.9495282,-0.44591028502381175,9.431968308322782,3.0514184840257834,-0.44222222222222224,-0.4388888888888889,-0.1111111111111111,-0.13925016063377377,-0.24331438300938796,-0.08309077799687105
1592167799.9595282,-0.5141305927471265,9.499492047876666,3.2663830003344443,-0.44222222222222224,-0.4388888888888889,-0.1111111111111111,-0.1311178035449797,-0.2744522091897824,-0.0772765943551973
1592167799.9695282,-0.5581295084100535,9.547042168473594,3.6276597387660674,-0.4448381325433127,-0.44150479920997937,-0.1137270214322016,-0.08538213085897434,-0.25425949464716197,-0.03488086205983425
1592167799.9795282,-0.4760642673071674,9.404938995532937,3.8499646828764647,-0.45666666666666667,-0.4533333333333333,-0.12555555555555556,-0.025075141992286595,-0.2540291622077321,-0.028322258637501388
1592167799.9895282,-0.4609484770121423,9.35352835585913,3.738802887961239,-0.45666666666666667,-0.4533333333333333,-0.12555555555555556,0.02572568865360718,-0.24600292414346672,-0.05394026316566433
1592167799.9995282,-0.46011899361682085,9.399099466109535,3.578918984891628,-0.45666666666666667,-0.4533333333333333,-0.12555555555555556,0.0682649309506065,-0.23097090493745243,-0.07650766011515503
1592167800.0095282,-0.37873754497780865,9.491432204543498,3.7440370862121837,-0.45666666666666667,-0.4533333333333333,-0.12555555555555556,0.12674660865609297,-0.1935285560925021,-0.089294
1592167800.0195282,-0.2998539936511531,9.50477025784774,3.7278820240217154,-0.4555486312040953,-0.4543271426333968,-0.12518287706803174,0.20165443934473415,-0.1386160343963315,-0.08975121508186278
1592167800.0295281,-0.1837014409454815,9.485838670839165,3.39601570572145,-0.43666666666666665,-0.4711111111111111,-0.11888888888888889,0.2564791474093739,-0.09835839653739845,-0.09268848141034246
1592167800.0395281,-0.20500339826795222,9.480139016494595,3.0944438985435867,-0.43666666666666665,-0.4711111111111111,-0.11888888888888889,0.2800644349405549,-0.07866726707576821,-0.09465659596735382
1592167800.0495281,-0.3369204032244263,9.543860904912671,2.8726038812872132,-0.43666666666666665,-0.4711111111111111,-0.11888888888888889,0.2821525278910833,-0.08771402263433553,-0.07726272237779387
1592167800.059528,-0.35323318137190746,9.59889611726194,2.868529985294988,-0.43666666666666665,-0.4711111111111111,-0.11888888888888889,0.2785177264050298,-0.08305348763452873,-0.02961950204708112
1592167800.069528,-0.30888883442780507,9.559934883362407,2.8427091694557847,-0.4406141836904169,-0.47527793463618073,-0.12173987340604182,0.27161095834154547,-0.06711797917077275,0.018686278332363165
1592167800.079528,-0.18423397860062318,9.496180309611606,2.7821675650054436,-0.45666666666666667,-0.4922222222222222,-0.13333333333333333,0.25838861130311713,-0.06519895106860343,0.04542294594832031
1592167800.089528,-0.10654003393631337,9.515581641767035,2.7047535189247363,-0.45666666666666667,-0.4922222222222222,-0.13333333333333333,0.24349355941507705,-0.05278072644436742,0.04838642210050119
1592167800.099528,-0.12871737377303644,9.542781497331998,2.5530453195081333,-0.45666666666666667,-0.4922222222222222,-0.13333333333333333,0.22980798250670437,-0.037952205782485836,0.05098612275547109
1592167800.109528,-0.026295402773342275,9.477238727461657,2.4002281363565237,-0.45666666666666667,-0.4922222222222222,-0.13333333333333333,0.199675727714881,-0.021047767629973124,0.04019403060480036
1592167800.119528,-0.0550767617590862,9.384001127394155,2.339548526658994,-0.45537150053279085,-0.49314734088927636,-0.13703380800154993,0.15529737653343922,-0.025905216261457364,-0.01290122272145648
1592167800.129528,-0.24693215868291662,9.585306522319248,2.397365502744843,-0.4488888888888889,-0.49777777777777776,-0.15555555555555556,0.11329571367587521,-0.03590018034497906,-0.060818180344979066
1592167800.139528,-0.38374902526918003,9.633427862719381,2.5034116491653924,-0.4488888888888889,-0.49777777777777776,-0.15555555555555556,0.08809399035165115,-0.03529444813003288,-0.04597776354608443
1592167800.149528,-0.3173542291695013,9.491676344547809,2.572290007213817,-0.4488888888888889,-0.49777777777777776,-0.15555555555555556,0.06654674007653559,-0.05556772003986274,-0.040922852772535157
1592167800.159528,-0.31547513297259905,9.623242221391138,2.6527970153700493,-0.4488888888888889,-0.49777777777777776,-0.15555555555555556,0.05035845099805972,-0.06367931929885393,-0.049183319298853924
1592167800.169528,-0.21223165553918477,9.47312198381712,2.706762358024963,-0.4488888888888889,-0.49777777777777776,-0.15555555555555556,0.04282569848319472,-0.02391542581945957,-0.040061881050828765
1592167800.179528,-0.12792192059457602,9.506016256930426,2.5418684377373486,-0.43555555555555553,-0.51,-0.13444444444444445,0.023494737453646778,-0.037265265148831335,-0.07706052055767103
1592167800.189528,-0.2943749582055293,9.569436187929059,2.4646975928166124,-0.43555555555555553,-0.51,-0.13444444444444445,-0.0036551536323084846,-0.0271,-0.08704056095194151
1592167800.199528,-0.47191788617035063,9.691305110187843,2.4437276107007433,-0.43555555555555553,-0.51,-0.13444444444444445,-0.02969531958822825,-0.041534215275240996,-0.034511084564577556
1592167800.209528,-0.3589296229505171,9.523131013529026,2.432206239014453,-0.43555555555555553,-0.51,-0.13444444444444445,-0.05577458970179255,-0.05367444313057736,-0.01194227185642625
1592167800.219528,-0.1909228254384215,9.574769571624886,2.2911275801290962,-0.43555555555555553,-0.51,-0.13444444444444445,-0.10270940100014539,-0.10283786757971193,-0.02423030159743323
1592167800.229528,-0.25905463563526904,9.63279283836802,2.5875303918659336,-0.4622222222222222,-0.49,-0.14888888888888888,-0.12158531319572277,-0.08790168065370808,-0.0009679868007464731
1592167800.239528,-0.2922935496347039,9.68270693276059,2.797790757383498,-0.4622222222222222,-0.49,-0.14888888888888888,-0.11230633990963368,-0.061317217961586845,0.02862269708506894
1592167800.249528,-0.2534184366215592,9.554043850760733,2.8721201854392073,-0.4622222222222222,-0.49,-0.14888888888888888,-0.0852456537288542,-0.049061667283121765,0.023081104490191403
1592167800.259528,-0.19437386446904537,9.458251650642499,2.766608325398157,-0.4622222222222222,-0.49,-0.14888888888888888,-0.07880744754120506,-0.04229040670930589,-0.01885799729284251
1592167800.269528,-0.3909259792057374,9.565974764334952,2.780133628003818,-0.4622222222222222,-0.49,-0.14888888888888888,-0.07629321594346909,-0.04496753364922481,-0.055055101762286604
1592167800.279528,-0.5762200166363184,9.626584637327305,2.943191411077858,-0.4888888888888889,-0.5022222222222222,-0.17888888888888888,-0.05133711078706841,-0.03320043489520467,-0.04443658694329778
1592167800.289528,-0.46844527875263364,9.524890783903665,2.9024047550994663,-0.4888888888888889,-0.5022222222222222,-0.17888888888888888,-0.04365733334886932,-0.03771506087304991,-0.02699593600842719
1592167800.299528,-0.4497590837504884,9.5982966257169,2.86039563324661,-0.4888888888888889,-0.5022222222222222,-0.17888888888888888,-0.04298731125189874,-0.07399201242603874,-0.0019209875739612525
1592167800.3095279,-0.34421492555911404,9.527052192231759,2.925669916217364,-0.4888888888888889,-0.5022222222222222,-0.17888888888888888,-0.030846367360599567,-0.03696874813073175,-0.0015703166213726061
1592167800.3195279,-0.480169069822498,9.586957881980101,2.859903059920846,-0.4888888888888889,-0.5022222222222222,-0.17888888888888888,-0.023072271477669257,-0.05903785437013352,0.03133491253194625
1592167800.3295279,-0.24387460161615523,9.49348003330079,2.960667268158997,-0.47444444444444445,-0.5166666666666667,-0.19333333333333333,-0.019643429334303127,-0.03416983420048629,0.04639499738311251
1592167800.3395278,-0.010330882101691273,9.374045913732276,2.832946749393168,-0.47444444444444445,-0.5166666666666667,-0.19333333333333333,-0.029542992464511916,0.008057,-0.007710826774700915
1592167800.3495278,-0.21790531187865916,9.639761826609085,3.020248921650375,-0.47444444444444445,-0.5166666666666667,-0.19333333333333333,-0.016846371073525677,-0.006841013904249432,-0.024661453498632996
1592167800.3595278,-0.3705948365629975,9.572046734736892,3.194512572564356,-0.47444444444444445,-0.5166666666666667,-0.19333333333333333,0.02060847330740614,0.05748301731997824,-0.0017080380056605695
1592167800.3695278,-0.4705166774361573,9.506418085409669,2.949016789206904,-0.47457918430991575,-0.5167279120600627,-0.1935048204348423,0.030896313177313315,0.01048548328523384,0.03547783454011787
1592167800.3795278,-0.42782982813086384,9.560203184479533,2.845466184479533,-0.4866666666666667,-0.5222222222222223,-0.2088888888888889,0.030103831839129815,-0.016999200423635844,0.028759663678259634
1592167800.3895278,-0.3939842686549282,9.357678909253588,2.7122249091810726,-0.4866666666666667,-0.5222222222222223,-0.2088888888888889,0.014234193459091798,0.010555344700531478,0.0027217316187150772
1592167800.3995278,-0.3901172652940974,9.53096593285647,2.7085471786294297,-0.4866666666666667,-0.5222222222222223,-0.2088888888888889,-0.00881365074943704,-0.0542795803965248,-0.04749791517338424
1592167800.4095278,-0.6548675128615415,9.60883099486084,2.9140703775113224,-0.4866666666666667,-0.5222222222222223,-0.2088888888888889,-0.0017390739685974447,-0.07075658678378881,-0.0316962499079724
1592167800.4195278,-0.575413605648115,9.535505705840494,3.0376402791157027,-0.4866666666666667,-0.5222222222222223,-0.2088888888888889,0.007237962376861199,-0.07802879682914947,0.009676081489060878
1592167800.4295278,-0.44328226569111034,9.41295732951148,2.9609270886490107,-0.46,-0.5288888888888889,-0.2088888888888889,0.006330017291744325,-0.09884229742501224,0.005177126712833127
1592167800.4395278,-0.14428524803519277,9.414910348549085,2.968680624380998,-0.46,-0.5288888888888889,-0.2088888888888889,0.00970891618123597,-0.07984578429435388,-0.034866187766058127
1592167800.4495277,-0.1266699715858035,9.611736682603627,2.957644345907335,-0.46,-0.5288888888888889,-0.2088888888888889,0.02474529509086278,-0.08395750595760647,-0.0739604226442072
1592167800.4595277,-0.3899398236386615,9.628388008525253,3.2678201897720314,-0.46,-0.5288888888888889,-0.2088888888888889,0.07030510325644258,-0.09391746130878353,-0.037329525031078184
1592167800.4695277,-0.2845194566082575,9.57200630926077,3.023137472194564,-0.46,-0.5288888888888889,-0.2088888888888889,0.1088979858575037,-0.09338371064454602,-0.01256964295676461
1592167800.4795277,-0.17211314475683076,9.491912630631047,2.6747702282721755,-0.48,-0.5344444444444445,-0.23777777777777778,0.1002544058333941,-0.1345881327450034,-0.02311581946586847
1592167800.4895277,-0.10105069710683229,9.520273310309372,2.5510617114809255,-0.48,-0.5344444444444445,-0.23777777777777778,0.07726277618076106,-0.13593888802176823,-0.08373034770472608
1592167800.4995277,-0.34283424118507194,9.621373769549141,2.8600038725227233,-0.48,-0.5344444444444445,-0.23777777777777778,0.07635174263677308,-0.12957287728417188,-0.10675571210778427
1592167800.5095277,-0.3666497601490456,9.567842273937515,2.9266046401354013,-0.48,-0.5344444444444445,-0.23777777777777778,0.08819737572757869,-0.09667488160269125,-0.08721762427242132
1592167800.5195277,-0.3159577823707088,9.539485442265665,2.874826943970751,-0.48,-0.5344444444444445,-0.23777777777777778,0.10130736107784671,-0.12807724535957501,-0.09274045544591467
1592167800.5295277,-0.4306625375149235,9.67811606965445,3.0197110777411122,-0.48,-0.5422222222222223,-0.2288888888888889,0.13623178583239312,-0.11200430911876988,-0.07650182961934945
1592167800.5395277,-0.2463724368498103,9.539259231875416,2.9226392617106876,-0.48,-0.5422222222222223,-0.2288888888888889,0.16420548713177482,-0.06937140837495057,-0.036933124497071174
1592167800.5495276,-0.08799647011811115,9.56422548107982,2.6809377699823167,-0.48,-0.5422222222222223,-0.2288888888888889,0.16374362639263643,-0.10352115409998304,-0.03216203327789236
1592167800.5595276,-0.05854395037102191,9.591594602555155,2.5536119481734376,-0.48,-0.5422222222222223,-0.2288888888888889,0.15758880316975832,-0.07704515434721772,-0.015471771374280872
1592167800.5695276,0.020903641438002492,9.495033931947994,2.435380433689988,-0.48,-0.5422222222222223,-0.2288888888888889,0.13317259395300526,-0.04529066552035206,-0.02223283908852213
1592167800.5795276,-0.21165337917946614,9.6795717041927,2.5309277733830973,-0.46555555555555556,-0.5733333333333334,-0.2588888888888889,0.12016344146017514,-0.05331725287584106,-0.01975499769243097
1592167800.5895276,-0.3224609794832631,9.646336477707274,2.639179762292624,-0.46555555555555556,-0.5733333333333334,-0.2588888888888889,0.1223832943761873,-0.01305006966462581,0.04228224478829727
1592167800.5995276,-0.11779118201301172,9.540059289153719,2.5468401722886904,-0.46555555555555556,-0.5733333333333334,-0.2588888888888889,0.11180910410226907,0.004807957731511478,0.08320190921051945
1592167800.6095276,-0.040456512623511624,9.592999619925578,2.4822193458597925,-0.46555555555555556,-0.5733333333333334,-0.2588888888888889,0.10622185262708439,-0.0012610422381867433,0.05908617264011397
1592167800.6195276,0.05420163368327367,9.484480542649157,2.456199640509206,-0.46555555555555556,-0.5733333333333334,-0.2588888888888889,0.08377864435913335,0.05185152296259429,0.020522615291982724
1592167800.6295276,-0.09582842481788698,9.545459519212132,2.499352427412659,-0.48,-0.5544444444444444,-0.2588888888888889,0.061344441687639036,0.04217247733830648,-0.05928144371222461
1592167800.6395276,-0.36388532055809647,9.68138540720181,2.7373238359323855,-0.48,-0.5544444444444444,-0.2588888888888889,0.07939457215955864,0.04556069506921904,-0.07689091268141102
1592167800.6495275,-0.45171363180309915,9.72053774411314,2.652327897756642,-0.48,-0.5544444444444444,-0.2588888888888889,0.10023604481425817,0.04917552387750906,-0.027904132172896116
1592167800.6595275,-0.24371915493591556,9.607228160590202,2.501534168770938,-0.48,-0.5544444444444444,-0.2588888888888889,0.09150372546433888,0.04668194769576978,0.03131817074312111
1592167800.6695275,-0.10947729819621341,9.602802046390016,2.4074957733155284,-0.48,-0.5544444444444444,-0.2588888888888889,0.0771522229386303,0.04147933440794546,0.03383605641242325
1592167800.6795275,-0.0764029576762095,9.519736526429389,2.3991023467516635,-0.4777777777777778,-0.5666666666666667,-0.2588888888888889,0.04717158870401224,0.0343622940271091,0.01991804851166246
1592167800.6895275,-0.08405114889887746,9.596797119577674,2.4374844726476135,-0.4777777777777778,-0.5666666666666667,-0.2588888888888889,0.021734985124902646,0.03233370021613215,0.0020459600869968996
1592167800.6995275,-0.2040724114019712,9.711673970192729,2.6653850025273496,-0.4777777777777778,-0.5666666666666667,-0.2588888888888889,0.021458025890252648,0.040216301364444165,0.058863196607905545
1592167800.7095275,0.0833500914344624,9.519396311844835,2.54968159046056,-0.4777777777777778,-0.5666666666666667,-0.2588888888888889,0.007315175703644041,0.06950393876722061,0.08622563668871722
1592167800.7195275,0.30703160925186923,9.495892952068361,2.4340752386902578,-0.4777777777777778,-0.5666666666666667,-0.2588888888888889,-0.026779191584336736,0.03845560623360531,-0.007645049476054114
1592167800.7295275,-0.20461903944375154,9.491174772903463,2.7108853387220977,-0.4711111111111111,-0.56,-0.28888888888888886,-0.0329855942696171,0.07998407450553657,-0.026156663232571292
1592167800.7395275,-0.2403451512505078,9.552280557055028,2.788784025040832,-0.4711111111111111,-0.56,-0.28888888888888886,-0.03487732787661341,0.09845648725645545,-0.052953355628441924
1592167800.7495275,-0.46024357055097653,9.60447589851051,2.93715930458635,-0.4711111111111111,-0.56,-0.28888888888888886,-0.012596076612126647,0.04682164325246577,-0.06095164325246576
1592167800.7595274,-0.5236332000557423,9.534085505685868,2.949868952756047,-0.4711111111111111,-0.56,-0.28888888888888886,4.614565944146588e-05,0.044913960597056116,-0.036453516725824434
1592167800.7695274,-0.48088331815626306,9.611149832361178,2.874090874074668,-0.4711111111111111,-0.56,-0.28888888888888886,0.010585970667701708,0.001260177888504705,0.005675268339053491
1592167800.7795274,-0.1774926787170961,9.602952847914407,2.8685431979484113,-0.49,-0.5788888888888889,-0.31777777777777777,0.026974597887097294,0.0032629489191630043,0.03052617124145616
1592167800.7895274,-0.022149580380428316,9.344472873347295,2.7480775506914137,-0.49,-0.5788888888888889,-0.31777777777777777,0.02016451184639812,0.007493155171017102,0.03217435013302875
1592167800.7995274,0.1245818878239393,9.518366040192868,2.446013538874752,-0.49,-0.5788888888888889,-0.31777777777777777,-0.02742651881834153,-0.017772988517282307,0.006337437321859155
1592167800.8095274,0.1802591885225746,9.647966078298438,2.672001162751754,-0.49,-0.5788888888888889,-0.31777777777777777,-0.03292461730739999,0.016353829548862477,-0.004074
1592167800.8195274,-0.05281335915914391,9.563765920090953,2.741428098521027,-0.49,-0.5788888888888889,-0.31777777777777777,-0.032479222499917866,0.08125774342787243,0.02951877794354392
1592167800.8295274,0.059578545910878966,9.612893114887259,2.7716482581430366,-0.4847254143345846,-0.5788888888888889,-0.31777777777777777,-0.025864969398286877,0.07296784418181362,0.05276990850161772
1592167800.8395274,-0.006097176120836991,9.71090319544277,2.9818845302713166,-0.48444444444444446,-0.5788888888888889,-0.31777777777777777,0.029364831994173345,0.08235853003417046,0.0480963019600029
1592167800.8495274,-0.012204121890697467,9.51757418383983,2.8361880045445784,-0.48444444444444446,-0.5788888888888889,-0.31777777777777777,0.06029581201866743,0.12425112278783425,0.04154627322128643
1592167800.8595273,0.4722756878600847,9.482403515626492,2.5504256109319523,-0.48444444444444446,-0.5788888888888889,-0.31777777777777777,0.043950826614797454,0.11887617543569279,-0.029517455517945254
1592167800.8695273,-0.02753805200971754,9.756017476870884,2.7662033862752398,-0.4839309043451574,-0.5795836784349832,-0.3204965194798859,0.07242647909426697,0.09289077745101802,-0.0938649830018485
1592167800.8795273,-0.4227347950501225,9.850147525557214,3.0024622165904944,-0.48334327885383566,-0.5803787011585361,-0.3236074779633539,0.13432649529386773,0.15251437264520348,0.03887375744357566
1592167800.8895273,-0.04634623653794906,9.59774930816006,2.935559989643013,-0.4827556533625139,-0.5811737238820891,-0.32671843644682186,0.19562693809879547,0.17253846027104439,0.18384299300134185
1592167800.8995273,0.9016142707728432,9.421631027120213,2.42894229191404,-0.4821680278711922,-0.581968746605642,-0.3298293949302899,0.1638756106869947,0.1632020481664557,0.08549653002776116
1592167800.9095273,0.4112359352212951,9.599108195312931,2.3920921987390824,-0.48158040237987043,-0.5827637693291949,-0.3329403534137579,0.15521367085344123,0.14801110799276082,-0.02738217192638462
1592167800.9195273,-0.033118270799419654,9.727775597729524,2.411981070360783,-0.4809927768885487,-0.5835587920527479,-0.33605131189722587,0.15859619920783394,0.2315610127411595,0.03494188256421649
1592167800.9295273,0.0655963130054505,9.702533865596793,2.3920561912314287,-0.48040515139722695,-0.5843538147763008,-0.3391622703806939,0.1680426030354542,0.24501201164357375,0.1096056781648392
1592167800.9395273,0.2586049139963232,9.606062833289371,2.354730761136296,-0.4798175259059052,-0.5851488374998537,-0.3422732288641619,0.1566054766142601,0.2804029374743266,0.10288899248245076
1592167800.9495273,0.28888378311327834,9.488449639160894,2.3491817134885467,-0.4792299004145835,-0.5859438602234066,-0.3453841873476299,0.12251678925201712,0.3309732366576457,0.03162908631652433
1592167800.9595273,-0.1307336655834456,9.619439487744371,2.4545049337267058,-0.4786422749232618,-0.5867388829469596,-0.3484951458310979,0.08818035999290838,0.28310761768840464,0.0344558968744453
1592167800.9695272,-0.12342185780008019,9.612230490073372,2.4994478357364804,-0.47805464943194004,-0.5875339056705126,-0.3516061043145659,0.0756215415522731,0.32397098806041136,0.05651086883088447
1592167800.9795272,-0.2075179993593093,9.6170996205289,2.431978203012228,-0.4774670239406183,-0.5883289283940655,-0.3547170627980339,0.05576687275716956,0.2685567112690777,0.09466759224033389
1592167800.9895272,0.02394958508629147,9.512091778668937,2.3581103782783335,-0.47687939844929655,-0.5891239511176184,-0.35782802128150193,0.024351098764844804,0.2708702700448149,0.09804935023184212
1592167800.9995272,0.06163484180292547,9.631677442798374,2.343375952500784,-0.4762917729579748,-0.5899189738411713,-0.3609389797649699,-0.005300879490013284,0.24463887231223386,0.07261352556747935
1592167801.0095272,0.019434769963631277,9.6646787447135,2.4191813215895994,-0.47570414746665307,-0.5907139965647242,-0.3640499382484379,-0.0007206143685425559,0.2293910249641675,0.007296813149197293
1592167801.0195272,-0.2914450969102003,9.649701284789627,2.362128878243485,-0.4751165219753314,-0.5915090192882771,-0.36716089673190594,-0.013075659569597314,0.19012914283588334,0.04580889538277193
1592167801.0295272,-0.05167971489730903,9.627885784028896,2.133239273151433,-0.47452889648400964,-0.5923040420118302,-0.3702718552153739,-0.05757056743796201,0.13059700818447278,0.0665134874319803
1592167801.0395272,-0.06755283744966077,9.529001322615054,2.1950276875914616,-0.4739412709926879,-0.5930990647353831,-0.3733828136988419,-0.08800240706194636,0.10664313239602395,0.0393846037398522
1592167801.0495272,-0.0560646038671377,9.55420135687942,2.202594451908777,-0.47335364550136616,-0.593894087458936,-0.37649377218230995,-0.12186991762342853,0.10944973237827055,0.023613967618331344
1592167801.0595272,-0.10676297809382067,9.603468175472678,2.2853958722094387,-0.4727660200100444,-0.5946891101824889,-0.37960473066577793,-0.15868319799117675,0.05784399243297854,0.014453732365495667
1592167801.0695271,0.12608731236298873,9.781087951173227,2.5103547326699887,-0.4721783945187227,-0.5954841329060419,-0.3827156891492459,-0.15140554017256572,0.031806671869716224,-0.007766575915436145
1592167801.0795271,-0.020763511403209596,9.728699940158261,2.7079192461846526,-0.47159076902740094,-0.5962791556295948,-0.38582664763271396,-0.10090469700589003,-0.0006802885228470203,-0.06997994570674271
1592167801.0895271,-0.19088276435610904,9.733127946387413,2.5432041527242193,-0.4710031435360792,-0.5970741783531477,-0.38893760611618194,-0.06148092484682377,-0.019338123594412206,0.0034520385343351084
1592167801.0995271,0.1059418190550306,9.734128050068003,2.4148793355639473,-0.4704155180447575,-0.5978692010767007,-0.39204856459965,-0.027950827684368032,-0.04445122521834594,0.02365233102377389
1592167801.109527,0.28205864484468957,9.671281257552586,2.3276134491106952,-0.46982789255343577,-0.5986642238002536,-0.39515952308311797,-0.0163591117278977,-0.016028153988202412,0.043641975331158746
1592167801.119527,0.5124119710362609,9.652031591735858,2.4091034863093093,-0.469240267062114,-0.5994592465238066,-0.39827048156658595,-0.013401559384775266,0.001962621900247317,0.02302232729105757
1592167801.129527,0.36586461075878074,9.631252043454055,2.550341416085019,-0.4686526415707923,-0.6002542692473595,-0.40138144005005394,-0.013240970795312747,0.035944997479174526,-0.019175452411730916
1592167801.139527,-0.007164989009251145,9.699247185421061,2.7064835890213153,-0.46806501607947054,-0.6010492919709124,-0.404492398533522,0.010888142080085317,0.044192432522655124,-0.02841786504531025
1592167801.149527,-0.18152650619434463,9.697393445705512,2.821375033818926,-0.4674773905881488,-0.6018443146944653,-0.40760335701698996,0.04713689307784345,0.036849328844452266,0.01333292916869945
1592167801.159527,0.09667046609556786,9.598480891894267,2.6309657080504647,-0.46688976509682706,-0.6026393374180182,-0.410714315500458,0.06636431717298066,0.02920606001021021,0.03189969435617156
1592167801.169527,0.13227825066095256,9.585956261576854,2.489618980742277,-0.4663021396055053,-0.6034343601415713,-0.413825273983926,0.06986000444248998,-0.007511051292926478,0.021582378431418775
1592167801.179527,0.25117252075241436,9.587297045597857,2.411083156083252,-0.46571451411418363,-0.6042293828651242,-0.416936232467394,0.0675688654608232,0.025549688159347765,-0.016904307360548848
1592167801.189527,0.1588236164126786,9.671793779243862,2.2806433104979407,-0.46555555555555556,-0.6044444444444445,-0.4177777777777778,0.04681040199354082,0.005936,-0.020715497894558035
1592167801.199527,0.165054050725575,9.66515914197439,2.3427002246201347,-0.46555555555555556,-0.6044444444444445,-0.4177777777777778,0.026338418559760754,0.011816439210757859,-0.015541778796381097
1592167801.209527,0.12859227578489715,9.63492754840102,2.4783371888080894,-0.46555555555555556,-0.6044444444444445,-0.4177777777777778,0.020418348433658202,0.005178934970350571,0.01682636594608369
1592167801.219527,0.17145441842666767,9.619723380206436,2.550316943705525,-0.46555555555555556,-0.6044444444444445,-0.4177777777777778,0.024657060274962585,0.029395962894920757,0.04814926589613155
1592167801.229527,0.38754952207780896,9.586657159307396,2.4737145265552334,-0.45185508680028624,-0.5991164843729508,-0.4177777777777778,0.02422950959782548,0.05085710970114266,0.04734191010259308
1592167801.239527,0.3737093351384004,9.639301890092266,2.417748224253425,-0.44555555555555554,-0.5966666666666667,-0.4177777777777778,0.018484932846445687,0.03813321332389058,0.03799936583927374
1592167801.249527,0.42044266923078344,9.61619854555789,2.2645656593280648,-0.44555555555555554,-0.5966666666666667,-0.4177777777777778,0.010157303739911402,0.059296388192418975,0.028050489556117476
1592167801.259527,0.32266405615896127,9.609467101593953,1.9848995208561282,-0.44555555555555554,-0.5966666666666667,-0.4177777777777778,-0.026495862885050504,-0.0001976511151233814,-0.03824933282811467
1592167801.269527,0.02481978899419976,9.68603278296796,2.0389914699590523,-0.44555555555555554,-0.5966666666666667,-0.4177777777777778,-0.06671374950752067,-0.06463494228527453,-0.03222878960578505
1592167801.279527,0.11065303044328435,9.704237210982988,2.132118191030847,-0.44131517076760174,-0.5966666666666667,-0.4177777777777778,-0.09077572290690969,-0.031065150477047946,0.007985289064024976
1592167801.289527,0.3583038065652374,9.594547336996026,2.380724567695127,-0.44,-0.5966666666666667,-0.4177777777777778,-0.11438726202734238,-0.040703229397951075,-0.02453572489833902
1592167801.299527,0.25244201731656535,9.619572397067019,2.740943148330471,-0.44,-0.5966666666666667,-0.4177777777777778,-0.10533774420711663,-0.07192833747648197,-0.06346498757055409
1592167801.309527,0.1683538324554896,9.631587374312021,2.9072838104433845,-0.44,-0.5966666666666667,-0.4177777777777778,-0.06835768470444241,-0.06550716921022834,-0.04806953075558406
1592167801.319527,0.22637292335204054,9.648602332618283,2.8268423323342313,-0.44,-0.5966666666666667,-0.4177777777777778,-0.037066711851319246,-0.0679175996270824,-0.04612908392209787
1592167801.329527,0.1894299521608679,9.634096432456323,2.759964794912732,-0.44,-0.6139066703683873,-0.43801604299284114,-0.013008034791037407,-0.10790962971617131,-0.07433387665159913
1592167801.339527,0.07733039185273287,9.61986937655143,2.6988950124996256,-0.44,-0.6222222222222222,-0.4477777777777778,0.004988948623438171,-0.12602562201663844,-0.07033031450349068
1592167801.349527,0.1143110285642903,9.62909078299622,2.6322987826814495,-0.44,-0.6222222222222222,-0.4477777777777778,0.018582372846354084,-0.15218868290933082,-0.03087457659828598
1592167801.3595269,0.2879228406050517,9.624068036260008,2.6855365993797027,-0.44,-0.6222222222222222,-0.4477777777777778,0.0363078761856919,-0.1301662085788205,0.019792376316541863
1592167801.3695269,0.6337038134113004,9.597057258343044,2.5936841949826674,-0.44,-0.6222222222222222,-0.4477777777777778,0.04114782760842992,-0.10083352792252816,-0.0144244172091195
1592167801.3795269,0.4194862215064549,9.597680188253364,2.686692935544696,-0.4314102537116556,-0.6167560200387303,-0.4376262594370071,0.045839755169131365,-0.13770288973919523,-0.04930351505631038
1592167801.3895268,0.2804855782454567,9.617178234731572,2.7961170834343996,-0.42777777777777776,-0.6144444444444445,-0.43333333333333335,0.0710939307175272,-0.08601519578334355,0.0015811038738066281
1592167801.3995268,0.5446927274601254,9.6389747180851,2.7434057523623867,-0.42777777777777776,-0.6144444444444445,-0.43333333333333335,0.09150360547254893,-0.05097220212674477,0.016572802526582994
1592167801.4095268,0.6640139846280674,9.627303533472634,2.7871772587263153,-0.42777777777777776,-0.6144444444444445,-0.43333333333333335,0.11337672768219897,-0.012452300923273821,-0.020459370127409233
1592167801.4195268,0.3989644099279386,9.640041128767352,2.7078748556025807,-0.42777777777777776,-0.6144444444444445,-0.43333333333333335,0.13722601073670812,0.01683209739629883,-0.011035746494753284
1592167801.4295268,0.40951647001260844,9.611815218875222,2.6107179209343867,-0.4157825856753687,-0.6144444444444445,-0.4425061272939991,0.15263556776001955,0.07025908143831722,0.0033241233027781723
1592167801.4395268,0.3839822084832635,9.605409981521973,2.3837452474748577,-0.4088888888888889,-0.6144444444444445,-0.4477777777777778,0.14270901135140687,0.049768402194646524,-0.014824028119603743
1592167801.4495268,0.21650909013403377,9.650409952262494,2.494829063343963,-0.4088888888888889,-0.6144444444444445,-0.4477777777777778,0.14010573362140297,0.0020153036157720544,-0.0018990770925817052
1592167801.4595268,0.3288250145892037,9.652619986685737,2.4278925249512486,-0.4088888888888889,-0.6144444444444445,-0.4477777777777778,0.14120219472732196,0.012843004653389167,0.0028386989959159233
1592167801.4695268,0.36602049486705285,9.633296792352853,2.353507409111538,-0.4088888888888889,-0.6144444444444445,-0.4477777777777778,0.13051416208499067,-0.033871711081994556,-0.007520946584897914
1592167801.4795268,0.36297441763547095,9.650866139593484,2.5053878691961082,-0.4122475300676543,-0.6245203679807407,-0.4432995895394239,0.13993370488520607,-0.030848008187109394,-0.003922555677142487
1592167801.4895267,0.4142782657398436,9.643839143000546,2.4700735989448264,-0.41555555555555557,-0.6344444444444445,-0.4388888888888889,0.1539745641780048,-0.00597288350565677,0.01612515927967978
1592167801.4995267,0.47142669803698106,9.634940220380463,2.2655053498630204,-0.41555555555555557,-0.6344444444444445,-0.4388888888888889,0.150810123510482,-0.0065054604111000405,0.027034754442847427
1592167801.5095267,0.522977579792917,9.668909969620065,2.049841689979352,-0.41555555555555557,-0.6344444444444445,-0.4388888888888889,0.12750042282460772,-0.0007786772723022556,0.028883782004139873
1592167801.5195267,0.5744379789245643,9.663897894483279,1.8937499513719127,-0.41555555555555557,-0.6344444444444445,-0.4388888888888889,0.09127700997773884,0.01299028327207579,0.01151028327207579
1592167801.5295267,0.5131175589795302,9.722106118634695,1.9349331797072442,-0.41187087816730306,-0.6344444444444445,-0.43581832439867846,0.05627218074548595,0.013886732042620637,0.0098838323410552
1592167801.5395267,0.47386367317722894,9.715096412645268,2.0098939057202485,-0.4088888888888889,-0.6344444444444445,-0.43333333333333335,0.029679786487341903,0.037576906817179574,0.035617486139189455
1592167801.5495267,0.5461589527068963,9.70333410138419,2.063434467277974,-0.4088888888888889,-0.6344444444444445,-0.43333333333333335,0.002407544627712504,0.04849836110492768,0.05538343630697934
1592167801.5595267,0.6776652098613238,9.598182552292146,2.0180396488551535,-0.4088888888888889,-0.6344444444444445,-0.43333333333333335,-0.021966392553552566,0.0936507269451897,0.016371508686715344
1592167801.5695267,0.5348536465041756,9.647843111208752,2.1396890700401143,-0.4088888888888889,-0.6344444444444445,-0.43333333333333335,-0.04536075557155751,0.11519637785110437,-0.014395608367022139
1592167801.5795267,0.39128461744160464,9.689331829604294,2.3009217935304265,-0.40522807063796507,-0.6286917300501356,-0.4291495410465632,-0.052368,0.152754852004073,0.0017176076873207163
1592167801.5895267,0.3786075260831689,9.685493468001646,2.3800681302135622,-0.4011111111111111,-0.6222222222222222,-0.42444444444444446,-0.053562849937191764,0.17304515006280824,0.023675904422183217
1592167801.5995266,0.34910562733070755,9.65277184544674,2.405351111498025,-0.4011111111111111,-0.6222222222222222,-0.42444444444444446,-0.04838656370704017,0.17289251088402763,0.03701227098083079
1592167801.6095266,0.2314506566178577,9.655633662667135,2.3156391521630755,-0.4011111111111111,-0.6222222222222222,-0.42444444444444446,-0.052055086104358696,0.1625857535748268,0.05728157895470512
1592167801.6195266,0.2417490492628684,9.64284924872918,2.224000284914756,-0.4011111111111111,-0.6222222222222222,-0.42444444444444446,-0.0635151666547732,0.15837617479077376,0.0634302951398079
1592167801.6295266,0.2751292863085488,9.650047640385303,2.297311290865816,-0.38470509168366884,-0.6222222222222222,-0.42444444444444446,-0.08317678523020598,0.12358767626712112,0.06709764641363251
1592167801.6395266,0.487298541424167,9.64329564737264,2.4773951521165047,-0.3688888888888889,-0.6222222222222222,-0.42444444444444446,-0.08528016361989035,0.14126751602284135,0.06544394434749146
1592167801.6495266,0.6247232410304668,9.637962355556137,2.5043514044595243,-0.3688888888888889,-0.6222222222222222,-0.42444444444444446,-0.07431828026824804,0.16837423349474784,0.08554365216089119
1592167801.6595266,0.7593319507201711,9.631372913515271,2.473781184256708,-0.3688888888888889,-0.6222222222222222,-0.42444444444444446,-0.06610319986379412,0.2039566513818848,0.07572266306154163
1592167801.6695266,0.7690971056540102,9.65573789434599,2.4166355698055475,-0.3688888888888889,-0.6222222222222222,-0.42444444444444446,-0.06546789455232269,0.21373249926753127,0.05731753267895923
1592167801.6795266,0.6807529743414917,9.645462174605141,2.315282462476582,-0.375017467195003,-0.6252865113752794,-0.42853016331518723,-0.07185085628333847,0.2175067326771238,0.04777177351779459
1592167801.6895266,0.588941723403577,9.635291288446979,2.2866967047792657,-0.38222222222222224,-0.6288888888888889,-0.43333333333333335,-0.08338832760239337,0.1876859958683084,0.039597
1592167801.6995265,0.6463491016165192,9.610606459657154,2.372667702116311,-0.38222222222222224,-0.6288888888888889,-0.43333333333333335,-0.0949465065672424,0.16148731655937615,0.03323240499606686
1592167801.7095265,0.563705,9.653049363571057,2.4915541375041577,-0.38222222222222224,-0.6288888888888889,-0.43333333333333335,-0.1002783242760981,0.1322741988824127,0.021582057766952795
1592167801.7195265,0.5317604050525305,9.633495077693548,2.6225211938253166,-0.38222222222222224,-0.6288888888888889,-0.43333333333333335,-0.09415902859776691,0.106666996139586,0.020311004436591992
1592167801.7295265,0.6632475377398301,9.635154184602198,2.6828017259488783,-0.38222222222222224,-0.6288888888888889,-0.43543133666284084,-0.07961160141327035,0.08564315079095688,0.025932286368790566
1592167801.7395265,0.7310937318338202,9.619287621827928,2.5926663612197607,-0.38222222222222224,-0.6288888888888889,-0.4388888888888889,-0.06600387951434337,0.058767583105000125,0.004843068917162702
1592167801.7495265,0.7446526552171818,9.617313827919892,2.5461299539995905,-0.38222222222222224,-0.6288888888888889,-0.4388888888888889,-0.05906045792239122,0.040921484502126924,-0.01855123746752055
1592167801.7595265,0.7514558703445469,9.640921437924275,2.5372699819485676,-0.38222222222222224,-0.6288888888888889,-0.4388888888888889,-0.04973340633371984,0.030494146907450344,-0.016739344796210403
1592167801.7695265,0.7747038039079219,9.650400388691539,2.4207722600394046,-0.38222222222222224,-0.6288888888888889,-0.4388888888888889,-0.049164,0.02638773926132368,-0.008768683334689794
1592167801.7795265,0.8440838394358308,9.622042160564169,2.423065021448385,-0.37932302854326105,-0.6264038657354937,-0.44137391204228416,-0.057779099669454076,0.02298,-0.006456533009164642
1592167801.7895265,0.7757204674572111,9.62572114584282,2.5525644473069415,-0.37444444444444447,-0.6222222222222222,-0.44555555555555554,-0.05796758361718636,0.026937219119254105,0.0001575458761811691
1592167801.7995265,0.6541077019884358,9.615950159224166,2.642250721116986,-0.37444444444444447,-0.6222222222222222,-0.44555555555555554,-0.0467429314645059,0.044411262939394285,0.005660900927299575
1592167801.8095264,0.5118622379949308,9.643374801825912,2.5875366546128573,-0.37444444444444447,-0.6222222222222222,-0.44555555555555554,-0.03559666747627727,0.039105345616591305,0.005903989335963231
1592167801.8195264,0.5013560109020528,9.618209539004326,2.5364983097853857,-0.37444444444444447,-0.6222222222222222,-0.44555555555555554,-0.031760972734704254,0.03466368950709578,0.0041349346770799215
1592167801.8295264,0.4798218797970077,9.60838587609453,2.5725498714968182,-0.37444444444444447,-0.6222222222222222,-0.44379271224341643,-0.026627539079026586,0.04193489253995175,0.011191784112486374
1592167801.8395264,0.6183965488744373,9.619392364395022,2.659468325770904,-0.37444444444444447,-0.6222222222222222,-0.44,-0.015238937803916563,0.0671791896063024,0.013994750475537074
1592167801.8495264,0.5835031837494947,9.649348931714988,2.623058875073135,-0.37444444444444447,-0.6222222222222222,-0.44,-0.004087805996389091,0.07712804571489008,0.001078045714890087
1592167801.8595264,0.426252096910819,9.616227533930186,2.720864215084304,-0.37444444444444447,-0.6222222222222222,-0.44,0.005007943310956083,0.08376548068498649,0.007377948982698012
1592167801.8695264,0.4057616075989653,9.61097010807127,2.715334826848472,-0.37444444444444447,-0.6222222222222222,-0.44,0.020268326881309553,0.09592254406691224,0.010324455933087761
1592167801.8795264,0.38399019066802054,9.602105263045772,2.703661093995418,-0.37444444444444447,-0.620779628951544,-0.44088774970503275,0.03761355120274555,0.09433832457153965,0.012976675428460347
1592167801.8895264,0.3692874035876735,9.629632862124334,2.54027031275631,-0.37444444444444447,-0.6077777777777778,-0.4488888888888889,0.04626639438597779,0.0935251772166713,0.011902
1592167801.8995264,0.281696770737239,9.638438828321334,2.3801475796494733,-0.37444444444444447,-0.6077777777777778,-0.4488888888888889,0.041609373238439405,0.0873590747900744,0.009656477181411799
1592167801.9095263,0.23204652753578003,9.635507433956803,2.2519828347807467,-0.37444444444444447,-0.6077777777777778,-0.4488888888888889,0.025375772766553444,0.08733128104209908,0.011454718957900921
1592167801.9195263,0.12876875011010996,9.653790490275963,2.1525698752271523,-0.37444444444444447,-0.6077777777777778,-0.4488888888888889,-4.902716696856234e-05,0.07459911324808687,0.008713
1592167801.9295263,0.13796188080529642,9.64145975044409,2.171029670267566,-0.3761571776093305,-0.6077777777777778,-0.4469314795575906,-0.027618380227034542,0.06615185906098026,0.00937980776766024
1592167801.9395263,0.09459066409415211,9.635584044819801,2.357823660801882,-0.38222222222222224,-0.6077777777777778,-0.44,-0.049197588443059874,0.05025792331545192,0.006577
1592167801.9495263,0.12024721048930698,9.626703388652631,2.6041063808752667,-0.38222222222222224,-0.6077777777777778,-0.44,-0.0496342252635413,0.043547093411932,0.011902
1592167801.9595263,0.12019739188543728,9.5869763965584,2.652944988061363,-0.38222222222222224,-0.6077777777777778,-0.44,-0.03884196863749885,0.03197457288980353,0.011437757076537223
1592167801.9695263,0.19523850630539058,9.616255758197534,2.7668136703422332,-0.38222222222222224,-0.6077777777777778,-0.44,-0.020888215992118507,0.024850331076173925,0.015374617235708847
1592167801.9795263,0.2331612333689019,9.6222482857995,2.7573664459965204,-0.378416761471369,-0.6090462646947289,-0.43598312476298823,0.0011560607198508775,0.02710908193285082,0.012490285259825231
1592167801.9895263,0.1885788911257242,9.646982211059154,2.673287818081273,-0.3622222222222222,-0.6144444444444445,-0.41888888888888887,0.017721276066452733,0.016373936377972395,0.006789063622027606
1592167801.9995263,0.127374509722885,9.615087498379468,2.5320076323534386,-0.3622222222222222,-0.6144444444444445,-0.41888888888888887,0.024338,0.011029287000207342,0.008344460251469633
1592167802.0095263,0.19897715931024507,9.605820796018815,2.5237535077625655,-0.3622222222222222,-0.6144444444444445,-0.41888888888888887,0.025391,-0.0006135391609873199,0.003664488733841313
1592167802.0195262,0.16098978473707554,9.617009417533342,2.585641935496344,-0.3622222222222222,-0.6144444444444445,-0.41888888888888887,0.030731,-0.002594,-0.0014507219154295172
1592167802.0295262,0.17805780486177736,9.628000123406627,2.6832056691659303,-0.36209904179843416,-0.6144444444444445,-0.4190310201471058,0.036715531892416144,-0.003567544982393172,0.006577
1592167802.0395262,0.19088539176493824,9.638684181221612,2.80418563123651,-0.3477777777777778,-0.6144444444444445,-0.43555555555555553,0.05508451009919569,-0.010188386285204642,0.004909921082116517
1592167802.0495262,0.07624628220441872,9.62305662165155,2.8317897338838476,-0.3477777777777778,-0.6144444444444445,-0.43555555555555553,0.08334248734754889,-0.015690848389541018,-0.011690924194770509
1592167802.0595262,0.051041238945321754,9.626694773023871,2.7197088760232453,-0.3477777777777778,-0.6144444444444445,-0.43555555555555553,0.11072536327332994,-0.03361451082126197,-0.013646081756567213
1592167802.0695262,0.07281473478101984,9.633791451695148,2.5172972168910324,-0.3477777777777778,-0.6144444444444445,-0.43555555555555553,0.12229679488274615,-0.05149014981714051,-0.01364051485692207
1592167802.0795262,0.09891582340613726,9.634073807640139,2.2107267614797457,-0.348415235138856,-0.6138980524206631,-0.43482703285718044,0.11106992851345052,-0.07148251541721722,-0.009532582845329911
1592167802.0895262,0.18281894417845554,9.62228331795528,2.1263816694829942,-0.35555555555555557,-0.6077777777777778,-0.4266666666666667,0.08484972623561338,-0.06381413673605314,0.003863571348243348
1592167802.0995262,0.2047664904986055,9.643331762088275,2.1152820452649452,-0.35555555555555557,-0.6077777777777778,-0.4266666666666667,0.05671059483149213,-0.055218742799202136,0.00966096144491314
1592167802.1095262,0.1788090645500218,9.640438319692054,2.213202439668792,-0.35555555555555557,-0.6077777777777778,-0.4266666666666667,0.03407722779309618,-0.043893372564047156,0.01988567855996035
1592167802.1195261,0.20207355453763545,9.668896933949215,2.3643554984581483,-0.35555555555555557,-0.6077777777777778,-0.4266666666666667,0.0242556926381499,-0.018817027766428986,0.01592717925712285
1592167802.1295261,0.16551005948780098,9.658585129563477,2.3703049952692083,-0.35555555555555557,-0.6077777777777778,-0.4266666666666667,0.0183262195154907,-0.014697922623803929,0.011026461311901964
1592167802.1395261,0.16809769514365924,9.622732606029778,2.277967667270903,-0.35555555555555557,-0.6144444444444445,-0.4266666666666667,0.012208671709054056,-0.01151912205961667,0.008930161589725281
1592167802.1495261,0.1993774677269678,9.654573527430966,2.24064421435868,-0.35555555555555557,-0.6144444444444445,-0.4266666666666667,-0.0008191909847086289,-0.0161216625918605,0.01165395119218971
1592167802.159526,0.2658158360646492,9.645151134569875,2.2906910393971036,-0.35555555555555557,-0.6144444444444445,-0.4266666666666667,-0.013668318354961595,-0.00378051078336042,0.013755723620559329
1592167802.169526,0.23109664400621713,9.658435757596225,2.1980558532727374,-0.35555555555555557,-0.6144444444444445,-0.4266666666666667,-0.027522503572057686,0.0033514305822406475,0.009638855464092384
1592167802.179526,0.18621467898595437,9.65511352076983,2.10212870992333,-0.35555555555555557,-0.6144444444444445,-0.4266666666666667,-0.05257388307213288,-0.008349307245206867,0.0036834569564230496
1592167802.189526,0.24268195750784255,9.649665553266907,2.2354355209954497,-0.35555555555555557,-0.5877777777777777,-0.41888888888888887,-0.0749603737124584,-0.012549091236065112,0.001251
1592167802.199526,0.3214467486917065,9.63818164608123,2.4104131449699913,-0.35555555555555557,-0.5877777777777777,-0.41888888888888887,-0.08245784639371577,-0.003919693543128296,0.0015192300315779695
1592167802.209526,0.35145922162843873,9.654218037053232,2.5947245275682636,-0.35555555555555557,-0.5877777777777777,-0.41888888888888887,-0.0777257444000504,0.010612904859766407,0.005080321268026562
1592167802.219526,0.3676583378475804,9.622938896213883,2.7557709133943806,-0.35555555555555557,-0.5877777777777777,-0.41888888888888887,-0.055229829578674665,0.03395817042132533,0.01099105504052828
1592167802.229526,0.33113519582958456,9.602835218747638,2.706349603975284,-0.35555555555555557,-0.5877777777777777,-0.41888888888888887,-0.033165353612657766,0.049317456307612,0.012385266227881763
1592167802.239526,0.2567691122236751,9.625653174699965,2.5610267614580735,-0.35555555555555557,-0.6144444444444445,-0.4266666666666667,-0.019314987177195757,0.053346021866843514,0.010834
1592167802.249526,0.15196582461881852,9.651321628871615,2.5211386142452485,-0.35555555555555557,-0.6144444444444445,-0.4266666666666667,-0.012992001385632041,0.048037862010231344,0.011879425326512438
1592167802.259526,0.130316932019986,9.652522399493279,2.496087732104161,-0.35555555555555557,-0.6144444444444445,-0.4266666666666667,-0.012876837830987593,0.041318437615400896,0.015176113277376084
1592167802.269526,0.1338608859495492,9.644828929298203,2.5337701380898423,-0.35555555555555557,-0.6144444444444445,-0.4266666666666667,-0.012020312281421398,0.03102687483226863,0.007311187113690024
1592167802.279526,0.04918437315644222,9.616397850154145,2.647016053390246,-0.35555555555555557,-0.6144444444444445,-0.4266666666666667,-0.003052519028422767,0.026734352252700246,0.005508
1592167802.289526,0.0638748113632939,9.632741778983865,2.733129523897213,-0.38222222222222224,-0.6077777777777778,-0.41888888888888887,0.014153169240588863,0.01673947460950093,0.0042865253904990725
1592167802.299526,0.0405659955066766,9.613254522594241,2.689334612971205,-0.38222222222222224,-0.6077777777777778,-0.41888888888888887,0.03517484678120197,0.014014058059223091,0.000183
1592167802.309526,0.005538522894392932,9.641172946899147,2.66034405080769,-0.38222222222222224,-0.6077777777777778,-0.41888888888888887,0.05198851769997456,0.00984348343703897,0.000183
1592167802.319526,0.05638611199743059,9.63236899717329,2.6333755689519873,-0.38222222222222224,-0.6077777777777778,-0.41888888888888887,0.06274959472314416,0.006362850233509076,-0.004578016740482872
1592167802.329526,0.006466590519545082,9.632116643710404,2.508218234887643,-0.38222222222222224,-0.6077777777777778,-0.41888888888888887,0.07247555212498487,-0.0002634478750151273,-0.0075614573886456345
1592167802.339526,0.0008991027145332786,9.65844520181488,2.365755946520829,-0.3688888888888889,-0.6077777777777778,-0.4488888888888889,0.06988685357404395,-0.000458,-0.00969694466404513
1592167802.349526,0.05013902406259135,9.629976088780705,2.371958439927644,-0.3688888888888889,-0.6077777777777778,-0.4488888888888889,0.06459352586537476,0.00044072976694726937,-0.0012647443676779794
1592167802.359526,0.0351793977494808,9.662408285426535,2.487312345633558,-0.3688888888888889,-0.6077777777777778,-0.4488888888888889,0.061812680386560306,0.0063285843631970115,0.00038068038656030557
1592167802.369526,0.032165798699178426,9.643154342237263,2.500938990900811,-0.3688888888888889,-0.6077777777777778,-0.4488888888888889,0.06817259742509577,0.01297177380730505,0.003387
1592167802.379526,0.05024232317310108,9.644989512177537,2.431911876874854,-0.3688888888888889,-0.6077777777777778,-0.4488888888888889,0.07029144045758481,0.01838177158970606,0.005656665573749444
1592167802.389526,0.014475006309876564,9.661028942991752,2.34896119463608,-0.3688888888888889,-0.6077777777777778,-0.4266666666666667,0.06883542102063595,0.02771823617929471,0.005870311946121575
1592167802.399526,-0.019295375941776226,9.658742438385273,2.2823639698186233,-0.3688888888888889,-0.6077777777777778,-0.4266666666666667,0.061244548450129103,0.0339075123308758,0.0068545123308758026
1592167802.4095259,-0.05892155153719403,9.642870700338051,2.191906864493532,-0.3688888888888889,-0.6077777777777778,-0.4266666666666667,0.04824352069131371,0.04008823050637097,0.009636624022779835
1592167802.4195259,-0.091006802851811,9.652237,2.2151527368977244,-0.3688888888888889,-0.6077777777777778,-0.4266666666666667,0.029403625062465796,0.041077,0.008675871942998722
1592167802.4295259,-0.1111645053063848,9.661131575801361,2.279299695519462,-0.3688888888888889,-0.6077777777777778,-0.4266666666666667,0.01685729896979336,0.038943500468939,0.007645
1592167802.4395258,-0.09196443143697736,9.650428348134257,2.3833666723925697,-0.3622222222222222,-0.6222222222222222,-0.43555555555555553,0.009439669596680656,0.034683,0.009717007289738134
1592167802.4495258,-0.03792897330305889,9.661839280871874,2.4797651994225074,-0.3622222222222222,-0.6222222222222222,-0.43555555555555553,0.013511367137017545,0.047061834488836655,0.009766
1592167802.4595258,-0.0627569194582311,9.67375215775001,2.510029589687588,-0.3622222222222222,-0.6222222222222222,-0.43555555555555553,0.019892836155047958,0.0546718467123662,0.012883309294479594
1592167802.4695258,-0.10752634865725726,9.627618538959332,2.4677596763061715,-0.3622222222222222,-0.6222222222222222,-0.43555555555555553,0.03132767011445926,0.058008123474401124,0.013809031093372089
1592167802.4795258,-0.08231139422550665,9.640869,2.407056999797914,-0.3622222222222222,-0.6222222222222222,-0.43555555555555553,0.033622575950111325,0.0572146233729086,0.014957287975055663
1592167802.4895258,0.018086623189304082,9.65088109602497,2.3548448403049016,-0.3477777777777778,-0.6022222222222222,-0.43555555555555553,0.03213701154605372,0.05332468258665833,0.017227
1592167802.4995258,0.06589995818838502,9.66417827597575,2.224262303447583,-0.3477777777777778,-0.6022222222222222,-0.43555555555555553,0.023220628228970436,0.03997462822897043,0.013378599041705325
1592167802.5095258,0.08461791480559777,9.680727214803772,2.2594372513862626,-0.3477777777777778,-0.6022222222222222,-0.43555555555555553,0.007847391992247082,0.030890186207671866,0.008338019576903357
1592167802.5195258,0.09565819547110138,9.681970905573667,2.366584914037179,-0.3477777777777778,-0.6022222222222222,-0.43555555555555553,0.0003646412594293608,0.022707221430861534,0.003915900801146851
1592167802.5295258,0.07710909477170239,9.669526014033995,2.393143130480026,-0.3477777777777778,-0.6022222222222222,-0.43555555555555553,0.0016738856225228973,0.016396212312522924,0.0004771143774771028
