time,acc_x,acc_y,acc_z,mag_x,mag_y,mag_z,gyr_x,gyr_y,gyr_z
1592167934.2394001,-0.06787127972082092,8.979469508315816,4.30809245722363,-0.39111111111111113,-0.17333333333333334,-0.27666666666666667,0.024335893850791133,-0.010052839790161793,0.01616005307460443
1592167934.2494001,-0.08999478624973334,8.971000334833276,4.329916970425492,-0.39111111111111113,-0.17333333333333334,-0.27666666666666667,0.0306444595328983,-0.011066279345132232,0.021397864684897842
1592167934.2594001,-0.09960725287606584,8.975613304479658,4.369706975429709,-0.39111111111111113,-0.17333333333333334,-0.27666666666666667,0.039020180198865106,-0.013132514373366107,0.025643718859740688
1592167934.2694001,-0.08384466268317838,8.975291296108079,4.400895573336276,-0.3937009200560603,-0.17333333333333334,-0.2814146497324067,0.053613594253394514,-0.00819005603917695,0.03081102853369019
1592167934.2794,-0.07028827757805488,8.969822861210972,4.4208437508089435,-0.3977777777777778,-0.17333333333333334,-0.28888888888888886,0.06611103484367334,-0.004846995082376622,0.03593401988064836
1592167934.2894,-0.10222327572979864,8.980994695561275,4.4028963533823875,-0.3977777777777778,-0.17333333333333334,-0.28888888888888886,0.08049737086061041,-0.001526,0.040360910235399027
1592167934.2994,-0.11876021730754616,8.9555924782562,4.346479955829314,-0.3977777777777778,-0.17333333333333334,-0.28888888888888886,0.0930274886862631,-0.001706682998767958,0.025616336289029984
1592167934.3094,-0.29290469507112205,9.006550264553429,4.160928909942752,-0.3977777777777778,-0.17333333333333334,-0.28888888888888886,0.09398395349306075,-0.04042835660068024,-0.03143748423861587
1592167934.3194,-0.49198867566190274,9.00596871194481,4.134972811062272,-0.4030273727348228,-0.17333333333333334,-0.29270677613037616,0.08789449307795143,-0.03288133862886009,-0.007249134912232162
1592167934.3294,-0.3573311635610401,8.994922838335388,4.144524400948285,-0.41,-0.17333333333333334,-0.29777777777777775,0.08265148395986614,-0.05005172268728991,0.009505644525011276
1592167934.3394,-0.32749491206087317,8.981112223514213,4.080398270418918,-0.41,-0.17333333333333334,-0.29777777777777775,0.0740130488121309,-0.06699728401959774,0.00028243196080451156
1592167934.3494,-0.33221343201309644,9.0203326177642,4.013985185751104,-0.41,-0.17333333333333334,-0.29777777777777775,0.061392419676851745,-0.07268488337801378,-0.00663869694513447
1592167934.3594,-0.37303844791901775,9.028160826045033,3.9905103723672495,-0.41,-0.17333333333333334,-0.29777777777777775,0.04520968235219078,-0.08360308804757031,-0.008361544023785156
1592167934.3694,-0.3593579073271313,9.010515342681089,3.8731865499789317,-0.4132123176188078,-0.16982898684008846,-0.29427343128453287,0.02429813227563728,-0.09820237567631274,-0.014339217486954466
1592167934.3794,-0.3943726264841913,9.024182129334815,3.7211659791513876,-0.4222222222222222,-0.16,-0.28444444444444444,-0.0057217408873214085,-0.11450334025542931,-0.013246941087129965
1592167934.3894,-0.42753497361382464,9.011723650844177,3.7270356453410747,-0.4222222222222222,-0.16,-0.28444444444444444,-0.04928732602488113,-0.14083263853426947,-0.01766591813293724
1592167934.3994,-0.4202264258828988,9.008368494819495,3.8758617304173875,-0.4222222222222222,-0.16,-0.28444444444444444,-0.08247646241890169,-0.1615726712029783,-0.023254
1592167934.4094,-0.3787843169966098,8.96812919400234,4.012916109909358,-0.4222222222222222,-0.16,-0.28444444444444444,-0.10320805459870491,-0.1633061134264455,-0.02871041908155862
1592167934.4194,-0.36460040003777583,8.977289541562868,4.20365596431787,-0.41757720090374534,-0.16,-0.28613354310570877,-0.10883984960128333,-0.16076882285651098,-0.038217203888261365
1592167934.4294,-0.32619838636971465,8.96708047842796,4.369385859346006,-0.41,-0.16,-0.28888888888888886,-0.10418001596635211,-0.1476351584768386,-0.05303605520818681
1592167934.4394,-0.2947280042306909,9.00298779961596,4.433569264358259,-0.41,-0.16,-0.28888888888888886,-0.08638522023903152,-0.12736249602543895,-0.05916226231781618
1592167934.4494,-0.3134809985479515,8.999643887159221,4.465490221797836,-0.41,-0.16,-0.28888888888888886,-0.06429668402378974,-0.10748325502484989,-0.06855732258775957
1592167934.4594,-0.4414369980391153,8.99815316627905,4.451189986633872,-0.41,-0.16,-0.28888888888888886,-0.043889334685601494,-0.10462071735952734,-0.07842263196991411
1592167934.4694,-0.6915028423508491,9.009262758164047,4.470666124104024,-0.41,-0.16448902195608783,-0.28888888888888886,-0.02352299291255787,-0.11246894285001884,-0.06697037550569213
1592167934.4794,-0.8754009230218501,9.001291715739747,4.520402476601374,-0.41,-0.17333333333333334,-0.28888888888888886,0.0013036272281812375,-0.1048807940587404,-0.05266671311317874
1592167934.4894,-1.27754517694529,8.981289456953682,4.380735777627425,-0.41,-0.17333333333333334,-0.28888888888888886,0.018952952378905055,-0.113388,-0.029678880243211744
1592167934.4994,-1.2867508204286302,8.933140959334166,4.828867998645909,-0.41,-0.17333333333333334,-0.28888888888888886,0.037590496165628734,-0.09936751985683324,-0.015050324664353779
1592167934.5094,-1.020159986562194,9.014941893748004,4.743748353226672,-0.41,-0.17333333333333334,-0.28888888888888886,0.09639334122863419,-0.09776941612911007,-0.05874500424166865
1592167934.5194,-1.1784844042535112,8.993805217441922,4.211457040076759,-0.41409720822226703,-0.17519570070709106,-0.2873989949898827,0.109558,-0.08619557254595148,-0.005182665648227451
1592167934.5293999,-0.684236932545118,8.979557004442723,4.275898875629264,-0.4222222222222222,-0.17888888888888888,-0.28444444444444444,0.11146613967480237,-0.06012843041944672,0.002710493788784385
1592167934.5393999,-0.5708070831291671,9.027131954824954,4.028555799273716,-0.4222222222222222,-0.17888888888888888,-0.28444444444444444,0.10843204918193967,-0.04633702101722993,-0.009845576732090867
1592167934.5493999,-0.6379784920234575,9.018719940305374,3.8463747353974576,-0.4222222222222222,-0.17888888888888888,-0.28444444444444444,0.08829838748739836,-0.027526629789509434,0.015797002456526786
1592167934.5593998,-0.6260381316653242,9.022413554510953,3.7385708375644158,-0.4222222222222222,-0.17888888888888888,-0.28444444444444444,0.05723362862153847,-0.03001420656586752,0.023367485353815897
1592167934.5693998,-0.6540030208752352,8.999421920890828,3.7001726406369837,-0.420372754889601,-0.18104660077694693,-0.27982077611289147,0.023511869378975436,-0.033920636310936884,-0.005096134487262229
1592167934.5793998,-0.7273882751475589,9.020688093867324,3.6108376303797023,-0.41555555555555557,-0.18666666666666668,-0.2677777777777778,-0.01689395951017643,-0.042686891637319396,-0.041416264880943965
1592167934.5893998,-0.7307145278866165,8.994868211972458,3.637666959254448,-0.41555555555555557,-0.18666666666666668,-0.2677777777777778,-0.06803551131644102,-0.0748099337097766,-0.07614198611764277
1592167934.5993998,-0.6828439569294261,9.035324949882941,3.602296899765884,-0.41555555555555557,-0.18666666666666668,-0.2677777777777778,-0.11541332366873504,-0.08051355927709732,-0.11070586511182257
1592167934.6093998,-0.6961433541213068,8.9856179961556,3.715222963180668,-0.41555555555555557,-0.18666666666666668,-0.2677777777777778,-0.16482054148391279,-0.11838527292263198,-0.13385961876902935
1592167934.6193998,-0.748922033214332,9.010979055393813,3.905842198577212,-0.417239341117691,-0.18835045222880212,-0.2767579674425002,-0.20394048568043863,-0.14379924512921569,-0.1259917104848233
1592167934.6293998,-0.7706439293539886,8.993765898158594,4.307995017369569,-0.4222222222222222,-0.19333333333333333,-0.30333333333333334,-0.2081233455860097,-0.1454889276173461,-0.08766469606743091
1592167934.6393998,-0.6897957746477061,8.989694784166007,4.5302572524721,-0.4222222222222222,-0.19333333333333333,-0.30333333333333334,-0.18991847156106742,-0.12862188639769961,-0.06471519205480014
1592167934.6493998,-0.7844260409432691,9.009146744762607,4.760900027640677,-0.4222222222222222,-0.19333333333333333,-0.30333333333333334,-0.15110716705528554,-0.1470651994973118,-0.0290392232768206
1592167934.6593997,-0.5881383611674558,8.970542741325959,4.855839681047796,-0.4222222222222222,-0.19333333333333333,-0.30333333333333334,-0.09835437626700753,-0.11101899037503736,0.013367736873621132
1592167934.6693997,-0.2845780403937756,8.9392472524017,4.683522685384867,-0.425783819623707,-0.1963469926730512,-0.30908668298188563,-0.05368944636583163,-0.06344503100116011,0.007427982337980851
1592167934.6793997,-0.1808930213734614,8.986375967807952,4.325601584994186,-0.43666666666666665,-0.20555555555555555,-0.32666666666666666,-0.031317794159190664,-0.027537535180923414,-0.010657629042728947
1592167934.6893997,-0.2002399813945559,9.00825763810392,4.266882238548367,-0.43666666666666665,-0.20555555555555555,-0.32666666666666666,-0.031316464464913,0.012931475948886058,0.010815116440166972
1592167934.6993997,-0.10586135104943724,8.932515763641266,4.26409480953253,-0.43666666666666665,-0.20555555555555555,-0.32666666666666666,-0.027076600423953903,0.09181190620923638,0.008323694214717521
1592167934.7093997,-0.45070222672544147,8.9706649025161,4.164387409994626,-0.43666666666666665,-0.20555555555555555,-0.32666666666666666,-0.039102707746869456,0.03785226818433061,-0.008641129601191252
1592167934.7193997,-0.7331564295981249,9.001721593342703,4.256807514837748,-0.43497246436972464,-0.20555555555555555,-0.32941974539919744,-0.04456907665066285,0.057436277714117204,0.03297009067425794
1592167934.7293997,-0.7243141267949614,8.947913144030407,4.32898849207787,-0.42777777777777776,-0.20555555555555555,-0.3411111111111111,-0.043175731912315454,0.05221439174186765,0.057709
1592167934.7393997,-0.7232342349194596,8.92186060201154,4.317286669059858,-0.42777777777777776,-0.20555555555555555,-0.3411111111111111,-0.04132412069904834,0.04544703853562198,0.04537644492167342
1592167934.7493997,-0.6241609477017123,8.946312855387307,4.210376285037397,-0.42777777777777776,-0.20555555555555555,-0.3411111111111111,-0.04194299633402819,0.07320391402467923,-0.0025155696052583283
1592167934.7593997,-0.7139461706689406,8.994624819119153,4.1065362184151235,-0.42777777777777776,-0.20555555555555555,-0.3411111111111111,-0.052069403506085146,0.02763596898388774,-0.03803398334341784
1592167934.7693996,-0.7600779056111957,8.948649276742275,4.199946422385867,-0.42777777777777776,-0.20555555555555555,-0.3411111111111111,-0.05943935799510492,-0.010856697701745523,-0.04967830365044257
1592167934.7793996,-0.6745311726731698,8.878194618377016,4.199172990222984,-0.42777777777777776,-0.22555555555555556,-0.3477777777777778,-0.07866580177245491,-0.032508700004731356,-0.026085857204453566
1592167934.7893996,-0.5200034617614249,8.874153761700509,4.2502845754214436,-0.42777777777777776,-0.22555555555555556,-0.3477777777777778,-0.09491396125039953,-0.04301961674698728,-0.004648407658912716
1592167934.7993996,-0.34087649991842045,8.913511558653724,4.439181977022665,-0.42777777777777776,-0.22555555555555556,-0.3477777777777778,-0.09669042230822589,-0.03437121719477022,-0.009582295886476706
1592167934.8093996,-0.28407603193655806,8.936654918561361,4.560519525955217,-0.42777777777777776,-0.22555555555555556,-0.3477777777777778,-0.08745066420143294,-0.016248427167227734,-0.029105401281396014
1592167934.8193996,-0.3749572936992419,8.962533177810261,4.547254669817948,-0.42777777777777776,-0.2244032765656292,-0.3467901100721266,-0.06972789347808289,-0.007840855188970632,-0.027084206106202248
1592167934.8293996,-0.6155058499072699,8.922329704157608,4.657590095206186,-0.42777777777777776,-0.21777777777777776,-0.3411111111111111,-0.04850943724835765,-0.05258861074939356,0.030360391028230575
1592167934.8393996,-0.44884387491107425,8.922652874760079,4.878250208682629,-0.42777777777777776,-0.21777777777777776,-0.3411111111111111,-0.01237443819352322,-0.011711610540150023,0.07420823989457069
1592167934.8493996,-0.3036290416627165,8.906524614396393,4.596281407931082,-0.42777777777777776,-0.21777777777777776,-0.3411111111111111,0.023244197759652325,0.0010261561184103755,0.021915156118410373
1592167934.8593996,-0.6938499996050915,9.071386650156475,4.469186410917455,-0.42777777777777776,-0.21777777777777776,-0.3411111111111111,0.04298869491536689,-0.04669419148000168,0.018428616997733
1592167934.8693995,-0.6151216454336155,9.041292058268748,4.740983557407235,-0.42777777777777776,-0.21777777777777776,-0.3411111111111111,0.08268215005490236,-0.021552299697666248,0.05323002453906837
1592167934.8793995,-0.39207761959087756,9.015572671018784,4.747109394580736,-0.45444444444444443,-0.22555555555555556,-0.3622222222222222,0.1326998553107659,-0.03610902790906218,0.005814896456549956
1592167934.8893995,-0.5940076419736169,9.008505413651019,4.564094201763634,-0.45444444444444443,-0.22555555555555556,-0.3622222222222222,0.17906616914851448,-0.12495705040177277,-0.055206
1592167934.8993995,-0.6703597614897737,8.983268273757265,4.658687957746909,-0.45444444444444443,-0.22555555555555556,-0.3622222222222222,0.21614746230784243,-0.15929786560216486,-0.041367
1592167934.9093995,-0.5346699054694735,8.911449163253355,4.562900166054851,-0.45444444444444443,-0.22555555555555556,-0.3622222222222222,0.2426928651308964,-0.20723380709905662,-0.03533595773260339
1592167934.9193995,-0.3815777024332659,9.003624514634653,4.488131085593125,-0.4543488995904721,-0.22612882467938966,-0.36470638842550335,0.26505190050632216,-0.25442805942484653,-0.03173197323095216
1592167934.9293995,-0.12832110963382132,8.920799391501049,4.350879290729981,-0.4533333333333333,-0.23222222222222222,-0.39111111111111113,0.2734907605420129,-0.20374846796989585,-0.04805816700132179
1592167934.9393995,-0.03454186562000925,8.873021858636433,4.126163212709066,-0.4533333333333333,-0.23222222222222222,-0.39111111111111113,0.2626434300701592,-0.2070034745621846,-0.07259464965743148
1592167934.9493995,-0.04349734526381799,8.889782631934914,4.140697789894011,-0.4533333333333333,-0.23222222222222222,-0.39111111111111113,0.241301911988744,-0.1880318378233083,-0.09448801502641128
1592167934.9593995,-0.08113945168785673,8.867019545044563,4.1309893240076025,-0.4533333333333333,-0.23222222222222222,-0.39111111111111113,0.21893083095472005,-0.14351171533939092,-0.12147714069644176
1592167934.9693995,-0.29391577977918526,9.030721157417908,4.09918989027081,-0.45319065729818,-0.2325891034554736,-0.39111111111111113,0.2043822828872347,-0.189105221412463,-0.12656876322956598
1592167934.9793994,-0.4600694642964747,9.030531573071267,4.226443295961338,-0.44555555555555554,-0.25222222222222224,-0.39111111111111113,0.2169926232084308,-0.22514194899749967,-0.10881691647767285
1592167934.9893994,-0.3019604344009555,9.04312782638818,4.075454426101937,-0.44555555555555554,-0.25222222222222224,-0.39111111111111113,0.21194003003903847,-0.17580871281898558,-0.05449592960744529
1592167934.9993994,-0.021650480821664375,9.072865592017543,3.8863132579216204,-0.44555555555555554,-0.25222222222222224,-0.39111111111111113,0.18763343225501986,-0.1637110327658565,-0.02437818108480843
1592167935.0093994,-0.02198567753823496,8.998098189606946,3.7329321073150785,-0.44555555555555554,-0.25222222222222224,-0.39111111111111113,0.15539901081245305,-0.1566024322132846,-0.011495679711606045
1592167935.0193994,-0.03577653425157785,9.056280744734375,3.8008440449748404,-0.44555555555555554,-0.25222222222222224,-0.39111111111111113,0.12695351387973805,-0.13908974625001877,0.021774472462325556
1592167935.0293994,0.1524284853275299,8.924323845021704,3.7934823373052606,-0.4577777777777778,-0.25222222222222224,-0.41888888888888887,0.10756284047247183,-0.010121624072357782,-0.012309784057372264
1592167935.0393994,-0.1378384008743297,9.060924632188073,3.781781526361746,-0.4577777777777778,-0.25222222222222224,-0.41888888888888887,0.07086060664333985,-0.07281123462298117,-0.05686482758789858
1592167935.0493994,-0.3909285452398125,9.124062020865342,4.069670471347888,-0.4577777777777778,-0.25222222222222224,-0.41888888888888887,0.07490445194623244,-0.058770866902526336,-0.039873529138265605
1592167935.0593994,-0.21943609481294915,9.104126123864024,4.0718357758999755,-0.4577777777777778,-0.25222222222222224,-0.41888888888888887,0.0842758114618901,-0.013456216548187223,-0.035797918480578485
1592167935.0693994,-0.324889188751728,9.130619294750128,3.8899941992625378,-0.4577777777777778,-0.25222222222222224,-0.41888888888888887,0.07534414037409626,-0.07228369184878333,-0.051153779284465295
1592167935.0793993,-0.5019816384324288,9.154376287693074,3.9530240657133318,-0.45666666666666667,-0.27,-0.4266666666666667,0.0741821287594322,-0.11422565077923756,-0.024350569591604556
1592167935.0893993,-0.3432512446228914,9.10951604343421,4.121022504341515,-0.45666666666666667,-0.27,-0.4266666666666667,0.08933283916342036,-0.09171633874528552,0.00729717790870587
1592167935.0993993,-0.1847325378470607,9.105809628624943,3.971672377273401,-0.45666666666666667,-0.27,-0.4266666666666667,0.09928559581620897,-0.08998502509785689,0.0030815847352129366
1592167935.1093993,-0.03828461558791633,9.160469539912357,3.8683598420001024,-0.45666666666666667,-0.27,-0.4266666666666667,0.10946430559471063,-0.029810340506060733,-0.01512557282777122
1592167935.1193993,-0.12351079253559928,9.077128785611515,3.941653321988164,-0.45666666666666667,-0.27,-0.4266666666666667,0.11105940258886016,-0.017383861078333913,-0.02707201199668423
1592167935.1293993,-0.33925010283602763,9.118229289051111,4.014652559302274,-0.4622222222222222,-0.27555555555555555,-0.44222222222222224,0.10602645369965387,-0.020366348434868734,-0.014333656788370277
1592167935.1393993,-0.42391315048811795,9.20220033704675,4.063621145906783,-0.4622222222222222,-0.27555555555555555,-0.44222222222222224,0.12758728469967703,-0.0506706262711558,-0.007557622918636461
1592167935.1493993,-0.3126062146508652,9.160266650062352,4.056698464848383,-0.4622222222222222,-0.27555555555555555,-0.44222222222222224,0.1532744600378412,-0.052145260826276935,0.0012417829649019993
1592167935.1593993,-0.26516842769792365,9.149037261303466,3.9939155670170776,-0.4622222222222222,-0.27555555555555555,-0.44222222222222224,0.16591556384627734,-0.08753690932417761,0.013334530497199433
1592167935.1693993,-0.17282280521726653,9.096844666279667,3.9105836106391214,-0.4622222222222222,-0.27555555555555555,-0.44222222222222224,0.17288523722647975,-0.09930420274324538,0.043351880586545884
1592167935.1793993,0.13271758766005198,9.092134095145335,3.8291431506338953,-0.4477777777777778,-0.2733333333333333,-0.4633333333333333,0.1664712274847925,-0.07817837739055472,0.0367530536085687
1592167935.1893992,0.15801477432593447,9.107248158491888,3.6543425780288996,-0.4477777777777778,-0.2733333333333333,-0.4633333333333333,0.15091213934196515,-0.06388231130582504,0.004864874218409047
1592167935.1993992,0.0976581062014926,9.117298424894226,3.754795031999091,-0.4477777777777778,-0.2733333333333333,-0.4633333333333333,0.13551020616501622,-0.07273779063620106,0.0024794917334162473
1592167935.2093992,0.025909319742035995,9.191249825434102,3.8753727002982217,-0.4477777777777778,-0.2733333333333333,-0.4633333333333333,0.14159944736154123,-0.07578640423272716,-0.00696427203585562
1592167935.2193992,0.08114954701932141,9.178702963107016,3.9907737707226114,-0.4477777777777778,-0.2733333333333333,-0.4633333333333333,0.17045070302321372,-0.06280836218506654,-0.033352637814933465
1592167935.2293992,0.17916872842490084,9.040132836712615,3.813333843041508,-0.4577777777777778,-0.27111111111111114,-0.4722222222222222,0.1700666901878019,-0.027548060059068066,-0.049052084261616516
1592167935.2393992,0.10189500530780615,9.237845732223915,3.5431295771609044,-0.4577777777777778,-0.27111111111111114,-0.4722222222222222,0.13982177407049012,-0.08998602384851337,-0.0638907040088956
1592167935.2493992,0.1690303002411726,8.944336375193384,3.89297509982426,-0.4577777777777778,-0.27111111111111114,-0.4722222222222222,0.1423783825715624,-0.046985447696630274,-0.08123380046511212
1592167935.2593992,0.22633987052193918,9.137024758501555,3.647539758751811,-0.4577777777777778,-0.27111111111111114,-0.4722222222222222,0.1167189278710288,-0.0376017584123819,-0.1155433979175112
1592167935.2693992,0.23425374594738274,8.984392477980629,3.7339670387296353,-0.4577777777777778,-0.27111111111111114,-0.4722222222222222,0.09542887177043319,-0.002590874388878309,-0.1481180423564798
1592167935.2793992,0.1942086943138738,9.1189929138695,3.773221985406495,-0.45111111111111113,-0.28888888888888886,-0.48444444444444446,0.06429654833342824,0.01330834751787354,-0.13479033809667584
1592167935.2893991,0.1874218428367296,9.245682412759965,3.967256238632778,-0.45111111111111113,-0.28888888888888886,-0.48444444444444446,0.06569856427392451,0.048898612025921454,-0.07339221411634726
1592167935.2993991,0.33153167332525374,9.182351591460801,4.188052798027508,-0.45111111111111113,-0.28888888888888886,-0.48444444444444446,0.09435156926962099,0.09355977384209269,-0.0308034014599507
1592167935.3093991,0.2470352587122783,9.192971582254529,4.198765910608684,-0.45111111111111113,-0.28888888888888886,-0.48444444444444446,0.12998825738123046,0.1334615471549647,-0.016541092949727363
1592167935.319399,0.02999950173860698,9.289348911459486,4.207389110939494,-0.45111111111111113,-0.28888888888888886,-0.48444444444444446,0.17032594898151915,0.14173981746007702,0.06471478788942839
1592167935.329399,0.09216607268705165,9.11140327718376,4.187593423569598,-0.45444444444444443,-0.29333333333333333,-0.4866666666666667,0.2119926258144019,0.20311617238900764,0.12273354710418977
1592167935.339399,0.23782047282555124,9.087662825658569,4.065865175203922,-0.45444444444444443,-0.29333333333333333,-0.4866666666666667,0.23190433938030208,0.22303893090070231,0.10276651435564951
1592167935.349399,0.09273087258715856,9.173396141550956,3.9390599584063786,-0.45444444444444443,-0.29333333333333333,-0.4866666666666667,0.2520053950759945,0.22665315773023093,0.032318042685026666
1592167935.359399,-0.13912017102533114,9.205966800590387,3.9028983858296744,-0.45444444444444443,-0.29333333333333333,-0.4866666666666667,0.268853430351075,0.24220460975600833,0.0006776359362388774
1592167935.369399,-0.116852,9.213711000483661,3.834107209019518,-0.45444444444444443,-0.29333333333333333,-0.4866666666666667,0.28153123889183146,0.24309103103833907,-0.005914234777270001
1592167935.379399,-0.1365904636036792,9.221050039928747,3.7956719274950452,-0.4489466778259097,-0.29113422668591943,-0.5152550530830474,0.2879836015524054,0.2201633995026626,0.008310496257775902
1592167935.389399,-0.17384000249580336,9.229950446874689,3.817454651827214,-0.4488888888888889,-0.2911111111111111,-0.5155555555555555,0.30411602413769967,0.2162154107848456,0.055358906183648394
1592167935.399399,-0.15182345252486248,9.207578209962026,3.694883286728952,-0.4488888888888889,-0.2911111111111111,-0.5155555555555555,0.31226803229336764,0.19755464437586323,0.10363835562413677
1592167935.409399,-0.029955308799799574,9.242361874193362,3.605822675116563,-0.4488888888888889,-0.2911111111111111,-0.5155555555555555,0.30898734917654175,0.16676884802717212,0.14184110091802163
1592167935.419399,0.33583951367758014,9.191251913549124,3.3448646076203867,-0.4488888888888889,-0.2911111111111111,-0.5155555555555555,0.28347369528379385,0.22945663783998616,0.043273827540314155
1592167935.429399,-0.2295493208530065,9.357174776240084,3.3476458744350204,-0.44222222222222224,-0.2966666666666667,-0.5011111111111111,0.26828,0.12623659771537968,0.018861524670575953
1592167935.439399,-0.3701142584794141,9.275186218650317,3.593632903825583,-0.44222222222222224,-0.2966666666666667,-0.5011111111111111,0.27298010823143215,0.16377763517108423,0.12259818900399638
1592167935.449399,0.167309290519304,9.231741080323857,3.361701631434496,-0.44222222222222224,-0.2966666666666667,-0.5011111111111111,0.25342475699924494,0.18881253901447118,0.15910915760386288
1592167935.459399,0.4282345583059163,9.212209511027309,3.121149801786743,-0.44222222222222224,-0.2966666666666667,-0.5011111111111111,0.21549299578430714,0.20034637165706393,0.07419408369897809
1592167935.469399,0.023512114799332615,9.238550044129287,3.2363516452807626,-0.44222222222222224,-0.2966666666666667,-0.5011111111111111,0.19149792656260234,0.17361076947409199,0.040784481383863994
1592167935.479399,-0.11653626349428672,9.244893000135537,3.2167775950673847,-0.435740017653307,-0.3117918106608022,-0.5356828688119922,0.1527187447108357,0.16536859001459872,0.058413507855908084
1592167935.489399,-0.10780071039166175,9.343923991791286,3.263245791883576,-0.43555555555555553,-0.31222222222222223,-0.5366666666666666,0.13159581475905033,0.11531481475905034,0.10069205070307882
1592167935.499399,0.3441309551544178,9.253218248699433,3.087214306716529,-0.43555555555555553,-0.31222222222222223,-0.5366666666666666,0.09522410786051928,0.1427668921394807,0.09239340298465834
1592167935.509399,0.30239885191664806,9.507729318930357,2.9737231351996742,-0.43555555555555553,-0.31222222222222223,-0.5366666666666666,0.06997275542778393,0.11481238320214256,0.04844718106551591
1592167935.519399,0.08680393058737616,9.204993607665164,3.0635274759737836,-0.43555555555555553,-0.31222222222222223,-0.5366666666666666,0.04047214918931079,0.13895376873263893,0.09216511456102529
1592167935.529399,0.3282358343331051,9.232966329611356,3.0033671306749112,-0.42444444444444446,-0.30333333333333334,-0.5466666666666666,-0.006719334498589868,0.1617219903287256,0.10313763302377689
1592167935.539399,0.35168555940523977,9.447525,3.003093473475315,-0.42444444444444446,-0.30333333333333334,-0.5466666666666666,-0.04203715601121279,0.14945290817710455,0.051824905819706744
1592167935.549399,0.03603100541984419,9.338120899880495,3.302359462343998,-0.42444444444444446,-0.30333333333333334,-0.5466666666666666,-0.04243987308277177,0.14218805690144595,0.043086508285367836
1592167935.559399,0.1634917229330596,9.375389944756323,3.1748594093898843,-0.42444444444444446,-0.30333333333333334,-0.5466666666666666,-0.07374218511919044,0.15894046027964792,0.08153240995383336
1592167935.5693989,0.2585423057406458,9.432944710549167,3.233677051235544,-0.42444444444444446,-0.30333333333333334,-0.5466666666666666,-0.07763138003947954,0.10499755745942425,0.09149173633395961
1592167935.5793989,0.1922578817089947,9.250493022445864,3.2541983609301504,-0.43461480150390697,-0.3125791124782993,-0.5466666666666666,-0.09813904955188846,0.11489562397110584,0.09144342558078263
1592167935.5893989,0.29401546325466077,9.399569607070886,3.2369293018628515,-0.43666666666666665,-0.31444444444444447,-0.5466666666666666,-0.10850217013781144,0.12746605858565604,0.08876921817980007
1592167935.5993989,0.40031255618189854,9.331997127907677,3.416285199381284,-0.43666666666666665,-0.31444444444444447,-0.5466666666666666,-0.11541234070167672,0.16688228494070315,0.12752621179883467
1592167935.6093988,0.5446034398416142,9.345719641444935,3.3918025228699,-0.43666666666666665,-0.31444444444444447,-0.5466666666666666,-0.1091024743463386,0.1534794808748141,0.06607066743209981
1592167935.6193988,0.4103629083200325,9.25981599974583,3.520971751047947,-0.43666666666666665,-0.31444444444444447,-0.5466666666666666,-0.10161558761103111,0.1786057358874016,0.005531650904609113
1592167935.6293988,0.17609542275212858,9.362663496614969,3.7918712828554595,-0.43859097385380397,-0.3019364477280519,-0.5716826600994518,-0.07227545632597525,0.15727099537700992,-0.021799719298189222
1592167935.6393988,0.008444469934644833,9.299489669050987,3.845585416458007,-0.4388888888888889,-0.3,-0.5755555555555556,-0.0350957766615709,0.13747739844678247,0.0016236620410616438
1592167935.6493988,0.03822580457353998,9.300671469528258,3.745929185614673,-0.4388888888888889,-0.3,-0.5755555555555556,0.0025742870645387057,0.12828437465235612,0.021950794316920347
1592167935.6593988,0.23420438385295173,9.326898132141567,3.704697544634883,-0.4388888888888889,-0.3,-0.5755555555555556,0.023192606313615156,0.13531571620176214,0.05676504356230988
1592167935.6693988,0.41980396555751837,9.423031389853927,3.5269327508360617,-0.4388888888888889,-0.3,-0.5755555555555556,0.03969754430097744,0.1674697190486649,0.07905632784763987
1592167935.6793988,0.39973241935308257,9.28655672770227,3.496883924362226,-0.43367238456454904,-0.31043300864867973,-0.6005947763123869,0.045639,0.16540858925641122,0.11353656370145959
1592167935.6893988,0.4617507056225689,9.334917075227805,3.33867987818795,-0.43333333333333335,-0.3111111111111111,-0.6022222222222222,0.041277039984739805,0.18706197575547515,0.12176741178937993
1592167935.6993988,0.31001931567792884,9.333591922598364,3.2988135993226697,-0.43333333333333335,-0.3111111111111111,-0.6022222222222222,0.03065970148157693,0.17841152333066979,0.13225668263873513
1592167935.7093987,0.27363824918281626,9.315816425212361,3.248857140008522,-0.43333333333333335,-0.3111111111111111,-0.6022222222222222,0.007617404689235543,0.15430335933584868,0.12285789226985223
1592167935.7193987,0.22394906079328994,9.243408796541942,3.2714747613910733,-0.43333333333333335,-0.3111111111111111,-0.6022222222222222,-0.010325988513846066,0.11242791342093014,0.09912000543072637
1592167935.7293987,0.25746632033505085,9.235642089818075,3.359806351009021,-0.4237963786563609,-0.2987130700310469,-0.6022222222222222,-0.024178363478132563,0.09884997591937825,0.03772970450323509
1592167935.7393987,0.3277155994985559,9.257354151879523,3.3890333184656156,-0.4222222222222222,-0.2966666666666667,-0.6022222222222222,-0.03595029361176958,0.10403842659705761,-0.005184444066271171
1592167935.7493987,0.34994648071512774,9.307774710111536,3.4865333852332996,-0.4222222222222222,-0.2966666666666667,-0.6022222222222222,-0.03666649939266225,0.08614132085424467,-0.03919417853841759
1592167935.7593987,0.30076883513644687,9.345408164428987,3.6618606222585695,-0.4222222222222222,-0.2966666666666667,-0.6022222222222222,-0.01731313760816141,0.08444026238932614,-0.042419
1592167935.7693987,0.3675875660323886,9.370227411985114,3.6305837510303123,-0.4222222222222222,-0.2966666666666667,-0.6022222222222222,0.007418022731116597,0.08701382383412266,-0.04069567052739665
1592167935.7793987,0.28004956235336437,9.369560497769145,3.6071591631815263,-0.41726625582199445,-0.30410061626700835,-0.608830177422526,0.026503743542386785,0.07114106500018062,-0.013118438074043582
1592167935.7893987,0.22402893182315817,9.384385068176842,3.5751812248274786,-0.41555555555555557,-0.30666666666666664,-0.6111111111111112,0.04300086126077475,0.04552466231542816,0.024783232830116207
1592167935.7993987,0.23687098799482442,9.333423855139015,3.6234849793962134,-0.41555555555555557,-0.30666666666666664,-0.6111111111111112,0.05765431085437993,0.039443886957558495,0.056262519632938456
1592167935.8093987,0.13639205308016097,9.322343909353005,3.5075976470504235,-0.41555555555555557,-0.30666666666666664,-0.6111111111111112,0.06545023634933016,0.016333509353127405,0.060266763650669845
1592167935.8193986,0.10906310168690146,9.326730009922931,3.3800028058465403,-0.41555555555555557,-0.30666666666666664,-0.6111111111111112,0.06368400869804751,9.962878163038286e-05,0.05629535612552561
1592167935.8293986,0.08206268022069639,9.304137744657105,3.508782877242551,-0.4066199445174478,-0.301305300043802,-0.6227274054606512,0.05799049469256297,-0.02795388950758813,0.038851245998832676
1592167935.8393986,0.17479970858761593,9.245152501304352,3.7886705024888405,-0.40444444444444444,-0.3,-0.6255555555555555,0.0808324229207803,-0.03232159999616347,-0.02662597147918914
1592167935.8493986,0.14545251024459332,9.310333661016148,3.887589334682303,-0.40444444444444444,-0.3,-0.6255555555555555,0.12169771779802435,-0.022356362752896774,-0.06877856100080762
1592167935.8593986,0.17816444615499785,9.40868840245931,3.8899457485781057,-0.40444444444444444,-0.3,-0.6255555555555555,0.1729483834829541,-0.04866950481892469,-0.06325787242810374
1592167935.8693986,0.3827481644551931,9.375063586092041,3.7673890550930813,-0.40444444444444444,-0.3,-0.6255555555555555,0.21951493706824948,-0.02601170430923766,-0.03517133276513231
1592167935.8793986,0.5236930710290333,9.39575617170669,3.6210244233967583,-0.4007917456306591,-0.31187127114480245,-0.6556903207692848,0.25447960984015433,-0.017447390159845658,-0.02005
1592167935.8893986,0.560949649496434,9.34969069643853,3.4045716904804366,-0.4,-0.31444444444444447,-0.6622222222222223,0.2734021820319603,0.02444735165240033,-0.03953568072956851
1592167935.8993986,0.30554176100856356,9.392809425241131,3.2436581299301923,-0.4,-0.31444444444444447,-0.6622222222222223,0.28047970494984575,-0.006694111498233102,-0.033474593451612654
1592167935.9093986,0.16680381121684643,9.437801924809692,3.114010272358365,-0.4,-0.31444444444444447,-0.6622222222222223,0.2848710887980793,0.006017636272434566,0.005703272544869132
1592167935.9193985,0.43729388814039577,9.36765770948616,2.9856620477550333,-0.4,-0.31444444444444447,-0.6622222222222223,0.26936576696214076,0.0488772437555258,0.020467135874231067
1592167935.9293985,0.5209819937206018,9.352928198955043,2.8835302555341897,-0.40642690279351495,-0.31846125869039127,-0.6421381509924882,0.24355383725500276,0.1068802185412133,-0.025337810157347238
1592167935.9393985,0.20665547088345848,9.436933568225033,3.067455521902896,-0.4088888888888889,-0.32,-0.6344444444444445,0.22103546983105662,0.08307186715417177,-0.026570211217319895
1592167935.9493985,0.11182175385324537,9.478482202726328,3.2200985019410973,-0.4088888888888889,-0.32,-0.6344444444444445,0.2295022024149904,0.11024081918941207,0.02183178856236554
1592167935.9593985,0.22553167739229776,9.443815904616066,3.1290997723851053,-0.4088888888888889,-0.32,-0.6344444444444445,0.23218658128729194,0.10274532723432353,0.05990218940593126
1592167935.9693985,0.27810788289177846,9.41844539652059,3.026140811263162,-0.4088888888888889,-0.32,-0.6344444444444445,0.2250971240094822,0.0809931240094822,0.06126563540829113
1592167935.9793985,0.36097229134978315,9.3906638395033,2.9191188098596883,-0.39910144958606225,-0.3183687601161956,-0.6344444444444445,0.21230197557926295,0.08689450669707323,0.025251566815000633
1592167935.9893985,0.3397820997146128,9.40248916293665,2.693041213049146,-0.39555555555555555,-0.31777777777777777,-0.6344444444444445,0.18329193681719905,0.07485263926919415,-0.02895180797120227
1592167935.9993985,0.1914012318594815,9.461919529559532,2.6386361441800394,-0.39555555555555555,-0.31777777777777777,-0.6344444444444445,0.14622847332132866,0.039042146878130284,-0.04268708079479675
1592167936.0093985,0.18793122576952453,9.49867833706974,2.7403320282339263,-0.39555555555555555,-0.31777777777777777,-0.6344444444444445,0.11695455503403084,0.03396471308356699,-0.004588301840492354
1592167936.0193985,0.3443606896385354,9.476205559001526,2.7744709889213466,-0.39555555555555555,-0.31777777777777777,-0.6344444444444445,0.0909788594401239,0.03631074533768671,0.015601350596177784
1592167936.0293984,0.3702420027956567,9.450680758261123,2.9081703558639576,-0.38043950509973545,-0.3247059675700287,-0.6262565837808752,0.07408244299667156,0.05013719868905344,0.0010379619977810462
1592167936.0393984,0.24921888012686627,9.507161030024045,3.000211431798974,-0.3688888888888889,-0.33,-0.62,0.07455834481487747,0.05020275417184737,0.014305085943923102
1592167936.0493984,0.26172640895538807,9.490620256735019,3.0864200955797796,-0.3688888888888889,-0.33,-0.62,0.08191321617507193,0.040125147680273074,0.04741385289495412
1592167936.0593984,0.35256194454448747,9.488282321160334,3.006642994997415,-0.3688888888888889,-0.33,-0.62,0.081863,0.036634612883504836,0.048025403751855815
1592167936.0693984,0.24541369991532558,9.493721778351498,2.927769267586791,-0.3688888888888889,-0.33,-0.62,0.08080602320009612,0.006133808642174169,0.03434801790179513
1592167936.0793984,0.34919002027917934,9.461780303658047,2.8638980887230443,-0.3701420942143448,-0.3331330133136398,-0.6250128213018238,0.07356675399405345,0.02113589849972823,0.00632243873720878
1592167936.0893984,0.3013928314729092,9.454649265468367,2.7252226023523463,-0.3711111111111111,-0.33555555555555555,-0.6288888888888889,0.06021063757055931,0.004260952240304348,-0.042490590508809996
1592167936.0993984,0.20537634756568582,9.51194590574228,2.793667437461435,-0.3711111111111111,-0.33555555555555555,-0.6288888888888889,0.03676049829726802,-0.025829190657673314,-0.030854604452647042
1592167936.1093984,0.354298198754494,9.519942492838517,2.9506742083366717,-0.3711111111111111,-0.33555555555555555,-0.6288888888888889,0.037109,0.0017563176379863047,-0.009062984851152874
1592167936.1193984,0.46614713061281815,9.479486536133763,2.9092969488442777,-0.3711111111111111,-0.33555555555555555,-0.6288888888888889,0.03695485228521153,0.002107229256792278,-0.003917507833275582
1592167936.1293983,0.4307500527380307,9.469153267062977,2.7812100820305656,-0.3563000931249182,-0.33555555555555555,-0.6325916433854372,0.03128126945928975,0.00012756921554521114,-0.012922272073485182
1592167936.1393983,0.2711118017327945,9.486746072673087,2.6823618642656584,-0.34444444444444444,-0.33555555555555555,-0.6355555555555555,0.012597839332433252,-0.020078701750152465,0.002335542424886981
1592167936.1493983,0.255364155782062,9.52403451340106,2.6638669388594876,-0.34444444444444444,-0.33555555555555555,-0.6355555555555555,-0.01180946553096054,-0.050041542125716355,0.03239000382833845
1592167936.1593983,0.3196578420518564,9.489134313718825,2.6046555815795234,-0.34444444444444444,-0.33555555555555555,-0.6355555555555555,-0.04239457942573678,-0.08052093123878958,0.03884265412753708
1592167936.1693983,0.4619530823636269,9.468920355672473,2.557338107204851,-0.34444444444444444,-0.33555555555555555,-0.6355555555555555,-0.0782987873083359,-0.091003,0.013228980186940797
1592167936.1793983,0.42834637854894225,9.442752510385464,2.58555993005118,-0.34999152999153,-0.3284956284956285,-0.6335384335384335,-0.1105271413929224,-0.12052413092370809,-0.01883422282228492
1592167936.1893983,0.35839199265288846,9.51607497980246,2.7207963389622085,-0.3566666666666667,-0.32,-0.6311111111111111,-0.13367018550831541,-0.15527182997250769,-0.0236109072458423
1592167936.1993983,0.5098748365428974,9.466918992345576,2.940778654611455,-0.3566666666666667,-0.32,-0.6311111111111111,-0.1453250827839326,-0.1334792121785255,-0.025451459758107104
1592167936.2093983,0.6454023215317781,9.422507968765144,3.0353557895647962,-0.3566666666666667,-0.32,-0.6311111111111111,-0.14739999375194496,-0.12852499375194495,-0.04722334726604607
1592167936.2193983,0.45384660102561286,9.461664307640376,3.0998483176278957,-0.3566666666666667,-0.32,-0.6311111111111111,-0.14442929687178996,-0.15851388216927648,-0.05761002717323028
1592167936.2293983,0.28834555826169667,9.530924614351273,3.072055307539276,-0.3566666666666667,-0.3305802180685358,-0.6311111111111111,-0.13902681034713388,-0.1834837856563487,-0.023435795924824285
1592167936.2393982,0.5030097046863666,9.488091170145118,2.9711031437533544,-0.3566666666666667,-0.3411111111111111,-0.6311111111111111,-0.14200124419598978,-0.173231284268552,0.011442045425301297
1592167936.2493982,0.5899768809047468,9.395270117603808,2.8719728044644572,-0.3566666666666667,-0.3411111111111111,-0.6311111111111111,-0.1566847607107037,-0.21282811887365363,0.00289309369466621
1592167936.2593982,0.6359703595793922,9.449419883648668,3.0980008614463785,-0.3566666666666667,-0.3411111111111111,-0.6311111111111111,-0.1611673327733362,-0.19320778581432752,-0.005763442289722785
1592167936.2693982,0.7596815638803788,9.403699335693998,3.2411245971603737,-0.3566666666666667,-0.3411111111111111,-0.6311111111111111,-0.14650038349914138,-0.14967689824267064,-0.027799672015717078
1592167936.2793982,0.7916904149941263,9.460525055983101,3.417287631700673,-0.3566666666666667,-0.3298518985987017,-0.6234074393920941,-0.13054958730310862,-0.14744192708911139,-0.056229901739815194
1592167936.2893982,0.7667824362995422,9.445832032169996,3.5196907841705194,-0.3566666666666667,-0.32,-0.6166666666666667,-0.08443501652967238,-0.09177312403955405,-0.072008558911802
1592167936.2993982,0.6901350512787797,9.43753306886936,3.36961094625363,-0.3566666666666667,-0.32,-0.6166666666666667,-0.048820638810891395,-0.07579833235795144,-0.07485488964911428
1592167936.3093982,0.6189606126838847,9.450721687920655,3.2554103902617695,-0.3566666666666667,-0.32,-0.6166666666666667,-0.03070913643514144,-0.07041348603736991,-0.07332635997398528
1592167936.3193982,0.5161851364830258,9.440543636397248,3.2037062484338312,-0.3566666666666667,-0.32,-0.6166666666666667,-0.018377606202170323,-0.05030068464501843,-0.06244214160289376
1592167936.3293982,0.4022920964477286,9.46626023497967,3.089303552504246,-0.3541834984347528,-0.32,-0.6166666666666667,-0.019348,-0.048401,-0.049655785869233526
1592167936.3393981,0.4133486345864115,9.447294346936651,3.062054468924496,-0.35,-0.32,-0.6166666666666667,-0.02121586899123717,-0.04466124887740029,-0.03203337177403206
1592167936.3493981,0.45382694643378074,9.435513566676109,3.2198347513383303,-0.35,-0.32,-0.6166666666666667,-0.018738788468000974,-0.015089679275306755,-0.021118
1592167936.3593981,0.4470128324590767,9.414311120844308,3.2964657115952223,-0.35,-0.32,-0.6166666666666667,-0.004231777505790615,0.02487510972189617,-0.023254
1592167936.369398,0.42218251834746173,9.434130691444718,3.2786912327767075,-0.35,-0.32,-0.6166666666666667,0.013678489000840883,0.046231493184651605,-0.023254
1592167936.379398,0.34371517201196755,9.447889851837521,3.2107084702855198,-0.347882033460567,-0.32,-0.6192082265139862,0.024767483875408867,0.06097415322563569,-0.01770437339724857
1592167936.389398,0.28910244351377706,9.436560874993368,3.119510983819343,-0.34444444444444444,-0.32,-0.6233333333333333,0.025160547934365087,0.06275301401479516,0.005366806279993306
1592167936.399398,0.30613452846587313,9.418194239379233,3.1130990999228514,-0.34444444444444444,-0.32,-0.6233333333333333,0.022918168081408934,0.04578674859891285,0.02299207909779615
1592167936.409398,0.3110536559730685,9.447119231462882,3.1176471024999213,-0.34444444444444444,-0.32,-0.6233333333333333,0.014619942202163023,0.027822165009170483,0.034934346220109165
1592167936.419398,0.36827809972000314,9.448316681872933,3.1353965875092387,-0.34444444444444444,-0.32,-0.6233333333333333,0.011518340316703238,0.01315429962375685,0.04582716028693329
1592167936.429398,0.39166522296396694,9.393625223528062,3.156476974326849,-0.3463188347293706,-0.3222492683419114,-0.6173352844215696,0.012623865935534339,0.008066731871068678,0.03316907513484205
1592167936.439398,0.4106606863439649,9.42340569867089,3.1254516149851455,-0.35,-0.32666666666666666,-0.6055555555555555,0.013687,0.011238072187771918,0.014289583362828566
1592167936.449398,0.39618262239652097,9.380703190460856,3.0244832612804986,-0.35,-0.32666666666666666,-0.6055555555555555,0.014790721560373987,0.018454104579596,-0.023412054073470575
1592167936.459398,0.2819716532690884,9.431335195448366,3.036521568536166,-0.35,-0.32666666666666666,-0.6055555555555555,0.00554854731379636,0.006796360160225083,-0.04711900950488622
1592167936.469398,0.1965762499475489,9.439465948449653,3.0894041270798343,-0.35,-0.32666666666666666,-0.6055555555555555,0.0010127426691955228,-0.01862648290615028,-0.05128564454313157
1592167936.479398,0.22456496971338,9.446480706988478,3.044618880681744,-0.3412070171232192,-0.3226365495148088,-0.6037236841228929,-0.0009420595182672278,-0.02970304561272559,-0.024092622366295672
1592167936.489398,0.37702035202952366,9.453952154297598,3.0216709073506025,-0.3233333333333333,-0.31444444444444447,-0.6,-0.010665942993306959,-0.04772610557782262,-0.002811819943144042
1592167936.499398,0.4113945467110268,9.460430463301325,2.9938817082915006,-0.3233333333333333,-0.31444444444444447,-0.6,-0.02386561396522441,-0.053726,0.004498056228522431
1592167936.509398,0.36835665169272974,9.442402349313276,2.9709254242829233,-0.3233333333333333,-0.31444444444444447,-0.6,-0.03310747867576657,-0.04506217000511957,0.01334694604265842
1592167936.519398,0.3701590638630957,9.432790528024595,2.9061025959240014,-0.3233333333333333,-0.31444444444444447,-0.6,-0.04336151379344864,-0.02805373070428093,0.015360519389349169
1592167936.529398,0.3767806870890218,9.4484898716473,2.878820204524613,-0.3270423748503208,-0.3192947295051204,-0.5982881346844673,-0.06442437655966599,-0.01204953939881017,0.007930938769531192
1592167936.539398,0.40477164312254954,9.458300726550851,2.9109934182179007,-0.3377777777777778,-0.3333333333333333,-0.5933333333333334,-0.08358349636609531,-0.005045669622886833,0.010198164035951593
1592167936.549398,0.39352560795177455,9.416291800285949,2.945106410741449,-0.3377777777777778,-0.3333333333333333,-0.5933333333333334,-0.10178920636644395,-0.002966079821634926,0.012994119732452389
1592167936.559398,0.41610177331122716,9.400709657802516,3.0430680204345015,-0.3377777777777778,-0.3333333333333333,-0.5933333333333334,-0.11829475441911248,-0.015950278023574464,0.013775491743817616
1592167936.569398,0.4083853047667181,9.397540998973867,3.0556876931810146,-0.3377777777777778,-0.3333333333333333,-0.5933333333333334,-0.1282575726334931,-0.035846859757992296,-0.0012548347093315052
1592167936.579398,0.3922441205248545,9.406088200996006,3.1048822604993864,-0.33475250192882006,-0.32937720337700405,-0.5947296144943908,-0.13416403416585435,-0.04647637549883257,-0.015347010166919672
1592167936.589398,0.4012140616709869,9.41223392573912,3.135961240084972,-0.3233333333333333,-0.31444444444444447,-0.6,-0.13712664982830947,-0.04171910316523257,-0.020511917664514014
1592167936.599398,0.4231370005800463,9.400449684388112,3.105533009720794,-0.3233333333333333,-0.31444444444444447,-0.6,-0.14087207129360652,-0.026174357752649133,-0.02555679564741939
1592167936.609398,0.36911366379479715,9.408475100253968,3.1572655858728274,-0.3233333333333333,-0.31444444444444447,-0.6,-0.14450315618960266,-0.01636461752821146,-0.02050226169177443
1592167936.6193979,0.33424278033768295,9.401576378675818,3.154760452153581,-0.3233333333333333,-0.31444444444444447,-0.6,-0.15082696028420498,-0.006249960284204969,-0.010527313747529046
1592167936.6293979,0.27141764846909044,9.385045318586233,3.156535670117141,-0.32476714257964256,-0.31707309472934475,-0.6,-0.16027138190613924,-0.02208738190613925,-0.007278
1592167936.6393979,0.175856753193599,9.370250408314229,3.288069588488124,-0.33,-0.32666666666666666,-0.6,-0.1657464625667266,-0.039631503576281715,-0.004215074866546826
1592167936.6493979,0.17084733429771637,9.36317173076692,3.553467728376162,-0.33,-0.32666666666666666,-0.6,-0.15584103824997467,-0.056288977768262825,0.005569841604717293
1592167936.6593978,0.3454969677378484,9.353299246733378,3.758060206609635,-0.33,-0.32666666666666666,-0.6,-0.12465215108722678,-0.05025272015382682,0.022433569066600025
1592167936.6693978,0.4949973687480813,9.357650959083912,3.8077252998369597,-0.33,-0.32666666666666666,-0.6,-0.08039304210732762,-0.022573430213255224,0.0224520117430776
1592167936.6793978,0.4732944024205785,9.340896554775611,3.8323553009980795,-0.336167393853049,-0.3208238724900939,-0.6016229983823813,-0.0345042872381084,0.009695382972609605,0.01581800353725378
1592167936.6893978,0.4303425341770667,9.350500877179229,3.670688879531228,-0.3511111111111111,-0.30666666666666664,-0.6055555555555555,0.004685282879735739,0.040096649062775346,0.008629495299492293
1592167936.6993978,0.4228956310436425,9.327937852654934,3.426296143635075,-0.3511111111111111,-0.30666666666666664,-0.6055555555555555,0.02333334415673461,0.04605482320070195,-0.0017998420844249283
1592167936.7093978,0.34789654422886573,9.350840992832767,3.4604423057626423,-0.3511111111111111,-0.30666666666666664,-0.6055555555555555,0.0335729159478644,0.03921203889470908,-0.0027974015783465674
1592167936.7193978,0.4188892620572956,9.368861725191751,3.7200449018114714,-0.3511111111111111,-0.30666666666666664,-0.6055555555555555,0.05802397861218043,0.05051598878875196,0.007102724363942493
1592167936.7293978,0.4224999627887045,9.36161451691092,3.741216395260286,-0.3496620449003304,-0.3090378659206714,-0.6048968890961097,0.09357696744974069,0.05620045160973498,0.01849545160973498
1592167936.7393978,0.391830353764934,9.373091578638881,3.5590873142858412,-0.3388888888888889,-0.32666666666666666,-0.6,0.12388149578498234,0.055138973996997395,0.018640477387986586
1592167936.7493978,0.3475028695835284,9.364164821616535,3.403552029309497,-0.3388888888888889,-0.32666666666666666,-0.6,0.13965086058006135,0.05589906778456822,0.020432
1592167936.7593977,0.373618745622922,9.366172695742573,3.2251085125312002,-0.3388888888888889,-0.32666666666666666,-0.6,0.14438209037331443,0.06954400550384762,0.022221644257334486
1592167936.7693977,0.3115005898637689,9.397740509872598,3.0458538987395567,-0.3388888888888889,-0.32666666666666666,-0.6,0.1330573770376999,0.07738384279412235,0.019527522065855337
1592167936.7793977,0.2778741832966352,9.400471916100834,2.9239192358880275,-0.3433500673360268,-0.3239403909489713,-0.6032219622118218,0.10892349721424632,0.0796809091906838,0.02705455033388125
1592167936.7893977,0.2631151699027897,9.422582580305399,2.8547360527216346,-0.35888888888888887,-0.31444444444444447,-0.6144444444444445,0.08153071085807391,0.08248054064257741,0.03431264337052066
1592167936.7993977,0.25356073993571315,9.40739049056406,2.930580963532589,-0.35888888888888887,-0.31444444444444447,-0.6144444444444445,0.04788626576150343,0.06564455924621493,0.039576175206571466
1592167936.8093977,0.2740887936659653,9.381713522682794,3.1176950013123994,-0.35888888888888887,-0.31444444444444447,-0.6144444444444445,0.03404228359749088,0.057149330671143986,0.03550227486927444
1592167936.8193977,0.2868653964746854,9.384313031361858,3.220262467275507,-0.35888888888888887,-0.31444444444444447,-0.6144444444444445,0.028595,0.04576102227731413,0.020775997903213814
1592167936.8293977,0.24181953839725573,9.369140545632831,3.195577852824706,-0.357329630000705,-0.31444444444444447,-0.6133104379803107,0.027623787130040798,0.03304466690505364,0.013452576280400051
