time,acc_x,acc_y,acc_z,mag_x,mag_y,mag_z,gyr_x,gyr_y,gyr_z
1592167968.1393678,-0.028833462441994535,9.245420418110255,3.755979523016194,-0.28,-0.22555555555555556,-0.6611111111111111,-0.004006402439929691,-0.0006777965670527673,-0.008121190694175842
1592167968.1493678,-0.02788484918300415,9.247374099599423,3.8270270303154215,-0.28,-0.22555555555555556,-0.6611111111111111,0.010009440276583102,0.004351587733906439,-0.007278
1592167968.1593678,-0.01790862611908788,9.243233691610712,3.901829895237394,-0.28,-0.22555555555555556,-0.6611111111111111,0.03138804718901492,0.009125,-0.006679423627081541
1592167968.1693678,-0.03506315931430398,9.244529226944188,3.974713248645276,-0.28,-0.22555555555555556,-0.6611111111111111,0.05677136628110896,0.005806583201296389,-0.011536
1592167968.1793678,0.011033582357067338,9.265515048635038,3.8618393196580443,-0.28,-0.22555555555555556,-0.6611111111111111,0.08352440616827525,0.0022243120353353653,-0.012805818811841068
1592167968.1893678,-0.036092992877529685,9.252111374744274,3.6618440787868667,-0.2611111111111111,-0.22,-0.6611111111111111,0.093567,-0.007053249541162999,-0.016861
1592167968.1993678,-0.028188173324054402,9.254733339582318,3.5451801913905,-0.2611111111111111,-0.22,-0.6611111111111111,0.095703,-0.013442452451735127,-0.016861
1592167968.2093678,-0.002833292579315059,9.292377708645414,3.375403055205481,-0.2611111111111111,-0.22,-0.6611111111111111,0.08709469091907943,-0.017478549875658556,-0.016872807983402485
1592167968.2193677,0.010496921336582029,9.28345426551069,3.3062353910001936,-0.2611111111111111,-0.22,-0.6611111111111111,0.06711540706203413,-0.011187717711671586,-0.021070267845308743
1592167968.2293677,0.045268231942559245,9.28351973337099,3.3684248130577714,-0.2631305795127856,-0.22018358803651586,-0.6593670247642104,0.04603182495051693,0.002425159766690302,-0.02533187656809519
1592167968.2393677,0.014236,9.275459038006995,3.405720315558881,-0.28555555555555556,-0.2222222222222222,-0.64,0.028098646174196152,0.026380066866418972,-0.026443
1592167968.2493677,-0.08055450333263983,9.23228470412065,3.469652489556811,-0.28555555555555556,-0.2222222222222222,-0.64,0.014280409582822451,0.05597766338960547,-0.025474366797499905
1592167968.2593677,-0.17471135755087766,9.153349867190107,3.4965491211609763,-0.28555555555555556,-0.2222222222222222,-0.64,0.0018259549027707152,0.07691186752980125,0.005665940667745513
1592167968.2693677,-0.036342074020224616,9.244948127237997,3.4054353378319653,-0.28555555555555556,-0.2222222222222222,-0.64,-0.016251572658108678,0.10339613893986793,0.05397313893986792
1592167968.2793677,0.00781442044519898,9.283471107621974,3.4164203415206447,-0.28555555555555556,-0.2222222222222222,-0.64,-0.02708777229374699,0.08611864713498354,0.04270248979234318
1592167968.2893677,-0.018540163223764648,9.256372026852578,3.569871509374638,-0.28,-0.22555555555555556,-0.6311111111111111,-0.03443350086700575,0.10658129341634894,0.045099500867005746
1592167968.2993677,-0.043979648600314024,9.274522805532305,3.5663811866020483,-0.28,-0.22555555555555556,-0.6311111111111111,-0.03582640594780125,0.09466249244841812,0.04567560892170188
1592167968.3093677,-0.04645780362846131,9.298166145041476,3.5385990198128963,-0.28,-0.22555555555555556,-0.6311111111111111,-0.03504500327833695,0.0852609250499557,0.04307607822838126
1592167968.3193676,-0.00993695324309829,9.27521207024824,3.5582296836642886,-0.28,-0.22555555555555556,-0.6311111111111111,-0.0334947904696988,0.07792209262937176,0.034430449135789284
1592167968.3293676,-0.0010388253186958988,9.301228820100864,3.6071095241980933,-0.28,-0.22555555555555556,-0.6311111111111111,-0.027740106872350404,0.05534439467748507,0.02747916843514275
1592167968.3393676,0.020641610694771294,9.264452210313571,3.6561833312172025,-0.29333333333333333,-0.23222222222222222,-0.6466666666666666,-0.020067666352502796,0.02059549598139114,0.022933851166546174
1592167968.3493676,0.1428011635503056,9.294222601077934,3.649426790604997,-0.29333333333333333,-0.23222222222222222,-0.6466666666666666,-0.014411693543789296,-0.009089553883813158,0.01279961549921937
1592167968.3593676,0.2124352474051803,9.28345139424201,3.6139507011163667,-0.29333333333333333,-0.23222222222222222,-0.6466666666666666,-0.007184635635628827,-0.041408897567311594,0.004435432087234939
1592167968.3693676,0.23754908314025922,9.296731119479098,3.511443394539546,-0.29333333333333333,-0.23222222222222222,-0.6466666666666666,-0.006253120062521409,-0.0619395614479965,-0.007722252084819565
1592167968.3793676,0.2032701850566813,9.26419893707346,3.5366887428464557,-0.29333333333333333,-0.23222222222222222,-0.6466666666666666,-0.01304319431810268,-0.066513,-0.01801719431810268
1592167968.3893676,0.10901860941843262,9.252909159322334,3.5257930149968773,-0.28555555555555556,-0.22555555555555556,-0.64,-0.018854056735935355,-0.06219527855028814,-0.018997
1592167968.3993676,0.11418378089862413,9.223724719387363,3.5399305822699683,-0.28555555555555556,-0.22555555555555556,-0.64,-0.02889846094323271,-0.03261675446706451,-0.01049953905676729
1592167968.4093676,0.1586659891629019,9.258635506475787,3.516693779388063,-0.28555555555555556,-0.22555555555555556,-0.64,-0.03780799464377513,0.010966509449896087,-0.013593399556703672
1592167968.4193676,0.07903922028964866,9.250370978087895,3.526218730679437,-0.28555555555555556,-0.22555555555555556,-0.64,-0.0513906186893936,0.05651549848271512,-0.01592019077081054
1592167968.4293675,-0.025416929107269004,9.231698419434439,3.5588371598351833,-0.28555555555555556,-0.22555555555555556,-0.64,-0.059195565377768725,0.07753369613330616,-0.00680369713476083
1592167968.4393675,-0.1045355426107662,9.237229572233593,3.6070004937799824,-0.28555555555555556,-0.20555555555555555,-0.6311111111111111,-0.06048035221766241,0.07707687050217074,0.013435715828199283
1592167968.4493675,-0.11632107130020454,9.256979892701905,3.557477062415916,-0.28555555555555556,-0.20555555555555555,-0.6311111111111111,-0.056931820484059426,0.044975487996532865,0.024689
1592167968.4593675,-0.06027374376468894,9.267483803772922,3.554986023790209,-0.28555555555555556,-0.20555555555555555,-0.6311111111111111,-0.05697779600982439,0.012361594519705619,0.021484
1592167968.4693675,0.05767305585366588,9.294786496225665,3.569482335429286,-0.28555555555555556,-0.20555555555555555,-0.6311111111111111,-0.057693,-0.01674030658263176,0.016706631033238255
1592167968.4793675,0.16256358312789845,9.263951778608465,3.6407967254138973,-0.28555555555555556,-0.20555555555555555,-0.6311111111111111,-0.05905277490096237,-0.029221,0.008606712052155652
1592167968.4893675,0.1984051167100218,9.26532697619272,3.6771118489612244,-0.2611111111111111,-0.21333333333333335,-0.6611111111111111,-0.056368452670668014,-0.023427319216835777,-0.003220736646659933
1592167968.4993675,0.15706551621178588,9.257572277096628,3.7012804716538654,-0.2611111111111111,-0.21333333333333335,-0.6611111111111111,-0.052749739255291306,-0.006477136265138432,-0.01625050716313913
1592167968.5093675,0.08891463867121474,9.240462610318309,3.606149146031371,-0.2611111111111111,-0.21333333333333335,-0.6611111111111111,-0.049164,0.008057,-0.013204057030700428
1592167968.5193675,0.055765419226148354,9.212429515267495,3.600066876827072,-0.2611111111111111,-0.21333333333333335,-0.6611111111111111,-0.052163398320361515,0.0022139338509609627,-0.018102166085661238
1592167968.5293674,0.09601737385304313,9.219369911059756,3.621904674562364,-0.2611111111111111,-0.21333333333333335,-0.6611111111111111,-0.056625,-0.008581098594866677,-0.019139472340689342
1592167968.5393674,0.13047318863122537,9.229065,3.668593474180283,-0.28,-0.21444444444444444,-0.64,-0.05522512609455738,-0.03324188559905195,-0.02005
1592167968.5493674,0.18584451653028908,9.2232946470064,3.702929744343693,-0.28,-0.21444444444444444,-0.64,-0.049164,-0.0673442490079316,-0.027927585481854825
1592167968.5593674,0.16996738442344494,9.238447616307846,3.808945452558364,-0.28,-0.21444444444444444,-0.64,-0.047615882182029,-0.08580198260951771,-0.04042111194512503
1592167968.5693674,0.08772297262411788,9.178351753590727,4.016653291577364,-0.28,-0.21444444444444444,-0.64,-0.02838524797617304,-0.08984837530882625,-0.03892318259256572
1592167968.5793674,0.14726575757864913,9.19290224837684,4.1748423441677724,-0.28,-0.21444444444444444,-0.64,0.006328197120397438,-0.07924885347119279,-0.02322207089497088
1592167968.5893674,0.1997517946938448,9.174790889193867,4.2132395132803175,-0.29333333333333333,-0.21444444444444444,-0.64,0.04401938485386799,-0.05831413482341627,-0.0054731348234162685
1592167968.5993674,0.2674864453053975,9.222386177727909,4.094733926477259,-0.29333333333333333,-0.21444444444444444,-0.64,0.08192573843739206,-0.05685382038104751,-0.00388871813405558
1592167968.6093674,0.23480517702959058,9.205716706437386,3.8891648647058776,-0.29333333333333333,-0.21444444444444444,-0.64,0.10848230115282675,-0.05673657212365258,0.009229370380377088
1592167968.6193674,0.2944935159660661,9.170749170644633,3.678527352134321,-0.29333333333333333,-0.21444444444444444,-0.64,0.10895890224981655,-0.05928727723880858,0.033579267243817434
1592167968.6293674,0.5994940487495306,9.054532052327186,3.4648650783341908,-0.29333333333333333,-0.21444444444444444,-0.64,0.07851604552542345,-0.04297110413410945,0.06768589677285242
1592167968.6393673,0.8816040297992515,9.149110671818729,3.6220605393175718,-0.2733333333333333,-0.22555555555555556,-0.6522222222222223,0.04042423579287879,-0.012473866760335198,0.07707830237480479
1592167968.6493673,0.8533745655643744,9.277587773915037,3.535519474086075,-0.2733333333333333,-0.22555555555555556,-0.6522222222222223,0.021415956639695144,0.04571296754215947,0.039684796181299054
1592167968.6593673,0.6380459018389848,9.25894994876375,3.6592130168042614,-0.2733333333333333,-0.22555555555555556,-0.6522222222222223,0.01924255449599775,0.11278717591010674,-0.01409602009647335
1592167968.6693673,0.38899591131383415,9.15339481432636,3.607424538226004,-0.2733333333333333,-0.22555555555555556,-0.6522222222222223,0.005881887745361738,0.1378495015727953,0.006270573710025677
1592167968.6793673,0.3853077975308645,9.22800517329055,3.5267463556076595,-0.2733333333333333,-0.22555555555555556,-0.6522222222222223,-0.00045240110674578784,0.14724798886383772,0.03939590922101274
1592167968.6893673,0.3441389733127854,9.2549566473375,3.4581607922809234,-0.29333333333333333,-0.22666666666666666,-0.6611111111111111,-0.010598772464962297,0.15070364989426863,0.0482246526486001
1592167968.6993673,0.30934636531430115,9.358380518205115,3.3421721301867815,-0.29333333333333333,-0.22666666666666666,-0.6611111111111111,-0.019357431881572705,0.14298875623570048,0.0520210424685016
1592167968.7093673,0.23009584560818616,9.23543501922256,3.2032089240064763,-0.29333333333333333,-0.22666666666666666,-0.6611111111111111,-0.04203628560516136,0.1222661556753898,0.07088288876199898
1592167968.7193673,0.2429748057657991,9.300651731196384,2.9994080316680187,-0.29333333333333333,-0.22666666666666666,-0.6611111111111111,-0.07765013665874627,0.10211530708268553,0.0775392930312687
1592167968.7293673,0.18929936380257764,9.218446907768502,3.0503666323286236,-0.29333333333333333,-0.22666666666666666,-0.6611111111111111,-0.13203788563825639,0.10006164240553833,0.08623087968868486
1592167968.7393672,0.37098054950151443,9.239152161202455,3.2109694685233046,-0.30666666666666664,-0.22666666666666666,-0.6822222222222222,-0.18053401405487712,0.1072257553013395,0.08378416544349553
1592167968.7493672,0.40912625367393923,9.306406475208902,3.4342720901344306,-0.30666666666666664,-0.22666666666666666,-0.6822222222222222,-0.19961084317787928,0.13586287523139148,0.05119331201281184
1592167968.7593672,0.34235323346019764,9.207302736751545,3.6192023995450677,-0.30666666666666664,-0.22666666666666666,-0.6822222222222222,-0.20738323195343672,0.15296317981366578,0.05300471064983539
1592167968.7693672,0.41890168859101934,9.312805430336686,3.6571458032234587,-0.30666666666666664,-0.22666666666666666,-0.6822222222222222,-0.20486180917133776,0.15709088115439465,0.05645455356347798
1592167968.7793672,0.47448184772685875,9.270653045863483,3.7045667955174992,-0.30666666666666664,-0.22666666666666666,-0.6822222222222222,-0.1944770687589749,0.14969395230780375,0.033162952307803736
1592167968.7893672,0.395117150912155,9.192103118691312,3.7286520238875513,-0.28069502944640756,-0.2147629996073812,-0.6616613427561837,-0.1882688669963954,0.1175763661411174,0.023456689352718205
1592167968.7993672,0.3751920729671508,9.224032463823708,3.7396201055932803,-0.28,-0.21444444444444444,-0.6611111111111111,-0.17914326354371013,0.09159950920047506,0.029384642978165187
1592167968.8093672,0.4839051461673377,9.170862151508919,3.8993681887638614,-0.28,-0.21444444444444444,-0.6611111111111111,-0.1686314706236045,0.06548813833409643,0.0069165179423083725
1592167968.8193672,0.5216363467911838,9.185388638706746,4.097281026077038,-0.28,-0.21444444444444444,-0.6611111111111111,-0.15521249532298173,0.05062592381795031,-0.02942125643695214
1592167968.8293672,0.3716139376163252,9.090899409755188,4.265006445693902,-0.28,-0.21444444444444444,-0.6611111111111111,-0.1289912690789967,0.042145,-0.02509699651040839
1592167968.8393672,0.44579276574735793,9.157437249826039,4.309410907985808,-0.2677777777777778,-0.20777777777777778,-0.6822222222222222,-0.10225379692357688,0.03987188330867275,0.015113092270089716
1592167968.8493671,0.5333364550483622,9.14365062834511,4.368249166112429,-0.2677777777777778,-0.20777777777777778,-0.6822222222222222,-0.06171267557811265,0.0432568291190073,0.013201189923115014
1592167968.8593671,0.3150696564962903,9.03057460512572,4.511760025916279,-0.2677777777777778,-0.20777777777777778,-0.6822222222222222,-0.014586630772323233,0.04860495551154583,0.034708648868700454
1592167968.8693671,0.3217121602877065,9.111502788439022,4.41750787980015,-0.2677777777777778,-0.20777777777777778,-0.6822222222222222,0.02504227836148217,0.04171421540011819,0.05876346864951879
1592167968.879367,0.3820376081865906,9.278703526673535,4.412442549309068,-0.2677777777777778,-0.20777777777777778,-0.6822222222222222,0.08093895015365095,0.0426482906993915,0.034079421418949006
1592167968.889367,0.28261636625150444,9.116913399982035,4.358154174401201,-0.27777811863031815,-0.20777777777777778,-0.6822222222222222,0.13014192680849412,0.03163480989869145,0.013265704162448296
1592167968.899367,0.24056115460619049,9.120838334361164,4.150858539230618,-0.28,-0.20777777777777778,-0.6822222222222222,0.15705350257997214,0.021912,-0.0005231708730757581
1592167968.909367,0.36124845614158146,9.146336333094121,3.9921144270397355,-0.28,-0.20777777777777778,-0.6822222222222222,0.164274926138176,0.026389294186103415,-0.03638088663250636
1592167968.919367,0.31096350195819156,9.161316984963394,4.0513288871743764,-0.28,-0.20777777777777778,-0.6822222222222222,0.175598,0.04370983159135475,-0.08965062871564415
1592167968.929367,-0.2399431426171493,8.996442981141955,3.9044331922095576,-0.28,-0.20777777777777778,-0.6822222222222222,0.17372370285944624,0.026451850485815897,-0.04464930856563376
1592167968.939367,0.004822260346581259,9.198542425906469,3.772752311633106,-0.2925476269299064,-0.21405159124273096,-0.6958154847296208,0.18948462779412942,-0.010949249354359888,0.0639272493543599
1592167968.949367,0.40332106289056335,9.265424005594415,3.7518244469251973,-0.29333333333333333,-0.21444444444444444,-0.6966666666666667,0.1873643053651103,0.013239906106726448,0.02499674601394524
1592167968.959367,0.21498316897850012,9.172585508731256,3.6636923216805677,-0.29333333333333333,-0.21444444444444444,-0.6966666666666667,0.19062498528240612,0.010390751756807936,-0.0040343382391979585
1592167968.969367,0.11760122989861078,9.219262228821496,3.4587252610795383,-0.29333333333333333,-0.21444444444444444,-0.6966666666666667,0.18328063022581687,-0.0009368916987047282,0.03301792547820788
1592167968.979367,0.2959637693693738,9.278478931595409,3.334003568170305,-0.29333333333333333,-0.21444444444444444,-0.6966666666666667,0.17311792529516562,-0.003763683080209087,0.04330798726789643
1592167968.989367,0.32544504149691966,9.294809007187425,3.189142713630267,-0.2863806713212889,-0.21444444444444444,-0.6966666666666667,0.13277364880467502,0.0021892670892780302,0.002097521547707499
1592167968.999367,0.14292149892767564,9.286534233604018,3.235866810351366,-0.28555555555555556,-0.21444444444444444,-0.6966666666666667,0.10298800511765191,0.024045290693277,-0.03685696491970843
1592167969.009367,0.14454630509609218,9.15688125938267,3.2915507757437625,-0.28555555555555556,-0.21444444444444444,-0.6966666666666667,0.04942365719535127,0.048572901846907136,-0.012682298045120553
1592167969.019367,0.22882303912886703,9.35409979700118,3.4389937926920027,-0.28555555555555556,-0.21444444444444444,-0.6966666666666667,0.026872204884457487,0.08546632528953181,-0.021311913199478057
1592167969.029367,0.1734480226859625,9.17985010052967,3.6417235134841297,-0.28555555555555556,-0.21444444444444444,-0.6966666666666667,0.01753435908157276,0.10728325714010849,-0.01383595686268761
1592167969.039367,0.0943231539593764,9.239912549688567,3.632494778250693,-0.3040289190750368,-0.20916634058173553,-0.6905088788268395,0.027499343939495303,0.12472189769892658,0.005108239199682065
1592167969.049367,-0.06183658316008757,9.200614461455055,3.4113531429371693,-0.3088888888888889,-0.20777777777777778,-0.6888888888888889,0.02556270716826354,0.1024269576681864,0.06145964263145633
1592167969.059367,-0.05236326704720065,9.313990285522767,3.2771586962515618,-0.3088888888888889,-0.20777777777777778,-0.6888888888888889,0.01715086941182801,0.1051153300094394,0.10200227573607425
1592167969.069367,0.04729225106457656,9.324801467041494,3.163443964912341,-0.3088888888888889,-0.20777777777777778,-0.6888888888888889,-0.0039281463261248515,0.10962412786138016,0.0987022011718727
1592167969.079367,0.046851525106356325,9.335620253597336,3.10180292845712,-0.3088888888888889,-0.20777777777777778,-0.6888888888888889,-0.04128848314376704,0.11553494628165217,0.06200065032402993
1592167969.089367,-0.04873165580920888,9.229103180777777,3.231605919458345,-0.3088888888888889,-0.20777777777777778,-0.6999885462820629,-0.07528986866793624,0.13166310164214048,0.05006005823071461
1592167969.099367,-0.01902825681700679,9.246706565332973,3.3260151471163777,-0.3088888888888889,-0.20777777777777778,-0.7022222222222222,-0.10799448930751296,0.136963,0.056641
1592167969.109367,-0.008402312432566209,9.234354743268891,3.5306416970582735,-0.3088888888888889,-0.20777777777777778,-0.7022222222222222,-0.12538123124784917,0.13707094549588658,0.049071054504113414
1592167969.119367,0.026190419986143836,9.193977846882559,3.6522779332393016,-0.3088888888888889,-0.20777777777777778,-0.7022222222222222,-0.13182001166926874,0.1341407854789125,0.05037542280776436
1592167969.1293669,0.0788320797906732,9.173140275926565,3.670351484077296,-0.3088888888888889,-0.20777777777777778,-0.7022222222222222,-0.140778,0.1305387101674715,0.06782110986219261
1592167969.1393669,0.1932033957921149,9.228887659603426,3.8551193343208974,-0.3088888888888889,-0.20140535565334944,-0.690387723991141,-0.12607717635794247,0.13176831246975837,0.05791617635794246
1592167969.1493669,0.09719630201246611,9.09486401802616,3.826421855524344,-0.3088888888888889,-0.2,-0.6877777777777778,-0.123734,0.1196396477604142,0.05944295697721686
1592167969.1593668,0.07456861742148957,9.210695557972247,3.7792978819155847,-0.3088888888888889,-0.2,-0.6877777777777778,-0.11624478764742167,0.09704630787608162,0.07632428588685686
1592167969.1693668,0.2223633106553592,9.221662974603873,3.7000764334442966,-0.3088888888888889,-0.2,-0.6877777777777778,-0.11389513486710863,0.07137121697297846,0.07694614953942416
1592167969.1793668,0.2848394146465975,9.251197893079755,3.6657117364225535,-0.3088888888888889,-0.2,-0.6877777777777778,-0.11284805559629384,0.04438726093277606,0.04458847902227413
1592167969.1893668,0.25320301304416915,9.161878760502708,3.730210071213675,-0.3040591563227542,-0.19678017828924355,-0.7079016634700056,-0.12402619610933793,0.036443586635194085,0.016252679954161135
1592167969.1993668,0.3180010048764908,9.164479079267505,3.8474495499780406,-0.3022222222222222,-0.19555555555555557,-0.7155555555555555,-0.12915014760126406,0.0364056044453116,0.0032271461395460125
1592167969.2093668,0.21946890762642907,9.10990865329977,4.014662177459155,-0.3022222222222222,-0.19555555555555557,-0.7155555555555555,-0.12469457197929804,0.03497789244212114,-0.00161129807359265
1592167969.2193668,0.11746335638558482,9.224256046257269,4.115697990842457,-0.3022222222222222,-0.19555555555555557,-0.7155555555555555,-0.10417352880658946,0.03762709106127844,0.02226623867970308
1592167969.2293668,0.21847362080759974,9.301069523132346,4.156393363454942,-0.3022222222222222,-0.19555555555555557,-0.7155555555555555,-0.05411722411218149,0.03496257234490251,-0.004045688032295439
1592167969.2393668,-0.05829536039592842,9.173601761867321,3.93036213812283,-0.33295104106376977,-0.18501996052416783,-0.7102877580398617,-0.020446492375683578,0.00826907783799562,-0.040009937915635056
1592167969.2493668,-0.4290141611182888,9.244356881548121,3.8109507242730674,-0.3411111111111111,-0.18222222222222223,-0.7088888888888889,-0.0033839816736217403,-0.04909996071014084,0.01934190746351379
1592167969.2593668,0.012393636487158743,9.23824560645913,3.8460154815980325,-0.3411111111111111,-0.18222222222222223,-0.7088888888888889,0.027527,-0.09582466284485493,0.04377747637670152
1592167969.2693667,0.20588398366863572,9.305708565112703,3.668688394956189,-0.3411111111111111,-0.18222222222222223,-0.7088888888888889,0.028710262517957993,-0.12140880165790663,-0.012618472072289283
1592167969.2793667,0.11280321074457032,9.116192029957134,3.709624092933943,-0.3411111111111111,-0.18222222222222223,-0.7088888888888889,0.019912122704504813,-0.13538637507017787,-0.05653525971507544
1592167969.2893667,0.14795654675123981,9.149771114986779,3.8038493009189467,-0.3372897323402374,-0.19215780702649388,-0.7172959221848111,0.0027831380441334782,-0.14995426787545468,-0.059880887022015536
1592167969.2993667,0.21128250809380195,9.095718233808078,3.896852449444423,-0.33555555555555555,-0.19666666666666666,-0.7211111111111111,-0.003295657016026749,-0.16014656676567599,-0.07230091915004708
1592167969.3093667,0.21405299580190676,9.14806836978911,3.9709221177953506,-0.33555555555555555,-0.19666666666666666,-0.7211111111111111,0.001950545328714967,-0.15705027266435748,-0.08600924445780991
1592167969.3193667,0.046253986017923486,9.1594430528991,3.9058014411794795,-0.33555555555555555,-0.19666666666666666,-0.7211111111111111,0.01137055608401584,-0.17490013658029152,-0.0768989994457242
1592167969.3293667,0.03625031884479113,9.2464848209218,3.813699867745037,-0.33555555555555555,-0.19666666666666666,-0.7211111111111111,0.02706510444130205,-0.19566331661901715,-0.045075774896470196
1592167969.3393667,0.1580383116056218,9.215681633061504,3.803214180329629,-0.3317885179723228,-0.18976043109740656,-0.7003924044033308,0.03676729471360811,-0.21743129471360811,-0.05781203245312279
1592167969.3493667,0.2385109318829305,9.19282105139199,3.691139961867515,-0.3288888888888889,-0.18444444444444444,-0.6844444444444444,0.0343724899158157,-0.23201736163454884,-0.09342384973061069
1592167969.3593667,0.21355134017522798,9.155539457659305,3.672948101470782,-0.3288888888888889,-0.18444444444444444,-0.6844444444444444,0.026125318673866096,-0.22915625598096198,-0.1059003339757242
1592167969.3693666,0.245344072911024,9.107116846426662,3.609536687543149,-0.3288888888888889,-0.18444444444444444,-0.6844444444444444,0.0022823585443812345,-0.21688054218710753,-0.10082024545538168
1592167969.3793666,0.21343880303754847,9.125094309421746,3.5531097204755397,-0.3288888888888889,-0.18444444444444444,-0.6844444444444444,-0.029281674043380307,-0.1991098458632255,-0.07317066189180012
1592167969.3893666,0.3083097144469323,9.189214285423143,3.803551301789212,-0.3324654068566708,-0.1874248760842627,-0.6963661710037174,-0.04573885904863034,-0.17183710371437835,-0.049158529121822316
1592167969.3993666,0.4451253263257172,9.186040994154173,3.884011580213056,-0.33555555555555555,-0.19,-0.7066666666666667,-0.044356846861556574,-0.1505724139118916,-0.04936315313844343
1592167969.4093666,0.44344830088515913,9.15232902834529,3.813311802405102,-0.33555555555555555,-0.19,-0.7066666666666667,-0.04725084846353629,-0.13108027614625858,-0.06669644770748283
1592167969.4193666,0.371162810234309,9.112519161049539,3.758463917560656,-0.33555555555555555,-0.19,-0.7066666666666667,-0.05194094964655439,-0.11678827135122734,-0.073318
1592167969.4293666,0.13037957001111244,9.106581920521126,3.6128038518519237,-0.33555555555555555,-0.19,-0.7066666666666667,-0.07019141104206372,-0.12657866349190644,-0.057255494476127905
1592167969.4393666,0.09595327505692348,9.238322487276204,3.531069187268067,-0.33799891864839987,-0.19,-0.7053339231614788,-0.09097227458432462,-0.138947,-0.040990115195389226
1592167969.4493666,0.2798530757542575,9.15912850804655,3.588468797247141,-0.3448709080672404,-0.19,-0.7015855652966567,-0.11889874726191713,-0.13604165502719245,-0.06392647081699354
1592167969.4593666,0.1899625626885844,9.201725473658627,3.6782062790304977,-0.3477777777777778,-0.19,-0.7,-0.1366792236445186,-0.12470858643061972,-0.09793011813438955
1592167969.4693666,-0.03781811580404188,9.063201457121593,3.8806094594688374,-0.3477777777777778,-0.19,-0.7,-0.1421088009612698,-0.1226287103784049,-0.07353037389501729
1592167969.4793665,0.011027068591663431,9.149627597736792,3.8352615552338105,-0.3477777777777778,-0.19,-0.7,-0.1458924739685293,-0.1341185770684169,-0.03240041383319007
1592167969.4893665,0.2421059414369173,9.117914028467078,4.03510972357297,-0.3522479656305282,-0.19,-0.6916982225591778,-0.1333422635761013,-0.1363346122675188,-0.0499933299148454
1592167969.4993665,0.12453256381788434,9.067115808667767,3.9773977465205865,-0.35555555555555557,-0.19,-0.6855555555555556,-0.13170683804028824,-0.1531288328751745,-0.07318613001778894
1592167969.5093665,0.04449759874991596,9.012422878333936,3.878330441505141,-0.35555555555555557,-0.19,-0.6855555555555556,-0.1394179206052528,-0.16943900919030438,-0.057854810131545246
1592167969.5193665,0.1651969407082825,9.16157378404159,3.846874526055228,-0.35555555555555557,-0.19,-0.6855555555555556,-0.14732649891124022,-0.1795834989112402,-0.031630155291364266
1592167969.5293665,0.3537204014639097,9.19597446139868,3.950287368360083,-0.35555555555555557,-0.19,-0.6855555555555556,-0.14013819046516798,-0.16407601054048354,-0.04073637298465445
1592167969.5393665,0.37473219761774285,9.12321641568317,3.8669984786573974,-0.35835656650753533,-0.19,-0.6953590938874848,-0.1351946988074124,-0.14640295019033045,-0.06693004980966955
1592167969.5493665,0.2894790908164294,9.216732273751653,3.9328356998901635,-0.3622222222222222,-0.19,-0.7088888888888889,-0.1286664046583212,-0.12001815978173976,-0.09094268043652048
1592167969.5593665,0.1718556100902574,9.180914733499879,4.095671837872354,-0.3622222222222222,-0.19,-0.7088888888888889,-0.12069541976614058,-0.10322230529115925,-0.12289293850478064
1592167969.5693665,-0.10562053220645636,9.085297544497088,4.083571026733095,-0.3622222222222222,-0.19,-0.7088888888888889,-0.10638464236237072,-0.09757560690436108,-0.12498598341566752
1592167969.5793664,-0.16247598722369028,9.08223266342193,4.204097126048501,-0.3622222222222222,-0.19,-0.7088888888888889,-0.09004404507101894,-0.10715867389699377,-0.07410035358724765
1592167969.5893664,0.03710991663153789,9.120179826022598,4.298481574926408,-0.3622222222222222,-0.18696545133836995,-0.7009990623686507,-0.06643283406547423,-0.1237139858579184,-0.0588324664752814
1592167969.5993664,0.016242554103195514,9.053415282986633,4.281461659834814,-0.3622222222222222,-0.18444444444444444,-0.6944444444444444,-0.04036063746837972,-0.1292110893231492,-0.0645710712735049
1592167969.6093664,-0.07486424933414243,9.029270529053179,4.165564600273782,-0.3622222222222222,-0.18444444444444444,-0.6944444444444444,-0.021187038400365413,-0.1525034244057424,-0.050473799023819405
1592167969.6193664,0.0920081673826313,9.061189278663921,3.985296389661792,-0.3622222222222222,-0.18444444444444444,-0.6944444444444444,-0.013614458840335974,-0.16008487804583657,-0.04743940947848186
1592167969.6293664,0.1149439159926271,9.066567218117582,3.8669802021178548,-0.3622222222222222,-0.18444444444444444,-0.6944444444444444,-0.027106432861292537,-0.16117917236658585,-0.06346234473317175
1592167969.6393664,0.08370843557978057,9.0603126468076,3.8366241354716926,-0.3741731886836427,-0.18444444444444444,-0.6841231552277631,-0.048074340016071776,-0.1493232895847254,-0.05002108450384979
1592167969.6493664,0.22834944804129734,9.05994650137314,4.028535009465804,-0.38666666666666666,-0.18444444444444444,-0.6733333333333333,-0.06492810768467303,-0.12054376198253072,-0.04159283008538631
1592167969.6593664,0.28218115496466223,9.085206817790773,4.303884027019523,-0.38666666666666666,-0.18444444444444444,-0.6733333333333333,-0.05596129554363975,-0.08265549816647332,-0.04779255057083201
1592167969.6693664,0.12225304278147374,9.001550912957159,4.504839008710578,-0.38666666666666666,-0.18444444444444444,-0.6733333333333333,-0.024469431646239565,-0.049278837211695334,-0.03801266556884391
1592167969.6793664,0.17223557126928285,9.067196517590755,4.462473069012784,-0.38666666666666666,-0.18444444444444444,-0.6733333333333333,0.012335885175400492,-0.020889811473118036,-0.024351156092703052
1592167969.6893663,0.24161820531583103,9.059977777556153,4.278531753120148,-0.38666666666666666,-0.18344001406469762,-0.6668045358649789,0.03780037858472344,0.002354378584723438,-0.024323
1592167969.6993663,0.23868658938007142,9.094313398473648,4.045684870680545,-0.38666666666666666,-0.18222222222222223,-0.6588888888888889,0.048618402543000434,0.025539156026833848,-0.016142986346353937
1592167969.7093663,0.17983951490768943,9.05419960646227,3.926575855759359,-0.38666666666666666,-0.18222222222222223,-0.6588888888888889,0.03973245634303978,0.04902197832844069,0.005117539617576812
1592167969.7193663,0.09482384898418388,9.03933812300097,3.9402786530430296,-0.38666666666666666,-0.18222222222222223,-0.6588888888888889,0.029252113476871032,0.06985723544496585,0.052812506389182154
1592167969.7293663,0.14373935499559504,9.118586083659592,3.9230590400121437,-0.38666666666666666,-0.18222222222222223,-0.6588888888888889,0.024338,0.08908570691821671,0.07698896288158688
1592167969.7393663,0.1300873969365,9.151744016819904,3.9609405626893093,-0.3969642660499945,-0.16986510296222884,-0.6557996090738906,0.02025238039605823,0.1213730138507244,0.048846636778489355
1592167969.7493663,-0.0024066852368106947,9.10001637136484,4.012024348367692,-0.4088888888888889,-0.15555555555555556,-0.6522222222222223,0.016876,0.1443993027793165,-0.00042005579707423205
1592167969.7593663,-0.22273606645665966,9.100126931883583,4.064745361227996,-0.4088888888888889,-0.15555555555555556,-0.6522222222222223,0.022783836718040695,0.16449857301055998,-0.032789473944667566
1592167969.7693663,-0.5743716776117774,8.884719800252102,4.074920952064258,-0.4088888888888889,-0.15555555555555556,-0.6522222222222223,0.01746753787046163,0.15380747357702756,0.021513497453276485
1592167969.7793663,-0.19778007908716352,9.097590271776092,4.077714301408464,-0.4088888888888889,-0.15555555555555556,-0.6522222222222223,0.02353091929023792,0.15781884564916943,0.08989295951814491
1592167969.7893662,-0.09407021666310941,9.048580878836715,4.081535483544686,-0.4040246938388202,-0.15879835225560132,-0.6557352519806051,0.02718778342754104,0.15908801254819344,0.10967524827049037
1592167969.7993662,-0.1042033192962409,9.095359254708761,4.048987520916199,-0.3888888888888889,-0.1688888888888889,-0.6666666666666666,0.03355298967977862,0.16111902064044276,0.10814001032022137
1592167969.8093662,-0.1271811030762602,9.095792812627007,4.119656111866273,-0.3888888888888889,-0.1688888888888889,-0.6666666666666666,0.04591739212944156,0.16734132925797413,0.10828421574111688
1592167969.8193662,-0.02092219624756929,9.127351681154765,4.192424785820543,-0.3888888888888889,-0.1688888888888889,-0.6666666666666666,0.05246854493876205,0.1804338114937121,0.08617674890043264
1592167969.8293662,-0.07747021511057384,9.003266942159382,4.148517132984686,-0.3888888888888889,-0.1688888888888889,-0.6666666666666666,0.058252456985146445,0.17570122681909436,0.04801992349578651
1592167969.8393662,-0.345935262243177,8.981783911805627,4.0169710326848636,-0.3904857787066376,-0.17048577870663761,-0.6618759972134205,0.053460286959349075,0.14778326110819612,0.07311550210522186
1592167969.8493662,-0.09021287524906749,9.12525406266562,4.043770098018187,-0.39555555555555555,-0.17555555555555555,-0.6466666666666666,0.054712178794630445,0.11961614727313373,0.09855257952889343
1592167969.8593662,0.10226270614394006,9.114102730256164,3.8860426511271395,-0.39555555555555555,-0.17555555555555555,-0.6466666666666666,0.04941336358736777,0.110321,0.06902349197076248
1592167969.8693662,-0.062298069622597436,9.010950328576664,3.8627278291085796,-0.39555555555555555,-0.17555555555555555,-0.6466666666666666,0.026831908584753535,0.10656055747173818,0.05163671788903999
1592167969.8793662,0.043940980442678475,9.152041710554494,3.8919967189104097,-0.39555555555555555,-0.17555555555555555,-0.6466666666666666,0.02515219222638504,0.11019741216715022,0.07170755515597692
1592167969.8893661,0.23985842022797532,9.372633486608454,3.9945203157122458,-0.40492033646709547,-0.17477515714626055,-0.6443254714387816,0.04585406902242303,0.1311442684572969,0.017569827508755877
1592167969.8993661,-0.10150922858156822,9.06471593365948,3.7893796363518444,-0.4222222222222222,-0.17333333333333334,-0.64,0.04334993941103946,0.12229712438575255,-0.06774536994942618
1592167969.9093661,-0.9080731613854016,9.069003097262147,3.6154298866045975,-0.4222222222222222,-0.17333333333333334,-0.64,0.025391,0.0874039088458913,0.0017678284894038013
1592167969.9193661,-0.2651222919518675,9.305160492375736,3.7859417007316485,-0.4222222222222222,-0.17333333333333334,-0.64,0.041344646555760665,0.046481185512360274,0.04753711887851818
1592167969.929366,-0.1552037042226526,9.127489240625266,3.732006156361735,-0.4222222222222222,-0.17333333333333334,-0.64,0.043387043033060735,0.018914354751191412,-0.024976988707618924
1592167969.939366,-0.38921755332822505,9.097789097652651,3.6556668109895183,-0.41685143204688707,-0.16954218732721443,-0.6418955730030594,0.029571009370038245,0.0104000193532108,-0.021799478937175397
1592167969.949366,-0.2906598158738879,9.04443644179629,3.6985899710407866,-0.4033333333333333,-0.16,-0.6466666666666666,0.0003164560822310385,-0.006295511805981506,0.020812923413744282
1592167969.959366,-0.11516197164764838,9.136988690736963,3.7769245814331476,-0.4033333333333333,-0.16,-0.6466666666666666,-0.014299852184864757,0.005694035104841732,0.0517113037097634
1592167969.969366,-0.06732093374879682,9.070961078955246,3.793509921044754,-0.4033333333333333,-0.16,-0.6466666666666666,-0.035500734121867356,0.010161791678233015,0.025933734121867353
1592167969.979366,-0.20520735879191826,9.117905723672322,3.8095438685635608,-0.4033333333333333,-0.16,-0.6466666666666666,-0.041892967554641614,0.01925255474555046,0.041753488254327266
1592167969.989366,-0.12290196040932194,9.181253476639712,3.877523586179381,-0.4039361847859303,-0.16241140581038788,-0.6412410035932938,-0.03943382619317365,0.01081947857952096,0.01539828056580401
1592167969.999366,-0.1813802883396551,9.147400558910109,3.8931273056925217,-0.4066666666666667,-0.17333333333333334,-0.6166666666666667,-0.038513,0.004033904496003929,0.016628597457307232
1592167970.009366,-0.08468833706458408,9.125716131555839,3.8810803196808235,-0.4066666666666667,-0.17333333333333334,-0.6166666666666667,-0.041718,-0.0034788273780582664,-0.010130489918147466
1592167970.019366,-0.058254987881968257,9.227960142516977,4.001275663059018,-0.4066666666666667,-0.17333333333333334,-0.6166666666666667,-0.034755085985140814,-0.002095863986079991,-0.03391236742195049
1592167970.029366,-0.2212820930610419,9.10749647473068,4.250601714575666,-0.4066666666666667,-0.17333333333333334,-0.6166666666666667,-0.01576087041461942,-0.01764941076894159,-0.045358715981452156
1592167970.039366,-0.22809493084518276,9.17156776669643,4.343028888454382,-0.40813687553517813,-0.1691677415392175,-0.6166666666666667,0.023312392163095462,-0.023895,-0.029648
1592167970.049366,-0.24268799103084857,9.179887328164838,4.251111764050019,-0.41333333333333333,-0.15444444444444444,-0.6166666666666667,0.06649869308508718,-0.025978955412419732,-0.03588523171891355
1592167970.059366,-0.2967835167593401,9.16396899917575,4.049669056690096,-0.41333333333333333,-0.15444444444444444,-0.6166666666666667,0.09191673734690649,-0.03549506336614296,-0.04744634063558576
1592167970.069366,-0.3140297858837323,9.137813670827466,3.875534131548005,-0.41333333333333333,-0.15444444444444444,-0.6166666666666667,0.10200834005629864,-0.04680269908323057,-0.05503009004622021
1592167970.079366,-0.3315037662803548,9.092740956939188,3.772377292105197,-0.41333333333333333,-0.15444444444444444,-0.6166666666666667,0.09628405923104566,-0.06309823321528188,-0.03897624675719487
1592167970.089366,-0.31610907102215247,9.090909623079074,3.7196355942302315,-0.4120156152404747,-0.15554254285515998,-0.6109565549309459,0.07902340889193137,-0.071838,-0.018293408891931373
1592167970.099366,-0.30995272084135383,9.146473449060847,3.7175868095733073,-0.4066666666666667,-0.16,-0.5877777777777777,0.06353771558182718,-0.06685344164301511,-0.01545015070745862
1592167970.109366,-0.33424398095567703,9.132237744429384,3.778317960598141,-0.4066666666666667,-0.16,-0.5877777777777777,0.05218784483105646,-0.05601784483105646,-0.013251029576685842
1592167970.119366,-0.23870795057708558,9.191312332039614,3.753397708780367,-0.4066666666666667,-0.16,-0.5877777777777777,0.04443678386290019,-0.04021561564124152,-0.02897726603535553
1592167970.129366,-0.27089629290862044,9.1197711146324,3.7128614155376702,-0.4066666666666667,-0.16,-0.5877777777777777,0.02880673293336429,-0.03483394995577217,-0.04346420346158216
1592167970.139366,-0.3463534793057797,9.069033979104145,3.782832230324546,-0.4071501252748377,-0.15854962417548704,-0.5894698829063761,0.013281140390223347,-0.04348158897933864,-0.0213854919543145
1592167970.149366,-0.201070295313067,9.131235764999184,3.8750059532180012,-0.41333333333333333,-0.14,-0.6111111111111112,0.007294,-0.049469,-0.010468
1592167970.159366,-0.059513858083419205,9.133757307670015,3.8995128128711922,-0.41333333333333333,-0.14,-0.6111111111111112,0.007640124028774949,-0.04696234231075651,-0.010468
1592167970.169366,0.006574337026508434,9.139664259528105,3.8610094895678437,-0.41333333333333333,-0.14,-0.6111111111111112,0.002050434530555704,-0.03123943292353442,-0.011447793455493563
1592167970.1793659,-0.012711,9.07574804857698,3.91254642758969,-0.41333333333333333,-0.14,-0.6111111111111112,-0.0049144989072804415,-0.012935926506081708,-0.002213229223511342
1592167970.1893659,-0.020642046727410716,9.086225011252441,3.9923060467274105,-0.41333333333333333,-0.14110922580430516,-0.605195240154817,-0.001049738854239662,0.0003465837049764597,0.01903742855571326
1592167970.1993659,-0.10755998526434771,9.080672214428317,4.003830708080059,-0.41333333333333333,-0.14666666666666667,-0.5755555555555556,0.004819571652155785,0.007856266473550564,0.03659043094902142
1592167970.2093658,-0.06588173396945665,9.13476494426997,3.9472618038581646,-0.41333333333333333,-0.14666666666666667,-0.5755555555555556,0.008504145017480468,0.016586,0.05366876632411795
1592167970.2193658,-0.07643542844591934,9.151810165810314,3.8938187617472275,-0.41333333333333333,-0.14666666666666667,-0.5755555555555556,0.01102674932920942,0.014974250670790579,0.06198549865841885
1592167970.2293658,-0.14197681258732878,9.204577980444927,3.887243476872134,-0.41333333333333333,-0.14666666666666667,-0.5755555555555556,0.016287866743785216,0.01603395558126174,0.04209239153889861
1592167970.2393658,-0.13837795771762565,9.151666926788701,3.8530095507151687,-0.41333333333333333,-0.14666666666666667,-0.5755555555555556,0.016498815971700588,0.02324587420433657,0.013972979600759997
1592167970.2493658,-0.04060309792632232,9.180924942254016,3.8177766676389155,-0.42777777777777776,-0.14666666666666667,-0.5811111111111111,0.011097065738329285,0.03559086852334143,-0.012680474592294294
1592167970.2593658,-0.11753240250269986,9.154226090572108,3.6623543521007025,-0.42777777777777776,-0.14666666666666667,-0.5811111111111111,0.0026180246564344173,0.040870296075066356,-0.0432694129519185
1592167970.2693658,-0.10865156368510781,9.137935720788736,3.5307697421888173,-0.42777777777777776,-0.14666666666666667,-0.5811111111111111,-0.02356914032816191,0.04189651290084845,-0.04854169395335332
1592167970.2793658,-0.3274096646062027,9.015317414293014,3.6364601412558804,-0.42777777777777776,-0.14666666666666667,-0.5811111111111111,-0.04860212348925054,0.027145089425874184,-0.005224805476798173
1592167970.2893658,-0.06618502345781024,9.144893187935683,3.719156190333319,-0.42777777777777776,-0.14666666666666667,-0.5811111111111111,-0.0657639046095454,0.013445746704255352,0.05244270811763512
1592167970.2993658,0.12957287212202462,9.167439237090205,3.7466530197686057,-0.4211111111111111,-0.14666666666666667,-0.5244444444444445,-0.07826558864644241,0.016605678938190427,0.03545134753528169
1592167970.3093657,-0.09396247984503205,9.132857290169353,3.8240033109203218,-0.4211111111111111,-0.14666666666666667,-0.5244444444444445,-0.09076821550854579,0.03238748704066666,0.02978821448382417
1592167970.3193657,-0.09599489782044031,9.136498793670416,3.93300052652102,-0.4211111111111111,-0.14666666666666667,-0.5244444444444445,-0.09259705558677038,0.04949023955510177,0.0362145936845871
1592167970.3293657,0.0412375576469067,9.135130259558514,3.954376638674071,-0.4211111111111111,-0.14666666666666667,-0.5244444444444445,-0.09452653832670672,0.07106660736957097,0.019204392630429033
1592167970.3393657,-0.01789485913501964,9.123451036920017,4.002263966487526,-0.4211111111111111,-0.14666666666666667,-0.5244444444444445,-0.08840189792849348,0.09905888369499595,-0.009855883694995949
1592167970.3493657,-0.15408487419259698,9.133304574377176,4.0194219363235115,-0.4066666666666667,-0.14888888888888888,-0.5666666666666667,-0.08441151380582684,0.1139277729190372,-0.02406750938059851
1592167970.3593657,-0.2909623702710284,9.060146634221026,3.9810358227842966,-0.4066666666666667,-0.14888888888888888,-0.5666666666666667,-0.07673866419120583,0.09165664514321067,-0.014284183643870216
1592167970.3693657,-0.13535672395984477,9.068430994804574,4.002037155303921,-0.4066666666666667,-0.14888888888888888,-0.5666666666666667,-0.0729222147657352,0.0698419217892837,0.030973180123302448
1592167970.3793657,0.013268166521304765,9.089318945367157,4.181359870859709,-0.4066666666666667,-0.14888888888888888,-0.5666666666666667,-0.057035227101858176,0.055078629399961485,0.05447531669720311
1592167970.3893657,0.07594957821841922,9.093342815412324,4.227469877155554,-0.4066666666666667,-0.14888888888888888,-0.5666666666666667,-0.03580146368195534,0.05622696541996303,0.07377604190366968
1592167970.3993657,0.09875592585388374,9.129691591469767,4.234201231882876,-0.4066666666666667,-0.1288888888888889,-0.5311111111111111,-0.01174566372408555,0.07001579068405928,0.07361432356278994
1592167970.4093657,0.12902854425860735,9.126413745653283,4.092310347742959,-0.4066666666666667,-0.1288888888888889,-0.5311111111111111,0.004018675578210553,0.09633027518712839,0.06836906654369
1592167970.4193656,0.13598333035163648,9.126120609769323,4.025531831395304,-0.4066666666666667,-0.1288888888888889,-0.5311111111111111,0.00930195087020472,0.11839770453976411,0.06314758087546694
1592167970.4293656,0.15526512569891823,9.124988884402695,4.040847078742842,-0.4066666666666667,-0.1288888888888889,-0.5311111111111111,0.01765838163248507,0.14362272759010866,0.03960096427843524
1592167970.4393656,0.03029216520887261,9.108333089907253,4.118598284598468,-0.4066666666666667,-0.1288888888888889,-0.5311111111111111,0.02702899477547482,0.15466187638670353,0.02305009874663307
1592167970.4493656,-0.1115181192141107,9.02922959732162,4.170367271695599,-0.41333333333333333,-0.13333333333333333,-0.5255555555555556,0.039549621490785315,0.14448840458733853,0.03712715743337852
1592167970.4593656,-0.05350047839768962,9.055644718080574,4.096044341425388,-0.41333333333333333,-0.13333333333333333,-0.5255555555555556,0.051412307126327376,0.13043177665827174,0.07561636848724597
1592167970.4693656,0.0782032999209081,9.097567522348083,3.9858883672805963,-0.41333333333333333,-0.13333333333333333,-0.5255555555555556,0.05910452715762473,0.11552097946776346,0.08045512116516433
1592167970.4793656,0.0805549356349689,9.16999808039026,3.897049009547441,-0.41333333333333333,-0.13333333333333333,-0.5255555555555556,0.06394903913600378,0.114578,0.07329781245226213
1592167970.4893656,0.029920825967153314,9.184455970690157,3.894526255425435,-0.41333333333333333,-0.13333333333333333,-0.5255555555555556,0.06456878952522135,0.10191510016835559,0.04547584882496597
1592167970.4993656,-0.09818575550126532,9.119008573793401,3.9010443340345207,-0.41888888888888887,-0.12777777777777777,-0.5333333333333333,0.06643102275992019,0.08906611979821172,0.033203
1592167970.5093656,-0.10298092410978865,9.118517427086834,3.869942085132743,-0.41888888888888887,-0.12777777777777777,-0.5333333333333333,0.06495440086461018,0.07518650334340314,0.0335103050726235
1592167970.5193655,-0.025945091649136755,9.170089390098129,3.8607353241127007,-0.41888888888888887,-0.12777777777777777,-0.5333333333333333,0.06335319764129815,0.05613688908121098,0.011924775560995195
1592167970.5293655,-0.1523784967741432,9.119724656261877,3.7978288765385506,-0.41888888888888887,-0.12777777777777777,-0.5333333333333333,0.05671799142047286,0.039050221073934396,-0.002305114826730771
1592167970.5393655,-0.10975968940293654,9.085684118280826,3.8204112598571163,-0.41888888888888887,-0.12777777777777777,-0.5333333333333333,0.04410582987933234,0.022401258097813292,0.0008603136837057562
1592167970.5493655,0.03383311074414746,9.02710341191852,3.8029703548451503,-0.4122222222222222,-0.12777777777777777,-0.5111111111111111,0.02253591748446926,0.01676756266387682,0.0060110426441105135
1592167970.5593655,0.12321210326190027,8.929604470400776,3.791523515938705,-0.4122222222222222,-0.12777777777777777,-0.5111111111111111,-0.010198597249131462,0.01814991818618074,0.04004459724913146
1592167970.5693655,0.18592165751719864,9.066634468452683,3.9164867096578053,-0.4122222222222222,-0.12777777777777777,-0.5111111111111111,-0.035750486159219344,0.03676553486772363,0.06740474584727557
1592167970.5793655,0.10395576059420715,9.033569401744419,4.059957170787219,-0.4122222222222222,-0.12777777777777777,-0.5111111111111111,-0.04876566331758846,0.05346518738581711,0.06886729513179635
1592167970.5893655,-0.0439314377504108,9.028509702646497,3.9565311843271047,-0.4122222222222222,-0.12777777777777777,-0.5111111111111111,-0.0619074847417613,0.06498858194699743,0.07580395501461006
1592167970.5993655,0.08808616649113722,9.1277934322392,3.901808979318683,-0.41888888888888887,-0.11333333333333333,-0.49777777777777776,-0.07296189485240841,0.07871442885637904,0.054883389722075446
1592167970.6093655,0.021799532759695504,9.089957860442333,3.8898564884397153,-0.41888888888888887,-0.11333333333333333,-0.49777777777777776,-0.08287574048956849,0.08249778002279341,0.009258228570770468
1592167970.6193655,-0.19131497387217736,9.118737108715749,3.869401881868369,-0.41888888888888887,-0.11333333333333333,-0.49777777777777776,-0.09171372789901445,0.07396045579802892,-0.0005814976482454316
1592167970.6293654,-0.18576206392314948,9.139447825719746,3.9481948300210066,-0.41888888888888887,-0.11333333333333333,-0.49777777777777776,-0.09030574919774384,0.04831989906376267,0.03903887098596189
1592167970.6393654,0.22791217316829876,9.206723089904655,3.935040141603254,-0.41888888888888887,-0.11333333333333333,-0.49777777777777776,-0.08728339351527817,0.02488930586563277,-0.026527987723754906
1592167970.6493654,-0.07635112765742784,9.043782696940161,3.7363826950600463,-0.4177777777777778,-0.11333333333333333,-0.49,-0.11077447451170164,0.011657619494166169,-0.09029655191630075
1592167970.6593654,-0.6422999899508304,9.098794981812418,3.8976269136083777,-0.4177777777777778,-0.11333333333333333,-0.49,-0.12600540348656894,-0.02661791178336686,-0.05236176231301945
1592167970.6693654,-0.3802974613307981,9.154509509989285,4.294488192508027,-0.4177777777777778,-0.11333333333333333,-0.49,-0.08982647852471268,-0.07591862286944097,0.041551965509900035
1592167970.6793654,0.03674130893320615,9.192605130191732,4.316546414177026,-0.4177777777777778,-0.11333333333333333,-0.49,-0.04514157583524076,-0.10191525223267417,0.0336919756357657
1592167970.6893654,0.07718156289710676,9.200709301712163,4.150387858931367,-0.4177777777777778,-0.11333333333333333,-0.49,-0.02061492133056663,-0.09039080199068941,-0.024074326009600085
1592167970.6993654,-0.151295240839928,9.101960195698087,4.037504464571846,-0.4177777777777778,-0.09333333333333334,-0.48333333333333334,-0.00996331266743077,-0.08014392022888357,-0.07289137466513845
1592167970.7093654,-0.32392661505294185,9.111593485996224,3.9994997073264336,-0.4177777777777778,-0.09333333333333334,-0.48333333333333334,-0.010283259847297093,-0.06633391486889724,-0.05839435201188716
1592167970.7193654,-0.1578805541204561,9.122348215181551,4.031009464676442,-0.4177777777777778,-0.09333333333333334,-0.48333333333333334,-0.0027668337657249928,-0.060282233871265356,-0.05701739059870658
1592167970.7293653,-0.13623778651146523,9.174774954942787,4.0358485324405144,-0.4177777777777778,-0.09333333333333334,-0.48333333333333334,0.009825504689515683,-0.05146823670905208,-0.0925808726689278
1592167970.7393653,-0.39338113884625053,9.127237333796892,4.040287513550567,-0.4177777777777778,-0.09333333333333334,-0.48333333333333334,0.03240772146242452,-0.05710810554299448,-0.11023935397942058
1592167970.7493653,-0.5251902849509303,9.076531302180198,4.023106510996569,-0.4043293496755,-0.10574726696620514,-0.4564364771287778,0.04387099551231749,-0.0896180485868925,-0.06871843687950256
1592167970.7593653,-0.33186629775247395,9.144018659421311,3.994269105331493,-0.4033333333333333,-0.10666666666666667,-0.45444444444444443,0.056491623387296436,-0.11594596105599751,-0.033905
1592167970.7693653,-0.17562776028095134,9.165517476396595,3.8972325353802733,-0.4033333333333333,-0.10666666666666667,-0.45444444444444443,0.06266533301463484,-0.14112994653976246,-0.04891875929441441
1592167970.7793653,-0.36177735882263556,9.059277945408622,3.7886785897046056,-0.4033333333333333,-0.10666666666666667,-0.45444444444444443,0.051188584544011914,-0.15686218850646896,-0.06384827908442263
1592167970.7893653,-0.3376183343894544,9.05351634540344,3.8864312613123317,-0.4033333333333333,-0.10666666666666667,-0.45444444444444443,0.03946974008249687,-0.155991,-0.02201380126053008
1592167970.7993653,-0.18191885639687094,9.09667785699676,3.904535146233564,-0.4087855192111243,-0.09249098338441011,-0.44790182139109525,0.023856302296509174,-0.1420039055907775,-0.030031871993730648
1592167970.8093653,-0.25347083596163555,9.07458299695545,3.863858658149985,-0.4088888888888889,-0.09222222222222222,-0.4477777777777778,0.012136580067806102,-0.12604326829996265,-0.045038309964106044
1592167970.8193653,-0.2696033518584374,9.108733780095804,3.9349969740381496,-0.4088888888888889,-0.09222222222222222,-0.4477777777777778,0.0024037917237187544,-0.11382379172371876,-0.042419
1592167970.8293653,-0.21139784658443805,9.069076869452173,3.966707076491428,-0.4088888888888889,-0.09222222222222222,-0.4477777777777778,-0.001956518495123199,-0.115509,-0.051150736416915275
1592167970.8393652,-0.12576488035864178,9.085624221850795,3.8461091982603106,-0.4088888888888889,-0.09222222222222222,-0.4477777777777778,-0.007692969506568416,-0.117645,-0.06892262374305141
1592167970.8493652,-0.1452551235367264,9.097580260930194,3.8409929404824523,-0.42625993696281234,-0.09222222222222222,-0.4283630769892751,-0.02459836510491292,-0.116577,-0.06997509195425942
1592167970.8593652,-0.1461678642950375,9.10555456607425,3.811075955669232,-0.42777777777777776,-0.09222222222222222,-0.4266666666666667,-0.03697387949272094,-0.118713,-0.0629251219617979
1592167970.8693652,-0.14664679732415042,9.06569251735944,3.7356341179388948,-0.42777777777777776,-0.09222222222222222,-0.4266666666666667,-0.05790846266356426,-0.11318474722067974,-0.06431114231892811
1592167970.8793652,-0.20989488103716272,9.034013378552652,3.74750449127743,-0.42777777777777776,-0.09222222222222222,-0.4266666666666667,-0.08582872766949062,-0.10026510600800478,-0.0375004308432519
1592167970.8893652,-0.09962266580920837,9.08660728868771,3.918519984289747,-0.42777777777777776,-0.09222222222222222,-0.4266666666666667,-0.09889751743083876,-0.0845914096389754,-0.018641480501657447
1592167970.8993652,-0.06856660247376624,9.15826435330922,3.9151505627078005,-0.40154164316600865,-0.08542026139694875,-0.43249691880261537,-0.10585717458477223,-0.0610974583253951,-0.0469169334160151
1592167970.9093652,-0.19841282797839552,9.092672261367824,3.8292522541284217,-0.3977777777777778,-0.08444444444444445,-0.43333333333333335,-0.11793773763068306,-0.04126638795472103,-0.06955191124128128
1592167970.9193652,-0.43346007337174963,8.929849553922399,3.817143418661856,-0.3977777777777778,-0.08444444444444445,-0.43333333333333335,-0.14112495823630178,-0.04099603421894735,-0.024505732805385937
1592167970.9293652,-0.09697292151192273,9.029360463392678,3.8525050505210796,-0.3977777777777778,-0.08444444444444445,-0.43333333333333335,-0.16278659269359633,-0.025942296640118906,0.014960566750880956
1592167970.9393651,-0.039287962740762634,9.065834787775412,3.8615146339204216,-0.3977777777777778,-0.08444444444444445,-0.43333333333333335,-0.18323531432916265,-0.0031637038164454897,0.007152660618130619
1592167970.9493651,-0.10644618167104075,9.077979937191335,4.003265176774401,-0.3977777777777778,-0.09741333363530673,-0.41437880297745766,-0.2005027302968713,0.022038248049238634,0.00659768249638093
1592167970.9593651,-0.20398332830298466,9.007686100146499,4.142863921570348,-0.3977777777777778,-0.09888888888888889,-0.4122222222222222,-0.2020559268777777,0.047803670599834605,0.026677913784291178
1592167970.9693651,-0.17201471737288784,9.009985930923065,4.132302971747706,-0.3977777777777778,-0.09888888888888889,-0.4122222222222222,-0.20547742721514398,0.08380207543270331,0.034271
1592167970.979365,-0.21539585982431073,9.013833258431152,4.139623886156101,-0.3977777777777778,-0.09888888888888889,-0.4122222222222222,-0.20972227727471357,0.11397941167974077,0.02361607364841389
1592167970.989365,-0.47354368911010325,9.012650334203348,4.349939650574228,-0.3977777777777778,-0.09888888888888889,-0.4122222222222222,-0.1968151129160944,0.1246036818333997,0.030225447899874625
1592167970.999365,-0.4136914172690534,8.916864028284273,4.622244080830417,-0.40315500950583927,-0.06770094486613205,-0.38426061723630234,-0.16910326422362162,0.11529191516916204,0.04978370676494373
1592167971.009365,-0.459356814928057,8.938449176164012,4.734380483235071,-0.4033333333333333,-0.06666666666666667,-0.38333333333333336,-0.12773936681546566,0.10099210337671287,0.0833821335691087
1592167971.019365,-0.30260307609201725,9.057694892608959,4.808652023239962,-0.4033333333333333,-0.06666666666666667,-0.38333333333333336,-0.0751513036462779,0.09144499128664586,0.08375291715407816
1592167971.029365,-0.20227558986500868,9.034261175641554,4.750149240241858,-0.4033333333333333,-0.06666666666666667,-0.38333333333333336,-0.021626990086302044,0.09909753999385319,0.05817454113545413
1592167971.039365,-0.2882597572543108,9.041559897134738,4.64187163586725,-0.4033333333333333,-0.06666666666666667,-0.38333333333333336,0.01928595650399407,0.107132,0.03149786623268986
1592167971.049365,-0.35107905229570063,9.040172526760324,4.483802979855325,-0.39471530192350635,-0.06580486352568397,-0.38936595532021223,0.0503232901420627,0.10483564390352851,0.010978664158618364
1592167971.059365,-0.4149601385085359,8.920235333024001,4.3197801494783015,-0.39222222222222225,-0.06555555555555556,-0.39111111111111113,0.06330533081342239,0.08702053941246574,-0.0016288702258881339
1592167971.069365,-0.5075117868646654,8.852274155938602,4.243758273680426,-0.39222222222222225,-0.06555555555555556,-0.39111111111111113,0.05985850056981004,0.05597106258408266,0.034056287869590904
1592167971.079365,-0.3467896820422737,8.925530289972697,4.251317219437597,-0.39222222222222225,-0.06555555555555556,-0.39111111111111113,0.06465275436304797,0.02976335236282324,0.08516404893483753
1592167971.089365,-0.04263582990157708,9.028345608678094,4.173585194349008,-0.39222222222222225,-0.06555555555555556,-0.39111111111111113,0.05802694079000691,0.02722942138385803,0.06703812495391157
1592167971.099365,-0.1532965587827651,9.022425203279116,4.217278418154629,-0.4013545587871903,-0.049781519670610744,-0.36039325175621856,0.05639522598890194,0.038956,0.03267834794859286
1592167971.109365,-0.28966686832476246,9.03018572091619,4.314181261081934,-0.40444444444444444,-0.044444444444444446,-0.35,0.06528149088369171,0.04033264143155285,0.02117535856844715
1592167971.119365,-0.30968659112304553,9.0674911276398,4.335873241019433,-0.40444444444444444,-0.044444444444444446,-0.35,0.08215948309626055,0.045349,0.005933047452784157
1592167971.129365,-0.2448099043860736,8.9722706048523,4.129271258325612,-0.40444444444444444,-0.044444444444444446,-0.35,0.08269816616420539,0.04973678211700195,-0.021532170642347914
1592167971.139365,-0.3986148064963533,8.965899895154807,3.8965747389822747,-0.40444444444444444,-0.044444444444444446,-0.35,0.06173775254662723,0.054944308677100547,-0.04451924684337675
1592167971.149365,-0.7608394043752623,8.775205898391713,3.8179652573259073,-0.398422924391668,-0.04243727109351896,-0.3630466267810157,0.022963135423942755,0.01198195884939766,0.020668666640425534
1592167971.159365,-0.42155938082113104,8.9658367520745,3.81993865846291,-0.3977777777777778,-0.042222222222222223,-0.36444444444444446,-0.02212991748815927,-0.01541559047348954,0.06699620509586846
1592167971.169365,-0.3644442902330584,9.055854903314446,3.943832495076343,-0.3977777777777778,-0.042222222222222223,-0.36444444444444446,-0.03491664462709357,-0.04539688976743812,0.02438744360059157
1592167971.179365,-0.5335050088810339,9.01749319303656,3.972954460121174,-0.3977777777777778,-0.042222222222222223,-0.36444444444444446,-0.06746748398467747,-0.07986463255583817,-0.014786492553507932
1592167971.189365,-0.47645122803692613,9.112434288541632,4.060611729224033,-0.3977777777777778,-0.042222222222222223,-0.36444444444444446,-0.06790714071703513,-0.09294778691097622,-0.03462300173171743
1592167971.199365,-0.5486514503169342,9.105741507049734,4.114110698902254,-0.3925575235395439,-0.03265175611879331,-0.35835414783317154,-0.06250773678123357,-0.10732051052864823,-0.04488429073729359
1592167971.209365,-0.6347344971200727,9.06160509382189,4.152830822689241,-0.39111111111111113,-0.03,-0.3566666666666667,-0.0512958665669705,-0.10954687878271006,-0.060963815621359926
1592167971.219365,-0.7212563514840836,9.049965546404373,4.261765073692756,-0.39111111111111113,-0.03,-0.3566666666666667,-0.03995683718031241,-0.13675171427032023,-0.07294316281968757
1592167971.2293649,-0.7501071700113189,8.985862901855821,4.255589640579108,-0.39111111111111113,-0.03,-0.3566666666666667,-0.024970135336715923,-0.16101912097859325,-0.07736352379218678
1592167971.2393649,-0.6694020884634021,9.048157602022929,4.221536053669116,-0.39111111111111113,-0.03,-0.3566666666666667,-0.01370186693858576,-0.1683340367096969,-0.05031775950877793
1592167971.2493649,-0.5348590205295021,8.960290060175176,4.191886811545392,-0.36917413867281945,-0.022687675853902765,-0.33929989681968575,-0.009167742215424553,-0.17222223502600767,-0.037094
1592167971.2593648,-0.36831294065632175,9.024309349397457,4.03143036454686,-0.36444444444444446,-0.021111111111111112,-0.33555555555555555,-0.022136945029857878,-0.14866534037029538,-0.05656968180260553
1592167971.2693648,-0.5150201056183819,8.934270286868008,4.142966292946783,-0.36444444444444446,-0.021111111111111112,-0.33555555555555555,-0.043904130925499406,-0.11449598919284854,-0.06710150670319863
1592167971.2793648,-0.5676792484072195,8.970053061282083,4.1770983326820215,-0.36444444444444446,-0.021111111111111112,-0.33555555555555555,-0.0607261463006207,-0.09220492473679956,-0.08855180044511629
1592167971.2893648,-0.7634858615863783,9.192645170381526,4.272622535003995,-0.36444444444444446,-0.021111111111111112,-0.33555555555555555,-0.05168711823431479,-0.08042317123018292,-0.1464577351687108
1592167971.2993648,-1.361108842802801,8.824426994018564,4.236724352468716,-0.37329198302146227,-0.021111111111111112,-0.32107776515679903,-0.04044472190031507,-0.10760730073968433,-0.10756738127695922
1592167971.3093648,-1.014962300716281,9.14301544814479,4.132280290915846,-0.37666666666666665,-0.021111111111111112,-0.31555555555555553,-0.02652229802865039,-0.14144825715625453,-0.04978744481509509
1592167971.3193648,-0.8322238653947966,8.994021777862262,4.223909301485658,-0.37666666666666665,-0.021111111111111112,-0.31555555555555553,-0.011365718979665694,-0.17776810720151665,-0.05625687606860795
1592167971.3293648,-0.7871846207032112,9.092192615775197,4.0650410308102645,-0.37666666666666665,-0.021111111111111112,-0.31555555555555553,-0.015019554829563925,-0.18600677011775968,-0.06303395873051763
1592167971.3393648,-0.6842962475109451,9.075851275675573,4.208024627072389,-0.37666666666666665,-0.021111111111111112,-0.31555555555555553,-0.018045962237222598,-0.16310658337952613,-0.06278798489488904
1592167971.3493648,-0.5796359765412585,9.035655743125497,4.387135962743802,-0.36792683849109115,-0.026355008016456422,-0.3216734352784584,-0.00621412371603002,-0.12840720638318479,-0.05912547889332113
1592167971.3593647,-0.6379334642650187,8.903369902405123,4.281306450854029,-0.3655555555555556,-0.027777777777777776,-0.3233333333333333,0.0024468405516825205,-0.08385464492176205,-0.03446569465967158
1592167971.3693647,-0.5777696703276519,8.97848320221221,4.135952947428489,-0.3655555555555556,-0.027777777777777776,-0.3233333333333333,-0.00519338539158618,-0.03958543239409601,-0.011741072754874534
1592167971.3793647,-0.6654783365294665,9.026293389300623,4.309719219686937,-0.3655555555555556,-0.027777777777777776,-0.3233333333333333,-0.001583819624117364,-0.011832989135726456,-0.014726196843355412
1592167971.3893647,-0.8367863487930804,9.026785515481057,4.332351281918794,-0.3655555555555556,-0.027777777777777776,-0.3233333333333333,0.017593192751435463,-0.02266154309839323,-0.015232400219120432
1592167971.3993647,-0.722734723190178,9.043575273603103,4.173203611408471,-0.3726220499517576,-0.027777777777777776,-0.31883647326302295,0.03083637622761983,-0.03213062231357811,-0.004847622313578111
1592167971.4093647,-0.6257910272809757,9.01387111508613,4.233099829655085,-0.37777777777777777,-0.027777777777777776,-0.31555555555555553,0.03471124153375121,-0.02789953483576076,-0.0043470367280843926
1592167971.4193647,-0.6043012292171577,8.958480401174612,4.28887265629253,-0.37777777777777777,-0.027777777777777776,-0.31555555555555553,0.04100780612432788,-0.023059356519530314,0.00523954285000059
1592167971.4293647,-0.5694795108042313,8.984942233197428,4.34132258727145,-0.37777777777777777,-0.027777777777777776,-0.31555555555555553,0.050257257865234536,-0.0127272385790908,0.015139059215709743
1592167971.4393647,-0.5564751776658893,8.962410592811356,4.460064353887901,-0.37777777777777777,-0.027777777777777776,-0.31555555555555553,0.06675617664089116,0.011251131430726011,0.01297
1592167971.4493647,-0.593072824830136,8.98923990552767,4.46137914106278,-0.36841487190073163,-0.031874049098985446,-0.30092601512267103,0.09216165810087293,0.017194166521961072,0.020105923519609697
1592167971.4593647,-0.5718825027585419,9.010089350073732,4.357693248519103,-0.36,-0.035555555555555556,-0.2877777777777778,0.11703271953869743,0.010432220010600842,0.02599622001060084
1592167971.4693646,-0.49260196930235284,8.987273127009395,4.145324107243943,-0.36,-0.035555555555555556,-0.2877777777777778,0.13059935876539777,0.01445,0.03266928246920446
1592167971.4793646,-0.3306564647112794,8.995935821858325,3.781473191748816,-0.36,-0.035555555555555556,-0.2877777777777778,0.11174371020014887,0.026936479029203705,0.052972997772648765
1592167971.4893646,-0.17080200430721293,9.038800778708989,3.3994827046617893,-0.36,-0.035555555555555556,-0.2877777777777778,0.06382384603114948,0.046775299513016066,0.06845256572606682
1592167971.4993646,-0.10517969869043493,9.066254,3.442358375075649,-0.37621266245331214,-0.02204500351112875,-0.29858621941331925,-0.004330826011774397,0.08043294003518053,0.07580959657902274
1592167971.5093646,0.02887108902597338,9.061137898055247,3.7535485348585835,-0.38666666666666666,-0.013333333333333334,-0.3055555555555556,-0.04759113389810797,0.09538234535132395,0.077942
1592167971.5193646,0.17680717728542922,9.052844731188001,4.00998211343047,-0.38666666666666666,-0.013333333333333334,-0.3055555555555556,-0.0679941317191771,0.09949547631041072,0.06769937120467706
1592167971.5293646,0.2054820487700378,9.03509918837394,4.150478641761428,-0.38666666666666666,-0.013333333333333334,-0.3055555555555556,-0.07128927419904954,0.0998425646181745,0.05093580495696237
1592167971.5393646,0.15818904070455314,9.030369059808594,4.308704788724503,-0.38666666666666666,-0.013333333333333334,-0.3055555555555556,-0.06370161246392189,0.09077061246392187,0.0328310108391825
1592167971.5493646,0.13073407166247475,9.000992540073954,4.355955434083301,-0.3790071999225655,-0.022385430394543843,-0.3201781738852033,-0.047107643447282466,0.07417465146091722,0.01807611738796155
1592167971.5593646,0.08485930890665168,8.999603138309341,4.291820947121726,-0.37444444444444447,-0.027777777777777776,-0.3288888888888889,-0.03493211036116819,0.0608804670769183,0.00013035671575011183
1592167971.5693645,0.01113976700906656,8.994875230090921,4.274102346342194,-0.37444444444444447,-0.027777777777777776,-0.3288888888888889,-0.024647385958674488,0.05002111464858216,-0.006650924406385081
1592167971.5793645,-0.060799254847359735,9.017598552945223,4.27195006606355,-0.37444444444444447,-0.027777777777777776,-0.3288888888888889,-0.019586078109698365,0.03741442589379138,-0.009045457248673464
1592167971.5893645,-0.10052881917328652,9.009311318074115,4.106028781568706,-0.37444444444444447,-0.027777777777777776,-0.3288888888888889,-0.015076,0.02722875327607027,-0.008331
1592167971.5993645,-0.17074626165981163,9.009353099381736,4.061505992828007,-0.3767648716987884,-0.01988832511300837,-0.32285577802759463,-0.02136646209450592,0.01620814408450297,-0.0008005347223141498
1592167971.6093645,-0.12222035045496743,9.008787917408034,4.085430923173382,-0.38,-0.008888888888888889,-0.31444444444444447,-0.02903432094718434,0.0017834867102396916,0.005616835825746661
1592167971.6193645,-0.042317767097417476,9.015103991032245,4.099371174209372,-0.38,-0.008888888888888889,-0.31444444444444447,-0.034994987593939944,-0.015436205550731847,0.008363746898484984
1592167971.6293645,0.06128852309041034,9.0256945316058,4.1165292428098015,-0.38,-0.008888888888888889,-0.31444444444444447,-0.04165450641204664,-0.025276906301445124,0.002062938644571492
1592167971.6393645,0.0662406237040598,9.006266423177689,4.1999473164995935,-0.38,-0.008888888888888889,-0.31444444444444447,-0.04358999523111104,-0.031357,-0.00606347820816607
1592167971.6493645,0.0783593779196533,9.027343994400772,4.308564572687354,-0.38,-0.018920735323186402,-0.31695240605301883,-0.03727876917956569,-0.03222226869037153,-0.015136538944329784
1592167971.6593645,-0.006890501874135127,9.005728121020995,4.318105438312546,-0.38,-0.035555555555555556,-0.3211111111111111,-0.024386746935488965,-0.029553680755760935,-0.019268253064511038
1592167971.6693645,-0.05343121197491826,8.994104555236223,4.262083552752593,-0.38,-0.035555555555555556,-0.3211111111111111,-0.01607817855583148,-0.025464089277915738,-0.02225182144416852
1592167971.6793644,-0.08973395866331377,8.97900441876891,4.16437015979866,-0.38,-0.035555555555555556,-0.3211111111111111,-0.01455454510670496,-0.023355883025678162,-0.020047337918973205
1592167971.6893644,-0.09912795868782885,8.98541950631838,4.103128470977516,-0.38,-0.035555555555555556,-0.3211111111111111,-0.02194278817313903,-0.025986125219817528,-0.017463030320872548
1592167971.6993644,-0.10093933594507636,8.98263386910775,4.208500037134923,-0.37507870104847263,-0.026607739280051283,-0.3211111111111111,-0.025742,-0.027475250033838113,-0.013281202709119203
1592167971.7093644,-0.06696386364898528,8.992193744622607,4.338080175642107,-0.36777777777777776,-0.013333333333333334,-0.3211111111111111,-0.01950452853869782,-0.026643837550499986,-0.008183070678568317
1592167971.7193644,-0.061585904866825164,8.976918864563704,4.286180496687057,-0.36777777777777776,-0.013333333333333334,-0.3211111111111111,-0.012941899812690394,-0.02304512645563581,-0.007481126455635811
1592167971.7293644,-0.06810804451599152,9.028586227465897,4.23274481854855,-0.36777777777777776,-0.013333333333333334,-0.3211111111111111,-0.008698,-0.01670732343305428,-0.005409703372467677
1592167971.7393644,-0.01682239165597829,9.003204015867006,4.139018124768365,-0.36777777777777776,-0.013333333333333334,-0.3211111111111111,-0.011935412740003478,-0.01607664530223909,-0.005886709395521818
1592167971.7493644,0.004410924545307218,8.981930623012857,4.052684227411996,-0.36777777777777776,-0.01864801127159573,-0.3211111111111111,-0.019987678050200085,-0.019980497682180975,-0.009701311419437551
1592167971.7593644,0.015503965870102337,9.016794524151384,4.001806590997651,-0.36777777777777776,-0.027777777777777776,-0.3211111111111111,-0.03490893236252779,-0.021463666621881677,-0.01427766675623665
1592167971.7693644,0.016700410778877704,9.007141488919276,4.0315085231184495,-0.36777777777777776,-0.027777777777777776,-0.3211111111111111,-0.05003598633213619,-0.02551547056027062,-0.01820510601701873
1592167971.7793643,-0.03131234997093679,8.992444755060475,4.059249223200385,-0.36777777777777776,-0.027777777777777776,-0.3211111111111111,-0.06368569835292257,-0.024714687730743694,-0.02005
1592167971.7893643,-0.013715192535713037,8.995761285074185,4.192099913201139,-0.36777777777777776,-0.027777777777777776,-0.3211111111111111,-0.07176542135124818,-0.026879275000489734,-0.02196548147850612
1592167971.7993643,-0.0654876888383129,8.970410885178644,4.28819595747058,-0.36777777777777776,-0.024945735513806033,-0.3272472026830499,-0.07009455045330404,-0.028168,-0.02092527522665202
1592167971.8093643,-0.10044112858004915,8.962060781312973,4.379608639092449,-0.36777777777777776,-0.021111111111111112,-0.33555555555555555,-0.06449527589765777,-0.029221,-0.018502206923243326
1592167971.8193643,-0.16554551294356862,8.947065680103178,4.492298705990316,-0.36777777777777776,-0.021111111111111112,-0.33555555555555555,-0.05006961667075893,-0.036160623025733585,-0.011124459760987516
1592167971.8293643,-0.09893538441291755,8.939763309981688,4.5081803057937435,-0.36777777777777776,-0.021111111111111112,-0.33555555555555555,-0.030193685104731464,-0.04030847650029103,-0.00621
1592167971.8393643,-0.0640571967164503,8.958495161989543,4.420695779649838,-0.36777777777777776,-0.021111111111111112,-0.33555555555555555,-0.0154938161114189,-0.04848254978191481,-0.005060450218085189
1592167971.8493643,-0.06346556698473917,8.97026999872489,4.380448833282643,-0.3660123748937173,-0.021111111111111112,-0.333437072094683,-0.0030887313202386385,-0.04607633145027,-0.0039793555607742425
1592167971.8593643,-0.007458393997969149,8.983997672028023,4.376838491319148,-0.3622222222222222,-0.021111111111111112,-0.3288888888888889,0.009473586019158377,-0.03662368825995753,-0.003006
1592167971.8693643,0.018619595403134064,8.999078284584373,4.386992062711776,-0.3622222222222222,-0.021111111111111112,-0.3288888888888889,0.015783320858381075,-0.028209209291038182,-0.00406573492529037
1592167971.8793643,0.02601506178199669,8.983612635310342,4.375217674971075,-0.3622222222222222,-0.021111111111111112,-0.3288888888888889,0.026289626220002853,-0.011377762266577827,-0.013487586432880467
1592167971.8893642,-0.06118961263468919,8.97483182989292,4.286057456328265,-0.3622222222222222,-0.021111111111111112,-0.3288888888888889,0.03371012798500414,-0.01098336139979738,-0.013657
1592167971.8993642,-0.12114816391079579,8.974908727863523,4.164708757361754,-0.3661474436424094,-0.021111111111111112,-0.3225104040810847,0.03295008014224834,-0.002984943038905589,-0.011634080142248336
1592167971.9093642,-0.1452627910696963,8.982338846917573,4.044153259114654,-0.38,-0.021111111111111112,-0.3,0.02188659331009435,-0.0024681261096057604,-0.004575727669857938
1592167971.9193642,-0.10715760276177301,8.97371935402268,4.008735306181826,-0.38,-0.021111111111111112,-0.3,0.0022788361202764895,-0.0012208229770315731,0.0020116647236866764
1592167971.9293642,-0.11836156185892976,8.970032714998394,4.022544488526866,-0.38,-0.021111111111111112,-0.3,-0.014654912262231173,-0.0038487699006385327,0.009021368692023529
1592167971.9393642,-0.05476053678767217,8.988970378520166,4.104538170363831,-0.38,-0.021111111111111112,-0.3,-0.030831926190556986,-0.0021626225059626393,0.009766
1592167971.9493642,-0.013430134818106067,8.970509856430914,4.2289000793462606,-0.38,-0.021111111111111112,-0.3060631634469572,-0.039097454708398205,-0.003662,0.0070639649895622054
1592167971.9593642,-0.009747318738436334,8.982229202536724,4.294226806608881,-0.38,-0.021111111111111112,-0.32666666666666666,-0.03586655248585401,-0.004997466183335334,0.004711276242927005
1592167971.9693642,-0.021183888604379867,8.959629286576186,4.322320262103337,-0.38,-0.021111111111111112,-0.32666666666666666,-0.03303102282567434,-0.006851,0.0004866742752247787
1592167971.9793642,0.0015501726906706472,8.976379407695543,4.320271923969223,-0.38,-0.021111111111111112,-0.32666666666666666,-0.027088044383682144,-0.004392303170830977,0.0005206968291690224
