time,acc_x,acc_y,acc_z,mag_x,mag_y,mag_z,gyr_x,gyr_y,gyr_z
1592167973.289363,-0.137994384465865,9.024844839344988,4.080397879385345,-0.38,-0.021111111111111112,-0.3211111111111111,0.0010101255070016587,0.0002661701855540361,0.014366829814445963
1592167973.299363,-0.1086038103929924,9.019757508906105,4.187632880010784,-0.38,-0.021111111111111112,-0.3211111111111111,0.003174122701652407,-0.005859561350826203,0.019668241790091735
1592167973.309363,-0.12430753011288577,9.031053489962371,4.1732994700753245,-0.37155740005613697,-0.02571616562594549,-0.30652843848080225,0.008493302809191344,-0.011367153077073628,0.025951385474009846
1592167973.3193629,-0.15425562091710496,9.030066493309274,4.174353634298558,-0.36777777777777776,-0.027777777777777776,-0.3,0.012639973859435856,-0.03152420172213191,0.031165600861065953
1592167973.3293629,-0.11294797911742127,9.030620135866661,4.176025848720216,-0.36777777777777776,-0.027777777777777776,-0.3,0.016855636736258745,-0.02928900525520362,0.041692171304997944
1592167973.3393629,0.0033881288152382977,9.014245624868945,4.134881276473741,-0.36777777777777776,-0.027777777777777776,-0.3,0.021098386570307298,-0.010263194434480745,0.047092613429692703
1592167973.3493629,0.07459115316223094,9.044225924664682,4.102671966607168,-0.36777777777777776,-0.027777777777777776,-0.3,0.02106457122552422,0.0063065703399424015,0.04093775401960991
1592167973.3593628,0.011275217234405877,9.043958486762682,4.140476363938654,-0.36777777777777776,-0.03266392060760902,-0.3090742652554009,0.019203912269310598,0.03556681994578532,0.037476
1592167973.3693628,-0.05603995787055979,9.048348628703817,4.200190002363094,-0.36777777777777776,-0.035555555555555556,-0.31444444444444447,0.02287729113836919,0.05681593226669898,0.03734501535941238
1592167973.3793628,-0.13281737425850912,9.029623554849971,4.229055554849972,-0.36777777777777776,-0.035555555555555556,-0.31444444444444447,0.03027433326386807,0.06314369346212989,0.04538324897137527
1592167973.3893628,-0.17780036475978803,9.0358716420879,4.240345216139157,-0.36777777777777776,-0.035555555555555556,-0.31444444444444447,0.04739292868390292,0.06275050367176907,0.05787944834881173
1592167973.3993628,-0.21032527230261655,9.042136170485449,4.2260420440174755,-0.36777777777777776,-0.035555555555555556,-0.31444444444444447,0.054153,0.058347442053228275,0.0634592699375128
1592167973.4093628,-0.20154949827048524,9.049030630532476,4.038978236804936,-0.36777777777777776,-0.030311325180207856,-0.32418372942723306,0.055222,0.02673937107653492,0.04099256060103317
1592167973.4193628,-0.23553750753313754,9.059482367190718,3.8875086669482717,-0.36777777777777776,-0.027777777777777776,-0.3288888888888889,0.0393022832099408,-0.012848794108991948,0.011959026084124864
1592167973.4293628,-0.2738108430085824,9.041127490185797,3.8102856898292354,-0.36777777777777776,-0.027777777777777776,-0.3288888888888889,0.019908327948684468,-0.0569521472127306,0.008104883156662284
1592167973.4393628,-0.17258999845289108,9.034800398718001,3.7307538006409997,-0.36777777777777776,-0.027777777777777776,-0.3288888888888889,-0.0079908892691214,-0.10742833276050003,0.0053691020500923016
1592167973.4493628,-0.0471209376989851,9.023706335468288,3.7327178288624916,-0.36777777777777776,-0.027777777777777776,-0.3288888888888889,-0.037760725767572216,-0.10914782303611277,-0.01681201718085814
1592167973.4593627,-0.14095092857923322,9.056707045047302,3.8037625880720705,-0.36777777777777776,-0.027777777777777776,-0.3288888888888889,-0.0657642157201007,-0.11461316553605508,-0.04410274764816814
1592167973.4693627,-0.30103360694656117,9.05353208993876,3.9412050763970896,-0.36777777777777776,-0.027777777777777776,-0.3288888888888889,-0.083908753382909,-0.1133737094065399,-0.0637352905934601
1592167973.4793627,-0.5112739871805679,9.033936,4.061411943629635,-0.36777777777777776,-0.027777777777777776,-0.3288888888888889,-0.09195857600111935,-0.11036057600111936,-0.05894242932998263
1592167973.4893627,-0.5479992009515635,9.04392059756818,4.215245997929678,-0.36777777777777776,-0.027777777777777776,-0.3288888888888889,-0.08999884944436011,-0.1169543011112798,-0.05022546209461579
1592167973.4993627,-0.5873263468703182,9.023486051304655,4.258120346532878,-0.36777777777777776,-0.027777777777777776,-0.3288888888888889,-0.08368784032602149,-0.1388007802506598,-0.047253388565913886
1592167973.5093627,-0.4470408291201756,9.0031303279178,4.2238828765333425,-0.37601947573816363,-0.027777777777777776,-0.323644172005007,-0.07950622458234076,-0.16516056431726714,-0.05846363492903659
1592167973.5193627,-0.28726287645110343,8.983767649366472,4.152172841371341,-0.38,-0.027777777777777776,-0.3211111111111111,-0.08155677402575864,-0.19827860121972402,-0.07844202913584138
1592167973.5293627,-0.08813263318773705,8.988256093170447,4.065144156461988,-0.38,-0.027777777777777776,-0.3211111111111111,-0.09001640137393689,-0.2232401968174798,-0.10162464681689326
1592167973.5393627,-0.05047210744727993,9.01360222487041,4.010777033920144,-0.38,-0.027777777777777776,-0.3211111111111111,-0.10021814705858119,-0.22496697062381796,-0.11290931374921198
1592167973.5493627,-0.10109579368256429,9.050767929933755,4.085470506838563,-0.38,-0.027777777777777776,-0.3211111111111111,-0.10730133305297535,-0.20851674541968623,-0.09833478451641772
1592167973.5593626,-0.04772498403127879,9.018068575363301,4.0572790779494285,-0.38870221109550657,-0.023761372656774745,-0.3211111111111111,-0.11560875562972922,-0.17601268573856774,-0.089294
1592167973.5693626,-0.09283086881156828,9.017793890849424,4.104295908419644,-0.39444444444444443,-0.021111111111111112,-0.3211111111111111,-0.1177055348942082,-0.14640723233019662,-0.08751993683702224
1592167973.5793626,-0.23632394982714677,8.988602851929606,4.208478085168909,-0.39444444444444443,-0.021111111111111112,-0.3211111111111111,-0.11980373452088947,-0.12395955394944407,-0.07677128847033353
1592167973.5893626,-0.2741514841168264,8.996266919023526,4.3806614690702785,-0.39444444444444443,-0.021111111111111112,-0.3211111111111111,-0.11069161827629823,-0.11005644955985926,-0.061300059227138756
1592167973.5993626,-0.3378673970746995,8.946033102181119,4.562102068631316,-0.39444444444444443,-0.021111111111111112,-0.3211111111111111,-0.09201653829467471,-0.10862405986091458,-0.05973614702509882
1592167973.6093626,-0.4142284430417521,8.891768174867996,4.721259970829216,-0.3822356783938124,-0.029928553258789826,-0.302797962035163,-0.06927992957768356,-0.11905558320520747,-0.06407642691909309
1592167973.6193626,-0.8666030521751078,8.762421501476547,5.008334417274635,-0.37444444444444447,-0.035555555555555556,-0.2911111111111111,-0.04349964580397973,-0.08345873954064352,-0.022224497403585963
1592167973.6293626,-0.5316853736113312,8.90247693507777,5.207778404978574,-0.37444444444444447,-0.035555555555555556,-0.2911111111111111,0.01573284690927188,-0.03100520331078716,-0.02448051214633336
1592167973.6393626,-0.5068978323384986,9.032337518631165,4.915953843012264,-0.37444444444444447,-0.035555555555555556,-0.2911111111111111,0.08279580544664211,-0.027005532740586834,-0.018754428144126315
1592167973.6493626,-0.5034613948803962,9.064243256173373,4.756648850394509,-0.37444444444444447,-0.035555555555555556,-0.2911111111111111,0.14273448026920688,0.012940395255047974,0.01370170610374607
1592167973.6593626,-0.5400389428927826,8.982748496060708,4.694749811838384,-0.36744832641908665,-0.031103480448509687,-0.3044673364322487,0.1930504620484845,0.041037789917473255,0.03839857221405539
1592167973.6693625,-0.6255348219315905,8.967243275570663,4.467342388062046,-0.3622222222222222,-0.027777777777777776,-0.31444444444444447,0.22198575270579063,0.06961064611694971,0.05464853766972575
1592167973.6793625,-0.7002978715058081,9.063983782128513,4.186187305340854,-0.3622222222222222,-0.027777777777777776,-0.31444444444444447,0.23752871842010942,0.08544674129818233,0.05903498856096354
1592167973.6893625,-0.7108683962730646,9.04049521931305,4.031281540446668,-0.3622222222222222,-0.027777777777777776,-0.31444444444444447,0.23200130461485866,0.0697478980525875,0.08113686414273835
1592167973.6993625,-0.6491335901961911,8.961549337532475,3.896175605250701,-0.3622222222222222,-0.027777777777777776,-0.31444444444444447,0.21941829725027315,0.041499973845917,0.07383429725027316
1592167973.7093625,-0.6436608922343996,9.000858500306279,3.738251819436128,-0.37156866186881987,-0.034203455034813646,-0.3179493593119186,0.17553264098720775,-0.019822346047569158,0.05306907224801282
1592167973.7193625,-0.6934154787692541,9.124787235631384,3.7136525482797977,-0.38,-0.04,-0.3211111111111111,0.14559814514293348,-0.09147148617543019,0.018514540141503593
1592167973.7293625,-0.7696879296477739,9.111891645672046,3.7578255801024114,-0.38,-0.04,-0.3211111111111111,0.12392595754202132,-0.1644044706097355,0.016543293200687374
1592167973.7393625,-0.5343780685377412,8.963815608742845,3.683150671351449,-0.38,-0.04,-0.3211111111111111,0.08314205379849425,-0.18758787163004179,-0.0035045729757849937
1592167973.7493625,-0.28860355645457897,9.08865721067797,3.491460994789641,-0.38,-0.04,-0.3211111111111111,0.03625246266466618,-0.2654770145196526,-0.04971680787296699
1592167973.7593625,-0.27021481615363296,9.09160600289063,3.5995680653275515,-0.3830160072485654,-0.043518675123326286,-0.33066180073156815,0.008123148064742422,-0.2919492093111343,-0.1043217243234672
1592167973.7693624,-0.1821187855538222,9.069854630635446,3.6228131948716875,-0.38666666666666666,-0.04777777777777778,-0.3422222222222222,-0.021907715967120836,-0.30394332329077484,-0.13177853497763137
1592167973.7793624,-0.05535851567278351,9.042543199467502,3.636692287504359,-0.38666666666666666,-0.04777777777777778,-0.3422222222222222,-0.05756290729009715,-0.3024218668669616,-0.1493060164324955
1592167973.7893624,0.022684618484674263,9.036412492659913,3.7413589443068194,-0.38666666666666666,-0.04777777777777778,-0.3422222222222222,-0.09308543199509836,-0.29816052489760697,-0.17106559095259746
1592167973.7993624,0.005273294985520188,9.03023854187515,3.972373335862852,-0.38666666666666666,-0.04777777777777778,-0.3422222222222222,-0.10892670790387012,-0.27640279530098677,-0.17909433009630785
1592167973.8093624,-0.15967061244953595,9.1124459523978,4.119082854679039,-0.38360928987462223,-0.0508351545698222,-0.3350883430407852,-0.10596390548454983,-0.25254394673390806,-0.1595018034743226
1592167973.8193624,-0.31234964510293156,9.065728026401787,4.200460168004535,-0.38,-0.05444444444444444,-0.32666666666666666,-0.09504644475516533,-0.22143174448825603,-0.12834546467600913
1592167973.8293624,-0.34672786244911613,9.05367420628663,4.127619375495013,-0.38,-0.05444444444444444,-0.32666666666666666,-0.09005109115591123,-0.17859017943502942,-0.09389494136544739
1592167973.8393624,-0.3623649811052681,9.117813590334727,4.181593031587371,-0.38,-0.05444444444444444,-0.32666666666666666,-0.07460228908657528,-0.156449347495078,-0.06592287313459191
1592167973.8493624,-0.4356268385967992,8.976716873016562,4.248960464337106,-0.38,-0.05444444444444444,-0.32666666666666666,-0.059678118629023565,-0.13062314852016027,-0.06401828382661325
1592167973.8593624,-0.5571108820618614,9.082416009980397,4.184522143410869,-0.38905848135648763,-0.059688828387674135,-0.3328645749632108,-0.04832377836379975,-0.13637685459757048,-0.06142037008043862
1592167973.8693624,-0.653376371630781,9.103432952927163,4.317639067423475,-0.4011111111111111,-0.06666666666666667,-0.3411111111111111,-0.03043718082308336,-0.16183932009174004,-0.033168661738078545
1592167973.8793623,-0.5397098453126616,8.976752810764365,4.494793060461151,-0.4011111111111111,-0.06666666666666667,-0.3411111111111111,-0.014668572539093873,-0.15162305732478865,-0.002564828835523301
1592167973.8893623,-0.3180833759565542,8.976555366401854,4.514440433807891,-0.4011111111111111,-0.06666666666666667,-0.3411111111111111,0.008216236310608409,-0.1747717227629451,-0.012644735936656232
1592167973.8993623,-0.19082996255670887,9.025608728248404,4.488708431926026,-0.4011111111111111,-0.06666666666666667,-0.3411111111111111,0.044932507985949825,-0.16192270112466214,-0.021118
1592167973.9093623,-0.015961385005957923,8.99796343806743,4.410918508871099,-0.4006794491123886,-0.06666666666666667,-0.33981612511494375,0.07469430099016998,-0.1486702041371876,-0.031174942208985958
1592167973.9193623,0.1045237894047016,9.030649755034561,4.3967971882079375,-0.4,-0.06666666666666667,-0.3377777777777778,0.1018850972884532,-0.10686195990471298,-0.04790343594525183
1592167973.9293623,0.12309465330481661,9.03335022230968,4.331442419617023,-0.4,-0.06666666666666667,-0.3377777777777778,0.12321688694772305,-0.07304131379750203,-0.05164551619216861
1592167973.9393623,0.08348008480548627,9.132147198936005,4.326720992252527,-0.4,-0.06666666666666667,-0.3377777777777778,0.14809981126207228,-0.031619495366958454,-0.036595577413406064
1592167973.9493623,-0.027180312338967165,9.051647553109525,4.348360768618692,-0.4,-0.06666666666666667,-0.3377777777777778,0.1703438374384393,0.007456430226042934,-0.0068807029954600935
1592167973.9593623,-0.2130661475107021,9.056495162593249,4.244440030506186,-0.4016220006175867,-0.07072166821063339,-0.33939977839536445,0.18235973619557963,0.03453197676140013,0.01215809161730141
1592167973.9693623,-0.36063120357311423,9.099393688971386,4.169524914528229,-0.40444444444444444,-0.07777777777777778,-0.3422222222222222,0.19680210801048745,0.0679690718293638,0.03837860882326517
1592167973.9793622,-0.5057953690904894,9.097139362247018,4.1246335674798535,-0.40444444444444444,-0.07777777777777778,-0.3422222222222222,0.21013837459745763,0.062393,0.05883623197541497
1592167973.9893622,-0.4493068703745755,9.03338527128326,3.9730350229680567,-0.40444444444444444,-0.07777777777777778,-0.3422222222222222,0.2122959512154944,0.07157923892278051,0.05000911739198487
1592167973.9993622,-0.4706267100162919,9.112816557352124,3.877173185180927,-0.40444444444444444,-0.07777777777777778,-0.3422222222222222,0.20723687972868854,0.054194770592486244,0.03829399646289021
1592167974.0093622,-0.5981645030121395,9.129866515087288,4.031797093664754,-0.40681638491625294,-0.07777777777777778,-0.3493380436376477,0.20529273358524502,0.009397532829509968,0.05251939400503097
1592167974.0193622,-0.46148894159774356,8.99254775763941,4.049063869324641,-0.4122222222222222,-0.07777777777777778,-0.3655555555555556,0.20084658144801498,0.02298,0.04032579836524589
1592167974.0293622,-0.31552250397385906,9.122318626239474,3.8692164328608682,-0.4122222222222222,-0.07777777777777778,-0.3655555555555556,0.194778,0.016183737619115904,0.016824737619115904
1592167974.0393622,-0.28003686660405536,9.102143652535357,3.8089025396272405,-0.4122222222222222,-0.07777777777777778,-0.3655555555555556,0.18796261041568726,0.0035882013528230595,0.006313266479947291
1592167974.0493622,-0.2193699630884602,9.093730229082933,3.7050152696965184,-0.4122222222222222,-0.07777777777777778,-0.3655555555555556,0.16999767364950696,-0.0005332748209727557,-0.006335129118758083
1592167974.0593622,-0.173150590353031,9.163473897629059,3.6373912592043927,-0.4078652339957279,-0.08213476600427212,-0.36790162613905253,0.15221535999932487,-0.012104596528351117,-0.013638965030726098
1592167974.0693622,-0.1805956580247415,9.082998431086633,3.645799650425848,-0.3977777777777778,-0.09222222222222222,-0.37333333333333335,0.12402428366850987,-0.026031,-0.01678714057442927
1592167974.0793622,-0.23778552259488175,9.113517477405118,3.6594682954810236,-0.3977777777777778,-0.09222222222222222,-0.37333333333333335,0.09961720059378232,-0.040228860008708824,-0.028515276539452215
1592167974.0893621,-0.28069525115871524,9.2222883326077,3.7298441113247867,-0.3977777777777778,-0.09222222222222222,-0.37333333333333335,0.08621995082161185,-0.05410273400744753,-0.01755235864313451
1592167974.0993621,-0.3083516661160741,9.163948197862906,3.8591795630358234,-0.3977777777777778,-0.09222222222222222,-0.37333333333333335,0.08649945358787255,-0.055679550540202224,0.013083308575823275
1592167974.1093621,-0.17546492212099782,9.094103953603954,3.8453047304547163,-0.39907359249627705,-0.0932824342646307,-0.3755715587561957,0.08003607663434446,-0.021036246327606242,0.019374742437021693
1592167974.119362,-0.1000462937131797,9.23793420116312,3.8225119071121423,-0.41,-0.10222222222222223,-0.39444444444444443,0.09017206566347949,0.009563099279867709,0.009562626507093514
1592167974.129362,-0.1294304895429908,9.216476936721412,3.819947084329505,-0.41,-0.10222222222222223,-0.39444444444444443,0.10318512539282114,0.02915082539215934,0.03645376967249538
1592167974.139362,-0.0290791670508417,9.19620012464239,3.7272990705946083,-0.41,-0.10222222222222223,-0.39444444444444443,0.10884424131747107,0.04675742563249144,0.05438652099152651
1592167974.149362,0.10083575734124742,9.08962385829874,3.5691535651013466,-0.41,-0.10222222222222223,-0.39444444444444443,0.09046413870560788,0.08141848798832502,0.043959981212593466
1592167974.159362,0.03407125834164225,9.222206133137863,3.358058199440306,-0.40795214156980714,-0.10222222222222223,-0.3931645329255739,0.052989465151030646,0.06416409942977302,0.0006104906986695662
1592167974.169362,-0.2590982503658306,9.204506740530231,3.5843857145122184,-0.4011111111111111,-0.10222222222222223,-0.3888888888888889,0.01793404526350914,0.018130976186328057,0.01641799325188604
1592167974.179362,-0.30757693339947695,9.05865067101657,3.6490725696615596,-0.4011111111111111,-0.10222222222222223,-0.3888888888888889,-0.006484623597839295,0.0010157913389186347,0.025769802232636516
1592167974.189362,-0.23788681570755255,9.165488458486601,3.4246878161673187,-0.4011111111111111,-0.10222222222222223,-0.3888888888888889,-0.0370515144081131,-0.028908416705029888,-0.00346808914225521
1592167974.199362,-0.28545818212356516,9.115589971195698,3.5523956043403166,-0.4011111111111111,-0.10222222222222223,-0.3888888888888889,-0.06593741064941475,-0.06618868458048827,-0.02329311703286397
1592167974.209362,-0.18254720887050044,9.170309512145206,3.7594174581916042,-0.4006713687205897,-0.10327760395947345,-0.3911755493195999,-0.09142034678811845,-0.0721909080325719,-0.021831789920654127
1592167974.219362,0.0018600588644304907,9.193032324940914,3.6662667326579768,-0.39555555555555555,-0.11555555555555555,-0.4177777777777778,-0.10587165424650401,-0.05800396934193176,-0.03237547754333353
1592167974.229362,-0.020920285001580243,9.259514691946219,3.6795594126970848,-0.39555555555555555,-0.11555555555555555,-0.4177777777777778,-0.10507279840597392,-0.10006598928859659,-0.038993915273028965
1592167974.239362,-0.11551358284581717,9.232160362750475,3.7863649142124087,-0.39555555555555555,-0.11555555555555555,-0.4177777777777778,-0.10242968382044706,-0.10859940762703607,-0.013140407627036079
1592167974.249362,0.061525889565716266,9.028652195256658,3.6146742759257657,-0.39555555555555555,-0.11555555555555555,-0.4177777777777778,-0.12277391520653702,-0.08053380439938713,-0.014112051113773571
1592167974.259362,0.10596148796547131,9.239331327409865,3.6788066203928476,-0.3961663505080139,-0.11479206186498257,-0.418083175254007,-0.138657,-0.1031110938163376,-0.01223193976849139
1592167974.269362,-0.15328471186797926,9.06867008025839,4.002227119072145,-0.4088888888888889,-0.09888888888888889,-0.42444444444444446,-0.14423685887024365,-0.10852673217297419,-0.003006
1592167974.279362,-0.177307,9.155215833120664,4.152106481678667,-0.4088888888888889,-0.09888888888888889,-0.42444444444444446,-0.13102765070881287,-0.07450034338413884,-0.01655780120972495
1592167974.289362,-0.2267492537048702,9.170705698838795,4.28180536895597,-0.4088888888888889,-0.09888888888888889,-0.42444444444444446,-0.08801849145773076,-0.057229806112541595,-0.022479120884618467
1592167974.299362,-0.18151626910156304,9.058046881356288,4.15015370889835,-0.4088888888888889,-0.09888888888888889,-0.42444444444444446,-0.061214547979787225,-0.032773708380401584,-0.01932482215619777
1592167974.309362,-0.10881300417519367,9.213290724457908,3.99404528737514,-0.40921782677619256,-0.09942715088629485,-0.42483318922034874,-0.04259304653174734,-0.0369367474035654,-0.003636949007521863
1592167974.319362,0.09341308463414123,8.941962765944243,3.859251624401976,-0.4211111111111111,-0.11888888888888889,-0.4388888888888889,-0.04550140627730075,-0.01601055154637602,0.013285920597818367
1592167974.329362,0.2545275485024907,9.32539442572536,3.730627381659737,-0.4211111111111111,-0.11888888888888889,-0.4388888888888889,-0.061681169257707245,-0.015137558649987322,0.00499865758903133
1592167974.339362,0.07487943439949048,9.031570374033157,4.002808668030799,-0.4211111111111111,-0.11888888888888889,-0.4388888888888889,-0.06717614797697494,-0.012141239217380419,0.019017711586744635
1592167974.349362,-0.0009288892329055026,9.085441016765618,4.293619111705126,-0.4211111111111111,-0.11888888888888889,-0.4388888888888889,-0.05706746376292115,0.008902653883763248,0.015739267205714537
1592167974.359362,0.017324966684636782,9.129606069338706,4.531399932148417,-0.4211111111111111,-0.11888888888888889,-0.4388888888888889,-0.0013432767812219361,0.0477106596772512,0.007455248561125123
1592167974.3693619,0.04320427727241591,9.016210767227944,4.403468735920028,-0.4211111111111111,-0.11888888888888889,-0.4888888888888889,0.05293875441640011,0.10650950501550624,-0.01426758920175447
1592167974.3793619,0.043571188555230074,9.08048378129164,4.1336595530691636,-0.4211111111111111,-0.11888888888888889,-0.4888888888888889,0.0772678227491286,0.13174642838981218,-0.040049143220375616
1592167974.3893619,0.006945996063753807,9.171857154584554,4.0035657945721255,-0.4211111111111111,-0.11888888888888889,-0.4888888888888889,0.08585031245583608,0.12479426172459504,-0.022522611114214563
1592167974.3993618,-0.01954240127892781,9.15176497721514,3.9804469459195677,-0.4211111111111111,-0.11888888888888889,-0.4888888888888889,0.07947824738277613,0.11728455982501301,0.03833648353787459
1592167974.4093618,-0.003486439272598522,9.010624308020867,3.9304553740220967,-0.4211111111111111,-0.11888888888888889,-0.4888888888888889,0.06880220091173356,0.11376490959089335,0.07742732353644258
1592167974.4193618,0.0037785373735362768,9.134143477173073,3.895046916891613,-0.44555555555555554,-0.13333333333333333,-0.47444444444444445,0.06054623349836649,0.11778762069301557,0.04919438054041494
1592167974.4293618,-0.19308945225869686,9.095492727301995,3.9275870462314315,-0.44555555555555554,-0.13333333333333333,-0.47444444444444445,0.058426,0.1357583203453815,0.05232818442691229
1592167974.4393618,-0.26542774142333164,9.108655103612989,3.973781185624262,-0.44555555555555554,-0.13333333333333333,-0.47444444444444445,0.06683037223311336,0.1477306234335938,0.09053036253874398
1592167974.4493618,-0.07722019314929231,9.103275712199897,3.8528423582337696,-0.44555555555555554,-0.13333333333333333,-0.47444444444444445,0.054319068275842985,0.19102749476206468,0.1137521892518185
1592167974.4593618,0.07201877700449932,9.05979679599454,3.789039213003037,-0.44555555555555554,-0.13333333333333333,-0.47444444444444445,0.050228470825690825,0.19987290704443209,0.08295094212714735
1592167974.4693618,-0.03414217637361496,9.107615176921362,3.7268334254173614,-0.41888888888888887,-0.14,-0.4888888888888889,0.03502489752977969,0.2201468684122506,0.05362648009722593
1592167974.4793618,-0.24766749509307762,9.142442698171298,3.8455932294524846,-0.41888888888888887,-0.14,-0.4888888888888889,0.0262228815760433,0.19663137438877903,0.061374754556846975
1592167974.4893618,-0.32632703458971374,9.117620008601193,3.9290915625547065,-0.41888888888888887,-0.14,-0.4888888888888889,0.014266783082432304,0.1888689531457869,0.09382910843869116
1592167974.4993618,-0.11467239984169313,9.053307679635582,3.8273693717173614,-0.41888888888888887,-0.14,-0.4888888888888889,-0.005752775117443348,0.20318600253524371,0.10587584134257179
1592167974.5093617,-0.012273472255172849,9.08738604242199,3.728940702878882,-0.41888888888888887,-0.14,-0.4888888888888889,-0.023139449897093715,0.21352774189180654,0.04965382346284461
1592167974.5193617,-0.2531572204155388,9.090470983274885,3.8686568938123203,-0.4311111111111111,-0.14,-0.5111111111111111,-0.027286241427247743,0.20416722662295458,0.04240571326804408
1592167974.5293617,-0.3732455824019184,9.00829911869009,3.791978985003943,-0.4311111111111111,-0.14,-0.5111111111111111,-0.04674030319366069,0.23498581363704124,0.0519784713919213
1592167974.5393617,-0.28324302881345537,9.183415921874095,3.7449991413416055,-0.4311111111111111,-0.14,-0.5111111111111111,-0.06911616615683078,0.2103176285490334,0.08193174541887786
1592167974.5493617,-0.16083052536687148,9.066361452784221,3.8922115845279954,-0.4311111111111111,-0.14,-0.5111111111111111,-0.07857305004975385,0.18430809991297462,0.07550059997503542
1592167974.5593617,-0.1815530831390837,9.266386962409998,3.9763013870043458,-0.4311111111111111,-0.14,-0.5111111111111111,-0.07946678658404215,0.1738002513097628,0.09775628322291596
1592167974.5693617,-0.10978991741697702,9.136692410648632,4.1097156625641516,-0.42444444444444446,-0.13777777777777778,-0.5244444444444445,-0.06602052152850062,0.14276080675705063,0.11555672180784934
1592167974.5793617,-0.09502101994446446,9.074526210631925,3.9933484128902235,-0.42444444444444446,-0.13777777777777778,-0.5244444444444445,-0.06148738494494358,0.12212402197247837,0.09545810360765394
1592167974.5893617,-0.2371100902221402,9.169137684721962,4.02084012563115,-0.42444444444444446,-0.13777777777777778,-0.5244444444444445,-0.059652192682782046,0.09539496820571752,0.11436229923190504
1592167974.5993617,-0.06559331809153134,8.941641333322202,4.0894146337914465,-0.42444444444444446,-0.13777777777777778,-0.5244444444444445,-0.05504508982764686,0.10370343338521619,0.11275188146723789
1592167974.6093616,0.181766881122848,9.243984419720432,4.022477161713187,-0.42444444444444446,-0.13777777777777778,-0.5244444444444445,-0.028764594946665535,0.11667562198383709,0.04349110296198734
1592167974.6193616,0.01372696325979808,8.99528100616297,3.9667883030479176,-0.43333333333333335,-0.14333333333333334,-0.5311111111111111,-0.011494215195763947,0.13114206040597173,-0.01765459911361237
1592167974.6293616,-0.10291915437427643,9.246928579327125,3.9312672327790614,-0.43333333333333335,-0.14333333333333334,-0.5311111111111111,0.00014094777723245178,0.09858915310144152,-0.02476412107127831
1592167974.6393616,-0.014821933227825643,8.998239622783558,3.92177388733338,-0.43333333333333335,-0.14333333333333334,-0.5311111111111111,-0.005967368979807621,0.095413,0.0006573689798076206
1592167974.6493616,0.23307670823278098,9.198955659243945,3.8174055813835226,-0.43333333333333335,-0.14333333333333334,-0.5311111111111111,-0.030277704918975683,0.06859077809703816,0.021140307177468405
1592167974.6593616,0.2300715820156415,8.943144943957748,3.917580227764119,-0.43333333333333335,-0.14333333333333334,-0.5311111111111111,-0.04682057453823266,0.05588578044349166,0.02996194315623198
1592167974.6693616,0.1981356089651829,9.299835259580192,4.0222175557626825,-0.41333333333333333,-0.14333333333333334,-0.5733333333333334,-0.037371433266669946,0.02285708029045777,0.041684327385222375
1592167974.6793616,0.24223281266874225,9.105032604588398,4.202078967893745,-0.41333333333333333,-0.14333333333333334,-0.5733333333333334,-0.006568761343716159,0.043507066106679884,0.036407
1592167974.6893616,0.3223094709388301,9.119973782398526,4.145872687423338,-0.41333333333333333,-0.14333333333333334,-0.5733333333333334,0.019440318308936395,0.08930578649211562,0.03269953572260109
1592167974.6993616,0.26022748421714187,9.048525807345067,4.115257177673604,-0.41333333333333333,-0.14333333333333334,-0.5733333333333334,0.043954680455407374,0.08953598548852114,-0.008821864726405702
1592167974.7093616,0.23054579158695654,9.133518837268324,3.9276370983513207,-0.41333333333333333,-0.14333333333333334,-0.5733333333333334,0.054613613534545885,0.1017237894768322,-0.05184247630186537
1592167974.7193615,0.1327813434548522,9.192744320128671,3.87924395470314,-0.42777777777777776,-0.13777777777777778,-0.5666666666666667,0.059479,0.07155463586182143,-0.026486867687396054
1592167974.7293615,0.1774622942253674,9.159790390925762,3.8723060051204854,-0.42777777777777776,-0.13777777777777778,-0.5666666666666667,0.05595348675537746,0.059859349500401574,0.010558390132770972
1592167974.7393615,0.321427324130852,9.056842547473492,3.7480425175389764,-0.42777777777777776,-0.13777777777777778,-0.5666666666666667,0.04474543397472372,0.06530123172083428,0.025476231720834273
1592167974.7493615,0.32294166267261304,9.148330118212243,3.7280901541312765,-0.42777777777777776,-0.13777777777777778,-0.5666666666666667,0.01867422882465996,0.061044972528379184,0.019417846688060788
1592167974.7593615,0.17367830264123407,9.15780567125631,3.955037147790989,-0.42777777777777776,-0.13777777777777778,-0.5666666666666667,0.01729633945151199,0.03740791719624154,0.057314127146441185
1592167974.7693615,0.3023640650669483,8.88172695858849,4.081673999498458,-0.4177777777777778,-0.14,-0.6,0.013283110314104257,0.1014856569631135,0.03317006977235331
1592167974.7793615,0.3385816883259014,9.339595278488805,3.92929170337479,-0.4177777777777778,-0.14,-0.6,0.02372424829808148,0.10868517363349066,-0.04043435339270142
1592167974.7893615,-0.005218221571973727,9.15069696883292,4.05955266379697,-0.4177777777777778,-0.14,-0.6,0.05836089675782953,0.08156301842386418,-0.04243907839435542
1592167974.7993615,0.0623409996621343,9.11629824583356,3.962883392475116,-0.4177777777777778,-0.14,-0.6,0.07424556806651847,0.07959343193348152,-0.03728967771806181
1592167974.8093615,0.10374604738248155,9.14673597544661,3.7952540317052845,-0.4177777777777778,-0.14,-0.6,0.06827527933553193,0.05713691012803063,-0.05360356687113225
1592167974.8193614,-0.058788460347615513,9.17581572942485,3.847317013159304,-0.4266666666666667,-0.14333333333333334,-0.6,0.06384583328048861,0.010043259973080254,-0.04938066775483491
1592167974.8293614,-0.03212122918993481,9.135785396310082,3.8901548432172324,-0.4266666666666667,-0.14333333333333334,-0.6,0.04887531349412887,-0.023862801325185964,-0.021395567550630937
1592167974.8393614,0.112303951733634,9.137833617496229,3.797874398590422,-0.4266666666666667,-0.14333333333333334,-0.6,0.03785913207405438,-0.02739872890143998,-0.0019337201320707648
1592167974.8493614,0.2661250702240247,9.142253894357252,3.8471711289392867,-0.4266666666666667,-0.14333333333333334,-0.6,0.036933455356352396,-0.03508307530852532,0.004975859440501695
1592167974.8593614,0.29220912267812726,9.206869704653545,4.032670706579888,-0.4266666666666667,-0.14333333333333334,-0.6,0.052034548616858176,-0.039452341921205565,0.023001024045687327
1592167974.8693614,0.2671346009736509,9.124197030173464,4.050467692253469,-0.4266666666666667,-0.14333333333333334,-0.6088888888888889,0.07141863818803651,-0.023689361811963495,0.03723553942724733
1592167974.8793614,0.3202868076066021,9.154843740250612,3.9265113835662193,-0.4266666666666667,-0.14333333333333334,-0.6088888888888889,0.08104732324970397,-0.005262294303972318,0.014311103998838502
1592167974.8893614,0.33214645695927547,9.139891909696168,3.8697135031990024,-0.4266666666666667,-0.14333333333333334,-0.6088888888888889,0.09892909071891944,0.011023672875681128,-0.004437848205217272
1592167974.8993614,0.19060444106540014,9.157826329138723,3.7923006215512776,-0.4266666666666667,-0.14333333333333334,-0.6088888888888889,0.104233,0.011430719360373383,9.112853794636996e-05
1592167974.9093614,0.11963487792876473,9.182538911153186,3.8397134298642217,-0.4266666666666667,-0.14333333333333334,-0.6088888888888889,0.101028,0.024020583370131215,0.003387507439794445
1592167974.9193614,0.04550694094812116,9.197433750537021,3.7196129656062067,-0.42136801233976917,-0.15710983458326683,-0.6163070049465454,0.09405113567837452,0.002763229403899413,0.006404227266261067
1592167974.9293613,0.058847217352842464,9.178020969155305,3.6477492980883457,-0.4211111111111111,-0.15777777777777777,-0.6166666666666667,0.08539117088279599,-0.00015721550774801772,0.01949790880940569
1592167974.9393613,0.10841640796379909,9.279918146027372,3.498709982799038,-0.4211111111111111,-0.15777777777777777,-0.6166666666666667,0.0647617249358245,-0.03232441422374922,0.06375252163398773
1592167974.9493613,0.4980930279592112,9.120958789381843,3.5637851893388715,-0.4211111111111111,-0.15777777777777777,-0.6166666666666667,0.03961252639503581,0.012160882811086359,0.06589792989789046
1592167974.9593613,0.5437338824218126,9.246663254793608,3.351553941988627,-0.4211111111111111,-0.15777777777777777,-0.6166666666666667,0.010495394527226433,0.016972560458457065,0.027074624339521427
1592167974.9693613,0.3496447895043182,9.147148708798136,3.385938864584346,-0.4070617540047085,-0.1642620964422713,-0.6307160237730692,-0.020981350938037227,0.02140405469936494,0.02843855192834341
1592167974.9793613,0.35716575882524304,9.20966544528897,3.3384210201992097,-0.4066666666666667,-0.16444444444444445,-0.6311111111111111,-0.05141701009042357,0.026057467457087705,0.053616667978954556
1592167974.9893613,0.4034942781730734,9.142820139581072,3.4731660423226054,-0.4066666666666667,-0.16444444444444445,-0.6311111111111111,-0.08077350838705964,0.05529691265764422,0.05984089588352495
1592167974.9993613,0.37861336163106124,9.114733361462433,3.5118138700947807,-0.4066666666666667,-0.16444444444444445,-0.6311111111111111,-0.11098389477037011,0.07702756621687684,0.031392108177418505
1592167975.0093613,0.25487018318984267,9.152068079321154,3.7558657135036633,-0.4066666666666667,-0.16444444444444445,-0.6311111111111111,-0.12841946108753036,0.06881674287541636,0.00790993094127407
1592167975.0193613,0.10208342046218694,9.104742730796897,3.9253057810452816,-0.43555555555555553,-0.16444444444444445,-0.6311111111111111,-0.12072834727862337,0.07286028609487993,-0.0028372860948799377
1592167975.0293612,0.20352480890847696,9.117422047059625,3.8911828626288543,-0.43555555555555553,-0.16444444444444445,-0.6311111111111111,-0.1123649082481368,0.08341629459536848,-0.022993049886726184
1592167975.0393612,0.2743649889799831,9.172582502511357,3.7106867159102603,-0.43555555555555553,-0.16444444444444445,-0.6311111111111111,-0.11620297965514315,0.10016363981082083,-0.058742555783537494
1592167975.0493612,0.23533129556561808,9.199335812166334,3.7260102797952364,-0.43555555555555553,-0.16444444444444445,-0.6311111111111111,-0.12904595774005648,0.09584947325637325,-0.082901
1592167975.0593612,0.1321031505090901,9.155584386270668,3.6872901792193216,-0.43555555555555553,-0.16444444444444445,-0.6311111111111111,-0.14216812344972254,0.09403405199885334,-0.06895562703757152
1592167975.0693612,0.18388457645522494,9.16255365084395,3.6876832767424865,-0.40359497744792655,-0.15734209375386024,-0.6479791940012486,-0.16258842087000838,0.08001392502216163,-0.02971238271777569
1592167975.0793612,0.17435849282443688,9.145428255929009,3.753103701941078,-0.39555555555555555,-0.15555555555555556,-0.6522222222222223,-0.18060668984815303,0.07477882204024536,0.02118006160512675
1592167975.0893612,0.00365853945005095,9.19568249805587,3.8678522760788177,-0.39555555555555555,-0.15555555555555556,-0.6522222222222223,-0.19122268070944978,0.047285866573459505,0.09987869884745834
1592167975.0993612,0.18372520634598716,9.118232307356037,4.042830170752386,-0.39555555555555555,-0.15555555555555556,-0.6522222222222223,-0.19131248116050384,0.06643808576498461,0.167435
1592167975.1093612,0.2910036016960323,9.077083134351094,3.996606100739477,-0.39555555555555555,-0.15555555555555556,-0.6522222222222223,-0.1881120391348731,0.0866120802894438,0.152699233761693
1592167975.1193612,0.1123314427043487,9.094546825901595,4.042769473751939,-0.4065025328827115,-0.14460857822839962,-0.645836485448048,-0.18135331856988218,0.06435841967629433,0.1285856750335456
1592167975.1293612,0.10507997178174483,9.116749908927497,4.089878932121707,-0.4088888888888889,-0.14222222222222222,-0.6444444444444445,-0.1774065581679084,0.06431673838534573,0.14046765380320558
1592167975.1393611,0.08048045599806566,9.034591414285572,4.0501721596042195,-0.4088888888888889,-0.14222222222222222,-0.6444444444444445,-0.16215814088721575,0.05332109904710188,0.07936924470830926
1592167975.1493611,0.11389096671325347,9.010642462079884,4.05333594715014,-0.4088888888888889,-0.14222222222222222,-0.6444444444444445,-0.1641790984767799,0.007114786050934454,0.03843817872373601
1592167975.1593611,0.204655051237221,9.007907531161992,4.164088487635787,-0.4088888888888889,-0.14222222222222222,-0.6444444444444445,-0.1484454337782917,0.050290705977186906,-0.0045231689645394355
1592167975.169361,0.21126113559808382,9.001841947783292,4.248147970105472,-0.4160197623738731,-0.1529185324496985,-0.6845556077974805,-0.140778,0.06619066697967435,-0.05802999128476832
1592167975.179361,0.1300803857177756,9.045391061816026,4.132844466775207,-0.4177777777777778,-0.15555555555555556,-0.6944444444444444,-0.1345684245160173,0.04619979703917979,-0.07021311316141736
1592167975.189361,0.03042713495232352,9.039395146830655,4.159199505464468,-0.4177777777777778,-0.15555555555555556,-0.6944444444444444,-0.13841781064167052,0.01920935993473389,-0.036647898650080585
1592167975.199361,-0.181821888783675,9.09067307520302,4.3185676126381045,-0.4177777777777778,-0.15555555555555556,-0.6944444444444444,-0.13802892811414716,-0.05696403311796806,0.02134709657417911
1592167975.209361,0.11863304534476216,9.18042968296769,4.464010839206268,-0.4177777777777778,-0.15555555555555556,-0.6944444444444444,-0.1025411850440893,-0.025538620542902353,0.05399445739038171
1592167975.219361,0.055585361634390845,9.009795916940893,4.282607705984443,-0.40758634222919937,-0.16659627739984884,-0.6732122870515728,-0.076874,-0.09378909331118357,-0.028190601798167344
1592167975.229361,0.09515684339233144,9.129845617223687,4.442509037679379,-0.40444444444444444,-0.17,-0.6666666666666666,-0.03264418507015837,-0.08147137072385985,-0.02731255710888303
1592167975.239361,0.346907642374401,9.022005070682702,4.485935172887272,-0.40444444444444444,-0.17,-0.6666666666666666,0.012492023386127834,-0.003365891642095756,-0.04498363919895784
1592167975.249361,0.14134637451226656,9.119965755067064,4.425401057524316,-0.40444444444444444,-0.17,-0.6666666666666666,0.04234707232955952,-0.04071615966406942,-0.06962958132106896
1592167975.259361,0.08571141859544038,9.105549088634175,4.316577028623166,-0.40444444444444444,-0.17,-0.6666666666666666,0.08248610453297009,-0.009428484021091236,-0.042236705565361736
1592167975.269361,0.11528438428524844,9.114617889795499,4.1873979280654,-0.3998195875402645,-0.15150057238328024,-0.6959574270598063,0.11137736067658326,-0.009718151999892857,-0.0339151043383452
1592167975.279361,0.08366201793544108,9.082807157855711,4.057766524965301,-0.3977777777777778,-0.14333333333333334,-0.7088888888888889,0.121277,-0.03735351223068811,-0.022966037652738597
1592167975.289361,-0.019766404966659976,9.084452059707425,4.149933420944193,-0.3977777777777778,-0.14333333333333334,-0.7088888888888889,0.12831841962192247,-0.05151495490338349,0.013224751072966272
1592167975.299361,0.16010219701660494,9.02115904872468,4.220964128985814,-0.3977777777777778,-0.14333333333333334,-0.7088888888888889,0.12998272524182217,0.0012299132734589144,0.026291614181220016
1592167975.309361,0.31400209012460184,9.107726223694367,4.230177783804997,-0.3977777777777778,-0.14333333333333334,-0.7088888888888889,0.160241910480767,0.034595994559269386,-0.03580531977093157
1592167975.319361,0.10870446686951549,9.163396626740834,4.263342205781564,-0.39389792036846966,-0.15497290556125773,-0.6988012596246878,0.19869829297523686,-0.006617877201060246,-0.07052422329895079
1592167975.329361,0.08028914450142524,9.174432061816908,4.143975630834956,-0.39222222222222225,-0.16,-0.6944444444444444,0.2258119376130826,0.052108599876047906,-0.06860669434044023
1592167975.339361,0.0957478854000017,9.175393293031505,3.998060649158627,-0.39222222222222225,-0.16,-0.6944444444444444,0.2511401534849365,0.04567732304332377,-0.07710944628761017
1592167975.349361,-0.12168621385651826,9.069958782366148,3.884325726200339,-0.39222222222222225,-0.16,-0.6944444444444444,0.24411817846484823,0.014425290941811848,-0.036925950101022204
1592167975.359361,-0.01323065593952761,9.11634830366847,3.670499030634598,-0.39222222222222225,-0.16,-0.6944444444444444,0.2230382073621615,0.03244504682776052,-0.010365326385765355
1592167975.369361,-0.15075800913471543,9.135270070296208,3.7864223820131504,-0.3875218224952065,-0.16861739949952878,-0.7030618439439732,0.2120215360144344,-0.028618295443800193,-0.028991130837849027
1592167975.379361,-0.1822912672594536,9.039071513149965,3.9627995144686152,-0.38555555555555554,-0.17222222222222222,-0.7066666666666667,0.19689225945962932,0.00966843218135893,-0.0015308058274726907
1592167975.389361,-0.038782347070409895,9.09517996830597,3.719149264130441,-0.38555555555555554,-0.17222222222222222,-0.7066666666666667,0.16415399671198097,-0.015543315653705068,0.0457255073850169
1592167975.399361,0.15441640672857435,9.064016598124878,3.83658487770289,-0.38555555555555554,-0.17222222222222222,-0.7066666666666667,0.152161,-0.01769405505969584,0.04130798410880647
1592167975.409361,0.18742419339928165,9.076243276235349,3.854979717954839,-0.38555555555555554,-0.17222222222222222,-0.7066666666666667,0.1428507866799242,0.0007665573281401498,0.03561249523407404
1592167975.4193609,0.25325569374248286,9.1570185623874,3.7768705305745507,-0.3749878462427826,-0.17618511321451205,-0.7027037756743768,0.1412924112598117,0.038294521641886785,-0.005944166744675324
1592167975.4293609,0.017992773450007937,8.953108880836547,3.7618545825517375,-0.36777777777777776,-0.17888888888888888,-0.7,0.11859932160270054,0.0006739699311143345,-0.05576264665565038
1592167975.4393609,-0.2215659337860289,8.999192061789582,3.6573760208154242,-0.36777777777777776,-0.17888888888888888,-0.7,0.06803685438604405,0.02487311707566944,-0.011116116031839873
1592167975.4493608,0.0385507673398572,9.091217673401262,3.6680633420999724,-0.36777777777777776,-0.17888888888888888,-0.7,0.016816639543548093,0.02323944963271839,0.07528427637361307
1592167975.4593608,0.3886669675938288,9.075678674865792,3.7338920593764025,-0.36777777777777776,-0.17888888888888888,-0.7,-0.004709037685522961,0.05015711371448782,0.09819
1592167975.4693608,0.4418566872537408,9.150497979663312,3.8025292513414155,-0.3761158737844107,-0.18267893252826747,-0.7015160174557514,-0.026016196558355735,0.06263112992115971,0.09107386689485211
1592167975.4793608,0.41421435558219016,9.132583486381192,3.7783236182071858,-0.38,-0.18444444444444444,-0.7022222222222222,-0.03267137054363888,0.09005470445347336,0.0592484314971583
1592167975.4893608,0.31688716412737344,9.085403,3.8579970302729425,-0.38,-0.18444444444444444,-0.7022222222222222,-0.04308911891963427,0.07463480890871582,0.04196007217164991
1592167975.4993608,0.30969032731225743,9.121712348250885,4.016732642320606,-0.38,-0.18444444444444444,-0.7022222222222222,-0.04994315971147773,0.065678551180443,0.05398142757717878
1592167975.5093608,0.43314931622946934,9.135583566115328,4.215987602562701,-0.38,-0.18444444444444444,-0.7022222222222222,-0.03277994519751579,0.07012489314456008,0.06506799108852973
1592167975.5193608,0.4677099200442338,9.126862971639007,4.347921924745178,-0.37159480200758377,-0.18062389990243705,-0.6961093509550104,0.007162274380864269,0.09744629508982938,0.04502448378157356
1592167975.5293608,0.26966323901735945,9.134052570967015,4.168651405969707,-0.36777777777777776,-0.17888888888888888,-0.6933333333333334,0.043047780061553305,0.10294476311339923,0.02709053257622918
1592167975.5393608,0.22210020505629338,9.107213708563295,3.7686742156056785,-0.36777777777777776,-0.17888888888888888,-0.6933333333333334,0.05221994115458806,0.09985882489042468,0.0008105113597233274
1592167975.5493608,0.24993413340426954,9.161089309762735,3.6275998670053706,-0.36777777777777776,-0.17888888888888888,-0.6933333333333334,0.0348888555757348,0.07469216720139298,-0.007278
1592167975.5593607,0.26520918780773584,9.165827437460429,3.5521751577331027,-0.36777777777777776,-0.17888888888888888,-0.6933333333333334,0.00903805593745502,0.06212599903788445,-0.007526131382032606
1592167975.5693607,0.25309315914596425,9.199363429407589,3.4714859993762315,-0.3532902817347262,-0.17278889055497243,-0.6940958331250728,-0.017672042018763733,0.02084116852581183,-0.003006
1592167975.5793607,0.30947167532730013,9.169149345223143,3.438682634014196,-0.3466666666666667,-0.17,-0.6944444444444444,-0.05238893341643451,0.008295125036192855,0.0006927326443614771
1592167975.5893607,0.37999075409716615,9.158708136787878,3.5322642341103365,-0.3466666666666667,-0.17,-0.6944444444444444,-0.08068374969916756,0.002301483664063724,-0.00492446725859522
1592167975.5993607,0.3848186368667301,9.14568695246213,3.7234601577544755,-0.3466666666666667,-0.17,-0.6944444444444444,-0.09458686802511124,-0.008944212277919554,-0.021802095133646563
1592167975.6093607,0.32411319409444017,9.1452327389997,3.8857127172668595,-0.3466666666666667,-0.17,-0.6944444444444444,-0.09977989391922548,-0.021503654547037804,-0.026443
1592167975.6193607,0.2779012875065578,9.19055250052363,3.84821253970166,-0.3466666666666667,-0.17371158696475397,-0.6981560314091984,-0.09651072159855076,-0.032640703532848384,-0.03105207298742208
1592167975.6293607,0.26491599079313016,9.150849756843376,3.796662094026942,-0.3466666666666667,-0.17777777777777778,-0.7022222222222222,-0.09678106705112947,-0.04931762477781843,-0.03571506705112947
1592167975.6393607,0.26728646794352545,9.174315744573127,3.750000376622809,-0.3466666666666667,-0.17777777777777778,-0.7022222222222222,-0.09888927330336705,-0.07222639925711241,-0.05061388119515131
1592167975.6493607,0.21949117377792643,9.181566692529467,3.841468866745081,-0.3466666666666667,-0.17777777777777778,-0.7022222222222222,-0.10069350547236075,-0.0758991345943768,-0.0621841829269467
1592167975.6593606,0.13941863764602958,9.150598512468067,3.909007491410143,-0.3466666666666667,-0.17777777777777778,-0.7022222222222222,-0.09775925198359077,-0.08425735105907846,-0.057931542185272
1592167975.6693606,0.124393242523193,9.075143445394522,3.9468775409848127,-0.3412538908952078,-0.17994288808636133,-0.698433279182201,-0.0958655619291428,-0.08932969976697269,-0.047059965680551985
1592167975.6793606,0.1563963382471704,9.125721148389022,4.093829860582563,-0.33555555555555555,-0.18222222222222223,-0.6944444444444444,-0.0893163518594452,-0.08050167363517682,-0.032030135384977426
1592167975.6893606,0.243077620061124,9.115301389083992,4.165741,-0.33555555555555555,-0.18222222222222223,-0.6944444444444444,-0.07498917483767371,-0.06983491565439037,-0.03384207121499228
1592167975.6993606,0.3500715391484987,9.106964461950016,4.244622084888089,-0.33555555555555555,-0.18222222222222223,-0.6944444444444444,-0.053963440298791576,-0.07396314815858634,-0.023777292140205235
1592167975.7093606,0.4308010888611227,9.127797536288009,4.298746875166214,-0.33555555555555555,-0.18222222222222223,-0.6944444444444444,-0.026221588086430207,-0.05719414778570722,-0.005467567198184727
1592167975.7193606,0.551849914866806,9.113472495466631,4.1706334057159085,-0.33170377997160144,-0.17516063365163967,-0.6989381826257243,0.0065190459814330965,-0.035614,-0.007462157748024262
1592167975.7293606,0.4846364426774574,9.21284945005827,4.037077780928193,-0.3288888888888889,-0.17,-0.7022222222222222,0.03755469211434978,-0.04565058093081273,-0.03878603506951029
1592167975.7393606,0.26238708464480437,9.20712736964222,4.02859638550526,-0.3288888888888889,-0.17,-0.7022222222222222,0.060448633284379646,-0.04593209331524531,-0.051881436264487484
1592167975.7493606,0.15715474012984404,9.063620896599355,4.045853942437599,-0.3288888888888889,-0.17,-0.7022222222222222,0.07003537933044855,-0.052550026231660385,-0.03070191798543154
1592167975.7593606,0.14281712637565716,9.077223030831904,3.9780228952072876,-0.3288888888888889,-0.17,-0.7022222222222222,0.06943844727877893,-0.03310528739160867,-0.011519319729881562
1592167975.7693605,0.158416564467017,9.06126948518038,3.966422532744995,-0.3288888888888889,-0.1731832689067301,-0.7022222222222222,0.0630876888440428,-0.01905238019406736,-0.015056655577978603
1592167975.7793605,0.08223349865542137,9.12101581774582,4.031260666541283,-0.3288888888888889,-0.17777777777777778,-0.7022222222222222,0.06647085191826486,-0.010524867720350174,-0.00931844492970692
1592167975.7893605,0.1802229605228444,9.102962369891626,3.961958742148368,-0.3288888888888889,-0.17777777777777778,-0.7022222222222222,0.0690844834063792,-0.00021122489031077398,0.010297780811430181
1592167975.7993605,0.28635965384211126,9.109925231711975,3.9809652137084792,-0.3288888888888889,-0.17777777777777778,-0.7022222222222222,0.076523,-0.007565905236162195,-0.0027775701265939415
1592167975.8093605,0.26247180930024255,9.11879420550618,3.915808977330961,-0.3288888888888889,-0.17777777777777778,-0.7022222222222222,0.07949450043357316,0.004482302434203337,-0.01451538889756727
1592167975.8193605,0.23311662590400906,9.09940776860432,3.8053606863841574,-0.3315835301463203,-0.17957420528273205,-0.6932400846974509,0.0766639460901036,-0.022827,-0.014020634708724184
1592167975.8293605,0.24024422367438933,9.106747077940543,3.729385,-0.33555555555555555,-0.18222222222222223,-0.68,0.052463066833207,-0.02833500855715011,-0.017312905573601323
1592167975.8393605,0.26890045106759985,9.132424188807706,3.86541745070008,-0.33555555555555555,-0.18222222222222223,-0.68,0.03580442208966447,-0.056411853456107476,-0.007827853456107477
1592167975.8493605,0.440490256860367,9.113753910610148,3.959382228359233,-0.33555555555555555,-0.18222222222222223,-0.68,0.039835234134503524,-0.03287802406818235,-0.006602454081763805
1592167975.8593605,0.4940333004004547,9.134484275075097,3.9805566408301822,-0.33555555555555555,-0.18222222222222223,-0.68,0.049212410811979586,-0.02153806844507311,-0.0180565156916185
1592167975.8693604,0.48602050403226943,9.184655147597399,4.053271954889004,-0.32998329477108046,-0.1852226703369396,-0.6885727088991925,0.06510933121776846,-0.029489847553487138,-0.014616266441166929
1592167975.8793604,0.4906567834549728,9.168742914814418,3.9498516504902175,-0.3211111111111111,-0.19,-0.7022222222222222,0.07869315815636806,0.015526569629081768,-0.009416147282160801
1592167975.8893604,0.3800298032781724,9.164090634441855,3.811029429138941,-0.3211111111111111,-0.19,-0.7022222222222222,0.08084585299583534,0.009303884583652722,-0.011536
1592167975.8993604,0.3498246844825157,9.145989133446152,3.7497934277844354,-0.3211111111111111,-0.19,-0.7022222222222222,0.07247885026191464,0.02568984941039982,-0.0186773496066666
1592167975.9093604,0.23695419162963124,9.156452392957597,3.8215243028275565,-0.3211111111111111,-0.19,-0.7022222222222222,0.06611565746458532,0.01108392724726223,-0.00282892724726223
1592167975.9193604,0.23106317414314942,9.159756283682553,3.8751395337405894,-0.31929212932408596,-0.18745342549816482,-0.6949462950741216,0.06694,0.014124568040471961,0.014453605356769286
1592167975.9293604,0.2810077654721787,9.152518989540077,3.956938699496105,-0.31555555555555553,-0.18222222222222223,-0.68,0.07478801453890525,0.010738204151714613,0.016295781309380128
1592167975.9393604,0.24545317254965307,9.16418042708453,3.9334791492602377,-0.31555555555555553,-0.18222222222222223,-0.68,0.08439601193000838,-0.0016088621725495818,0.004369980478852842
1592167975.9493604,0.2180167439819396,9.182995818396009,3.805939174294886,-0.31555555555555553,-0.18222222222222223,-0.68,0.08911119758175785,-0.006777198235797103,0.005508
1592167975.9593604,0.29351346201726514,9.175512581883874,3.573792739776388,-0.31555555555555553,-0.18222222222222223,-0.68,0.08024220280030533,0.006159413635583157,-0.009276191232102372
1592167975.9693604,0.2918958787369564,9.165939171270898,3.4370900769063493,-0.32328417482397387,-0.1878040028049688,-0.6885873547426871,0.05183475813693315,-0.014162825475341213,-0.03461102169060083
1592167975.9793603,0.23231517415766006,9.192169736581581,3.4569172637127523,-0.33555555555555555,-0.19666666666666666,-0.7022222222222222,0.022668762060743877,-0.0061939906667708485,-0.03480832237971171
1592167975.9893603,0.24588737748151362,9.19788913471936,3.707524995594619,-0.33555555555555555,-0.19666666666666666,-0.7022222222222222,0.007604099016645998,0.010998860041714669,-0.021308360017215908
1592167975.9993603,0.2841184577052034,9.189286599792883,3.904982652072353,-0.33555555555555555,-0.19666666666666666,-0.7022222222222222,0.00804269296495007,0.030536991400804563,-0.016825614311953965
1592167976.0093603,0.20567404372590034,9.196468608321977,3.98202199302973,-0.33555555555555555,-0.19666666666666666,-0.7022222222222222,0.02488511589799517,0.04775123210560739,-0.019635230624144726
1592167976.0193603,0.08103622975288165,9.206102569977771,4.0118579999069865,-0.32598121444252753,-0.19427308138840965,-0.6970361207859987,0.04590930745684231,0.043869930804178364,-0.018328792266299757
1592167976.0293603,-0.05951907381484083,9.203955207138318,3.9211918988085532,-0.3088888888888889,-0.19,-0.6877777777777778,0.07027354712497798,0.019646452875022015,-0.013265983568387325
1592167976.0393603,-0.042954530255912525,9.250620497034914,3.8362395891090104,-0.3088888888888889,-0.19,-0.6877777777777778,0.08836373146146269,-0.005730635822826191,-0.003467813586076042
1592167976.0493603,-0.11632180476653337,9.222093903005945,3.788170321114745,-0.3088888888888889,-0.19,-0.6877777777777778,0.09954684402624053,-0.04497650217717131,-0.003358237867754525
1592167976.0593603,-0.10057981038001224,9.16651101543594,3.7667098277213737,-0.3088888888888889,-0.19,-0.6877777777777778,0.10685750408481419,-0.07022583469493807,0.003923522533923429
1592167976.0693603,-0.023036340427657283,9.128509055297547,3.7903556683475226,-0.31571697894405515,-0.19227603001838875,-0.6896744694597684,0.09735788532810144,-0.06500639462301505,0.009766
1592167976.0793602,0.2040489841205967,9.150329029287466,3.8884704181365475,-0.3288888888888889,-0.19666666666666666,-0.6933333333333334,0.094635,-0.043464324996898146,-0.0045977215351881515
1592167976.0893602,0.2803732914281835,9.142093003311604,3.9526926285221413,-0.3288888888888889,-0.19666666666666666,-0.6933333333333334,0.09556384026986495,-0.034830842214974206,-0.028440840269864952
1592167976.0993602,0.34178536343990173,9.208501533641472,4.01483173817269,-0.3288888888888889,-0.19666666666666666,-0.6933333333333334,0.1117690974768143,-0.018114139442856995,-0.02794499031362877
1592167976.1093602,0.3729853436123567,9.203158245393,3.953867752431746,-0.3288888888888889,-0.19666666666666666,-0.6933333333333334,0.1366313871633491,-0.016590898733450248,-0.022038410303551397
1592167976.1193602,0.3125966559710829,9.222473,3.791363701565753,-0.3182831694244426,-0.1922191068912537,-0.6851224537479556,0.15222520845316134,-0.02365606686065458,-0.013474622469836122
1592167976.1293602,0.29109367459994606,9.253994469208934,3.636312419137355,-0.29444444444444445,-0.18222222222222223,-0.6666666666666666,0.156418,-0.02572697684714141,0.0022757064906309466
1592167976.1393602,0.19444794903779994,9.239009146665733,3.5391182231422884,-0.29444444444444445,-0.18222222222222223,-0.6666666666666666,0.15039912835581432,-0.030604381708858427,0.0016882365822831471
1592167976.1493602,0.1579417393295023,9.204502677920688,3.52392655510306,-0.29444444444444445,-0.18222222222222223,-0.6666666666666666,0.1357364782297758,-0.024104275273468954,-0.0016544511956609622
1592167976.1593602,0.19204721446864367,9.210014689982232,3.5178318770785433,-0.29444444444444445,-0.18222222222222223,-0.6666666666666666,0.12027110379426963,-0.01573638818144989,0.009449042817493163
1592167976.1693602,0.23720723346006442,9.241275772239842,3.5389596101000635,-0.29687038542852495,-0.18490352541515334,-0.6666666666666666,0.10652290150552618,0.005375009623153323,0.019419876340513884
1592167976.1793602,0.32821084788157096,9.247154746545032,3.579306325068451,-0.31555555555555553,-0.20555555555555555,-0.6666666666666666,0.098907,0.019209133537370505,0.029339177636087153
1592167976.1893601,0.42958895191870533,9.237488224670923,3.559543471577848,-0.31555555555555553,-0.20555555555555555,-0.6666666666666666,0.0991445693255269,0.04132777028403077,0.028457660390442313
1592167976.1993601,0.39326670459434643,9.276352,3.4731033104978857,-0.31555555555555553,-0.20555555555555555,-0.6666666666666666,0.0897010205943005,0.05828595280987843,0.027217255354085836
1592167976.2093601,0.2705862946210129,9.28607899842609,3.341880737410638,-0.31555555555555553,-0.20555555555555555,-0.6666666666666666,0.07310943500209291,0.07379667372913241,0.03822867372913241
1592167976.21936,0.2954812421855696,9.262212058944277,3.35246930340865,-0.3161048208019765,-0.20412746591486103,-0.6643597526316986,0.04917677320678222,0.08867122679321779,0.042160736532441276
1592167976.22936,0.26045024982892523,9.263046088065073,3.397291585434459,-0.3211111111111111,-0.19111111111111112,-0.6433333333333333,0.03167999445925746,0.10653386378660774,0.029752882836183867
1592167976.23936,0.14409552056631683,9.26848734085988,3.5637348324605624,-0.3211111111111111,-0.19111111111111112,-0.6433333333333333,0.030877770400158662,0.124176,0.020432
1592167976.24936,0.020799510907506126,9.32014826608091,3.7516029175224506,-0.3211111111111111,-0.19111111111111112,-0.6433333333333333,0.04879270084804946,0.11460691042413357,0.01830143692189763
1592167976.25936,-0.023880367568994743,9.277151722686241,3.802828100995389,-0.3211111111111111,-0.19111111111111112,-0.6433333333333333,0.07506158953217312,0.08729237561754376,0.02129842224241163
1592167976.26936,-0.05441898964610343,9.269331770523467,3.6457176254357297,-0.31411896710303383,-0.19545106256440048,-0.6483966100288375,0.08898466486188183,0.053029134648754195,0.04527415274434722
1592167976.27936,0.09611809021314636,9.230359196220576,3.410706991780746,-0.28888888888888886,-0.2111111111111111,-0.6666666666666666,0.08842806362301647,0.01593467621287111,0.046269095434524704
1592167976.28936,0.1643367990870015,9.227548240797063,3.1754255517192513,-0.28888888888888886,-0.2111111111111111,-0.6666666666666666,0.051239646485929394,-0.03592486139772612,0.037836779689619966
1592167976.29936,0.28522185455096444,9.258609007124965,3.1436975847405786,-0.28888888888888886,-0.2111111111111111,-0.6666666666666666,0.0032628403054130797,-0.0528309799203254,0.018271680092997324
1592167976.30936,0.4768561855043547,9.252155215624711,3.332403106874369,-0.28888888888888886,-0.2111111111111111,-0.6666666666666666,-0.025163339200743335,-0.05764217737374491,0.0037680791803037447
1592167976.31936,0.5601437540993845,9.256172692833875,3.5365580175890483,-0.2959674252565819,-0.20842614904060688,-0.6617849174475681,-0.03895203718397717,-0.04241072170999134,-0.01476031547398583
1592167976.32936,0.56316929445772,9.24864920390457,3.6396558756507935,-0.3211111111111111,-0.1988888888888889,-0.6444444444444445,-0.035206387861725225,-0.026037781934892812,-0.03200065222914819
1592167976.33936,0.4598556812174308,9.259997608762536,3.8051256215498985,-0.3211111111111111,-0.1988888888888889,-0.6444444444444445,-0.028654105503630282,-0.01882940040295246,-0.03203213955901711
1592167976.34936,0.5201945696828683,9.262829450087372,4.03044708067554,-0.3211111111111111,-0.1988888888888889,-0.6444444444444445,0.004138852890516083,0.0041757242568202365,-0.02472025408323044
1592167976.35936,0.5336147997122724,9.264018480453093,3.939346508233595,-0.3211111111111111,-0.1988888888888889,-0.6444444444444445,0.038921034134466036,-0.010138944955793108,-0.003501773368604518
1592167976.36936,0.5254840853571415,9.252413676857188,3.8015796726921263,-0.3211111111111111,-0.1988888888888889,-0.6444444444444445,0.0662381950609453,-0.005081042375699683,0.0012508710619736118
1592167976.37936,0.4932640519410362,9.249292686787632,3.6951345912327134,-0.3022222222222222,-0.2111111111111111,-0.6355555555555555,0.07819704405532159,-0.008386706307637043,0.011818489817535905
1592167976.38936,0.5508730406380957,9.284710938640762,3.6872071721704134,-0.3022222222222222,-0.2111111111111111,-0.6355555555555555,0.08722515979983587,0.0010646153338154897,0.012551935911795853
1592167976.39936,0.6172777968664042,9.28732013679764,3.74465114160859,-0.3022222222222222,-0.2111111111111111,-0.6355555555555555,0.0994276975602788,0.027304331832518187,0.014660142163649949
1592167976.40936,0.6654408446405521,9.274759051929653,3.692257685647057,-0.3022222222222222,-0.2111111111111111,-0.6355555555555555,0.11677895099533424,0.05754199624299682,0.015106
1592167976.41936,0.6602966499755498,9.296123907029001,3.660155211758076,-0.3022222222222222,-0.2111111111111111,-0.6355555555555555,0.1294268161121406,0.08045097881832086,0.013471445331874896
1592167976.42936,0.5727753716682665,9.27172734469276,3.5465427928504956,-0.33555555555555555,-0.2,-0.6577777777777778,0.1377917609199792,0.10396399865302157,0.012431239080020797
1592167976.43936,0.4107848814556013,9.273803607104284,3.4077999277124533,-0.33555555555555555,-0.2,-0.6577777777777778,0.13521630781636065,0.10981003282778322,0.0036172028546058816
1592167976.44936,0.27102279831914605,9.329920612967868,3.2569883776151904,-0.33555555555555555,-0.2,-0.6577777777777778,0.1206654730770981,0.109253,-0.017940962518098368
1592167976.45936,0.08278772905783682,9.32433523592464,3.161659754482983,-0.33555555555555555,-0.2,-0.6577777777777778,0.0990192510182652,0.09250535889155567,-0.028409892126709524
1592167976.4693599,-0.01954538314258316,9.3580848557349,3.04573188175588,-0.33465394136541254,-0.20124838887865956,-0.6574310030892613,0.07026079078391144,0.05320625754898175,-0.03028824922981089
1592167976.4793599,-0.08923527475625487,9.342153588490996,3.1389865627836118,-0.3211111111111111,-0.22,-0.6522222222222223,0.039212583085061835,0.009278059228756203,-0.02595311313048838
1592167976.4893599,-0.06669673299134694,9.314322648837404,3.278655139673721,-0.3211111111111111,-0.22,-0.6522222222222223,0.02220079621228974,-0.013604922205364127,-0.017929
1592167976.4993598,0.0227963734940769,9.339382503012091,3.4052343192771732,-0.3211111111111111,-0.22,-0.6522222222222223,0.013037192730033445,-0.014313,-0.020699807269966553
1592167976.5093598,0.049903451576584545,9.331817866294967,3.3335189884564547,-0.3211111111111111,-0.22,-0.6522222222222223,0.007162455151076511,-0.013425843230808594,-0.02384404688223737
1592167976.5193598,0.014898310307641605,9.318076362793034,3.301942461637326,-0.3211111111111111,-0.22,-0.6522222222222223,-0.000975948417574841,-0.0044402018340867575,-0.027242431692138733
1592167976.5293598,-0.029380388062428642,9.301567611937571,3.3513717462631294,-0.3022222222222222,-0.20777777777777778,-0.6433333333333333,-0.010954445932855798,0.004761923541513328,-0.02785520668141141
1592167976.5393598,-0.09283611892342818,9.277285504761656,3.432115509475255,-0.3022222222222222,-0.20777777777777778,-0.6433333333333333,-0.01849372864328329,0.015515641409628756,-0.018569542713433425
1592167976.5493598,-0.1106173925651489,9.28006528331321,3.586545200081713,-0.3022222222222222,-0.20777777777777778,-0.6433333333333333,-0.012723893080171626,0.02547286979104173,-0.013473676549640944
1592167976.5593598,-0.132159668956139,9.272118956141872,3.6430093057097763,-0.3022222222222222,-0.20777777777777778,-0.6433333333333333,0.0012509762315489456,0.028305,-0.007384374199280767
1592167976.5693598,-0.12612926826685755,9.295044098250125,3.7707894411959986,-0.3022631297003597,-0.2077539150821976,-0.6433606049854249,0.025208165402779245,0.028045866218056055,0.004699255099257589
1592167976.5793598,-0.10559001775634816,9.309984617506384,3.907746310893022,-0.31555555555555553,-0.2,-0.6522222222222223,0.057814775101055725,0.02636008892371832,0.009093835930837492
1592167976.5893598,-0.05170984014517382,9.317778086633519,3.9730708504293895,-0.31555555555555553,-0.2,-0.6522222222222223,0.09806738060314882,0.03400054347682314,0.012025784933765127
1592167976.5993598,0.03465234451199589,9.327853700531982,3.9486563778363086,-0.31555555555555553,-0.2,-0.6522222222222223,0.14112256956625932,0.04657201468100632,0.014038
1592167976.6093597,0.008482450505280233,9.294448682800667,3.8554053986918504,-0.31555555555555553,-0.2,-0.6522222222222223,0.18102993066119977,0.05388291491406637,0.011895695028644545
1592167976.6193597,-0.06485783601710049,9.318544045513915,3.7633384189936296,-0.31555555555555553,-0.2,-0.6522222222222223,0.2126122293985016,0.057068,0.010834
1592167976.6293597,-0.0994497956307601,9.31111144948171,3.626634719929661,-0.3088888888888889,-0.20777777777777778,-0.6522222222222223,0.2400442787778685,0.0467463302406166,0.015056717676631127
1592167976.6393597,-0.12400309828441378,9.33827415614968,3.486841188022787,-0.3088888888888889,-0.20777777777777778,-0.6522222222222223,0.2560225500964819,0.038118145656389116,0.024073401866102496
1592167976.6493597,-0.12327507827884941,9.360880952642363,3.248133146756644,-0.3088888888888889,-0.20777777777777778,-0.6522222222222223,0.2598606371354326,0.03873462213631129,0.03383000535062104
1592167976.6593597,-0.0770199601652101,9.363773725340298,3.077030592518806,-0.3088888888888889,-0.20777777777777778,-0.6522222222222223,0.24913617369379817,0.03816452890256219,0.04224781273377892
1592167976.6693597,0.004377019921264963,9.378351177836903,2.8941115730561373,-0.3088888888888889,-0.20777777777777778,-0.6522222222222223,0.21972520537518128,0.03307644090770237,0.04117944090770237
1592167976.6793597,0.0709778342414487,9.364537158947336,2.8447369262869637,-0.3088888888888889,-0.22,-0.6311111111111111,0.18753590385224791,0.028305,0.03208476775229155
1592167976.6893597,0.11411121087695475,9.397984370103426,2.76947486950171,-0.3088888888888889,-0.22,-0.6311111111111111,0.14775377438501996,0.01923838494448312,0.02285447270638235
1592167976.6993597,0.1190929511028323,9.4185029772686,2.6955792085359724,-0.3088888888888889,-0.22,-0.6311111111111111,0.1072169383957142,0.0053358708559314875,0.011302630494521425
1592167976.7093596,0.09723781867196483,9.413476266067526,2.77177278106172,-0.3088888888888889,-0.22,-0.6311111111111111,0.0685757745102209,-0.010758230728719276,0.0021005034183466443
1592167976.7193596,0.07005464521873178,9.409523084402807,2.9256610954917064,-0.3088888888888889,-0.22,-0.6311111111111111,0.03903494924050134,-0.01563701139769382,-0.006341119554438852
1592167976.7293596,0.017611586113383267,9.429244214730797,2.9220207274097523,-0.3088888888888889,-0.21333333333333335,-0.6166666666666667,0.015282724947445248,-0.03290285517513876,-0.010468
1592167976.7393596,-0.015302566795501182,9.422591547500485,3.0291105053999137,-0.3088888888888889,-0.21333333333333335,-0.6166666666666667,-0.005401785562768095,-0.03529014672891089,-0.010419431523333605
1592167976.7493596,-0.02689468907415231,9.38846644043155,3.1042203511196527,-0.3088888888888889,-0.21333333333333335,-0.6166666666666667,-0.016275105896632787,-0.0346936774264109,-0.009801484844413061
1592167976.7593596,0.009621701171544643,9.378258881539715,3.1039688843802113,-0.3088888888888889,-0.21333333333333335,-0.6166666666666667,-0.027402347002619256,-0.024370652997380747,-0.011302424639254724
1592167976.7693596,0.00037446029713145753,9.384974238517863,3.1212791491338856,-0.3088888888888889,-0.21333333333333335,-0.6166666666666667,-0.03666300004262199,-0.01917387034191221,-0.011396259316175578
1592167976.7793596,0.03239416372914392,9.402987884599245,3.2185703279949918,-0.29444444444444445,-0.21444444444444444,-0.6444444444444445,-0.04122263190296069,-0.01799690470312253,-0.01480319059375494
1592167976.7893596,0.012938811261614419,9.381524076617184,3.289529062355161,-0.29444444444444445,-0.21444444444444444,-0.6444444444444445,-0.03847665538290254,-0.01376800022291283,-0.016861
1592167976.7993596,-0.06126778788001588,9.375625098297803,3.3964319820230937,-0.29444444444444445,-0.21444444444444444,-0.6444444444444445,-0.02638942100812543,-0.006330510901925188,-0.016367532705775567
1592167976.8093596,-0.06610754632252336,9.3796304919145,3.4206928463361743,-0.29444444444444445,-0.21444444444444444,-0.6444444444444445,-0.009512591101094524,-0.0031693046496876105,-0.009974843324453236
1592167976.8193595,-0.07682673040974736,9.37364702186216,3.3510640182512734,-0.29444444444444445,-0.21444444444444444,-0.6444444444444445,0.002891273688210187,-0.004585273688210187,-0.00787262791433978
1592167976.8293595,-0.09302178125691224,9.400783015225569,3.2549628653354423,-0.3020670771292748,-0.22206707712927476,-0.6008865433882711,0.007722388096889628,-0.006217490491432215,-0.002571509508567785
