time,acc_x,acc_y,acc_z,mag_x,mag_y,mag_z,gyr_x,gyr_y,gyr_z
1592167813.4395154,0.141517053529425,9.446100199403569,3.125123604568107,-0.37558596616236806,-0.5670056367777481,-0.4966970772734791,-0.0374120291846486,-0.0100719902717838,-0.033825273223549876
1592167813.4495153,0.1178142816455347,9.445132554723289,3.1838532759545175,-0.38,-0.5722222222222222,-0.5011111111111111,-0.040605215980448035,-0.0006331360782078545,-0.0423320469049909
1592167813.4595153,0.050945887504442636,9.456075173138748,3.2459697196125115,-0.38,-0.5722222222222222,-0.5011111111111111,-0.03858457757089341,-0.00131227259028174,-0.05087742242910659
1592167813.4695153,-0.030297242419730787,9.42306237408459,3.3404759423153565,-0.38,-0.5722222222222222,-0.5011111111111111,-0.029525832162886446,-0.002494628695453977,-0.05394065305529765
1592167813.4795153,-0.11024573844772019,9.445164722808226,3.3545190087642083,-0.38,-0.5722222222222222,-0.5011111111111111,-0.011960818513161477,-0.009801550826982072,-0.05013533010461689
1592167813.4895153,-0.11795464270072978,9.420477831805067,3.2541006413126587,-0.3598884723302917,-0.5635072268986819,-0.48837381025362914,-0.0029254022527539663,-0.019772801831840235,-0.04123134414003027
1592167813.4995153,-0.012742820160515572,9.435829101363947,3.203507106939504,-0.3466666666666667,-0.5577777777777778,-0.48,-0.002304,-0.03167542718492855,-0.0344665193110789
1592167813.5095153,0.22420973124740662,9.409578996437773,3.18757118232703,-0.3466666666666667,-0.5577777777777778,-0.48,-0.0042110673537462074,-0.024977056290548624,-0.030078912766100946
1592167813.5195153,0.5686133902064114,9.391204095108302,3.224038095845464,-0.3466666666666667,-0.5577777777777778,-0.48,-0.005493,0.007156485913193428,0.016576422990550857
1592167813.5295153,0.9445212754399569,9.427614976533482,3.1351171447825736,-0.3466666666666667,-0.5577777777777778,-0.48,-0.00600299754258166,0.05080256236025958,-0.0006894747732967242
1592167813.5395153,0.9711877526609476,9.419686539407458,3.2122255470357453,-0.3466666666666667,-0.5739213208659759,-0.5012415040634186,-0.009140718965265686,0.09079391575094031,-0.0116908709876775
1592167813.5495152,0.9143050695917088,9.420341404831701,3.0794260904352018,-0.3466666666666667,-0.5788888888888889,-0.5077777777777778,-0.018009645101530018,0.15025204115789528,-0.001884066894012353
1592167813.5595152,0.6920986766927779,9.368333390312731,2.955028818296145,-0.3466666666666667,-0.5788888888888889,-0.5077777777777778,-0.035242250304941936,0.18306469055299562,0.010438073025375518
1592167813.5695152,0.44144763991934316,9.364594614510782,2.957092593930332,-0.3466666666666667,-0.5788888888888889,-0.5077777777777778,-0.06115178381073184,0.20035543136996037,0.0330819729238858
1592167813.5795152,0.4342109614986007,9.375379708119004,3.0339946324606974,-0.3466666666666667,-0.5788888888888889,-0.5077777777777778,-0.08228804104656387,0.2170380395401416,0.05029902052328193
1592167813.5895152,0.5198349932327049,9.43089197597739,3.1258417233908706,-0.3559951364085417,-0.5602319494051389,-0.48834346581553817,-0.09422186359345162,0.19445860571971418,0.05070288482081129
1592167813.5995152,0.5248731503328816,9.471288608701554,3.0719461091474725,-0.36,-0.5522222222222222,-0.48,-0.10311929953669685,0.1642152081713365,0.04277433708769859
1592167813.6095152,0.534933868309753,9.425839138825449,3.0103088093294814,-0.36,-0.5522222222222222,-0.48,-0.11057972415968105,0.10806510669927841,0.023301073085644573
1592167813.6195152,0.5026004911962769,9.383118813743451,3.064390660917602,-0.36,-0.5522222222222222,-0.48,-0.12105445530812685,0.043978699302280926,-0.0056046059961870846
1592167813.6295152,0.4951715817572457,9.37455508425778,3.2430232871201508,-0.36,-0.5522222222222222,-0.48,-0.12168414581573064,-0.0030830433181428278,-0.009327854184269358
1592167813.6395152,0.6583556903014177,9.421809737839913,3.2939815382720044,-0.3554091250312787,-0.5705857220971076,-0.4891817499374427,-0.120544,-0.02577704087973334,-0.02709322857660095
1592167813.6495152,0.549441609486135,9.400933162878806,3.394697881386978,-0.35333333333333333,-0.5788888888888889,-0.49333333333333335,-0.11859700366220091,-0.040653438899164854,-0.041835348381580616
1592167813.6595151,0.5210618046509722,9.186457172129563,3.4713948509533212,-0.35333333333333333,-0.5788888888888889,-0.49333333333333335,-0.11102714738113773,-0.0499464761317377,0.00768636399612975
1592167813.6695151,0.8604904170463912,9.356009428536876,3.6916692498900545,-0.35333333333333333,-0.5788888888888889,-0.49333333333333335,-0.10251325283677022,-0.044069887893996296,0.02218490077831037
1592167813.6795151,0.9767896500708205,9.368562566590686,3.7725860590950067,-0.35333333333333333,-0.5788888888888889,-0.49333333333333335,-0.0769070815112119,-0.043447712156986215,-0.011148707414511806
1592167813.689515,0.8474130987208534,9.353232812942696,3.655258708384515,-0.35702378197711787,-0.5672024681835712,-0.5013293053948665,-0.054127153845247515,-0.03742500224498416,-0.01588600673495247
1592167813.699515,0.721815713618319,9.358997309652064,3.604931589186079,-0.36,-0.5577777777777778,-0.5077777777777778,-0.03010738825979111,-0.024609622060501,-0.011584642096234533
1592167813.709515,0.7247634815758057,9.372888646967105,3.551086620511593,-0.36,-0.5577777777777778,-0.5077777777777778,0.0022380900646930355,0.00034162996869766085,0.00018357297687490032
1592167813.719515,0.7528525832605993,9.43841539253666,3.4843543892638706,-0.36,-0.5577777777777778,-0.5077777777777778,0.029353994012813647,0.019237244938290203,-0.021652093677916588
1592167813.729515,0.5099077093684883,9.426376263689463,3.3088447759707442,-0.36,-0.5577777777777778,-0.5077777777777778,0.03691105524030976,0.025631991634831063,-0.0550710904480041
1592167813.739515,0.21797057919180757,9.339157513313456,3.189411928084262,-0.35014447119837006,-0.5612561997077649,-0.5077777777777778,0.03464167684276976,-0.006992861141971924,-0.01023463490660514
1592167813.749515,0.4081879232147764,9.383965991351715,3.0164892887455768,-0.3411111111111111,-0.5644444444444444,-0.5077777777777778,0.02578653328360166,-0.0027918346979014163,0.024834367830852695
1592167813.759515,0.4749627138659638,9.370750299491124,3.080261252930323,-0.3411111111111111,-0.5644444444444444,-0.5077777777777778,0.003151709981118315,0.005818425917293207,0.023856148165413586
1592167813.769515,0.526334698549819,9.389307308755047,3.110545062080782,-0.3411111111111111,-0.5644444444444444,-0.5077777777777778,-0.01269250109497843,0.0076162013848501435,0.025129714551165826
1592167813.779515,0.5766452412283959,9.395457195506236,3.1681947282991954,-0.3411111111111111,-0.5644444444444444,-0.5077777777777778,-0.030370048924957115,0.02465112467555033,0.012784040238454154
1592167813.789515,0.581055,9.390564513250869,3.2913161620937337,-0.3503714835053633,-0.5644444444444444,-0.5077777777777778,-0.03854719304995031,0.04121377219980125,0.005303321939763724
1592167813.799515,0.6076715045110668,9.403076547043101,3.4297013926973463,-0.36,-0.5644444444444444,-0.5077777777777778,-0.03636009336690027,0.05500861786243122,-0.0083693119271436
1592167813.809515,0.5960535874673801,9.434510417671502,3.471025393699523,-0.36,-0.5644444444444444,-0.5077777777777778,-0.02379826881261029,0.07290608035015414,-0.024074407925029007
1592167813.819515,0.5233747453327654,9.33309177663505,3.507446299340225,-0.36,-0.5644444444444444,-0.5077777777777778,-0.009141413724482765,0.06703862499554739,-0.021617087822611975
1592167813.829515,0.5614442893488357,9.320426011419093,3.43914484468919,-0.36,-0.5644444444444444,-0.5077777777777778,0.008915598872983967,0.04796940112701603,0.015979200124302758
1592167813.839515,0.572963724100599,9.351627501130876,3.2791510844465446,-0.36291874452387385,-0.5598578459069283,-0.5077777777777778,0.009637419026913577,0.06436181921471287,0.03052751436408483
1592167813.849515,0.46675244274796257,9.36975777876235,3.320177961529854,-0.36777777777777776,-0.5522222222222222,-0.5077777777777778,0.009275996738740858,0.07965988501843557,0.03825194577047693
1592167813.859515,0.3977768481886895,9.437471892024412,3.3857744555949156,-0.36777777777777776,-0.5522222222222222,-0.5077777777777778,0.010138613334537265,0.1004317105541212,0.03283635488524104
1592167813.869515,0.37838655617168854,9.409630491553637,3.445062771783821,-0.36777777777777776,-0.5522222222222222,-0.5077777777777778,0.015006725895500204,0.10612970152537905,0.026759298474620954
1592167813.879515,0.3448482767366958,9.422173797546977,3.4067174531570608,-0.36777777777777776,-0.5522222222222222,-0.5077777777777778,0.019610577501843557,0.12447288253215277,-0.0008038827238700443
1592167813.889515,0.1935194083310618,9.371257035211796,3.3190081548907857,-0.36777777777777776,-0.554743753361105,-0.5213940459277453,0.02193870801273464,0.12282913706940898,-0.01687681724078802
1592167813.899515,0.126713791595355,9.372568760679329,3.3422703340883144,-0.36777777777777776,-0.5577777777777778,-0.5377777777777778,0.024626492487698257,0.11372598093073708,-0.02005
1592167813.909515,0.16954944796632093,9.366900321860514,3.3484091320898286,-0.36777777777777776,-0.5577777777777778,-0.5377777777777778,0.02903481698958247,0.09183800075178875,-0.012034046128498756
1592167813.919515,0.16594257439365023,9.282678962540247,3.378806499514135,-0.36777777777777776,-0.5577777777777778,-0.5377777777777778,0.036074585375895724,0.0693832872310687,0.017057705705824388
1592167813.929515,0.24444139742558416,9.293912022344346,3.4260085697395826,-0.36777777777777776,-0.5577777777777778,-0.5377777777777778,0.04979193308298528,0.05045885825154631,0.04934573624268802
1592167813.9395149,0.3494227747477562,9.385823860634904,3.4339704805044624,-0.36407350752439227,-0.5577777777777778,-0.5354982268526175,0.06586615610196188,0.036433183412507605,0.06356194312632839
1592167813.9495149,0.4199142780672632,9.412279003990651,3.3293829604122056,-0.35333333333333333,-0.5577777777777778,-0.5288888888888889,0.07692015983066476,0.03653978420379854,0.06051584016933525
1592167813.9595149,0.4365267854071556,9.463492172256336,3.1630511023157037,-0.35333333333333333,-0.5577777777777778,-0.5288888888888889,0.07078613036487325,0.06410651342374347,0.034679486576256524
1592167813.9695148,0.25791627421863694,9.408709936063413,3.154713089227409,-0.35333333333333333,-0.5577777777777778,-0.5288888888888889,0.05284052851516888,0.09213723276989927,0.014438580143083132
1592167813.9795148,0.23096074936847524,9.417812602702462,3.1195387843863664,-0.35333333333333333,-0.5577777777777778,-0.5288888888888889,0.03700217273300996,0.11041455987313803,0.0037847957668733423
1592167813.9895148,-0.029486400520150845,9.307382356233528,3.1198149286266426,-0.3557312721310572,-0.5557794954463412,-0.5244926677597285,0.022301451976439297,0.10729887389074753,0.016283283935311303
1592167813.9995148,0.04622774435824851,9.341803794263727,3.112289,-0.36,-0.5522222222222222,-0.5166666666666667,0.004910854015861051,0.09991714598413895,0.059754541324372745
1592167814.0095148,0.1825684585679386,9.422958207322484,3.120578126787093,-0.36,-0.5522222222222222,-0.5166666666666667,-0.002304,0.09962612391864926,0.06757354710824041
1592167814.0195148,0.1977418123518808,9.389495987639753,3.313904019506921,-0.36,-0.5522222222222222,-0.5166666666666667,0.0024494819979737044,0.08810131581656556,0.06792179781453928
1592167814.0295148,0.43121668041641903,9.42163808131231,3.37344017409416,-0.36,-0.5522222222222222,-0.5166666666666667,0.012933700506327056,0.08335049228503245,0.058702232737233136
1592167814.0395148,0.6440871185359323,9.467777012252187,3.4238523074477527,-0.36,-0.5564402512668577,-0.5258696391276896,0.0287433283813784,0.10956501407988199,0.026582943847070602
1592167814.0495148,0.42354847512354576,9.391014338089082,3.3120969930456745,-0.36,-0.5644444444444444,-0.5433333333333333,0.03567789520335301,0.13224482550122296,-0.0005376128820457258
1592167814.0595148,0.19284849434151008,9.364619898268586,3.202950788924688,-0.36,-0.5644444444444444,-0.5433333333333333,0.03434881326013379,0.14504818673986622,0.009347698068940185
1592167814.0695148,-0.016577213549866035,9.401854708254348,3.2172824054352427,-0.36,-0.5644444444444444,-0.5433333333333333,0.031714543913108115,0.14348344588576453,0.022849099493771508
1592167814.0795147,-0.10486023655437166,9.321503428002908,3.2450166255304276,-0.36,-0.5644444444444444,-0.5433333333333333,0.028079855477857824,0.1282544672382966,0.06156197232478623
1592167814.0895147,-0.01726819695456152,9.383220640500305,3.306645923212191,-0.3644824413433522,-0.5644444444444444,-0.5384773552113684,0.031646886826924146,0.11518967019969319,0.08488421028896032
1592167814.0995147,0.04516229272620784,9.342750921498668,3.439035606731535,-0.37333333333333335,-0.5644444444444444,-0.5288888888888889,0.04805733258062961,0.10045666741937039,0.10133408696268496
1592167814.1095147,0.07282640200028152,9.415217772555701,3.5245285856640427,-0.37333333333333335,-0.5644444444444444,-0.5288888888888889,0.0782332336535007,0.07788093824182704,0.10956270411383023
1592167814.1195147,0.2349421238336272,9.509215898332958,3.5178935042404555,-0.37333333333333335,-0.5644444444444444,-0.5288888888888889,0.10511872234162663,0.0658620579986622,0.09220749681821082
1592167814.1295147,0.253545450080922,9.488301076897487,3.443260714980267,-0.37333333333333335,-0.5644444444444444,-0.5288888888888889,0.1349438888762471,0.06843606569444878,0.04890568735773137
1592167814.1395147,0.28645883313123216,9.431754043126565,3.3069414252314404,-0.3768793209066247,-0.5644444444444444,-0.5327303754266212,0.14939269574544162,0.07380101533010736,0.035901928093782474
1592167814.1495147,0.4322958173082059,9.475903622802575,3.164863960714317,-0.38666666666666666,-0.5644444444444444,-0.5433333333333333,0.15210441758700682,0.1002908701290888,0.017674182850698644
1592167814.1595147,0.387543327891309,9.358765327891309,3.153744048602786,-0.38666666666666666,-0.5644444444444444,-0.5433333333333333,0.1466923205375572,0.12641146510113718,0.008015805836759765
1592167814.1695147,0.351409999085022,9.360516453480534,3.1387733595020877,-0.38666666666666666,-0.5644444444444444,-0.5433333333333333,0.13938487781352563,0.13586787676271656,0.03209568222890252
1592167814.1795146,0.3493892924375494,9.35618835723939,3.153184979612998,-0.38666666666666666,-0.5644444444444444,-0.5433333333333333,0.14144353469094953,0.1464453020364243,0.0729229204663133
1592167814.1895146,0.42735661567596267,9.438227438968214,3.091845589515927,-0.38743472252527456,-0.5637403932407206,-0.5432693286784493,0.1384421956929452,0.15174889005383127,0.1081713666545852
1592167814.1995146,0.4985693056738078,9.499864821011098,3.041737788334124,-0.4,-0.5522222222222222,-0.5422222222222223,0.13530750752677448,0.18947944064174702,0.08789688213845943
1592167814.2095146,0.37549881592774315,9.430818938782537,2.957138803604816,-0.4,-0.5522222222222222,-0.5422222222222223,0.12544288238747273,0.2090290678582107,0.06388857167354298
1592167814.2195146,0.3040915714732158,9.36241656629172,2.8703960375148636,-0.4,-0.5522222222222222,-0.5422222222222223,0.10375201673822615,0.2036184762221133,0.09426434906430024
1592167814.2295146,0.4106744812368867,9.45413548183543,2.8023728326488064,-0.4,-0.5522222222222222,-0.5422222222222223,0.08132986448748762,0.207438635007058,0.11150909497882601
1592167814.2395146,0.33383475758940057,9.48541435086214,2.813863478898141,-0.40124800372285857,-0.552638223463175,-0.5411822191198401,0.06367368227685087,0.2066048575104078,0.1081858575104078
1592167814.2495146,0.3638367756073833,9.462224531103317,2.923224514637606,-0.4066666666666667,-0.5544444444444444,-0.5366666666666666,0.04927708755829805,0.20560415536403703,0.08548346542530141
1592167814.2595146,0.2193475763215707,9.49065639327776,2.945254923566863,-0.4066666666666667,-0.5544444444444444,-0.5366666666666666,0.026995899727939053,0.17531810899866887,0.06650873031414017
1592167814.2695146,0.212952,9.428984541930708,3.0460905407601433,-0.4066666666666667,-0.5544444444444444,-0.5366666666666666,0.013912627444856258,0.15079745760157245,0.05030863566200029
1592167814.2795146,0.26748811202490946,9.393285055143165,3.0913930048606377,-0.4066666666666667,-0.5544444444444444,-0.5366666666666666,0.005380901757619348,0.12995305119598238,0.02856864954783434
1592167814.2895145,0.20447116726305442,9.408062385642786,3.1951309712956455,-0.4066666666666667,-0.5530337730442146,-0.5324346524659774,0.002322279232669039,0.10778825928881858,0.006179588718694732
1592167814.2995145,0.06699913577345505,9.428904139960357,3.2699130504874723,-0.4066666666666667,-0.5466666666666666,-0.5133333333333333,0.017873125433502737,0.07391313048987604,-0.01283185207828826
1592167814.3095145,-0.01905903262334719,9.444562964819742,3.1177070579448296,-0.4066666666666667,-0.5466666666666666,-0.5133333333333333,0.022505270575998923,0.022704185908506373,0.009800518945752559
1592167814.3195145,0.10673961083112267,9.48453588317898,3.017303491762569,-0.4066666666666667,-0.5466666666666666,-0.5133333333333333,0.0327859720193433,-0.014099502531648562,0.033203
1592167814.3295145,0.36196733576463874,9.485714463453794,3.104441830532454,-0.4066666666666667,-0.5466666666666666,-0.5133333333333333,0.03685960598529488,-0.024159833565194862,-0.005884769340692486
1592167814.3395145,0.08577374450187164,9.430107949500902,3.1391432677161935,-0.40837702206086446,-0.5466666666666666,-0.5133333333333333,0.03456483404479071,-0.042300633975473595,-0.018695884066140426
1592167814.3495145,0.28669443020320323,9.57988674519851,3.288232977330313,-0.4211111111111111,-0.5466666666666666,-0.5133333333333333,0.05473883736219217,-0.04360427858678689,-0.04097858708637518
1592167814.3595145,0.20936539022695028,9.469746527355928,3.2673870461697603,-0.4211111111111111,-0.5466666666666666,-0.5133333333333333,0.06978447354381592,-0.04317654276544638,-0.08524387362151661
1592167814.3695145,0.052982771394563685,9.470325113923632,3.3392769082990776,-0.4211111111111111,-0.5466666666666666,-0.5133333333333333,0.09847630717022153,-0.04584830717022152,-0.08971744776618566
1592167814.3795145,-0.05952439770937455,9.283536203319578,3.0113226664999675,-0.4211111111111111,-0.5466666666666666,-0.5133333333333333,0.09227921036591905,-0.09462020612629768,-0.040954215637987214
1592167814.3895144,0.026808356448852138,9.261259925076216,2.888577759343112,-0.42276192075771196,-0.5477171818963217,-0.515284290188407,0.06954136485085925,-0.10509102809560929,0.0016371191514180997
1592167814.3995144,0.1719215002754408,9.379485326247144,2.728250618430501,-0.43333333333333335,-0.5544444444444444,-0.5277777777777778,0.020540475636574487,-0.1116299643536417,0.013018255641466397
1592167814.4095144,0.16928216728411316,9.357759043356612,2.824176554271827,-0.43333333333333335,-0.5544444444444444,-0.5277777777777778,-0.03647572514286805,-0.12382350054120891,-0.041608548926723166
1592167814.4195144,-0.026844672156401992,9.708678267471074,3.0302093660578078,-0.43333333333333335,-0.5544444444444444,-0.5277777777777778,-0.06292841724933662,-0.1294847616595784,-0.08355129986627666
1592167814.4295144,-0.1800657859662838,9.582335087432298,3.4668531148438775,-0.43333333333333335,-0.5544444444444444,-0.5277777777777778,-0.025983418160790382,-0.13098973899460897,-0.17208237719270428
1592167814.4395144,-0.6185553894204097,9.321674811849405,3.457806160739601,-0.43333333333333335,-0.5518695370508795,-0.5252028703842129,0.023009737208630116,-0.1754492340338679,-0.16740522934208976
1592167814.4495144,-0.41965235631971115,9.59068184905921,3.255305794621078,-0.43333333333333335,-0.54,-0.5133333333333333,0.08568417895926381,-0.2608185517460292,-0.06347894683459214
1592167814.4595144,-0.03563339142029971,9.496224769753281,3.2317474309261307,-0.43333333333333335,-0.54,-0.5133333333333333,0.13897176058352356,-0.2476228456782209,-0.10025271103569718
1592167814.4695144,-0.2244070276271103,9.42206906527127,2.991521945452471,-0.43333333333333335,-0.54,-0.5133333333333333,0.14493887352691726,-0.26661451451711005,-0.1280698422543144
1592167814.4795144,-0.2100792945158345,9.349000327475284,2.694753519991678,-0.43333333333333335,-0.54,-0.5133333333333333,0.1109954964754745,-0.30197509144706985,-0.0981635252491333
1592167814.4895144,-0.19067892679681772,9.411849230178726,2.5423159608923305,-0.4367155312829357,-0.54,-0.5108906348141761,0.06560622195734975,-0.3421528892144663,-0.061334096719974855
1592167814.4995143,0.1120232835592742,9.640708183201236,2.724301987280048,-0.4533333333333333,-0.54,-0.4988888888888889,0.04483766161006908,-0.33252541405328373,-0.0888728527496359
1592167814.5095143,-0.12961818530263863,9.47682998227959,2.6952049720283155,-0.4533333333333333,-0.54,-0.4988888888888889,0.017824845300041636,-0.33981114408184054,-0.14768968698338547
1592167814.5195143,-0.26757353172001674,9.493532995815356,2.6293682810923587,-0.4533333333333333,-0.54,-0.4988888888888889,-0.013260408588563335,-0.368363065642094,-0.13244469199352468
1592167814.5295143,-0.0010253932411305317,9.536470637406572,2.806127219256184,-0.4533333333333333,-0.54,-0.4988888888888889,-0.02046844635357857,-0.3754324733098056,-0.12457691654585228
1592167814.5395143,0.15423352839400503,9.469499331405483,2.9482994305777592,-0.45501897271881814,-0.5419921192737548,-0.49383197073243446,-0.032016823877519154,-0.37122183071439774,-0.14037541193875958
1592167814.5495143,0.24944371643178329,9.393414436170477,2.909978714170184,-0.46555555555555556,-0.5544444444444444,-0.4622222222222222,-0.041403096245865995,-0.3650918615531485,-0.1175736946547208
1592167814.5595143,0.3460978694850487,9.41331667151166,2.8846827632065426,-0.46555555555555556,-0.5544444444444444,-0.4622222222222222,-0.05611597257146148,-0.34711616302783094,-0.08612696410646446
1592167814.5695143,0.3015510735216765,9.486514532427451,2.9401805289143073,-0.46555555555555556,-0.5544444444444444,-0.4622222222222222,-0.07799115174217806,-0.31652069970754154,-0.09169505430107773
1592167814.5795143,0.15352495565033922,9.463659754094648,2.9868465900082115,-0.46555555555555556,-0.5544444444444444,-0.4622222222222222,-0.09233799651339186,-0.29563157914309746,-0.10169564431029071
1592167814.5895143,0.015209888880578469,9.56539652024804,2.985623653167973,-0.463898045839014,-0.5524855693248953,-0.4611674433116958,-0.09285,-0.2745799681742297,-0.12424755795950039
1592167814.5995142,-0.30030183389888615,9.425334698041977,2.927592997723576,-0.4533333333333333,-0.54,-0.45444444444444443,-0.09402113181167329,-0.2771723641469948,-0.12383528720360999
1592167814.6095142,-0.37556530674624894,9.463614153636376,2.7629013802942906,-0.4533333333333333,-0.54,-0.45444444444444443,-0.1074887975980334,-0.30015708750566544,-0.09516984952698085
1592167814.6195142,-0.1129590035927231,9.452554614938007,2.6746414848377915,-0.4533333333333333,-0.54,-0.45444444444444443,-0.13330676244720674,-0.2975600984796574,-0.09199401135025857
1592167814.6295142,0.09564302019683518,9.442730781469953,2.724935064960335,-0.4533333333333333,-0.54,-0.45444444444444443,-0.1677645144318214,-0.26990977364081176,-0.09596828807263313
1592167814.6395142,0.12063308944006121,9.359273426357996,2.8926394412182956,-0.4546304291455983,-0.54,-0.4540629456761312,-0.1967506721343813,-0.246727534510964,-0.07671506873067668
1592167814.6495142,0.09489783612933654,9.363758779826906,2.933270254797062,-0.4722222222222222,-0.54,-0.4488888888888889,-0.22411212621195586,-0.2189461332525929,-0.03865461432349536
1592167814.6595142,0.22091031722316457,9.48697730917592,3.004542197415227,-0.4722222222222222,-0.54,-0.4488888888888889,-0.24546868342731182,-0.17538229625638804,-0.03841102810046382
1592167814.6695142,0.06961647172569044,9.388678567240339,3.116269147229896,-0.4722222222222222,-0.54,-0.4488888888888889,-0.2574414132903861,-0.12904812000868549,-0.04814289667740348
1592167814.6795142,-0.04697535818914748,9.37432969163053,3.136270419387389,-0.4722222222222222,-0.54,-0.4488888888888889,-0.26308153013796187,-0.10186043771937833,-0.02622227396648919
1592167814.6895142,0.007687980983148974,9.49775590434917,3.1321784383589457,-0.4722222222222222,-0.54,-0.4483808045530979,-0.26664740081311394,-0.0604822306248212,-0.04126250362908425
1592167814.6995142,-0.21492796233663236,9.38155270204321,3.3447737708760537,-0.4722222222222222,-0.54,-0.43333333333333335,-0.26536698872384723,-0.03375663008400773,-0.032642533289842915
1592167814.7095141,-0.12149646549277551,9.3798704943089,3.5398345144102388,-0.4722222222222222,-0.54,-0.43333333333333335,-0.22986517371128445,-0.01994834525355127,0.015496826288715525
1592167814.7195141,-0.003186258544984985,9.485010291795929,3.7440537469428277,-0.4722222222222222,-0.54,-0.43333333333333335,-0.18464437029241104,0.0026591145213276574,0.027350045803646052
1592167814.7295141,0.02625846691635938,9.403627724330937,3.838460632907991,-0.4722222222222222,-0.54,-0.43333333333333335,-0.1332224634678887,0.02880623191851815,0.021318089558332514
1592167814.739514,-0.025976135474743506,9.452853309171676,3.8135757336047487,-0.4722751080308787,-0.5394182561047789,-0.43269870362945567,-0.0823761355348788,0.05407759240730819,-0.003968120235147188
1592167814.749514,-0.18969964626379654,9.413115094983246,3.81574916376971,-0.47444444444444445,-0.5155555555555555,-0.4066666666666667,-0.030869469836074546,0.06530412867593795,-0.015793
1592167814.759514,-0.2950789077779936,9.33349296517961,3.777384714204375,-0.47444444444444445,-0.5155555555555555,-0.4066666666666667,0.01338361073453908,0.049045631380949486,-0.009399
1592167814.769514,-0.1823106158086272,9.52786377806534,3.684100850501683,-0.47444444444444445,-0.5155555555555555,-0.4066666666666667,0.053274264749578144,0.05080881836320912,-0.025424119161556992
1592167814.779514,-0.35484998453902383,9.428000989392542,3.755024019470941,-0.47444444444444445,-0.5155555555555555,-0.4066666666666667,0.10022801329047484,0.05037198403705397,-0.044622911582531524
1592167814.789514,-0.3376885392407101,9.412209015856467,3.5433294314143704,-0.47444444444444445,-0.5155555555555555,-0.4066666666666667,0.13550335373660957,0.024839380710533054,-0.007176586860350824
1592167814.799514,-0.10429945172761533,9.470138694433516,3.364076614700282,-0.4811111111111111,-0.52,-0.43555555555555553,0.1695803519697649,0.02240103290001543,-0.027976557221747137
1592167814.809514,-0.3626359647125299,9.297169779162052,3.2429215696835403,-0.4811111111111111,-0.52,-0.43555555555555553,0.17376984680296162,0.002908488784258872,-0.02257534616718634
1592167814.819514,-0.3797088317411941,9.341207140031216,3.0942965699557337,-0.4811111111111111,-0.52,-0.43555555555555553,0.1584558047865196,-0.043034092976234554,0.015570507051228536
1592167814.829514,-0.2526575121905115,9.37953614617668,2.854476360491364,-0.4811111111111111,-0.52,-0.43555555555555553,0.12596412063386783,-0.017092690082670434,0.006245368735081004
1592167814.839514,-0.257480296452076,9.355511502173307,2.805507530637101,-0.4811111111111111,-0.52,-0.43555555555555553,0.07246561909774453,-0.00011288581845922581,-0.01330342995107566
1592167814.849514,-0.22435979952970664,9.332619172065032,2.8828660593572453,-0.4666666666666667,-0.5133333333333333,-0.39222222222222225,0.014063790822724104,0.005984343934942855,-0.03355538237497372
1592167814.859514,-0.19729820530827236,9.300756614860374,3.0122979026380103,-0.4666666666666667,-0.5133333333333333,-0.39222222222222225,-0.032226716878954835,-0.0002270583513038015,-0.023743087118832648
1592167814.869514,-0.18989816876065874,9.35092064878101,3.1913634601649026,-0.4666666666666667,-0.5133333333333333,-0.39222222222222225,-0.0451724811057087,-0.007557789585422962,-0.015801478496037115
1592167814.879514,-0.1878965656604366,9.369491766704305,3.36136886587562,-0.4666666666666667,-0.5133333333333333,-0.39222222222222225,-0.04543034863562005,-0.014191600092422459,0.007645
1592167814.889514,-0.03922765424282108,9.420289529646178,3.3903760980188227,-0.4666666666666667,-0.5133333333333333,-0.39222222222222225,-0.024444495277132345,-0.0011997965683871595,0.0021559135974708126
1592167814.899514,-0.09289912126478192,9.42673005711277,3.404932673525571,-0.4811111111111111,-0.5311111111111111,-0.37333333333333335,-0.010825910872352237,0.01762846619217908,-0.004072678634395967
1592167814.909514,-0.15621118926789127,9.347838078090017,3.354646411839798,-0.4811111111111111,-0.5311111111111111,-0.37333333333333335,0.0007835403886573191,0.02298,0.0010767195001606372
1592167814.919514,-0.15541127051893527,9.444523917743163,3.2529721062240307,-0.4811111111111111,-0.5311111111111111,-0.37333333333333335,0.007237091349401908,0.04157745876636677,-0.008717694750423959
1592167814.929514,-0.2842412597731027,9.422712097354866,3.2583916495844276,-0.4811111111111111,-0.5311111111111111,-0.37333333333333335,0.004173702398743996,0.0463184872416878,-0.03092427598406152
1592167814.939514,-0.408625259267195,9.257880788217339,3.328127047484534,-0.4811111111111111,-0.5311111111111111,-0.37333333333333335,0.007898490082561492,0.018604715962355335,0.0037722856806869064
1592167814.949514,-0.2730754518527259,9.420199858074287,3.334885416928817,-0.4622222222222222,-0.5133333333333333,-0.35888888888888887,0.013687,0.010699840421592211,0.013110289894601949
1592167814.959514,-0.19388648558705424,9.446412676558948,3.218555495634477,-0.4622222222222222,-0.5133333333333333,-0.35888888888888887,0.019731193440485326,-0.00012419344048532777,0.010438334569658973
1592167814.969514,-0.1782106738272078,9.436340634890904,3.2238286946730397,-0.4622222222222222,-0.5133333333333333,-0.35888888888888887,0.02500199630658636,0.017730364136054867,-0.010559180730258817
1592167814.979514,-0.26535536003716864,9.3838074333391,3.1624067900654422,-0.4622222222222222,-0.5133333333333333,-0.35888888888888887,0.03193481196283195,0.021829259735373606,-0.0011943979613848613
1592167814.9895139,-0.21071172444525152,9.462970087571245,2.9698451632918172,-0.4622222222222222,-0.5133333333333333,-0.35888888888888887,0.023231551913504872,0.03205719315556428,-0.00035950095108482874
1592167814.9995139,-0.2960049909708052,9.420715950790882,2.938007070676375,-0.47444444444444445,-0.5255555555555556,-0.3655555555555556,0.0035212023738075303,0.04234072468224228,-0.00562574785866087
1592167815.0095139,-0.44392900346457415,9.283074140474547,3.021091784665723,-0.47444444444444445,-0.5255555555555556,-0.3655555555555556,-0.016905868504794332,0.017532270683228754,0.022452543297391617
1592167815.0195138,-0.23093761904237875,9.487903502174301,3.0530941625707104,-0.47444444444444445,-0.5255555555555556,-0.3655555555555556,-0.032174602218040776,0.011261,0.02139012113841899
1592167815.0295138,-0.20921599772842786,9.440336987435886,3.216885859105539,-0.47444444444444445,-0.5255555555555556,-0.3655555555555556,-0.035324,0.015142492685411037,0.0031821361361833765
1592167815.0395138,-0.31333780515056964,9.429837014222356,3.3609604400525668,-0.47444444444444445,-0.5255555555555556,-0.3655555555555556,-0.02628091753189729,0.009806443096638253,-0.007010937784207175
1592167815.0495138,-0.4858695098331924,9.344918558119732,3.3210749308627183,-0.4828678122533244,-0.5002854521289156,-0.35186758286612557,-0.009998052724032914,-0.00854308219407323,0.008445473224723898
1592167815.0595138,-0.3333115605016593,9.462981448859985,3.0965048775378583,-0.48333333333333334,-0.4988888888888889,-0.3511111111111111,-0.0073209046543760165,-0.0064093159562932135,0.01115299545425754
1592167815.0695138,-0.30735878893648055,9.460934417174842,3.094048649593131,-0.48333333333333334,-0.4988888888888889,-0.3511111111111111,-0.015657317693843036,0.005449317693843037,-0.010468
1592167815.0795138,-0.5604631376468642,9.277665926539036,3.2139319160350404,-0.48333333333333334,-0.4988888888888889,-0.3511111111111111,-0.01835809578432246,-0.017899192845131518,0.012728347327454297
1592167815.0895138,-0.3873537280866079,9.439337742642122,3.1627437546784507,-0.48333333333333334,-0.4988888888888889,-0.3511111111111111,-0.02522221718226151,-0.03896513490015653,0.030094513981475984
1592167815.0995138,-0.22269568637549675,9.468494380092304,3.1988719603046536,-0.47555555555555556,-0.4922222222222222,-0.3377777777777778,-0.023775528442476535,-0.012685312004200196,0.00086920378506203
1592167815.1095138,-0.1712111312616116,9.528137658691227,3.2931882741172256,-0.47555555555555556,-0.4922222222222222,-0.3377777777777778,-0.014452448083336636,0.003961619566491881,-0.033653224165392556
1592167815.1195138,-0.3862836309124512,9.373496396197426,3.2984634088227294,-0.47555555555555556,-0.4922222222222222,-0.3377777777777778,-0.0018541416766071146,0.004008634406837072,-0.05136707308657369
1592167815.1295137,-0.5117256249846085,9.362245399689339,3.2225949500941318,-0.47555555555555556,-0.4922222222222222,-0.3377777777777778,0.0036873120194058444,-0.0018038445133235232,-0.030967403564299854
1592167815.1395137,-0.46753358338042195,9.434864462758096,3.178176682941422,-0.47555555555555556,-0.4922222222222222,-0.3377777777777778,0.006647675694536198,-0.010531358391880956,-0.01989420323145517
1592167815.1495137,-0.6033436584401083,9.294051329220983,3.236807900599601,-0.4642643628570326,-0.4922222222222222,-0.29774536730119644,0.017909440492193923,-0.03646999039507241,0.015615889910386583
1592167815.1595137,-0.4691452275921024,9.45753913392437,3.135277171277487,-0.4633333333333333,-0.4922222222222222,-0.29444444444444445,0.013789550389808737,-0.053452844847921434,0.029059079789572652
1592167815.1695137,-0.23042693372960302,9.516212718211769,3.0428353421408407,-0.4633333333333333,-0.4922222222222222,-0.29444444444444445,0.01145694804488998,-0.0111252455847532,0.017821191323701784
1592167815.1795137,-0.1969903639679536,9.458764196733412,3.267327878152836,-0.4633333333333333,-0.4922222222222222,-0.29444444444444445,0.009152280758984917,0.005130719241015083,-0.007724122699128546
1592167815.1895137,-0.24323170884051956,9.445652743958911,3.209281790403047,-0.4633333333333333,-0.4922222222222222,-0.29444444444444445,0.015508728992614356,0.012854023379801117,-0.03489854165348671
1592167815.1995137,-0.3632426106429113,9.312803166267313,3.1084221930562776,-0.4633333333333333,-0.4866666666666667,-0.29444444444444445,0.024137302078761202,0.018308422948551038,-0.003462740535636771
1592167815.2095137,-0.24970310951927846,9.404133663631931,2.988291979170585,-0.4633333333333333,-0.4866666666666667,-0.29444444444444445,0.01499010962525706,0.02166089037474294,0.04936345495047396
1592167815.2195137,-0.0743596721835756,9.482597792589317,2.9615355225110513,-0.4633333333333333,-0.4866666666666667,-0.29444444444444445,-0.011325198450205421,0.046732002554892405,0.03015977111266424
1592167815.2295136,-0.18511062854340682,9.473087217327526,3.0197605394486797,-0.4633333333333333,-0.4866666666666667,-0.29444444444444445,-0.05273846897025461,0.07448091162384149,-0.01194328874666615
1592167815.2395136,-0.3842419695418776,9.428415841149393,3.0879209327927057,-0.4633333333333333,-0.4866666666666667,-0.29444444444444445,-0.08014167745257662,0.0896290706289575,-0.06289689048549492
1592167815.2495136,-0.6681301570549012,9.164529231193312,3.129324198513147,-0.46888716762369015,-0.4655620963633109,-0.2855583095798736,-0.10809934742684289,0.06175912135117166,-0.03273496661384801
1592167815.2595136,-0.4138223581067959,9.341897178822006,3.1325330711840604,-0.4688888888888889,-0.46555555555555556,-0.28555555555555556,-0.12716917821108037,0.05833109027630395,-0.0042422694889082315
1592167815.2695136,-0.4239545070561233,9.404743332215569,3.194207874848586,-0.4688888888888889,-0.46555555555555556,-0.28555555555555556,-0.14605611013859224,0.06243316432125419,-0.023186933518131524
1592167815.2795136,-0.7520696003879523,9.193154440812107,3.387250341672577,-0.4688888888888889,-0.46555555555555556,-0.28555555555555556,-0.12745436717582817,0.028028551836256386,0.016125227072506833
1592167815.2895136,-0.472672401642551,9.461787163983965,3.258210262737903,-0.4688888888888889,-0.46555555555555556,-0.28555555555555556,-0.12142600254741848,-0.013753874699504306,0.04510893910704249
1592167815.2995136,-0.3296349772662676,9.526544663311267,3.1769318781342326,-0.45307147066136677,-0.46555555555555556,-0.27588935552762534,-0.12782578643241124,0.022416055700918276,-0.002276842133329522
1592167815.3095136,-0.42232251970153695,9.440590401311203,3.3644990073756804,-0.4488888888888889,-0.46555555555555556,-0.2733333333333333,-0.1261058010631783,0.033864145156835765,-0.03948544881984497
1592167815.3195136,-0.5404724757500384,9.396335436844007,3.563884411568058,-0.4488888888888889,-0.46555555555555556,-0.2733333333333333,-0.11034300777086899,0.02692750388543449,-0.045624
1592167815.3295135,-0.5844364301910705,9.35159324786914,3.630698054938381,-0.4488888888888889,-0.46555555555555556,-0.2733333333333333,-0.07211258416694359,0.0061223977517685275,-0.02398933431119296
1592167815.3395135,-0.5513290426363769,9.37320341516061,3.6533159492147513,-0.4488888888888889,-0.46555555555555556,-0.2733333333333333,-0.010001777297214496,0.0031466252664910637,0.023527257271218953
1592167815.3495135,-0.41139142216563146,9.48733404517061,3.5661851293395044,-0.4488888888888889,-0.4638159951810417,-0.2637657512735072,0.03797333674695619,0.002624762031213448,0.03817921969623668
1592167815.3595135,-0.43889238567994965,9.454251348904236,3.341078278790751,-0.4488888888888889,-0.4633333333333333,-0.2611111111111111,0.055222,0.015532788463512314,0.01479118211519176
1592167815.3695135,-0.43830886766488464,9.433243819566048,3.182383776801777,-0.4488888888888889,-0.4633333333333333,-0.2611111111111111,0.04788584147166723,0.04411395223130005,-0.007995044891188895
1592167815.3795135,-0.40155874577950723,9.36726420840168,3.134738917817039,-0.4488888888888889,-0.4633333333333333,-0.2611111111111111,0.02691001694557168,0.059478574122816055,-0.02012738606934391
1592167815.3895135,-0.5376064215626806,9.314396847724156,3.116573128385624,-0.4488888888888889,-0.4633333333333333,-0.2611111111111111,-0.002605041199682096,0.041526213025267364,-0.026802888223382688
1592167815.3995135,-0.7286370850424416,9.228877277110927,3.226145685231591,-0.46609537383455074,-0.4633333333333333,-0.2611111111111111,-0.013043595694708636,-9.945609945589615e-05,0.006889551029989548
1592167815.4095135,-0.6463519302336779,9.408894911412844,3.393337227881523,-0.4688888888888889,-0.4633333333333333,-0.2611111111111111,-0.008453447516262673,-0.012711979042124087,0.029538556242090588
1592167815.4195135,-0.5417921723183297,9.57261774679147,3.3851922175628015,-0.4688888888888889,-0.4633333333333333,-0.2611111111111111,0.005987035077447059,0.012785402008089733,-0.0012623232355704877
1592167815.4295135,-0.5349467188052842,9.541037892958126,3.4499671661136744,-0.4688888888888889,-0.4633333333333333,-0.2611111111111111,0.038024092210772645,0.03466781149020159,-0.028078352800806117
1592167815.4395134,-0.5349295148910023,9.38541365385815,3.2868056699513097,-0.4688888888888889,-0.4633333333333333,-0.2611111111111111,0.05629,0.044894229668176355,-0.040406275540115
1592167815.4495134,-0.6558982326685894,9.367256041112322,3.1734728209216807,-0.4493870007785272,-0.4543949679494176,-0.25461048174099055,0.0669529882943931,0.04959100420936484,-0.02641351566495965
1592167815.4595134,-0.6454163565594511,9.282607609373267,3.2397607194567346,-0.44222222222222224,-0.45111111111111113,-0.25222222222222224,0.074402,0.04057666864040014,0.02931823742081493
1592167815.4695134,-0.3670784436035736,9.307429939534861,3.254268084826401,-0.44222222222222224,-0.45111111111111113,-0.25222222222222224,0.07994434064327134,0.04667258733019197,0.062190077508990194
1592167815.4795134,-0.37741834964891513,9.44881604642206,3.10345339740538,-0.44222222222222224,-0.45111111111111113,-0.25222222222222224,0.053467687904076265,0.05153091641749945,0.0291956789518795
1592167815.4895134,-0.4737872324236969,9.40401277024973,3.1180259544972415,-0.44222222222222224,-0.45111111111111113,-0.25222222222222224,0.03715274177602091,0.0785395341113389,0.00680897380584243
1592167815.4995134,-0.359773146641927,9.575262260079388,2.9435478028977817,-0.43781483497285384,-0.445822246411869,-0.22930380852550664,-0.00020304794120292423,0.10008061145131546,-0.04528007023949644
1592167815.5095134,-0.6802797827088977,9.408530347250874,2.928263832138155,-0.43666666666666665,-0.4444444444444444,-0.22333333333333333,-0.02181797300901129,0.13731997096723766,-0.047592234633753734
1592167815.5195134,-0.7404151896591505,9.068076802217588,3.005305470135016,-0.43666666666666665,-0.4444444444444444,-0.22333333333333333,-0.03146490842984188,0.10072957469323071,0.018169304266296177
1592167815.5295134,-0.668465494407489,9.325486081556654,2.735189243114663,-0.43666666666666665,-0.4444444444444444,-0.22333333333333333,-0.06730190870994529,0.0925311395572656,0.04677246481942164
1592167815.5395133,-0.7287611299261026,9.29939357135466,2.8280807698288233,-0.43666666666666665,-0.4444444444444444,-0.22333333333333333,-0.12007752222015622,0.094345,0.058955104098796625
1592167815.5495133,-0.7193264596878729,9.256869917552676,2.937684450218414,-0.43666666666666665,-0.4336611651376795,-0.20805702098208295,-0.1812566451992784,0.09577900011139102,0.05802176656281157
1592167815.5595133,-0.5674001995479654,9.384700878186404,3.304471339808555,-0.43666666666666665,-0.4311111111111111,-0.20444444444444446,-0.1966122644538995,0.11009212086101858,0.07512220261245439
1592167815.5695133,-0.5530311174060024,9.512204785050356,3.459997985501374,-0.43666666666666665,-0.4311111111111111,-0.20444444444444446,-0.20645528015359527,0.1055112581789334,0.010961514962458913
1592167815.5795133,-0.8630677074861461,9.24353252543718,3.5924235612552273,-0.43666666666666665,-0.4311111111111111,-0.20444444444444446,-0.18492135989162573,0.11872370922897126,0.006760642644748657
1592167815.5895133,-0.7786852725845895,9.319939283095177,3.8515037646444807,-0.43666666666666665,-0.4311111111111111,-0.20444444444444446,-0.14718382416500606,0.08875345514474066,0.037732109041739674
1592167815.5995133,-0.7291171134842104,9.42921098049546,3.9233827266833736,-0.43666666666666665,-0.426249618471673,-0.21983917113599852,-0.08673910307135851,0.09677853647173762,0.0298668013269235
1592167815.6095133,-0.7142270108371995,9.20907928965526,4.111884652692697,-0.43666666666666665,-0.42444444444444446,-0.22555555555555556,-0.013798577375113821,0.09370350719197,0.07318600982954984
1592167815.6195133,-0.4732129872579751,9.370695152661375,3.884787443737962,-0.43666666666666665,-0.42444444444444446,-0.22555555555555556,0.04079081255908838,0.10782553074390701,0.07027928181518138
1592167815.6295133,-0.4921938258118755,9.459018367794453,3.4956517130579017,-0.43666666666666665,-0.42444444444444446,-0.22555555555555556,0.04981836854878558,0.1372891104098057,0.04764461210908918
1592167815.6395133,-0.7028633175734194,9.437716503983806,3.4496600065035867,-0.43666666666666665,-0.42444444444444446,-0.22555555555555556,0.037238702896041705,0.1708473028358734,-0.015255920157492294
1592167815.6495132,-1.2332737922022452,9.11960361518564,3.3977697027777167,-0.4316673068715322,-0.41527895148669797,-0.19305971688718168,0.029663,0.14844587399578316,-0.01973681009048411
1592167815.6595132,-1.168746442925918,9.086557286678909,3.2288526304791856,-0.43,-0.4122222222222222,-0.18222222222222223,0.018387935447728456,0.09116531770399773,0.04102539706909486
1592167815.6695132,-0.9478942941864643,9.302494574866007,3.1692632589724803,-0.43,-0.4122222222222222,-0.18222222222222223,0.004699332336360557,0.06705644277263423,0.06272959746314455
1592167815.6795132,-0.8002362130414575,9.364239327916,3.244817925983859,-0.43,-0.4122222222222222,-0.18222222222222223,-0.0060438680518575625,0.047955339492811215,0.06703334511110874
1592167815.6895132,-0.6613565540373132,9.36629913423012,3.3508785401139054,-0.43,-0.4122222222222222,-0.18222222222222223,-0.0045825322773880095,0.021818642044204938,0.050920364957443134
1592167815.6995132,-0.5409443558773549,9.4214844753209,3.2231586045491527,-0.41982178424318267,-0.4161369205902289,-0.19396631732624225,-0.01735597276594749,0.0190362987914814,0.029028880045413985
1592167815.7095132,-0.3472582671523196,9.37838645986646,3.1657310875669338,-0.41555555555555557,-0.4177777777777778,-0.1988888888888889,-0.03824007766706817,0.03334207766706817,0.009178791562212355
1592167815.7195132,-0.3566716844852192,9.34342611188156,3.1072548420025528,-0.41555555555555557,-0.4177777777777778,-0.1988888888888889,-0.07161105387766142,0.03231465265507329,-0.007671042565076565
1592167815.7295132,-0.5684319005050741,9.286416965462555,3.265567634005872,-0.41555555555555557,-0.4177777777777778,-0.1988888888888889,-0.0943917601600128,0.037888,-0.008650098746914577
1592167815.7395132,-0.700232585806817,9.294753323236666,3.51529702404884,-0.41555555555555557,-0.4177777777777778,-0.1988888888888889,-0.08522012264956369,0.019144992331233776,0.013441095838126063
1592167815.7495131,-0.6506460724899071,9.316873971401579,3.5936700328485363,-0.41555555555555557,-0.41264328438233305,-0.18495240681553898,-0.06598626716848399,-0.004621004242918551,0.014840730710056739
1592167815.7595131,-0.5742991542277629,9.372785126198593,3.5353072255315356,-0.41555555555555557,-0.41,-0.17777777777777778,-0.0414863476573818,-0.018521390087627994,0.022890746381551856
1592167815.7695131,-0.49377246186441104,9.392358689897854,3.5861388839694364,-0.41555555555555557,-0.41,-0.17777777777777778,-0.01821248143223963,-0.02052823233986118,0.024689
1592167815.7795131,-0.3519559132186711,9.397906935196447,3.543471524857462,-0.41555555555555557,-0.41,-0.17777777777777778,0.0009633785620811351,0.00134563063024515,0.02342697589591268
1592167815.789513,-0.25342984306105815,9.411655639100083,3.4542853745423843,-0.41555555555555557,-0.41,-0.17777777777777778,0.011893651226528771,0.03409969821077339,0.019462389096145668
1592167815.799513,-0.2763064965571257,9.403252350558734,3.4006528955927227,-0.40617900793392964,-0.41,-0.1821054151416051,0.014162786962239438,0.06842897717657592,0.001521045179415965
1592167815.809513,-0.40370094931827355,9.286695513672536,3.344052735744284,-0.4011111111111111,-0.41,-0.18444444444444444,0.008307548650776648,0.07238410142104498,-0.0007832652552362991
1592167815.819513,-0.43458301421662476,9.209927214221805,3.252288711495884,-0.4011111111111111,-0.41,-0.18444444444444444,0.001985353984644608,0.056058261741636584,0.025152890308355665
1592167815.829513,-0.40044263217636233,9.310405214945291,3.2813190790171136,-0.4011111111111111,-0.41,-0.18444444444444444,-0.00487111128252569,0.024549816651185996,0.04123094579813815
1592167815.839513,-0.39385557701290025,9.37402573909454,3.2448120237488203,-0.4011111111111111,-0.41,-0.18444444444444444,-0.014834061053600425,-0.013306306694283683,0.03452793894639958
1592167815.849513,-0.2547833230420597,9.376167930714567,3.1728890692854326,-0.40524518302394746,-0.3958260391559897,-0.1690893201967666,-0.027741281718864218,-0.031104901352592865,0.026124048707237148
1592167815.859513,-0.050594186265565944,9.36456469624813,3.256016241652211,-0.4088888888888889,-0.38333333333333336,-0.15555555555555556,-0.0426241975839661,-0.017250949273409564,0.017064072472512636
1592167815.869513,0.10111352098957643,9.387003775903626,3.3464045190682294,-0.4088888888888889,-0.38333333333333336,-0.15555555555555556,-0.04831517258105259,0.009086100224455544,0.024853632773098544
1592167815.879513,0.24027048968206588,9.391714477050671,3.442223521350362,-0.4088888888888889,-0.38333333333333336,-0.15555555555555556,-0.0406477105083336,0.027592553790116374,0.03177944620988363
1592167815.889513,0.1570562390357116,9.31457443296932,3.3993205435850693,-0.4088888888888889,-0.38333333333333336,-0.15555555555555556,-0.041538048125911976,0.050080825854555706,0.02279186153300311
1592167815.899513,0.1778292514850457,9.326942482492548,3.5285977347610142,-0.4124430530709601,-0.39754999006161795,-0.16325624461670973,-0.03771097083911856,0.05845956609203671,0.029641645110377
1592167815.909513,0.04659869622554997,9.225988293479357,3.794645339332051,-0.41555555555555557,-0.41,-0.17,-0.02573040058044791,0.06504832643641925,0.03267307414402867
1592167815.919513,-0.008776983112239078,9.253595791597276,3.800051190522788,-0.41555555555555557,-0.41,-0.17,-0.011284832284722289,0.06986367261428451,0.03238568568804442
1592167815.929513,-0.18286117412562689,9.250153087183094,3.888910753769573,-0.41555555555555557,-0.41,-0.17,0.007701778019501062,0.08965078087443894,0.035324477245927174
1592167815.939513,-0.33624672837539094,9.238840809941088,3.8563082549270953,-0.41555555555555557,-0.41,-0.17,0.023847946597623862,0.10095178391895943,0.04580654446188037
1592167815.949513,-0.4935532685717454,9.339078907118932,3.769892270268716,-0.41555555555555557,-0.3951464847938918,-0.18175903287150233,0.03892118471240741,0.11626841136915748,0.02914608576973251
1592167815.959513,-0.8975693469738522,9.374239432418198,3.711499101972136,-0.41555555555555557,-0.38333333333333336,-0.19111111111111112,0.058106513527387146,0.0941787487542229,0.000622215362468801
1592167815.969513,-1.2173300648972967,9.37267402655255,3.6353155949547418,-0.41555555555555557,-0.38333333333333336,-0.19111111111111112,0.0871484171402253,0.057600966270373734,-0.02390694209278527
1592167815.979513,-1.4349483356340371,9.309066150814246,3.526967782811553,-0.41555555555555557,-0.38333333333333336,-0.19111111111111112,0.11134760347603773,0.019530637282420056,-0.02951630613253447
1592167815.989513,-1.4726019161410115,9.278096530060381,3.4930358844565847,-0.41555555555555557,-0.38333333333333336,-0.19111111111111112,0.13325971477629117,-0.025755277671989416,-0.02188392864262862
1592167815.999513,-1.388003362518108,9.27247643423796,3.4062132787037873,-0.418884318595794,-0.39054565325385,-0.17335770822983937,0.1500666733071045,-0.06977070722942036,-0.006194696700517009
1592167816.009513,-1.2528379267860397,9.381639582856463,3.3147163815037266,-0.4222222222222222,-0.3977777777777778,-0.15555555555555556,0.16061809623132497,-0.09617653872601341,-0.001938
1592167816.019513,-1.2889501741956706,9.267411992860843,3.0692910389330046,-0.4222222222222222,-0.3977777777777778,-0.15555555555555556,0.15562308136542613,-0.1283826607535872,0.005198156963536297
1592167816.029513,-1.0677979372125819,9.16309502344992,2.7043166262177682,-0.4222222222222222,-0.3977777777777778,-0.15555555555555556,0.12383827539312958,-0.14723733374359999,0.061324115470140834
1592167816.0395129,-0.3990117418226613,9.351954085244497,2.3149380774300745,-0.4222222222222222,-0.3977777777777778,-0.15555555555555556,0.044170793803176865,-0.1540856668638332,0.10020117459005579
1592167816.0495129,0.10092730834432208,9.46124510561901,2.4759053679175635,-0.4163465500022982,-0.39232179643070547,-0.15639493730125897,-0.052300316857561154,-0.0557927686913954,0.10418981649889685
1592167816.0595129,0.28551827738589813,9.459811642276227,2.9472890415836885,-0.4066666666666667,-0.38333333333333336,-0.15777777777777777,-0.10741457639615119,-0.05832189955927511,0.07695021731107002
1592167816.0695128,0.3273957246169177,9.436288655166107,3.235938858572089,-0.4066666666666667,-0.38333333333333336,-0.15777777777777777,-0.130885619519699,-0.008380465044365817,0.0457503406451265
1592167816.0795128,0.23060972255204662,9.398990337860017,3.4046499162406176,-0.4066666666666667,-0.38333333333333336,-0.15777777777777777,-0.135452,0.00946428502943148,0.01588518583735854
1592167816.0895128,0.025459944053028365,9.351863766130696,3.498192458393489,-0.4066666666666667,-0.38333333333333336,-0.15777777777777777,-0.1319532547079079,0.022772555376305445,-0.001243838778064276
1592167816.0995128,-0.13038008585567235,9.320288120594237,3.5039849497241145,-0.40909154381159535,-0.38333333333333336,-0.15777777777777777,-0.12459493727332714,0.022481927577005893,-0.00436097909110905
1592167816.1095128,-0.19039669475186838,9.33596247897778,3.5236068389591026,-0.41333333333333333,-0.38333333333333336,-0.15777777777777777,-0.1146749319004031,0.0190262832431231,0.0031673513427200135
1592167816.1195128,-0.12212572299893135,9.330729674796894,3.5147962091802185,-0.41333333333333333,-0.38333333333333336,-0.15777777777777777,-0.1073770993116535,0.014773099111682432,0.009791901088288636
1592167816.1295128,-0.07317452690772767,9.337859237264917,3.6188848223660015,-0.41333333333333333,-0.38333333333333336,-0.15777777777777777,-0.09441426558430673,0.01088420605226651,0.010142793947733491
1592167816.1395128,-0.02646809450521106,9.31127803068604,3.6878539891877176,-0.41333333333333333,-0.38333333333333336,-0.15777777777777777,-0.0786267490455642,0.006221222588952125,0.006722141913917979
1592167816.1495128,0.010593767465411881,9.34873761061596,3.7405193302373223,-0.41626782905436027,-0.3815400303927058,-0.1587559430181201,-0.05624769229814562,-0.000458,-0.0014857841112339604
1592167816.1595128,-0.03909277112358507,9.318289827724564,3.723710558032712,-0.43333333333333335,-0.3711111111111111,-0.16444444444444445,-0.03302660048035269,-0.0006194284472105973,-0.012750428447210598
1592167816.1695127,-0.14930564680296338,9.310776212991097,3.6353326943136937,-0.43333333333333335,-0.3711111111111111,-0.16444444444444445,-0.01471535491675245,-0.0020139689391666608,-0.011443937878333322
1592167816.1795127,-0.23186917124170472,9.29591309229682,3.5649787851183063,-0.43333333333333335,-0.3711111111111111,-0.16444444444444445,-0.0006273477150089079,-0.004752151216566686,-0.0024050574124386583
