time,acc_x,acc_y,acc_z,mag_x,mag_y,mag_z,gyr_x,gyr_y,gyr_z
1589985320.5316875,-3.84,-0.65,8.89,0.3111111111111111,-0.3644444444444445,-0.5966666666666667,0.001090830782496456,0.001090830782496456,0.0
1589985320.5416875,-3.84,-0.6416441549127421,8.940135070523548,0.3111111111111111,-0.3644444444444445,-0.5966666666666667,0.0001793494790011804,-0.0007321318244940952,0.0009114813034952756
1589985320.5516875,-3.84,-0.6301413396541129,8.989434641383548,0.3111111111111111,-0.3644444444444445,-0.5966666666666667,0.002150826035894162,-0.00539248285428478,1.5417764549374973e-05
1589985320.5616875,-3.8235188424232787,-0.63,9.00648115757672,0.2992080528612569,-0.3598663451175775,-0.6039916255896539,-0.0023128769389726502,-0.0063530616132753915,-0.0017978154015862245
1589985320.5716875,-3.838058501783591,-0.6358244946492271,8.96252651605232,0.2966666666666667,-0.3588888888888889,-0.6055555555555555,-0.002817015370579195,-0.005665938514344374,-0.002181661564992912
1589985320.5816875,-3.83,-0.65798575,8.8859715,0.2966666666666667,-0.3588888888888889,-0.6055555555555555,-0.005234433322117931,-0.005666102333521341,-0.002181661564992912
1589985320.5916874,-3.831903203090802,-0.6480967969091982,8.883322421635611,0.2966666666666667,-0.3588888888888889,-0.6055555555555555,-0.004363323129985824,-0.0017664470616351076,-0.0017664470616351076
1589985320.6016874,-3.839885807814552,-0.6401141921854481,8.939200654701862,0.2966666666666667,-0.3588888888888889,-0.6055555555555555,-0.004363323129985824,-2.4912870201468373e-05,-2.4912870201468373e-05
1589985320.6116874,-3.828875384090133,-0.64,8.974083077273246,0.3033333333333333,-0.3588888888888889,-0.5822222222222222,-0.001090830782496456,0.0017362669272962255,-0.00044539463769668647
1589985320.6216874,-3.844829100988983,-0.6425854495055087,8.94190185346144,0.3033333333333333,-0.3588888888888889,-0.5822222222222222,-0.0008088019917765426,0.0021443771846097145,0.001090830782496456
1589985320.6316874,-3.8141735119785016,-0.6598915550134365,8.91176142102956,0.3033333333333333,-0.3588888888888889,-0.5822222222222222,0.001510601777357916,-1.1829512955087353e-05,0.0006592302746799086
1589985320.6416874,-3.7502226076349845,-0.6998608702281347,8.999693914501897,0.3033333333333333,-0.3588888888888889,-0.5822222222222222,0.007614568092167461,0.004348146426194587,-0.0010847601009799613
1589985320.6516874,-3.84699930378278,-0.6482670379825172,8.941800417730333,0.3033333333333333,-0.3588888888888889,-0.5822222222222222,0.011868208535354453,0.013533508088724229,-0.001090830782496456
1589985320.6616874,-3.876640446690577,-0.6355730355396153,8.948932588849038,0.2981423214867949,-0.36321473209433763,-0.6064469441727348,0.00483764957351593,0.0024059540860923018,-0.002789585436848819
1589985320.6716874,-3.8513908696785197,-0.6272182606429604,8.946091303214802,0.2966666666666667,-0.3644444444444445,-0.6133333333333333,0.003272492347489368,0.00499899287455117,-0.0004551610379311099
1589985320.6816874,-3.856841897604509,-0.6121054015969939,8.86315810239549,0.2966666666666667,-0.3644444444444445,-0.6133333333333333,0.002239005755306206,0.0016075023471133776,-0.0029279968167616474
1589985320.6916873,-3.8332009394081727,-0.6278660403945514,8.886799060591828,0.2966666666666667,-0.3644444444444445,-0.6133333333333333,-0.005497479723176455,-0.0026905451409325455,-0.0003491683239340935
1589985320.7016873,-3.8202537088798105,-0.6397462911201892,8.909492582240379,0.2966666666666667,-0.3644444444444445,-0.6133333333333333,-0.002292362947349035,-0.0011461814736745172,-0.0010631554369074253
1589985320.7116873,-3.82,-0.6479069274087789,8.941627709635116,0.2905168342376165,-0.37937975177213784,-0.595762383536047,-0.003044173546239001,-0.0019533427637425447,0.0014967051612418106
1589985320.7216873,-3.83,-0.65,8.972539530617535,0.2888888888888889,-0.38333333333333336,-0.5911111111111111,-0.0019491441462996233,0.0,-0.0038982882925992467
1589985320.7316873,-3.83,-0.65,8.91399613168232,0.2888888888888889,-0.38333333333333336,-0.5911111111111111,-0.00012454581285666717,0.0,-0.00024909162571333434
1589985320.7416873,-3.8145463401057613,-0.63,8.939092680211521,0.2888888888888889,-0.38333333333333336,-0.5911111111111111,0.0003306191823375009,0.001090830782496456,0.0007602116001589551
1589985320.7516873,-3.8364342123573616,-0.63,8.982868424714724,0.2888888888888889,-0.38333333333333336,-0.5911111111111111,0.0019223501700305447,0.001090830782496456,-0.0008315193875340888
1589985320.7616873,-3.8254658138509043,-0.6345341861490957,8.974130348478164,0.3111111111111111,-0.3644444444444445,-0.5911111111111111,0.003272492347489368,0.001090830782496456,-0.0025305878737389665
1589985320.7716873,-3.811756732610083,-0.65,8.911216336949584,0.3111111111111111,-0.3644444444444445,-0.5911111111111111,0.0028892327459506006,0.0014740903840352237,0.0003832596015387676
1589985320.7816873,-3.82,-0.65,8.879263258939284,0.3111111111111111,-0.3644444444444445,-0.5911111111111111,8.036598277571692e-05,0.003019876147559183,0.0014238129652023577
1589985320.7916873,-3.8226410976404988,-0.6473589023595012,8.916602744101247,0.3111111111111111,-0.3644444444444445,-0.5911111111111111,-0.003128442817197627,0.0023257110952846537,-0.001090830782496456
1589985320.8016872,-3.8338046125387595,-0.6361953874612406,8.9445115313469,0.3111111111111111,-0.3644444444444445,-0.5911111111111111,-0.002519567532603601,0.002934586379878679,-0.001090830782496456
1589985320.8116872,-3.8328383977900553,-0.63,8.988646408839779,0.3142940454266421,-0.36046577655003076,-0.6014556476365869,-0.0006192423364724357,0.003272492347489368,-0.00030962116823621787
1589985320.8216872,-3.83,-0.6391442109164064,8.963423156334375,0.31555555555555553,-0.3588888888888889,-0.6055555555555555,0.00199495734985124,0.003272492347489368,-0.00099747867492562
1589985320.8316872,-3.829790506643145,-0.6497905066431446,8.880418986713712,0.31555555555555553,-0.3588888888888889,-0.6055555555555555,0.0043861753102244615,2.2852180238637923e-05,-0.0031810836265348166
1589985320.8416872,-3.8220828050057887,-0.6420828050057886,8.895834389988423,0.31555555555555553,-0.3588888888888889,-0.6055555555555555,0.005226955131057085,0.0008636320010712611,0.0001820356567956761
1589985320.8516872,-3.828811641765265,-0.6488116417652647,8.970493134122117,0.31555555555555553,-0.3588888888888889,-0.6055555555555555,0.00545415391248228,0.003013232798872886,-0.0008315712338799737
1589985320.8616872,-3.837698963698923,-0.6346020726021541,8.972301036301078,0.3121337939115898,-0.357178008066906,-0.5841695452807695,0.006293980572093075,0.0049521456667109606,0.0005888225367251365
1589985320.8716872,-3.8406974958511877,-0.6393025041488123,8.973722537339311,0.3111111111111111,-0.3566666666666667,-0.5777777777777777,0.0009386607934686393,0.003272492347489368,-0.000862575798954731
1589985320.8816872,-3.8488578422436914,-0.6311421577563084,8.894568631025233,0.3111111111111111,-0.3566666666666667,-0.5777777777777777,-0.0009662406985916239,0.0033970824313942,0.0019324813971832479
1589985320.8916872,-3.837433390527372,-0.64,8.935133218945255,0.3111111111111111,-0.3566666666666667,-0.5777777777777777,-0.00013998683096946976,0.004503309960955293,-0.00013998683096946976
1589985320.9016871,-3.8238547703065815,-0.64,8.962290459386837,0.3111111111111111,-0.3566666666666667,-0.5777777777777777,-0.0008805856770028288,0.005243908806988652,-0.0008805856770028288
1589985320.9116871,-3.831167437646049,-0.6323348752920979,8.965330249415805,0.2888888888888889,-0.3644444444444445,-0.5911111111111111,-0.0016722707966107622,0.0,-0.003853932361603674
1589985320.9216871,-3.84,-0.6475339639730301,8.91766981986515,0.2888888888888889,-0.3644444444444445,-0.5911111111111111,0.00204716016454471,0.0002690028008964039,0.00013450140044820195
1589985320.931687,-3.8415596632745017,-0.6284403367254984,8.84091764292151,0.2888888888888889,-0.3644444444444445,-0.5911111111111111,0.0012609636535120142,0.002181661564992912,0.0007505650404653395
1589985320.941687,-3.849285498154237,-0.6214290036915256,8.90285800738305,0.2888888888888889,-0.3644444444444445,-0.5911111111111111,0.002181661564992912,0.0023375416864946344,-0.001090830782496456
1589985320.951687,-3.840824642446493,-0.6383507151070139,8.936701430214027,0.2888888888888889,-0.3644444444444445,-0.5911111111111111,0.002181661564992912,0.004183414056948262,-0.001090830782496456
1589985320.961687,-3.8317754796097945,-0.64,8.956449040780413,0.2888888888888889,-0.3598752664498857,-0.5975079603034934,0.0012845055637022925,-0.00012245687646727284,-0.0019879867837870754
1589985320.971687,-3.83,-0.66,8.944632303932458,0.2888888888888889,-0.3588888888888889,-0.5988888888888889,0.00014638120253896008,0.002181661564992912,0.001090830782496456
1589985320.981687,-3.83,-0.6574089675184873,8.876477581203781,0.2888888888888889,-0.3588888888888889,-0.5988888888888889,0.002040342665528801,0.0019696832157967458,0.0011614902322285114
1589985320.991687,-3.83,-0.6312346719086399,8.9419133202284,0.2888888888888889,-0.3588888888888889,-0.5988888888888889,0.0006127562974596304,-0.0001716963363070107,0.0018752834162630966
1589985321.001687,-3.8220192019201917,-0.612019201920192,8.977980798079809,0.2888888888888889,-0.3588888888888889,-0.5988888888888889,-0.0017411400428686307,0.00152087928180649,0.00044052152212428124
1589985321.011687,-3.82,-0.6235077351601611,8.98675386758008,0.2888888888888889,-0.3708957645868099,-0.5973880294266488,-0.0029183942307185835,-0.001502001763635445,-0.0007367326657256713
1589985321.021687,-3.8387473903966596,-0.6487473903966597,8.905636743215032,0.2888888888888889,-0.37666666666666665,-0.5966666666666667,-0.00020495776706614018,-0.00020495776706614018,0.0009541922711190293
1589985321.031687,-3.8242451612903223,-0.65,8.860612903225807,0.2888888888888889,-0.37666666666666665,-0.5966666666666667,0.0025778794556674312,0.0,0.00023153763060731222
1589985321.041687,-3.823348871314094,-0.6488837095619686,8.893348871314094,0.2888888888888889,-0.37666666666666665,-0.5966666666666667,0.00545415391248228,0.0033942607446904773,0.0
1589985321.051687,-3.8453166081810086,-0.6415611306063305,8.915316608181008,0.2888888888888889,-0.37666666666666665,-0.5966666666666667,0.00545415391248228,0.004193030197897566,0.0
1589985321.061687,-3.83,-0.63,8.94,0.31555555555555553,-0.3511111111111111,-0.6055555555555555,-0.0018924047447977028,0.0006087360821711073,-9.641894006506973e-05
1589985321.071687,-3.83,-0.63,8.94,0.31555555555555553,-0.3511111111111111,-0.6055555555555555,0.00032759503735191493,-0.0030912635547449222,-0.0008364188674482756
1589985321.081687,-3.849132459768517,-0.63,8.853903931041673,0.31555555555555553,-0.3511111111111111,-0.6055555555555555,4.7316979477792865e-05,0.0008542458851074916,-4.7316979477792865e-05
1589985321.091687,-3.85,-0.6385977774021804,8.910184441815263,0.31555555555555553,-0.3511111111111111,-0.6055555555555555,0.000937872025135073,-0.0017227852929087631,-0.000937872025135073
1589985321.101687,-3.841883491574519,-0.64,8.952466033701924,0.31555555555555553,-0.3511111111111111,-0.6055555555555555,0.001090830782496456,0.0013598333297697145,-0.00020545705880579935
1589985321.111687,-3.84,-0.6534454116287871,8.980168117443181,0.312567686304714,-0.3600747188636359,-0.5995798170538724,0.001090830782496456,0.0029149950093937524,0.0007333334444008403
1589985321.121687,-3.84,-0.642035379519346,8.99,0.3111111111111111,-0.3644444444444445,-0.5966666666666667,0.00011101273168827135,0.0042523103982975525,-0.0008688053191199133
1589985321.131687,-3.84,-0.6300255395224109,8.860332013791341,0.3111111111111111,-0.3644444444444445,-0.5966666666666667,0.0021760897055496916,0.006539412835535515,0.0010852589230532356
1589985321.141687,-3.8597149453448925,-0.63,8.899429890689785,0.3111111111111111,-0.3644444444444445,-0.5966666666666667,3.10946392485089e-05,0.004394417769234333,-0.001059736143247947
1589985321.151687,-3.84395481980321,-0.63,8.93209036039358,0.3111111111111111,-0.3644444444444445,-0.5966666666666667,0.0008751288234680554,0.001737936659581657,-0.001090830782496456
1589985321.161687,-3.8496340906835997,-0.6303659093164005,8.939268181367199,0.3111111111111111,-0.3588888888888889,-0.6055555555555555,0.0010309590106066812,-0.002121789793103137,-0.003272492347489368
1589985321.171687,-3.8329883917055265,-0.6470116082944737,8.905976783411052,0.3111111111111111,-0.3588888888888889,-0.6055555555555555,-0.001692687115611129,0.000601856333114673,-0.003272492347489368
1589985321.1816869,-3.83,-0.6400892268381141,8.850713814704912,0.3111111111111111,-0.3588888888888889,-0.6055555555555555,0.002181661564992912,0.0,0.001090830782496456
1589985321.1916869,-3.83,-0.6487322782723376,8.9198582261787,0.3111111111111111,-0.3588888888888889,-0.6055555555555555,0.002181661564992912,0.0,0.001090830782496456
1589985321.2016869,-3.8229946565931376,-0.6429946565931377,9.000053434068622,0.3111111111111111,-0.3588888888888889,-0.6055555555555555,0.002181661564992912,0.002292493269049186,-0.00043749806353633475
1589985321.2116868,-3.84,-0.6302177368612776,9.009564526277444,0.3033333333333333,-0.3644444444444445,-0.6055555555555555,0.004315820315832668,0.007564561256245459,0.001090830782496456
1589985321.2216868,-3.84,-0.6371626320495414,8.995674735900918,0.3033333333333333,-0.3644444444444445,-0.6055555555555555,0.002800679225318748,0.0052918496204745775,0.001090830782496456
1589985321.2316868,-3.84,-0.6490831533081909,8.899168466918091,0.3033333333333333,-0.3644444444444445,-0.6055555555555555,0.0011908432419220033,0.004363323129985824,-0.0008908058636453613
1589985321.2416868,-3.84,-0.6434246415471824,8.876849283094364,0.3033333333333333,-0.3644444444444445,-0.6055555555555555,0.0018080911231246276,0.0014942817674731376,0.0010609502393880588
1589985321.2516868,-3.84,-0.6340011772290272,8.893995291083892,0.3033333333333333,-0.3644444444444445,-0.6055555555555555,0.0008729214575293274,-0.001963110161195377,0.0008729214575293274
1589985321.2616868,-3.834184096020852,-0.6358159039791479,8.921631807958295,0.29945606401390146,-0.3644444444444445,-0.5971548053634531,0.0,-0.0026380756386395593,-0.0006344167088498086
1589985321.2716868,-3.839037152464529,-0.6309628475354712,8.92096284753547,0.2966666666666667,-0.3644444444444445,-0.5911111111111111,-0.0019716008188843514,-0.0011958611555507362,-0.00010503037305428027
1589985321.2816868,-3.847282910589144,-0.6372829105891442,8.890868357643424,0.2966666666666667,-0.3644444444444445,-0.5911111111111111,0.0002016653520494397,0.0020869384402266798,0.0015888846113615678
1589985321.2916868,-3.8407531309556218,-0.64,8.953974952355024,0.2966666666666667,-0.3644444444444445,-0.5911111111111111,0.004116861601092754,0.005289846226553567,0.0011729846254608127
1589985321.3016868,-3.84,-0.64,8.998264470769527,0.2966666666666667,-0.3644444444444445,-0.5911111111111111,0.002693720626332383,-0.0003894548503047641,0.001090830782496456
1589985321.3116868,-3.849185418402939,-0.64,9.083483347223508,0.2966666666666667,-0.35219721990719305,-0.6043789376931334,0.002181661564992912,0.0028282070070244883,-0.001915090360713984
1589985321.3216867,-3.84177413616291,-0.6317741361629099,9.05709654465164,0.2966666666666667,-0.3511111111111111,-0.6055555555555555,0.003976266662217361,0.0014778872502649184,-0.0012843590163806873
1589985321.3316867,-3.821423258395781,-0.6392883708021093,8.91996280877047,0.2966666666666667,-0.3511111111111111,-0.6055555555555555,0.005376527209004042,0.002104034861514674,-7.762670347823781e-05
1589985321.3416867,-3.8465333303386937,-0.6488444434462313,8.874622226215074,0.2966666666666667,-0.3511111111111111,-0.6055555555555555,0.00545415391248228,0.004111219798032528,0.0
1589985321.3516867,-3.814156162942471,-0.6571687674115058,8.891506302234518,0.2966666666666667,-0.3511111111111111,-0.6055555555555555,0.006236145128985067,0.0027993406969802487,-0.0007819912165027876
1589985321.3616867,-3.8547342496755084,-0.6326328751622459,8.9,0.31389781934228966,-0.3632742777056686,-0.58427001401508,0.007540081435026922,0.009147338745330219,0.0018944594376481036
1589985321.3716867,-3.86,-0.6232880244531344,8.9,0.31555555555555553,-0.3644444444444445,-0.5822222222222222,0.004707163662321373,0.008353151134891195,0.0014494986112044573
1589985321.3816867,-2.4604298739088266,-0.40874413191076625,8.169406789524734,0.31555555555555553,-0.3644444444444445,-0.5822222222222222,-0.0015284327336511942,0.0037950754125627433,0.002051015798724568
1589985321.3916867,-2.0971729568555095,-0.4248070111856086,8.076401001597944,0.31555555555555553,-0.3644444444444445,-0.5822222222222222,-0.0322060227669325,0.08357020253872315,0.014051757854131815
1589985321.4016867,-2.55294872970742,-0.6527478675593874,9.290343330581798,0.31555555555555553,-0.3644444444444445,-0.5822222222222222,-0.1569884216308447,0.39947591254002085,0.06763927896243448
1589985321.4116867,-2.893806356245381,-0.9472283813747229,9.740317812269032,0.3128028249979469,-0.36719717500205307,-0.5877276833374394,-0.19363254178283357,0.509283334819284,0.14707994739101696
1589985321.4216866,-1.796013480982186,-0.3590611458834859,8.12973679987161,0.3111111111111111,-0.3688888888888889,-0.5911111111111111,0.13532043838996158,-0.17982785738238866,0.23747312607596113
1589985321.4316866,-2.021423981231193,-0.5179089100831336,8.898191122218256,0.3111111111111111,-0.3688888888888889,-0.5911111111111111,0.009424250543223711,-0.15183818900782672,0.2680721886925148
1589985321.4416866,-2.2653159941662615,-0.7086071949440933,9.376961594555178,0.3111111111111111,-0.3688888888888889,-0.5911111111111111,-0.08407669733150247,0.1056716468331168,0.3213530742943005
1589985321.4516866,-2.225951245545475,-0.5890927402000448,8.958063594263777,0.3111111111111111,-0.3688888888888889,-0.5911111111111111,0.01775389210910129,0.017482081123065624,0.36087075513672856
1589985321.4616866,-2.305959339263024,-0.6259593392630242,9.28979669631512,0.3111111111111111,-0.3688888888888889,-0.5960666384300438,-0.039195060822661706,-0.029596581573884145,0.3921404987186148
1589985321.4716866,-2.32,-0.5725779812588251,8.913329125839716,0.3111111111111111,-0.3688888888888889,-0.5966666666666667,-0.021274327453170955,-0.027099263948176525,0.42320831786559127
1589985321.4816866,-2.379549489733186,-0.534478790114349,8.770450510266814,0.3111111111111111,-0.3688888888888889,-0.5966666666666667,0.009783758259888538,-0.02541481480575666,0.45096795460096406
1589985321.4916866,-2.4522716000396785,-0.5477918857256225,8.83116754290249,0.3111111111111111,-0.3688888888888889,-0.5966666666666667,-0.0168718984326153,-0.02411871116601007,0.47137318243496507
1589985321.5016866,-2.5321990546218487,-0.543436449579832,8.931889705882353,0.3111111111111111,-0.3688888888888889,-0.5966666666666667,-0.005690366901780224,-0.02757813863531547,0.48845597756911424
1589985321.5116866,-2.5567210188050464,-0.5333605094025232,8.98,0.30594706286862916,-0.36593800417889927,-0.5929780607791796,-0.0007153627245364762,-0.024382638620727884,0.5071918471216226
1589985321.5216866,-2.5447418895503437,-0.519483779100688,9.011548662697935,0.3033333333333333,-0.3644444444444445,-0.5911111111111111,-0.006196657680368664,-0.028699466133430405,0.5172790347623352
1589985321.5316865,-2.45148167024646,-0.4891721577050493,8.878584222214132,0.3033333333333333,-0.3644444444444445,-0.5911111111111111,-0.00924948575476026,-0.0400185066292572,0.5270970269103844
1589985321.5416865,-2.405155761880661,-0.4750222516972373,8.820400530550272,0.3033333333333333,-0.3644444444444445,-0.5911111111111111,-0.010918016959488254,-0.04088916335820063,0.5388995339568203
1589985321.5516865,-2.453094084360467,-0.47563530521317765,8.875082441705421,0.3033333333333333,-0.3644444444444445,-0.5911111111111111,-0.014518312418857754,-0.03327933186114541,0.5501765346778955
1589985321.5616865,-2.483485085052182,-0.44977237242172735,8.91091051031309,0.29883830498260605,-0.3726853297541111,-0.5911111111111111,-0.014891467149496566,-0.035716573284659214,0.5629431747189687
1589985321.5716865,-2.482148250725054,-0.41644475217516264,8.918593002900217,0.2966666666666667,-0.37666666666666665,-0.5911111111111111,-0.013324307191898418,-0.03584393624765038,0.5712801339989937
1589985321.5816865,-2.48577928977857,-0.41,8.88110355110715,0.2966666666666667,-0.37666666666666665,-0.5911111111111111,-0.01308996938995747,-0.034276162320743465,0.5752078516872119
1589985321.5916865,-2.4841037864342144,-0.4158962135657859,8.871792427131572,0.2966666666666667,-0.37666666666666665,-0.5911111111111111,-0.01437632364150396,-0.031886222880070404,0.5776926610663985
1589985321.6016865,-2.4981759769742173,-0.4018240230257824,8.910293294957029,0.2966666666666667,-0.37666666666666665,-0.5911111111111111,-0.009323556399323377,-0.03186505625559566,0.5821056977602064
1589985321.6116865,-2.536832846323573,-0.4034164231617866,8.983665692647147,0.30113880772059554,-0.38635630561684586,-0.5911111111111111,-0.0091129157564511,-0.035651932950068736,0.5868805565244817
1589985321.6216865,-2.581125234171988,-0.378874765828012,9.01,0.3033333333333333,-0.3911111111111111,-0.5911111111111111,-0.012266402366853163,-0.0370882466048795,0.5852416026818126
1589985321.6316864,-2.6369239338001274,-0.33784563971992365,8.899228198599618,0.3033333333333333,-0.3911111111111111,-0.5911111111111111,-0.010673303573955059,-0.03306047024487548,0.5827889133636032
1589985321.6416864,-2.577523960974771,-0.3372476039025229,8.88174281170757,0.3033333333333333,-0.3911111111111111,-0.5911111111111111,-0.012979840816953466,-0.0332152745796399,0.5809224559658648
1589985321.6516864,-2.5849829897938763,-0.31084750850510307,8.90166099659796,0.3033333333333333,-0.3911111111111111,-0.5911111111111111,-0.01481680887463592,-0.03699579776830011,0.5777779414793865
1589985321.6616864,-2.6344018419683626,-0.29,8.901866052677212,0.2924880702362832,-0.39879317247152163,-0.5920148830358654,-0.014827992948805314,-0.035277166114566806,0.571965911102823
1589985321.6716864,-2.6515213788531655,-0.2853803447132913,8.90616879350348,0.2766666666666667,-0.41,-0.5933333333333334,-0.014180800172453925,-0.030964209784783595,0.5628656556913388
1589985321.6816864,-2.593511672797465,-0.2629766544050698,8.940685799613943,0.2766666666666667,-0.41,-0.5933333333333334,-0.014563864251006964,-0.0365720119402126,0.5496619914718884
1589985321.6916864,-2.57345332365839,-0.2239088872763984,8.85,0.2766666666666667,-0.41,-0.5933333333333334,-0.011046963130598475,-0.03727659619230427,0.5282394093395525
1589985321.7016864,-2.5609180582237325,-0.2145409708881336,8.91004932023053,0.2766666666666667,-0.41,-0.5933333333333334,-0.011804229375912911,-0.03837936662149031,0.5065299215388855
1589985321.7116864,-2.5434320957424013,-0.1940592574454409,8.95468641914848,0.2766666666666667,-0.4206271617030394,-0.6086836780155014,-0.009475413396828967,-0.03282565612681103,0.4779169353081546
1589985321.7216864,-2.60439352574103,-0.18,9.001934477379095,0.2766666666666667,-0.43,-0.6222222222222222,-0.011444788954733684,-0.02193105928506623,0.43952609875685106
1589985321.7316864,-2.660050707719247,-0.16994929228075295,8.969695753684517,0.2766666666666667,-0.43,-0.6222222222222222,-0.012530725613443029,-0.023472221563046507,0.4106175849753716
1589985321.7416863,-2.715612519864575,-0.1549319422372694,8.925204173288192,0.2766666666666667,-0.43,-0.6222222222222222,-0.005947601651928442,-0.0239537335133774,0.37718988433553574
1589985321.7516863,-2.7699552021301477,-0.15497760106507386,8.959910404260295,0.2766666666666667,-0.43,-0.6222222222222222,-0.006525437936808676,-0.020182812820955694,0.3404271645506595
1589985321.7616863,-2.7876778236952298,-0.1254497933714661,8.97232217630477,0.2711215717756674,-0.4270141796740773,-0.6239284052656067,-0.010070787182030829,-0.018378673120535614,0.30856020073141893
1589985321.7716863,-2.773931417531997,-0.0960685824680029,8.96,0.26222222222222225,-0.4222222222222222,-0.6266666666666667,-0.008157918015728748,-0.013518820516232339,0.26802721232457355
1589985321.7816863,-2.831305337718189,-0.08612277595075471,8.899020996711359,0.26222222222222225,-0.4222222222222222,-0.6266666666666667,-0.006157642724737351,-0.01386465333044024,0.22358048161264865
1589985321.7916863,-2.8767328811012662,-0.07,8.883465762202531,0.26222222222222225,-0.4222222222222222,-0.6266666666666667,-0.003250823724437369,-0.010130527182845593,0.18738453973581845
1589985321.8016863,-2.8745813879244984,-0.06458138792449819,8.917093060377509,0.26222222222222225,-0.4222222222222222,-0.6266666666666667,-0.0015905826799564727,-0.00822689436251163,0.15552707389069048
1589985321.8116863,-2.8661992671645677,-0.06,8.947601465670864,0.2651783477608919,-0.4205330076286967,-0.6401803834148708,-0.001090830782496456,-0.00831205062267818,0.12153708824801768
1589985321.8216863,-2.8522049898853674,-0.06,8.948307484828051,0.27,-0.4177777777777778,-0.6622222222222223,0.0014600803123772518,-0.00593520808089272,0.07765567702716172
1589985321.8316863,-2.9051185264920463,-0.06,8.912240401865805,0.27,-0.4177777777777778,-0.6622222222222223,0.004808396701497414,-0.003918249558474233,0.0297583751753596
1589985321.8416862,-2.9373575655972974,-0.05367878279864868,8.893678782798649,0.27,-0.4177777777777778,-0.6622222222222223,0.002984247468769801,0.0018425173454862795,-0.012711175221258515
1589985321.8516862,-2.8674202370100272,-0.061378138725449574,8.929823485539075,0.27,-0.4177777777777778,-0.6622222222222223,0.0009404991680693733,-0.00013107687367364378,-0.051943685886455086
1589985321.8616862,-2.8131652815056754,-0.06316528150567538,9.007843029460272,0.2798723711584689,-0.4261313226041745,-0.6576657432260058,0.0,-0.0013811146006629774,-0.09888970324067094
1589985321.8716862,-2.7347513553570733,-0.0788121611607317,8.948480634970162,0.28444444444444444,-0.43,-0.6555555555555556,0.0006840294826470131,0.0020520884479410394,-0.13561257300713342
1589985321.8816862,-2.734135850224354,-0.09441358502243541,8.9,0.28444444444444444,-0.43,-0.6555555555555556,0.0015722782228602405,0.0027910449071255833,-0.16822026737620208
1589985321.8916862,-2.759998851322893,-0.09499980855381553,8.859998468430524,0.28444444444444444,-0.43,-0.6555555555555556,0.005999715488504362,0.00818146058765376,-0.21053105106214615
1589985321.9016862,-2.781963333660419,-0.10889575769469793,8.890859091355118,0.28444444444444444,-0.43,-0.6555555555555556,0.011363382603865912,0.015211403880052463,-0.24762533106102946
1589985321.9116862,-2.84,-0.14717351780408852,8.978586758902045,0.28969190821791596,-0.4266607048714272,-0.6746372420045428,0.01168496425012367,0.020577477156948243,-0.2852044341721338
1589985321.9216862,-2.794301560570338,-0.15694330302009654,8.937773212080387,0.2966666666666667,-0.4222222222222222,-0.7,0.01409027113749026,0.019770747637381708,-0.33111464818662245
1589985321.9316862,-2.835521933839721,-0.15655219338397208,8.896895613232056,0.2966666666666667,-0.4222222222222222,-0.7,0.012074061195783014,0.017077195161057476,-0.36719789946553466
1589985321.9416862,-2.8558524018790727,-0.15056826791938174,8.880568267919381,0.2966666666666667,-0.4222222222222222,-0.7,0.011360740595337768,0.021568661994262397,-0.39555616902175317
1589985321.9516861,-2.843195545603099,-0.14319554560309872,8.908346547237183,0.2966666666666667,-0.4222222222222222,-0.7,0.01169564958566496,0.028619998437426835,-0.42388226509835064
1589985321.9616861,-2.826581344032096,-0.16170932798395185,8.974387562688063,0.2992687395519893,-0.4204875069653405,-0.7056378245848657,0.008726646259971648,0.03168693835618316,-0.45892268544829234
1589985321.9716861,-2.8189970291644,-0.1993313527762668,8.969331352776267,0.3033333333333333,-0.4177777777777778,-0.7144444444444444,0.008199465393080394,0.035214951614494144,-0.4962716821233555
1589985321.981686,-2.818116212673502,-0.23062792910883267,8.88903467346609,0.3033333333333333,-0.4177777777777778,-0.7144444444444444,0.011693460756611871,0.0413830732947513,-0.5316823740661791
1589985321.991686,-2.93457603673073,-0.24,8.818654972481385,0.3033333333333333,-0.4177777777777778,-0.7144444444444444,0.016289101866416307,0.05358786080142588,-0.5607508147912473
1589985322.001686,-3.066582329236753,-0.2495479059323563,8.806582329236752,0.3033333333333333,-0.4177777777777778,-0.7144444444444444,0.017453292519943295,0.0603902195377609,-0.5921514510047476
1589985322.011686,-3.045002362427946,-0.33001102466374777,9.060045673606954,0.3033333333333333,-0.41055441809024823,-0.7250016624492953,0.0021792563564763667,0.057815062275962115,-0.6250486153795941
1589985322.021686,-2.9815795466752606,-0.30477516381995917,9.04191964765281,0.3033333333333333,-0.4033333333333333,-0.7355555555555555,0.0119620393459143,0.04236213044798885,-0.6499628445543113
1589985322.031686,-2.9592750744786493,-0.29171797418073486,8.794389275074478,0.3033333333333333,-0.4033333333333333,-0.7355555555555555,0.027349846669782046,0.05997511132442779,-0.6713689745689757
1589985322.041686,-3.0691226371711404,-0.3704317835273616,8.899554420698502,0.3033333333333333,-0.4033333333333333,-0.7355555555555555,0.021342603115888863,0.05871796603510989,-0.6928188477141558
1589985322.051686,-3.082834729692705,-0.39,8.925401675631246,0.3033333333333333,-0.4033333333333333,-0.7355555555555555,0.01679708262256627,0.05373927584639858,-0.706519915340608
1589985322.061686,-3.0223519402425483,-0.39,8.852822328291058,0.3033333333333333,-0.4033333333333333,-0.7355555555555555,0.01217872842452249,0.07551151706574782,-0.7183956832784348
1589985322.071686,-2.847726456566157,-0.44,8.931400222896414,0.2966666666666667,-0.38333333333333336,-0.7644444444444445,0.01175113349116314,0.06299144220286891,-0.7503801719198347
1589985322.081686,-2.6655906092514443,-0.41836358421764247,8.75345433687057,0.2966666666666667,-0.38333333333333336,-0.7644444444444445,0.009584445875182632,0.0686330866618588,-0.7678903449810555
1589985322.091686,-2.6480730447614365,-0.45204316281357604,8.852142769306443,0.2966666666666667,-0.38333333333333336,-0.7644444444444445,0.008286329973259322,0.06457464706779055,-0.779949442176394
1589985322.101686,-2.754332793709528,-0.5153330249768733,8.952330018501387,0.2966666666666667,-0.38333333333333336,-0.7644444444444445,0.015090120143663104,0.06959520574210507,-0.7913614053115675
1589985322.111686,-2.726097864732941,-0.5101223309161762,8.720244661832352,0.2810159648429741,-0.3882521253350653,-0.7586313266242157,0.0361969000528201,0.09539465616837697,-0.8046608374873137
1589985322.121686,-2.7457337764561833,-0.5613311177190834,8.886655588595417,0.2577777777777778,-0.3955555555555556,-0.75,0.013019180825971782,0.10070636790975415,-0.8324044411505114
1589985322.131686,-2.74,-0.5858609239341713,8.889271413761824,0.2577777777777778,-0.3955555555555556,-0.75,-0.01019312597398091,0.09757518101536986,-0.853632883524313
1589985322.141686,-2.7380070583350635,-0.5899647083246834,8.697971766659746,0.2577777777777778,-0.3955555555555556,-0.75,0.000842636774272227,0.10560473886431332,-0.8617524684476202
1589985322.151686,-2.7620146442178752,-0.6340018305272345,8.782023796854048,0.2577777777777778,-0.3955555555555556,-0.75,0.029668201129357006,0.09075672174461404,-0.8731041531828921
1589985322.161686,-2.7677462050144976,-0.6446948661095002,8.878779464438,0.27029742073644514,-0.3898173858661664,-0.7567814732692781,0.010549745811656156,0.08944812416470939,-0.8902306296356542
1589985322.171686,-2.6362706455405633,-0.669701024578691,8.840896926263927,0.28444444444444444,-0.38333333333333336,-0.7644444444444445,-0.003256185767850683,0.07977740633898946,-0.9042008792117299
1589985322.181686,-2.531550295487946,-0.717674556768081,8.816899409024108,0.28444444444444444,-0.38333333333333336,-0.7644444444444445,-0.003357047849500209,0.06578806895783072,-0.9118499786650264
1589985322.191686,-2.4632172266919072,-0.7441521533364884,8.795673686701372,0.28444444444444444,-0.38333333333333336,-0.7644444444444445,-0.004095364910556204,0.05024220486160954,-0.9181285738710356
1589985322.201686,-2.4738013424301855,-0.7703240062978206,8.827494682761097,0.28444444444444444,-0.38333333333333336,-0.7644444444444445,-0.0014112433046926083,0.04805546043707497,-0.9246923098333523
1589985322.211686,-2.549107118194625,-0.8224587741347402,8.960727978344336,0.28444444444444444,-0.38333333333333336,-0.7644444444444445,0.0055395600902296,0.05753382870287799,-0.9297474395751137
1589985322.221686,-2.553773660038759,-0.8735259762669569,8.841073296344474,0.2111111111111111,-0.4033333333333333,-0.7066666666666667,0.01308996938995747,0.07889742257651906,-0.9406807588569798
1589985322.2316859,-2.6397202462216476,-0.9159440492443295,8.958041723551531,0.2111111111111111,-0.4033333333333333,-0.7066666666666667,0.00910804904703982,0.0730246296206732,-0.9532716935166051
1589985322.2416859,-2.605758581405716,-0.9269656743771361,8.771207092971421,0.2111111111111111,-0.4033333333333333,-0.7066666666666667,0.012063165279275284,0.07209268168920123,-0.9712344166730139
1589985322.2516859,-2.576943193733424,-0.9845852093998643,8.911441230288451,0.2111111111111111,-0.4033333333333333,-0.7066666666666667,0.019387246977621637,0.07418124775088628,-0.9882021956708054
1589985322.2616858,-2.54,-1.052216111620328,8.947478697762842,0.22423211988850036,-0.3915696702915361,-0.6772575090621735,0.01688523249334535,0.07344527330850718,-1.0069546828481832
1589985322.2716858,-2.573691215791129,-1.0603739383453916,8.778504246618434,0.2433333333333333,-0.3744444444444445,-0.6344444444444445,0.033448641145272046,0.0866598616897819,-1.0250546127803415
1589985322.2816858,-2.5096216546072703,-1.0527129282538576,8.790157789207568,0.2433333333333333,-0.3744444444444445,-0.6344444444444445,0.03593893260982657,0.06645813557212281,-1.0438734224516804
1589985322.2916858,-2.2430744560661835,-1.0610787565144504,8.71172601042312,0.2433333333333333,-0.3744444444444445,-0.6344444444444445,0.015301049475269906,0.007900582160350894,-1.0702285554143651
1589985322.3016858,-2.7493204530313125,-1.2547235176548968,8.921832111925383,0.2433333333333333,-0.3744444444444445,-0.6344444444444445,0.019862422462632003,0.07830726080983219,-1.0987681934267866
1589985322.3116858,-2.578596568800849,-1.2446781039971702,8.631695259992924,0.24650404826474862,-0.3728850764453878,-0.6337687183115199,0.01878007767933985,0.13613709005044844,-1.1170233582442262
1589985322.3216858,-2.578667526075237,-1.3782233681003164,8.793553263799367,0.3111111111111111,-0.3411111111111111,-0.62,0.04581489286485115,0.08726646259971647,-1.1617347833587257
1589985322.3316858,-2.656887369843415,-1.4564679543226557,8.835032986249105,0.3111111111111111,-0.3411111111111111,-0.62,0.04354172902771814,0.08726646259971647,-1.187307876526472
1589985322.3416858,-2.5670465492451475,-1.4599782530553558,8.752714234363767,0.3111111111111111,-0.3411111111111111,-0.62,0.04379075871426081,0.09521970512966112,-1.2239216268556807
1589985322.3516858,-2.4234447185994594,-1.4486669016566796,8.54972271178475,0.3111111111111111,-0.3411111111111111,-0.62,0.0479480816062111,0.09851408019011179,-1.2491831151724428
1589985322.3616858,-2.4964507066982704,-1.5211285225177773,8.765161969976297,0.326021908134102,-0.3338886938030999,-0.6186021127790946,0.046923200305920655,0.07892698417870833,-1.2825533181370328
1589985322.3716857,-2.408607081339713,-1.474981052631579,8.846373971291866,0.38222222222222224,-0.30666666666666664,-0.6133333333333333,0.02980007733200012,0.08801378085216131,-1.3263420461546398
1589985322.3816857,-2.5542539155507984,-1.6075130518359946,8.790497389632801,0.38222222222222224,-0.30666666666666664,-0.6133333333333333,0.02105132562084507,0.05955594376163342,-1.3916887462343246
1589985322.3916857,-2.5624072896800167,-1.667592710319983,8.783796355159991,0.38222222222222224,-0.30666666666666664,-0.6133333333333333,0.022463162312069945,0.057824317967294384,-1.4394626352699484
1589985322.4016857,-2.5559032130291945,-1.6770483934854026,8.792951606514597,0.38222222222222224,-0.30666666666666664,-0.6133333333333333,0.03567544549798906,0.08099065912558212,-1.492583716482642
1589985322.4116857,-2.561587732709776,-1.6721030668225558,8.791587732709777,0.3850263113189636,-0.29895542165062805,-0.614735377881704,0.03284190401496462,0.08875989715640206,-1.5588351941092935
1589985322.4216857,-2.531410198758881,-1.6796474503102796,8.761410198758881,0.3950854893025952,-0.2712926821956411,-0.6197649668735198,0.025435222845934313,0.08629100343339197,-1.6254953246305663
1589985322.4316857,-2.552208841239536,-1.646104420619768,8.798313261859303,0.3955555555555556,-0.27,-0.62,0.026680817387856662,0.11102379261286517,-1.7202839598610633
1589985322.4416857,-2.5984083565868703,-1.669204178293435,8.867612534880305,0.3955555555555556,-0.27,-0.62,0.04095964253975545,0.10598420726513619,-1.7782391913599465
1589985322.4516857,-2.495746013474625,-1.7133320919524664,8.747586078477841,0.3955555555555556,-0.27,-0.62,0.042028284143893486,0.10653794183746677,-1.857872616698144
1589985322.4616857,-2.680348038053966,-1.919234350137116,8.768886312083149,0.3955555555555556,-0.27,-0.62,0.049773267640905505,0.08407748969613191,-1.904342517680216
1589985322.4716856,-2.378071104251539,-1.8526903680838462,8.948206421277435,0.44222222222222224,-0.23777777777777775,-0.6411111111111111,0.03973626324068289,0.09984454161978257,-1.9736586484132885
1589985322.4816856,-2.2212497771438757,-1.813437332857907,8.955402032447852,0.44222222222222224,-0.23777777777777775,-0.6411111111111111,0.04435396919964998,0.1331008033301853,-2.0026581589239396
1589985322.4916856,-2.507866008975862,-2.0516354667852665,8.700654186714107,0.44222222222222224,-0.23777777777777775,-0.6411111111111111,0.03723096800592906,0.15446980691134807,-2.0368665137229827
1589985322.5016856,-2.5470773646057547,-2.1523516168138745,8.716483831861254,0.44222222222222224,-0.23777777777777775,-0.6411111111111111,0.04761054407129865,0.12153542750879177,-2.0560865362481953
1589985322.5116856,-2.472063043794256,-2.205804348277509,8.727028261727268,0.45316437208851607,-0.23294287434848515,-0.6378030192910688,0.04545634145059908,0.10616913731640829,-2.0607624179778665
1589985322.5216856,-2.5675517063081696,-2.3333250849460776,8.980876791254246,0.49,-0.21666666666666667,-0.6266666666666667,0.025721585189559564,0.1299775881620293,-2.047050887010115
1589985322.5316856,-2.501195508734259,-2.2672291932273145,8.729564069874074,0.49,-0.21666666666666667,-0.6266666666666667,0.050261073167606626,0.11754890496400255,-1.994595614067483
1589985322.5416856,-2.567009534889603,-2.4127312273957355,8.789740762285339,0.49,-0.21666666666666667,-0.6266666666666667,0.04113667197439049,0.12279153178138727,-1.9446816329473682
1589985322.5516856,-2.623054571226081,-2.4904394046775336,8.794394046775336,0.49,-0.21666666666666667,-0.6266666666666667,0.04534021525999443,0.1239758948293846,-1.8913158082046189
1589985322.5616856,-2.5184179739431003,-2.4619738766285564,8.565007311885138,0.5005273420189665,-0.23530883482525333,-0.6295178217968035,0.04842718750729995,0.11590037183877917,-1.8501629918248428
1589985322.5716856,-2.4068971018346184,-2.4689439311353367,8.82986938314278,0.5377009660551272,-0.3011371273892877,-0.639585678306597,0.04994781750963473,0.10145438681659875,-1.8197503917781472
1589985322.5816855,-2.1281540385989994,-2.280969442458899,8.609322730521802,0.5433333333333333,-0.3111111111111111,-0.6411111111111111,0.07344638121979466,0.08480809726493196,-1.785308999387658
1589985322.5916855,-2.23552985744193,-2.409741800418702,8.69317914465158,0.5433333333333333,-0.3111111111111111,-0.6411111111111111,0.024614105618997142,0.16662513606160248,-1.7692556481258872
1589985322.6016855,-2.2879214108688624,-2.496548974533961,8.997175388815057,0.5433333333333333,-0.3111111111111111,-0.6411111111111111,0.010540557466697555,0.1628586732285317,-1.7673340918847353
1589985322.6116855,-2.235193240185338,-2.4814837829100966,8.63561078984232,0.5433333333333333,-0.3111111111111111,-0.6411111111111111,0.05655456681574996,0.08808590803632156,-1.7681557706231115
1589985322.6216855,-2.2720415506035283,-2.7124570566388115,8.933080315691736,0.7444444444444445,-0.8577777777777778,-0.15777777777777774,0.024889071711863192,0.09483821582371636,-1.7557015132161038
1589985322.6316855,-2.2727230714539637,-2.798101670814077,9.120383931745469,0.7444444444444445,-0.8577777777777778,-0.15777777777777774,0.02967307908874113,0.12383702022676703,-1.7358778411653977
1589985322.6416855,-2.0647736520854525,-2.8227324516785353,8.644098677517801,0.7444444444444445,-0.8577777777777778,-0.15777777777777774,0.05788765977589166,0.11701695796738383,-1.7095051151411091
1589985322.6516855,-2.0995184293387665,-3.019157251342841,8.93699018336729,0.7444444444444445,-0.8577777777777778,-0.15777777777777774,0.02974135278307572,0.13811525969607333,-1.6993567654991122
1589985322.6616855,-2.074980298430334,-2.977820554227763,8.70284025579743,0.7905742523092824,-0.7255706995672114,-0.2555063913470993,0.04831497470670611,0.10596334871699069,-1.6838565229217108
1589985322.6716855,-2.120859438020973,-3.085484337187416,8.740859438020973,0.96,-0.24,-0.6144444444444445,0.032443673040216,0.11074832573923307,-1.670835760836686
1589985322.6816854,-2.0923930197001916,-3.1657685886508617,8.681410470449713,0.96,-0.24,-0.6144444444444445,0.04378708975829306,0.09617721758567965,-1.6466790846208912
1589985322.6916854,-2.108244358833242,-3.277264722069345,8.646857457347277,0.96,-0.24,-0.6144444444444445,0.03905618458232771,0.10080609200953626,-1.6270074313606235
1589985322.7016854,-1.9662080560668271,-3.1323520458728584,8.728431969418095,0.96,-0.24,-0.6144444444444445,0.03809355458604403,0.09892351000184978,-1.6082266646051036
1589985322.7116854,-1.9107821946029921,-3.086058968556858,8.784169678138403,0.9278820628862845,-0.22026741118503756,-0.6220016061182598,0.0382998428068438,0.10696179939438663,-1.5977152998379367
1589985322.7216854,-2.086523926679522,-3.250061174280205,8.826095706718089,0.62,-0.031111111111111114,-0.6944444444444444,0.026958319572336666,0.09781560888304518,-1.5769354383966783
1589985322.7316854,-2.057309334813135,-3.307503558761792,8.62846044345791,0.62,-0.031111111111111114,-0.6944444444444444,0.039856920252117234,0.09895090861986573,-1.55749604474581
1589985322.7416854,-2.025189814545666,-3.3034707284460207,8.571041218533805,0.62,-0.031111111111111114,-0.6944444444444444,0.03159623291813117,0.09501585739998983,-1.5387871876954482
1589985322.7516854,-1.799639041837263,-3.013582286225234,8.5076027107158,0.62,-0.031111111111111114,-0.6944444444444444,0.03433306339171254,0.08518038797608592,-1.5226479729098386
1589985322.7616854,-1.944390324250553,-3.217550002353052,8.922117746717491,0.62,-0.031111111111111114,-0.6944444444444444,0.02572038222831683,0.08661583483665186,-1.503987163722481
1589985322.7716854,-1.9262318369997564,-3.170386394999594,8.477084990664826,0.5807013556295153,0.03507607940759981,-0.7078887175185576,0.05126028046127959,0.0964041516791011,-1.4528864537655128
1589985322.7816854,-2.0358591742712853,-3.382806104367857,8.955822406308142,0.5777777777777777,0.04,-0.7088888888888889,0.023313282452926885,0.08930653941266214,-1.4254097342205323
1589985322.7916853,-1.9418420786913937,-3.39749991585608,8.572894550839756,0.5777777777777777,0.04,-0.7088888888888889,0.04829798220825259,0.08400832570428043,-1.3723512570928615
1589985322.8016853,-1.9841930598094981,-3.5316113560634106,8.869351418666488,0.5777777777777777,0.04,-0.7088888888888889,0.025969067836517937,0.08015851288156756,-1.3492523801565843
1589985322.8116853,-1.89,-3.394105634380382,8.616158451570573,0.5759530513864968,0.04102640859509555,-0.7085467526905237,0.036808337082142206,0.08170034487813928,-1.2995697025727533
1589985322.8216853,-1.89,-3.4629041253178054,8.719356187976707,0.5453759443031977,0.058226031329451325,-0.7028135451124051,0.032117867600651925,0.07982415708554316,-1.2695506978912154
1589985322.8316853,-1.8127153001477159,-3.4048564665681895,8.710574133727242,0.5422222222222223,0.06,-0.7022222222222222,0.03461039174140204,0.07635815477475191,-1.2198306420653628
1589985322.8416853,-1.7903214152236204,-3.419785723184253,8.650857107262988,0.5422222222222223,0.06,-0.7022222222222222,0.0370531856428907,0.07635815477475191,-1.190517115247499
1589985322.8516853,0.5883697159383545,-1.998024048175587,4.830022780396973,0.5422222222222223,0.06,-0.7022222222222222,-0.31844996295392347,0.5996564235846473,-1.697624431378409
1589985322.8616853,6.223720914989841,0.7036396408206069,-4.063303401717245,0.5356620276303046,0.07250537094084317,-0.694021978982325,-1.338411476676555,1.257991930894415,-4.280359075013262
1589985322.8716853,2.7278238877526335,-2.322496756174265,-0.10750324382573509,0.5066666666666667,0.12777777777777774,-0.6577777777777778,-1.8133459374140328,-1.5532269726241053,-9.638329671079347
1589985322.8816853,-0.5313606740526953,-2.2438630015827203,-0.19558514104831953,0.5066666666666667,0.12777777777777774,-0.6577777777777778,-1.7948494251574763,-1.095796088632051,-9.630101186876797
1589985322.8916852,-0.3494626252868011,-3.40523366743147,3.4982948919212657,0.5066666666666667,0.12777777777777774,-0.6577777777777778,-1.9583941510509255,-0.9451705581655496,-9.280704519146592
1589985322.9016852,-1.2079244782287262,-5.165979186017856,9.19950884309897,0.5066666666666667,0.12777777777777774,-0.6577777777777778,-1.593893804787445,-0.1275062347809519,-8.663275490629314
1589985322.9116852,-0.3646820425602522,-1.3513925415854318,-0.5607163894304559,0.5037784322672529,0.1371129639615971,-0.6579840802348788,-0.4260236973941524,1.5032289368854506,-7.806059696044424
1589985322.9216852,-0.07760380802256606,-1.3774905629070393,-0.38672958061973695,0.44964920285947374,0.3120663661545978,-0.6618504537640059,0.19648804970675704,2.3221735066233853,-7.1123766363938685
1589985322.9316852,-1.4666912093340547,-1.6035270871068663,3.080971278022159,0.4444444444444444,0.3288888888888889,-0.6622222222222223,1.061214897390446,3.334969744065267,-6.176226874052162
1589985322.9416852,-8.126850410491524,-2.883602729502079,14.468649109713189,0.4444444444444444,0.3288888888888889,-0.6622222222222223,2.313367024503014,3.5929735232879874,-5.384517061782638
1589985322.9516852,3.5078339908305782,-1.7805064505810853,14.282315278814373,0.4444444444444444,0.3288888888888889,-0.6622222222222223,4.567099252430829,1.2872070736475534,-4.662542235520048
1589985322.9616852,-1.1000341599423897,0.6756264194840925,0.3065945307162509,0.43794482297353576,0.3391799562178276,-0.6597848641706315,1.8637651311383516,0.4929176013526381,-3.543588017705584
1589985322.9716852,-0.46496833281016303,0.3658382111269088,0.13621101611979985,0.3553346340782868,0.4699794219686385,-0.6288060433349131,0.6100577651984123,0.08909541744476007,-3.0933009381597705
1589985322.9816852,1.6102930393917771,-1.6505472037005142,14.033259847944295,0.3377777777777778,0.4977777777777778,-0.6222222222222222,-1.2472478863796972,0.17266442490624992,-2.373289638727798
1589985322.9916852,0.1753127610319563,-1.9996880742703038,11.656691248418893,0.3377777777777778,0.4977777777777778,-0.6222222222222222,-1.508592261794688,0.10147131775040547,-1.914101426442888
1589985323.0016851,-0.1257916803682999,-1.557560835251562,7.771769771456758,0.3377777777777778,0.4977777777777778,-0.6222222222222222,-0.4370308966713584,-0.12409791917288943,-1.5272688694927323
1589985323.0116851,0.30633380540573113,-3.391826016211167,15.448168559978305,0.33292186030005055,0.4979889046246355,-0.6239816126127031,0.6273664737795487,0.19687456089000496,-1.124121516713203
1589985323.0216851,0.3698817655421102,-1.723525189833917,7.890444852813704,0.2611111111111111,0.5011111111111111,-0.65,1.329039843596269,0.3657341048229909,-0.8232303731621249
1589985323.031685,0.2535390589785375,-0.8873119864082382,2.7931800214971743,0.2611111111111111,0.5011111111111111,-0.65,0.7912578472031355,-0.07131291584458516,-0.7502570049199886
1589985323.041685,0.6033561369105981,-2.5991336126214457,10.660688564043141,0.2611111111111111,0.5011111111111111,-0.65,-0.5953468844415154,-0.004974150448226161,-0.5672190752202828
1589985323.051685,0.32913752913752914,-2.1912820512820512,9.936620046620048,0.2611111111111111,0.5011111111111111,-0.65,-0.895986537272357,0.12125257970658741,-0.4765125181850835
1589985323.061685,0.5511905444713016,-2.5549985661026673,10.14594411897251,0.25992056663980956,0.5032937759751639,-0.6507275549546843,-0.05260406205716942,-0.05250185672308899,-0.4603821621223496
1589985323.071685,0.5683739604244336,-2.1941468310868943,8.066750788643533,0.2427371506866775,0.5347967052225727,-0.6612285313704872,0.5893847560943415,0.16586806244377542,-0.3666611667717641
1589985323.081685,11.506885245901639,-11.588871981386891,-1.9961562324499238,0.2411111111111111,0.5377777777777778,-0.6622222222222223,0.28730002602545235,-0.26049183779425394,-0.13266200712401224
1589985323.091685,0.09901068208545669,-0.3249465895727166,11.582981673853391,0.2411111111111111,0.5377777777777778,-0.6622222222222223,-0.8462278545090033,-0.20824188408719216,1.873504327689917
1589985323.101685,-0.19175587344679962,-1.3191235251122482,8.486135324214263,0.2411111111111111,0.5377777777777778,-0.6622222222222223,-0.08177125873275867,0.058349503298006256,2.5667054224676495
1589985323.111685,-0.6517787299848578,-1.5309865008537646,6.673527175488901,0.24137518748814216,0.5384819814498606,-0.6622222222222223,0.7859443343820413,-0.06658471300953075,2.4772978988069774
1589985323.121685,-0.41733644265422937,-1.5621320754716983,5.395695357218571,0.24444444444444444,0.5466666666666666,-0.6622222222222223,0.26737645385089326,-0.13326104075564243,2.439517519730292
1589985323.131685,-0.2568176621891969,-2.3438739639897115,8.662276364675622,0.24444444444444444,0.5466666666666666,-0.6622222222222223,-0.3812240032642773,-0.18138732674254765,2.404292988510693
1589985323.141685,0.2751116390397257,-3.085578200914547,12.38578147327808,0.24444444444444444,0.5466666666666666,-0.6622222222222223,-0.6819706327972077,-0.22797036446911564,2.3879480629925993
1589985323.151685,0.2282900873803042,-5.411855356089018,8.79728816463287,0.24444444444444444,0.5466666666666666,-0.6622222222222223,-0.14473199472515633,-0.1743464026673386,2.433310841824065
1589985323.161685,0.05262597803118277,-10.178740505244722,6.09046393420777,0.24444444444444444,0.5466666666666666,-0.6622222222222223,0.1966996807306404,-0.1551844208815541,2.59270369031491
1589985323.171685,-0.1372493984243663,-2.438400962521014,9.500322378613573,0.2788888888888889,0.51,-0.6711111111111111,-0.07635360620060201,-0.21494247592578206,3.371892662001309
1589985323.181685,-0.17181362692421795,-2.3830981969212512,8.214533078419093,0.2788888888888889,0.51,-0.6711111111111111,-0.02432246649978831,-0.23077804018255144,3.466151973053508
1589985323.191685,-0.1888866986868042,-2.7432413448457758,8.923083650295677,0.2788888888888889,0.51,-0.6711111111111111,-0.022662411538031536,-0.2296816759955696,3.4681196850107585
1589985323.201685,-0.124684143690407,-2.7736710359226016,8.805065538839026,0.2788888888888889,0.51,-0.6711111111111111,-0.1068247126927796,-0.23352749848973192,3.445976045663145
1589985323.211685,-0.2863427934795356,-3.396996599038349,8.612844493960361,0.2788888888888889,0.51,-0.6711111111111111,-0.11689620010269719,-0.23239128326563926,3.433021778891923
1589985323.221685,1.5464406779661017,-2.104915254237288,8.348983050847458,0.3731450094161959,0.4861770244821093,-0.6762900188323917,-0.4044948450755502,-0.3889458842606431,2.922372643622667
1589985323.231685,-1.2372940013183915,-0.24952914587060931,9.515492513419343,0.38,0.4844444444444445,-0.6766666666666666,-0.36272162598055424,-0.16599986313850207,-0.017293350573587996
1589985323.241685,-1.7400652804642167,-1.7559840425531914,12.360797872340424,0.38,0.4844444444444445,-0.6766666666666666,0.7115861595835815,0.42779819731675933,-0.13070663584039013
1589985323.251685,-0.337578073089701,-0.6021993355481727,3.087051495016611,0.38,0.4844444444444445,-0.6766666666666666,1.0981754077633878,0.20282639392071644,-0.070065220846958
1589985323.261685,-0.5640145348837209,-1.403436046511628,6.5271438953488365,0.38,0.4844444444444445,-0.6766666666666666,0.22321172452129479,0.005223303677116736,-0.10141571112599064
1589985323.271685,-0.48813745099607975,-12.18002192175374,11.988998639891191,0.4066666666666667,0.4266666666666667,-0.6711111111111111,-0.6728377620261299,0.002284260226318058,0.13762685318255113
1589985323.2816849,0.1494471557724617,-4.656523561884951,9.700405472437795,0.4066666666666667,0.4266666666666667,-0.6711111111111111,-0.5044542982713137,-0.1434040410224142,0.4004514770433294
1589985323.2916849,-0.3321562564419707,-3.181925376211091,8.018344671201815,0.4066666666666667,0.4266666666666667,-0.6711111111111111,0.06123606050715669,-0.058416225831315574,0.10846154531152558
1589985323.3016849,-1.1441964371000095,-5.254965851561753,8.389667112427166,0.4066666666666667,0.4266666666666667,-0.6711111111111111,0.14172347249803238,0.031097455837152926,-0.1629608871151788
1589985323.3116848,-0.4194600362459985,-4.752432885621856,8.858175335783608,0.4066666666666667,0.4266666666666667,-0.6711111111111111,0.024731730245926647,0.007499482414958611,-0.13305190501035274
1589985323.3216848,-0.1766251804455542,-4.425144161367094,9.294279193164527,0.43058978060421627,0.41968909176821473,-0.6631367397985947,-0.016955053825757113,0.0004174616341737639,0.02355796137567627
1589985323.3316848,-0.11265947817874149,-4.311723269450238,8.678073668883554,0.43333333333333335,0.4188888888888889,-0.6622222222222223,-0.0034604718837749123,-0.0073457114112003095,0.011429318930673088
1589985323.3416848,-0.0758530827040568,-4.1583412330816225,8.567464451132698,0.43333333333333335,0.4188888888888889,-0.6622222222222223,0.007087814899644551,0.0017293030611047317,0.001090830782496456
1589985323.3516848,-0.038057743255176885,-4.14322309730207,8.635496062140682,0.43333333333333335,0.4188888888888889,-0.6622222222222223,0.012035213264333454,-0.0023935289094693542,0.001090830782496456
1589985323.3616848,-0.14550616552689677,-4.291046524150557,8.9432079586452,0.43333333333333335,0.4188888888888889,-0.6622222222222223,-0.0014482245629121402,0.0006043593732758621,0.003998469573070379
1589985323.3716848,-0.07,-4.29,8.56,0.4122222222222222,0.4266666666666667,-0.6577777777777778,-0.002181661564992912,0.0,0.0
1589985323.3816848,-0.07,-4.228826024416332,8.607579758787299,0.4122222222222222,0.4266666666666667,-0.6577777777777778,-0.005888909101345804,0.0007414495072705781,-0.0007414495072705781
1589985323.3916848,-0.1133106890938687,-4.236092240911558,8.622781551817688,0.4122222222222222,0.4266666666666667,-0.6577777777777778,0.007324984932854554,0.0018782413304085479,0.0004839903133277276
1589985323.4016848,-0.08042005654607351,-4.248844844498298,8.769159886907852,0.4122222222222222,0.4266666666666667,-0.6577777777777778,0.011964772811647555,0.0032266712864047558,-2.291053054230627e-05
1589985323.4116848,-0.11268824649472045,-4.160107322139519,8.704623507010558,0.4122222222222222,0.4266666666666667,-0.6577777777777778,0.009324837694790545,-0.00029324220273792495,-0.0017828672751136465
1589985323.4216847,-0.05048369933249493,-4.160386959465996,8.648935861468512,0.4188888888888889,0.4266666666666667,-0.6577777777777778,-0.013047758660248794,-0.0032408343002078613,2.110536485433793e-05
1589985323.4316847,-0.09910878230104349,-4.2013368265484345,8.541782435397913,0.4188888888888889,0.4266666666666667,-0.6577777777777778,-0.008556516912484349,-2.4304192498185625e-05,0.0020844447950001694
1589985323.4416847,-0.06154059742935196,-4.257689103855972,8.616918805141296,0.4188888888888889,0.4266666666666667,-0.6577777777777778,-0.001384923724886561,-0.0010488175050121552,-0.002013608455055709
1589985323.4516847,-0.13121635977337112,-4.179881595254957,8.637804089943343,0.4188888888888889,0.4266666666666667,-0.6577777777777778,0.01444616870913065,-0.00011976831426976182,-0.0012105990967662178
1589985323.4616847,-0.06740941388921605,-4.148222824166765,8.676295293055391,0.4188888888888889,0.4266666666666667,-0.6577777777777778,0.008444057152536554,-0.0031673618339641135,-0.001090830782496456
1589985323.4716847,-0.11625264018532397,-4.216252640185323,8.632810519861009,0.42630234001801764,0.41925321553753797,-0.6704865511419984,-0.0007842506245760439,0.0018750814070725005,-5.109669298673531e-05
1589985323.4816847,-0.08038668098818474,-4.186988900823487,8.636602219835304,0.4266666666666667,0.4188888888888889,-0.6711111111111111,-0.006132164022906142,0.0014614711020772425,-0.0007201904629156694
1589985323.4916847,-0.07700161420500404,-4.2720096852300244,8.563492736077482,0.4266666666666667,0.4188888888888889,-0.6711111111111111,0.0005462958035020588,0.0038727134015385687,0.0016910518365456566
1589985323.5016847,-0.09974025974025974,-4.122207792207792,8.727662337662338,0.4266666666666667,0.4188888888888889,-0.6711111111111111,0.0097183106076957,0.0032866589810282834,-0.0010483308818797113
1589985323.5116847,-0.1,-4.1746722454672245,8.72218967921897,0.4266666666666667,0.4188888888888889,-0.6711111111111111,0.010669450875380258,0.0015685446816650571,-0.0002388569495843006
1589985323.5216846,-0.1133516785910842,-4.163296642817832,8.68662080352229,0.4214743472145784,0.4188888888888889,-0.6711111111111111,0.0028978757221301017,-0.0010938325182765784,0.0
1589985323.5316846,-0.08013264841667209,-4.21,8.719159893361077,0.4188888888888889,0.4188888888888889,-0.6711111111111111,-0.009807830577391083,0.001086007549957945,-0.003262845882412346
1589985323.5416846,-0.10740555302685481,-4.21,8.546431497496586,0.4188888888888889,0.4188888888888889,-0.6711111111111111,-0.007824488985599294,9.433675406205128e-05,-0.0012795042906205583
1589985323.5516846,-0.060468521612027565,-4.180281112967216,8.61915666109835,0.4188888888888889,0.4188888888888889,-0.6711111111111111,0.006412104467845958,0.0021612184531263306,-0.001090830782496456
1589985323.5616846,-0.09710736721873214,-4.187421473443747,8.671950314106224,0.4188888888888889,0.4188888888888889,-0.6711111111111111,0.00978321336854617,0.002991218733384771,-0.0002812736141045972
1589985323.5716846,-0.07454202534094206,-4.145677531676177,8.752051455653351,0.41297922644571256,0.4060846202620069,-0.6839153797379932,0.008974375312810576,0.001338559835335384,0.0009669662560769918
1589985323.5816846,-0.1280129350479402,-4.1786752900319595,8.65364295241211,0.4122222222222222,0.4044444444444445,-0.6855555555555556,-0.004984517728901501,0.0032002406269384795,-0.004182693828608601
1589985323.5916846,-0.09356894657789136,-4.234646580133163,8.549814603089201,0.4122222222222222,0.4044444444444445,-0.6855555555555556,-0.0024736453241116082,0.004265995210279592,-0.002376317404405376
1589985323.6016846,-0.07092742847094878,-4.230463714235475,8.587681428822627,0.4122222222222222,0.4044444444444445,-0.6855555555555556,0.0019793280600580022,0.002282828317460367,0.0009390806537952737
1589985323.6116846,-0.07724518005890538,-4.201019279764379,8.691432520824675,0.4122222222222222,0.4044444444444445,-0.6855555555555556,0.009294600454678031,0.0037623146515896053,-0.0004898223041002372
1589985323.6216846,-0.07403498972204844,-4.166139958888194,8.73,0.4161988957408566,0.4177000228398924,-0.6855555555555556,0.008745730192912363,0.001109914715437173,-0.001090830782496456
1589985323.6316845,-0.08712360195010037,-4.167123601950101,8.695752796099798,0.4188888888888889,0.4266666666666667,-0.6855555555555556,-0.003728438967933471,-0.001090830782496456,-0.001090830782496456
1589985323.6416845,-0.06319742792538156,-4.214670953457697,8.564921330318448,0.4188888888888889,0.4266666666666667,-0.6855555555555556,-0.008377860979389648,0.000858307262108456,-0.0040145378494038245
1589985323.6516845,-0.0779448485332907,-4.208036767644473,8.579908080888817,0.4188888888888889,0.4266666666666667,-0.6855555555555556,-0.004811687626501672,0.0004383376769181266,-0.0017533507076725064
1589985323.6616845,-0.07460801074612285,-4.1948693369153744,8.641045304677005,0.4188888888888889,0.4266666666666667,-0.6855555555555556,0.0017360180941366544,0.0022386740909311805,0.0
1589985323.6716845,-0.08740432261465471,-4.17173045159023,8.71653909681954,0.40772416486069624,0.4134719928151662,-0.6723608817040552,0.006450603201866583,0.0033668738406015196,0.001992898578768609
1589985323.6816845,-0.06352400751072962,-4.214126654148783,8.649397353361946,0.4066666666666667,0.4122222222222222,-0.6711111111111111,-0.00019387507939085634,0.0003844095870452575,-0.0007064211954511987
1589985323.6916845,-0.09240130707409697,-4.21351973858518,8.562236863022168,0.4066666666666667,0.4122222222222222,-0.6711111111111111,-0.003211491371469165,0.002120660588972709,-0.00038394391950555284
1589985323.7016845,-0.0928815799704533,-4.2185592100147735,8.588473680118186,0.4066666666666667,0.4122222222222222,-0.6711111111111111,-0.0024959931783924815,0.0051398222990827105,-0.0009336649757966711
1589985323.7116845,-0.08287155108128262,-4.22,8.635642244593587,0.4066666666666667,0.4122222222222222,-0.6711111111111111,0.0024838973422013828,0.0015661881564870347,-0.001868423933695505
1589985323.7216845,-0.08805413935421219,-4.171675163874727,8.730541393542122,0.42814437161123253,0.4274355965579564,-0.6755856329745623,0.006999034070213059,0.001757140626818156,0.0013326196886434003
1589985323.7316844,-0.08084394165850642,-4.187468175024481,8.685907591609544,0.43333333333333335,0.4311111111111111,-0.6766666666666666,0.006637044448951726,0.0001841195079459821,-0.0028121935776244124
1589985323.7416844,-0.08870704796217067,-4.1725859040756585,8.592929520378293,0.43333333333333335,0.4311111111111111,-0.6766666666666666,-0.0020031396526492004,0.0,-0.00042311756494672285
1589985323.7516844,-0.09,-4.221055637825259,8.588509272970876,0.43333333333333335,0.4311111111111111,-0.6766666666666666,-0.005128927726148804,0.0009282176893297182,0.0009282176893297182
1589985323.7616844,-0.09,-4.190226049716041,8.643031933711946,0.43333333333333335,0.4311111111111111,-0.6766666666666666,-0.003284821446920992,0.0003677199606426932,-0.0003553908612110696
1589985323.7716844,-0.08368737421883275,-4.182625251562334,8.67,0.42912491614588855,0.4311111111111111,-0.6542217750002942,0.00470434495548506,0.0006886006520477972,0.00028637052159913843
1589985323.7816844,-0.10597787118308814,-4.164022128816912,8.73061503276054,0.4266666666666667,0.4311111111111111,-0.6411111111111111,0.008726646259971648,0.0039245769375204735,-0.000798333320852889
1589985323.7916844,-0.08453730871665237,-4.210925382566695,8.59571141606103,0.4266666666666667,0.4311111111111111,-0.6411111111111111,0.0068749470961663285,-0.00026592477952747367,-0.0001649812005937966
1589985323.8016844,-0.11391180928095455,-4.203044095359523,8.586955904640478,0.4266666666666667,0.4311111111111111,-0.6411111111111111,-0.002703026668474824,-0.0001660296461511,-0.000924801136345356
1589985323.8116844,-0.09952083413194311,-4.220479165868057,8.60365277724537,0.4266666666666667,0.4311111111111111,-0.6411111111111111,-0.00287403616140401,0.0014892869685818138,-0.0018354742667873627
1589985323.8216844,-0.07372130306528152,-4.189303257663203,8.650696742336796,0.4103879697319482,0.42749362290339593,-0.6700510167728329,0.004033394735369655,-0.00048193399230533115,0.00048193399230533115
1589985323.8316844,-0.07856702619414484,-4.205701078582434,8.685701078582435,0.4066666666666667,0.4266666666666667,-0.6766666666666666,0.00919222426729294,0.0007782043949088738,0.001090830782496456
1589985323.8416843,-0.09329014105364482,-4.196709858946355,8.630194365258598,0.4066666666666667,0.4266666666666667,-0.6766666666666666,0.0032936943082020644,0.002540560279000021,-0.0003588987140071085
1589985323.8516843,-0.1,-4.19,8.584398886523662,0.4066666666666667,0.4266666666666667,-0.6766666666666666,-0.005105452446363141,0.001570674865368321,0.0014618954406851144
1589985323.8616843,-0.09347309716149114,-4.209580708515526,8.612634514192544,0.4066666666666667,0.4266666666666667,-0.6766666666666666,-0.0044090607357960485,0.0032267547416791427,0.002181661564992912
1589985323.8716843,-0.07504464429616736,-4.190089288592334,8.667388389259582,0.42660714093844354,0.4266666666666667,-0.6725124011933798,-0.0024568042292431383,0.0002848825387546756,-0.00026540278974577754
1589985323.8816843,-0.07844588573126052,-4.1884458857312605,8.69689177146252,0.43333333333333335,0.4266666666666667,-0.6711111111111111,0.003346157719671028,0.0007517756457248574,0.0007517756457248574
1589985323.8916843,-0.09652075226977952,-4.18173962386511,8.63391699092088,0.43333333333333335,0.4266666666666667,-0.6711111111111111,0.004363323129985824,0.001090830782496456,0.0001897635262027719
1589985323.9016843,-0.08676786503468287,-4.199848202447976,8.62,0.43333333333333335,0.4266666666666667,-0.6711111111111111,0.002198220109238482,0.0032559338032437978,0.0014434020138315612
1589985323.9116843,-0.06866222450025627,-4.198662224500256,8.614331112250127,0.43333333333333335,0.4266666666666667,-0.6711111111111111,-0.001382688121534462,0.001889804225954906,0.0003265223869697233
1589985323.9216843,-0.06513106145496891,-4.205393184364906,8.645917430184783,0.4225010924839545,0.42894713842443066,-0.6711111111111111,-0.002712780369293254,0.000559711978196114,-0.002210254738888684
1589985323.9316843,-0.07703445578352239,-4.177793265298866,8.651862176865912,0.4122222222222222,0.4311111111111111,-0.6711111111111111,0.003189719069750598,0.001090830782496456,-0.0009704720754564354
1589985323.9416842,-0.08,-4.174371925922758,8.611256148154485,0.4122222222222222,0.4311111111111111,-0.6711111111111111,0.006238020872497429,-0.0004769031375338425,0.0
1589985323.9516842,-0.09503748400073139,-4.18,8.622556226001098,0.4122222222222222,0.4311111111111111,-0.6711111111111111,0.003264314607119583,0.0038301743492922735,-0.002460502565894365
1589985323.9616842,-0.10645793108939271,-4.186457931089393,8.636457931089394,0.4122222222222222,0.4311111111111111,-0.6711111111111111,-0.001340593446782305,0.00545415391248228,-0.0018635903427792813
1589985323.9716842,-0.08812350898384418,-4.197292163672052,8.669168654688209,0.4122222222222222,0.43516231315113996,-0.6646291878470649,-0.0040679440079370325,0.0014768956102439558,0.0020909758592942028
1589985323.9816842,-0.08802589626889283,-4.191974103731107,8.663948207462214,0.4122222222222222,0.43666666666666665,-0.6622222222222223,0.0008896136943532321,-0.0008754894707231761,-0.00022946553540333613
1589985323.9916842,-0.07969400654938695,-4.184847003274694,8.618776026197548,0.4122222222222222,0.43666666666666665,-0.6622222222222223,0.0044300805450200285,-0.0005287260374896767,-0.001090830782496456
1589985324.0016842,-0.06605103991883561,-4.187897920162329,8.611591680649315,0.4122222222222222,0.43666666666666665,-0.6622222222222223,0.005252690530363587,0.00043076472153838274,-0.0006600660609580732
1589985324.0116842,-0.07252297489341544,-4.204174324964472,8.651651350071056,0.4122222222222222,0.43666666666666665,-0.6622222222222223,0.001906447697272584,0.000635482565757528,0.00045534821673892797
1589985324.0216842,-0.09206005956995389,-4.205879880860092,8.64,0.41908908745540185,0.4330043385423042,-0.6594754761289504,-0.00022471763926821194,0.0,0.000641395503960032
1589985324.0316842,-0.09052769059004445,-4.2089446188199116,8.65894461881991,0.4455555555555555,0.4188888888888889,-0.6488888888888888,0.00045907222036009783,0.0005166343342855179,0.00045907222036009783
1589985324.0416842,-0.08,-4.19501238134544,8.633349841793919,0.4455555555555555,0.4188888888888889,-0.6488888888888888,0.0034538472794809717,-0.00018135493199160357,0.0009094758505048524
1589985324.0516841,-0.08,-4.191634444484747,8.637860277848308,0.4455555555555555,0.4188888888888889,-0.6488888888888888,0.004363323129985824,-0.0005008428323421285,0.0
1589985324.0616841,-0.08402318041037553,-4.201953639179249,8.657930458768874,0.4455555555555555,0.4188888888888889,-0.6488888888888888,0.0030467404194335175,0.0004388609035174355,-0.000877721807034871
1589985324.0716841,-0.0937832144816237,-4.201349643444871,8.647566428963248,0.4430334125678064,0.4188888888888889,-0.657296032181386,-0.00014722326150599452,0.0027415695078330565,-0.0017689768836587618
1589985324.081684,-0.10496009329786071,-4.215039906702139,8.645119720106418,0.4388888888888889,0.4188888888888889,-0.6711111111111111,-0.0016405993196568296,0.0027488426858018676,-0.001090830782496456
1589985324.091684,-0.09870742287917737,-4.204353711439588,8.596122268637533,0.4388888888888889,0.4188888888888889,-0.6711111111111111,0.002604656438636099,0.0,0.0007569128280698217
1589985324.101684,-0.09,-4.2,8.603414127423822,0.4388888888888889,0.4188888888888889,-0.6711111111111111,0.00545415391248228,-0.0014579663505665927,-5.2879608569774035e-06
1589985324.111684,-0.09,-4.206051587678175,8.656309526069048,0.4388888888888889,0.4188888888888889,-0.6711111111111111,0.00545415391248228,-0.002841787377225854,0.0008895466542023698
1589985324.121684,-0.09,-4.21,8.68,0.43545423823542795,0.42644512032650306,-0.666989530326958,0.0007334093609871178,9.946804643574773e-05,0.0001584853286378425
1589985324.131684,-0.08292005685717087,-4.217079943142829,8.665840113714342,0.43333333333333335,0.4311111111111111,-0.6644444444444444,-0.002953963556845184,0.0014093595731406398,0.0004537732012080886
1589985324.141684,-0.09005070875102505,-4.214974645624487,8.629847873746925,0.43333333333333335,0.4311111111111111,-0.6644444444444444,1.6594399968023095e-05,0.0027353741562251514,-5.531466656007698e-06
1589985324.151684,-0.10449290284621608,-4.196521291461352,8.626957417077296,0.43333333333333335,0.4311111111111111,-0.6644444444444444,0.004742791365714899,0.00387322345724398,-0.0015809304552382997
1589985324.161684,-0.09803664379510232,-4.183987785401633,8.667975570803264,0.43333333333333335,0.4311111111111111,-0.6644444444444444,0.005674984880960578,0.003272492347489368,-0.0026166614720019906
1589985324.171684,-0.08101491594980664,-4.19,8.679492542025097,0.43260033848069523,0.4308855742333763,-0.6641061391278422,0.004086547740061895,0.0031617821915197962,-0.003272492347489368
1589985324.181684,-0.09391039389915909,-4.214358424403364,8.633462363394955,0.4188888888888889,0.4266666666666667,-0.6577777777777778,-0.0024193767401115523,0.0004265578036889079,-0.00260821936868182
1589985324.191684,-0.07610094464473144,-4.209151416967098,8.582201889289463,0.4188888888888889,0.4266666666666667,-0.6577777777777778,-0.0009982647331169938,0.0022742276143723743,-0.002181661564992912
1589985324.201684,-0.07,-4.190235284066638,8.594411789833405,0.4188888888888889,0.4266666666666667,-0.6577777777777778,0.0021303305444889354,0.0038050749836116018,-0.0005839136566262104
1589985324.211684,-0.07333361131960081,-4.18,8.640001667917604,0.4188888888888889,0.4266666666666667,-0.6577777777777778,0.003999682545555904,0.0029087607922661453,0.0014544713669263757
1589985324.221684,-0.07605577514273167,-4.187888449714537,8.699721124286341,0.421956619333431,0.4266666666666667,-0.6652279802859513,0.0019817477812705707,0.0,0.002181661564992912
1589985324.231684,-0.08100218282081723,-4.2,8.696993451537548,0.4266666666666667,0.4266666666666667,-0.6766666666666666,0.0,0.0,0.002181661564992912
1589985324.241684,-0.09,-4.20533527696793,8.61131195335277,0.4266666666666667,0.4266666666666667,-0.6766666666666666,0.0,0.0011639768699524865,-0.0001462921749120611
1589985324.251684,-0.08495978986964135,-4.1898391594785656,8.605361891173228,0.4266666666666667,0.4266666666666667,-0.6766666666666666,0.0021992065441782753,0.004380868109171187,-0.0010820582929037743
1589985324.261684,-0.08,-4.180100060642814,8.660100060642813,0.4266666666666667,0.4266666666666667,-0.6766666666666666,0.004363323129985824,0.004341493284126283,0.0
1589985324.271684,-0.07507516573811822,-4.19,8.684774502785645,0.4228362400185364,0.4266666666666667,-0.6695530171772819,0.002214458805364277,0.0032560937273036854,-0.002148864324621547
1589985324.281684,-0.07628465668129336,-4.215138626725174,8.693715343318706,0.4188888888888889,0.4266666666666667,-0.6622222222222223,-0.0034277484826884075,0.002306674040372779,-0.004363323129985824
1589985324.291684,-0.08611728973029756,-4.205530841078811,8.622709812966727,0.4188888888888889,0.4266666666666667,-0.6622222222222223,-0.0014503971465274655,0.0017581235768222585,-0.0016941519526826139
1589985324.301684,-0.09,-4.1958553820871,8.609276910435497,0.4188888888888889,0.4266666666666667,-0.6622222222222223,0.0030070000896623753,0.0034591077697701915,-0.0006387231023886397
1589985324.311684,-0.09343409351185511,-4.2,8.647170467559276,0.4188888888888889,0.4266666666666667,-0.6622222222222223,0.003614120147445242,0.0028649171649046596,-0.001090830782496456
1589985324.321684,-0.09936419290531466,-4.2,8.676820964526573,0.4188888888888889,0.4266666666666667,-0.6622222222222223,0.0023203731551153955,0.0002774231802449671,-0.001090830782496456
1589985324.3316839,-0.09,-4.19388866908117,8.656111330918831,0.4266666666666667,0.4188888888888889,-0.6488888888888888,0.0015757403728164255,0.00042418799366823566,-0.0013332855776564405
1589985324.3416839,-0.0855490635179153,-4.208901872964169,8.609941571661238,0.4266666666666667,0.4188888888888889,-0.6488888888888888,-0.002061874487615349,0.001090830782496456,-0.0004855218525594466
1589985324.3516839,-0.08385105546086272,-4.216148944539137,8.583106332765176,0.4266666666666667,0.4188888888888889,-0.6488888888888888,-0.0020122373949463274,0.0023510857350394964,-0.0006707457983154423
1589985324.3616838,-0.09,-4.198601540832049,8.646596404725218,0.4266666666666667,0.4188888888888889,-0.6488888888888888,0.0004144596711143186,0.003534403787757187,-0.0004144596711143186
1589985324.3716838,-0.09,-4.18,8.69,0.42980363347177675,0.422025855693999,-0.6560183589005025,0.0008108571498405257,0.0019016879323369817,-0.0008108571498405257
1589985324.3816838,-0.09,-4.182822644213544,8.687177355786456,0.4388888888888889,0.4311111111111111,-0.6766666666666666,-0.0009237081588506357,-0.00044868281558793654,0.0
1589985324.3916838,-0.09,-4.198206520721362,8.638967396393191,0.4388888888888889,0.4311111111111111,-0.6766666666666666,-0.002824896076486543,-0.003020534316977349,-0.0008951925420056498
1589985324.4016838,-0.09,-4.205923658764816,8.604458047411104,0.4388888888888889,0.4311111111111111,-0.6766666666666666,-0.001292341865133239,-0.00020151108263678297,-0.001292341865133239
1589985324.4116838,-0.08541936367683825,-4.190838727353676,8.653741908969485,0.4388888888888889,0.4311111111111111,-0.6766666666666666,0.001499009731417867,0.002090170603441701,0.0004996699104726223
1589985324.4216838,-0.07656088191080675,-4.176560881910807,8.687195590445967,0.42780728615704394,0.4295826141825808,-0.6644386912384239,0.003647641935122607,0.0021470435845896505,0.0007156811948632168
1589985324.4316838,-0.08110541253796744,-4.219974356420853,8.70334188119305,0.4066666666666667,0.4266666666666667,-0.6411111111111111,0.0019404979602384298,0.0006057062924368485,0.0
1589985324.4416838,-0.08435258800628533,-4.2712948239874295,8.650468116043996,0.4066666666666667,0.4266666666666667,-0.6411111111111111,0.0,0.0017068678669148207,0.0
1589985324.4516838,-0.08,-4.28,8.629713787230507,0.4066666666666667,0.4266666666666667,-0.6411111111111111,-0.001589414718848739,0.000592246846144173,0.0005298049062829129
1589985324.4616838,-0.08540920897284535,-4.274590791027155,8.65893223140496,0.4066666666666667,0.4266666666666667,-0.6411111111111111,-0.002092386016182222,-0.001680883948150029,0.0005007776168428831
1589985324.4716837,-0.09861440377804015,-4.26138559622196,8.70515041322314,0.4066666666666667,0.4266666666666667,-0.6411111111111111,0.0007885405802915343,-0.0031213472463869074,-0.0009396856813939953
1589985324.4816837,-0.08803972000651147,-4.2640198600032555,8.737940419990233,0.4122222222222222,0.4266666666666667,-0.6711111111111111,0.0008661654551296129,-0.00042766675184184697,0.0
1589985324.4916837,-0.08273779014424838,-4.275754069951917,8.673967440384663,0.4122222222222222,0.4266666666666667,-0.6711111111111111,-0.0023461741081342953,0.0002986465765361535,-0.0012553433256378389
1589985324.5016837,-0.0751305256557634,-4.285130525655764,8.645130525655764,0.4122222222222222,0.4266666666666667,-0.6711111111111111,-0.002153185284350461,-0.001090830782496456,-0.001062354501854005
1589985324.5116837,-0.08810599308740735,-4.285947003456297,8.670264982718518,0.4122222222222222,0.4266666666666667,-0.6711111111111111,-0.0006487174433740852,-0.00020660410425171446,0.00044211333912237076
