time,acc_x,acc_y,acc_z,mag_x,mag_y,mag_z,gyr_x,gyr_y,gyr_z
1589985566.6724172,-3.71,-0.55,9.0,0.2933333333333333,-0.3922222222222223,-0.6144444444444445,-0.002181661564992912,-0.002181661564992912,0.001090830782496456
1589985566.6824172,-3.6905198989407317,-0.5715596968221959,8.995320909533412,0.2933333333333333,-0.3922222222222223,-0.6144444444444445,-0.004249898776318274,-0.002181661564992912,0.0010341186056626811
1589985566.6924171,-3.6997661801959336,-0.5995323603918667,8.911636738628467,0.2933333333333333,-0.3922222222222223,-0.6144444444444445,-0.002130649997026279,-0.002130649997026279,-2.55057839833166e-05
1589985566.7024171,-3.6903633958795705,-0.5807267917591409,8.977456228843007,0.2933333333333333,-0.3922222222222223,-0.6144444444444445,-7.92806823335687e-05,-7.92806823335687e-05,-0.0010511904413296716
1589985566.7124171,-3.6980212456981443,-0.5639575086037121,9.004063737094432,0.2933333333333333,-0.3922222222222223,-0.6144444444444445,0.001749964344300547,-0.0008749821721502735,-0.0002158486103461825
1589985566.722417,-3.7,-0.5699317109510802,9.02986342190216,0.28009105206522644,-0.3856010815881687,-0.6144444444444445,0.002181661564992912,-0.001090830782496456,-0.002166763205659089
1589985566.732417,-3.690601657881696,-0.5418049736450872,9.001804973645086,0.28,-0.3855555555555555,-0.6144444444444445,0.002181661564992912,0.0009595693949193947,-0.0011564614762849866
1589985566.742417,-3.69,-0.5585171039913243,8.925931584034704,0.28,-0.3855555555555555,-0.6144444444444445,0.003191612916814135,8.087943067523295e-05,-0.001090830782496456
1589985566.752417,-3.6976273418915997,-0.56,8.92,0.28,-0.3855555555555555,-0.6144444444444445,0.0007764505502948706,-0.0016640278647963315,0.0005731970822998756
1589985566.762417,-3.6946679279633035,-0.5493358559266068,8.93599621611009,0.28,-0.3855555555555555,-0.6144444444444445,-0.0011632776624234432,-0.0016000227337811903,0.0005091919512847343
1589985566.772417,-3.695764035920275,-0.5515280718405491,8.967292107760823,0.2723146187729673,-0.3855555555555555,-0.6009950272971373,-0.002181661564992912,-0.001090830782496456,0.0012575175626501453
1589985566.782417,-3.6803865921065393,-0.5698067039467304,8.97019329605327,0.26666666666666666,-0.3855555555555555,-0.5911111111111111,-0.0032514070189852183,-0.0032303216904810686,4.2170657008299556e-05
1589985566.792417,-3.6948219182993065,-0.57,8.918123285952428,0.26666666666666666,-0.3855555555555555,-0.5911111111111111,-0.0016556718738362831,-0.0024640821106628255,-0.0008084102368265424
1589985566.802417,-3.7,-0.5582447740777156,8.92351045184457,0.26666666666666666,-0.3855555555555555,-0.5911111111111111,-0.00044968266793504784,-0.0015405134504315038,0.00019146544662636028
1589985566.812417,-3.6873178650396037,-0.5373178650396038,8.978046404881189,0.26666666666666666,-0.3855555555555555,-0.5911111111111111,0.0020751094803862164,-0.00039912762236771725,-0.0002925755377610215
1589985566.822417,-3.692219071401363,-0.5422190714013628,9.018328607102044,0.2911048094693923,-0.38080369445502554,-0.5958629722116411,0.0026060453865829327,0.000666446960906435,-0.001090830782496456
1589985566.832417,-3.7,-0.5753914136878031,9.021536195437399,0.30666666666666664,-0.37777777777777777,-0.5988888888888889,0.001258403709600995,-0.0007556849282873777,-0.001090830782496456
1589985566.842417,-3.6853170132730426,-0.5653170132730427,8.946585066365213,0.30666666666666664,-0.37777777777777777,-0.5988888888888889,0.0034933288676092487,-0.0002899980874588586,-0.0018916634775340533
1589985566.852417,-3.6978090294163914,-0.56,8.964522573540979,0.30666666666666664,-0.37777777777777777,-0.5988888888888889,0.0014493275059181319,0.001942663749378461,-0.003152993439682143
1589985566.862417,-3.6930296494979884,-0.56,8.983940701004023,0.30666666666666664,-0.37777777777777777,-0.5988888888888889,-0.0004298637959803354,-9.93803027222748e-05,0.0005292440987026102
1589985566.872417,-3.6995788874121893,-0.5408422251756219,9.009157774824377,0.2938948167837478,-0.37777777777777777,-0.6137893804189608,-0.0031806198327531945,-4.593625736808702e-05,9.187251473617404e-05
1589985566.882417,-3.708578210999538,-0.5743128439981513,8.975687156001849,0.2933333333333333,-0.37777777777777777,-0.6144444444444445,-0.004208230009193924,0.0,-0.0009357376617045561
1589985566.892417,-3.7010414119804405,-0.57104141198044,8.9252070599022,0.2933333333333333,-0.37777777777777777,-0.6144444444444445,-0.0033860927720418335,-0.002931691073831971,0.0008636299333915248
1589985566.902417,-3.691224092363333,-0.5787759076366671,8.928775907636666,0.2933333333333333,-0.37777777777777777,-0.6144444444444445,0.0024713257691639694,-0.003272492347489368,0.002048133801938679
1589985566.912417,-3.6950615732943093,-0.5597537068227628,8.960369439765856,0.2933333333333333,-0.37777777777777777,-0.6144444444444445,0.003272492347489368,-0.001616096360300994,0.0005252655778045377
1589985566.922417,-3.6923855738783566,-0.5450762840810955,8.995076284081096,0.2967175227207303,-0.37975188825375933,-0.6085221130164997,0.003826229041124942,0.000276868346817787,-0.000813962435678669
1589985566.932417,-3.685223412761874,-0.5371648808571886,9.025223412761873,0.30666666666666664,-0.3855555555555555,-0.5911111111111111,0.0037935371869520923,0.001090830782496456,0.0
1589985566.942417,-3.681536932027395,-0.5384630679726048,8.945369320273953,0.30666666666666664,-0.3855555555555555,-0.5911111111111111,0.0023493148416016537,0.0001676532766087418,-0.0018463550117754283
1589985566.952417,-3.70779765769041,-0.5585317717936067,8.976329429484018,0.30666666666666664,-0.3855555555555555,-0.5911111111111111,-0.0028720952166735223,0.004043005425333147,-0.002181661564992912
1589985566.962417,-3.702602874432678,-0.5673971255673222,9.002191376701967,0.30666666666666664,-0.3855555555555555,-0.5911111111111111,-0.002465591120406702,0.001942619448737826,-0.0005678591108275802
1589985566.9724169,-3.689238700807699,-0.57,9.01538064959615,0.2953075175192378,-0.3855555555555555,-0.598883160527773,-0.003355537206854539,0.0005038929615656425,-0.0005869378209308135
1589985566.9824169,-3.6927764782092347,-0.57,8.968894087163061,0.2855555555555556,-0.3855555555555555,-0.6055555555555555,-0.0036664743438594126,-0.0006968487861264113,-0.0003939819963700447
1589985566.9924169,-3.7,-0.5757362961364902,8.917054815454039,0.2855555555555556,-0.3855555555555555,-0.6055555555555555,-0.003272492347489368,-0.001090830782496456,0.0
1589985567.0024168,-3.69270423888244,-0.5581127166473202,8.95107032782292,0.2855555555555556,-0.3855555555555555,-0.6055555555555555,0.0015025721377757099,-0.001090830782496456,0.0007958440808775129
1589985567.0124168,-3.696174999561273,-0.5561749995612727,8.976174999561273,0.2855555555555556,-0.3855555555555555,-0.6055555555555555,0.002598904387155535,0.00025634513817120977,-0.0009299330985050424
1589985567.0224168,-3.706996943807738,-0.5390091685767868,9.000990831423213,0.29566225216673225,-0.38011348814953727,-0.5907842297392203,0.0006551652272172575,0.001090830782496456,-0.0006551652272172575
1589985567.0324168,-3.7037437053739195,-0.5675377677564826,8.984974821495678,0.3,-0.37777777777777777,-0.5844444444444444,0.0006824558762495678,0.001090830782496456,0.0
1589985567.0424168,-3.684603712897249,-0.5823018564486242,8.91611299514037,0.3,-0.37777777777777777,-0.5844444444444444,0.0019305679778881795,0.001090830782496456,0.0008397371953917234
1589985567.0524168,-3.696565860057626,-0.58,8.933131720115252,0.3,-0.37777777777777777,-0.5844444444444444,0.002181661564992912,0.0001873032780271035,0.0001873032780271035
1589985567.0624168,-3.7,-0.5731156768367874,8.9950745853057,0.3,-0.37777777777777777,-0.5844444444444444,-7.12279219327711e-05,0.0,0.000750963162308561
1589985567.0724168,-3.6945149035651665,-0.57,9.025485096434833,0.3,-0.3820439638937593,-0.5960240924735372,-0.0028858243933198176,0.0011966624072155744,-0.00010583162471911847
1589985567.0824168,-3.69,-0.5464030977734753,9.014268731848983,0.3,-0.3855555555555555,-0.6055555555555555,-0.002647307975302338,0.001323653987651169,-0.001090830782496456
1589985567.0924168,-3.6974479699063663,-0.54,8.928072331029972,0.3,-0.3855555555555555,-0.6055555555555555,0.0002556808872985622,0.001090830782496456,-0.001903278266593614
1589985567.1024168,-3.7,-0.5671575803388705,8.916294548203322,0.3,-0.3855555555555555,-0.6055555555555555,0.0004983442902612452,0.0004983442902612452,-0.0015891750727577013
1589985567.1124167,-3.7,-0.5852205390955669,8.949117843617733,0.3,-0.3855555555555555,-0.6055555555555555,0.002085433231317573,-0.0005213583078293932,-0.001090830782496456
1589985567.1224167,-3.692227397627505,-0.5955452047449903,9.008863011862475,0.2844547952550097,-0.37605570821139483,-0.6003738206405588,0.005211182522788092,-0.00024297138969418743,-0.001090830782496456
1589985567.1324167,-3.697215929999591,-0.5855681400008177,8.976704420002454,0.28,-0.37333333333333335,-0.5988888888888889,0.004667018055692917,0.0,-0.001090830782496456
1589985567.1424167,-3.6919336465897765,-0.5558009397693294,8.919668232948883,0.28,-0.37333333333333335,-0.5988888888888889,0.003483420469749113,0.0008799026602367111,-0.00021092812225974485
1589985567.1524167,-3.682112856181288,-0.5657742876374242,8.949435719093561,0.28,-0.37333333333333335,-0.5988888888888889,-0.00016892335788177074,0.00023047685615367125,0.0
1589985567.1624167,-3.6736814499679467,-0.5763185500320531,9.01686695028848,0.28,-0.37333333333333335,-0.5988888888888889,-0.00040158389492570153,0.0020677406627122633,-0.0006892468875707544
1589985567.1724167,-3.699715024232633,-0.5725712439418417,9.05,0.3039371028540657,-0.38241292407108235,-0.6104447316460241,0.0016207031567792257,0.002462140769099755,-0.001090830782496456
1589985567.1824167,-3.7041533194556746,-0.57,9.032459958367024,0.31222222222222223,-0.3855555555555555,-0.6144444444444445,-0.00036943408027638154,0.0028194354763102355,0.00018471704013819077
1589985567.1924167,-3.7,-0.528599116210559,8.944098379719359,0.31222222222222223,-0.3855555555555555,-0.6144444444444445,7.640635801112877e-05,0.003272492347489368,0.00033814147482844243
1589985567.2024167,-3.7062031284262846,-0.5037968715737153,8.941015642131424,0.31222222222222223,-0.3855555555555555,-0.6144444444444445,0.001767487126013463,0.00056586697342134,-0.000676656343517007
1589985567.2124166,-3.71,-0.5152665240075978,8.96,0.31222222222222223,-0.3855555555555555,-0.6144444444444445,0.002181661564992912,-0.0005357243048561614,1.9382172784133218e-05
1589985567.2224166,-3.7039682673170184,-0.5360317326829815,8.947936534634037,0.3065255857994063,-0.3855555555555555,-0.6053968454199722,0.001194721612634984,-0.0013159199364772371,0.0007618507983771466
1589985567.2324166,-3.692210635494632,-0.5477893645053682,8.924421270989264,0.29542115574493,-0.3855555555555555,-0.5877603976863921,-0.00072911639553291,-0.0038810372807010956,0.00012057146232118208
1589985567.2424166,-3.698168909356936,-0.5826756374277422,8.879155453215322,0.2933333333333333,-0.3855555555555555,-0.5844444444444444,0.0006913487746972693,-0.0034722333513889612,-0.0008910897785968626
1589985567.2524166,-3.7,-0.5973911544841551,8.914346926904932,0.2933333333333333,-0.3855555555555555,-0.5844444444444444,-0.0013279188663545044,-4.749281568808793e-05,-0.001090830782496456
1589985567.2624166,-3.7,-0.5818666423535133,8.966266715292974,0.2933333333333333,-0.3855555555555555,-0.5844444444444444,-0.000862966584272563,-0.0008872116885840673,0.00022786419822389296
1589985567.2724166,-3.6855205373288555,-0.5410410746577112,9.05515758202015,0.2836803582192371,-0.3944041160768105,-0.5844444444444444,0.0007897321797846338,-0.0006021972054236443,-0.0004886335770728117
1589985567.2824166,-3.6932936586919314,-0.53,9.073353170654034,0.28,-0.3977777777777778,-0.5844444444444444,0.0018158873881544543,-0.0021751698169739948,0.0003592824288195407
1589985567.2924166,-3.692681248177311,-0.53,8.974856226305045,0.28,-0.3977777777777778,-0.5844444444444444,-0.00021339436829939445,-0.0016757883919611637,-0.0013042251507958504
1589985567.3024166,-3.69,-0.523377350859454,8.90688675429727,0.28,-0.3977777777777778,-0.5844444444444444,-0.001090830782496456,-0.001090830782496456,-0.0007368236561566557
1589985567.3124166,-3.69,-0.5557600534293983,8.91043431624537,0.28,-0.3977777777777778,-0.5844444444444444,-0.0022053498414823314,-0.0016480903119893936,0.0
1589985567.3224165,-3.685318072860417,-0.59,8.934681927139582,0.28260107063310186,-0.395176707144676,-0.5875657292041666,-0.0012296162493841594,-0.0032030996140455163,-0.0005107190245263022
1589985567.3324165,-3.6917502385625034,-0.5860832538124988,8.9439167461875,0.2855555555555556,-0.3922222222222223,-0.5911111111111111,-0.00019092141006910295,-0.0026543202065650784,-0.00023632932078608332
1589985567.3424165,-3.7067428115015977,-0.5702284345047923,8.933714057507986,0.2855555555555556,-0.3922222222222223,-0.5911111111111111,-0.0014710532693027287,0.0,-0.00033038580888391047
1589985567.3524165,-3.7,-0.5451475543162543,8.953376902521203,0.2855555555555556,-0.3922222222222223,-0.5911111111111111,-0.0010586394244443936,0.0010586394244443936,-0.0022138529230449743
1589985567.3624165,-3.7,-0.54,9.022952188211484,0.2855555555555556,-0.3922222222222223,-0.5911111111111111,-0.0002978421514228454,0.002181661564992912,-0.0006198759291039394
1589985567.3724165,-3.6952556067521236,-0.5494887864957527,9.063721966239381,0.28291978152895764,-0.3890592933903047,-0.5911111111111111,0.002181661564992912,0.0006290625052773656,0.0
1589985567.3824165,-3.69,-0.5540258004144109,9.048180602900874,0.28,-0.3855555555555555,-0.5911111111111111,0.0008782934032452582,-0.0004391467016226291,-0.0019550522426214807
1589985567.3924165,-3.7038034996998936,-0.5707052495498407,8.937179001800637,0.28,-0.3855555555555555,-0.5911111111111111,0.0015057282378824759,0.0,-0.001013899990665654
1589985567.4024165,-3.71,-0.5652751677852349,8.892637583892618,0.28,-0.3855555555555555,-0.5911111111111111,0.002181661564992912,0.0008031150123480619,0.0
1589985567.4124165,-3.704633795669824,-0.5653662043301759,8.906098612990528,0.28,-0.3855555555555555,-0.5911111111111111,0.00042557530443641323,0.0016761928693486221,0.0
1589985567.4224164,-3.7051799893181414,-0.57,8.940719957272567,0.28690665242418845,-0.3855555555555555,-0.5842044586869226,-0.001090830782496456,0.00161661238486977,0.001130098360246284
1589985567.4324164,-3.7031901325725793,-0.57,8.994049337137104,0.2933333333333333,-0.3855555555555555,-0.5777777777777777,-0.0003479894810414101,-0.0003948518204136358,0.001438820263537866
1589985567.4424164,-3.714107446363032,-0.5488388304554523,8.946516491366356,0.2933333333333333,-0.3855555555555555,-0.5777777777777777,0.0,-0.0041685981335389975,-0.0004480528930248147
1589985567.4524164,-3.7139279421593048,-0.5521441156813902,8.99286469408834,0.2933333333333333,-0.3855555555555555,-0.5777777777777777,0.0006623587605729134,-0.004129436391336453,0.00023388673864937082
1589985567.4624164,-3.705098580527357,-0.5550985805273569,9.035098580527356,0.2933333333333333,-0.3855555555555555,-0.5777777777777777,0.002160154630233782,-0.0027378304236207055,2.150693475913069e-05
1589985567.4724164,-3.6959351845744566,-0.5581296308510872,9.046259261702174,0.2933333333333333,-0.38239403244679937,-0.5804876547281401,0.002829089768354428,-0.002181661564992912,-0.000647428203361516
1589985567.4824164,-3.692993251767156,-0.57,9.04006748232844,0.2933333333333333,-0.37777777777777777,-0.5844444444444444,0.002508174681730472,-0.0018551484482553517,-0.00032651311673756033
1589985567.4924164,-3.702683341052957,-0.57,8.94584993052339,0.2933333333333333,-0.37777777777777777,-0.5844444444444444,0.003272492347489368,-0.000798123680446303,-0.000798123680446303
1589985567.5024164,-3.706211953924493,-0.57,8.891364138226521,0.2933333333333333,-0.37777777777777777,-0.5844444444444444,0.0012064337151503246,0.0,-0.0004132117264678087
1589985567.5124164,-3.7,-0.5686125902453366,8.91416222926399,0.2933333333333333,-0.37777777777777777,-0.5844444444444444,-0.002181661564992912,-0.0001513429268322645,-0.0007881449288319269
1589985567.5224164,-3.7,-0.5506985491671145,8.977205803331541,0.28971610245387786,-0.3844954922681951,-0.5875449280554063,-0.002181661564992912,-0.002612777116054784,0.0005835153379770134
1589985567.5324163,-3.7063827413055606,-0.5463827413055607,9.013617258694438,0.2855555555555556,-0.3922222222222223,-0.5911111111111111,-0.004270408772838088,0.0005104203549862532,-0.0013924981385634505
1589985567.5424163,-3.7005314526372084,-0.5547342736813958,8.967391536867437,0.2855555555555556,-0.3922222222222223,-0.5911111111111111,-0.0039048664731534677,0.0017232049081605558,-0.0016652324185499746
1589985567.5524163,-3.6855181892367823,-0.56,8.937927243052872,0.2855555555555556,-0.3922222222222223,-0.5911111111111111,0.0002627870059280432,0.0,-0.00011305135412807395
1589985567.5624163,-3.6849682387896587,-0.5450952836310236,8.989809432737953,0.2855555555555556,-0.3922222222222223,-0.5911111111111111,0.0038144431281446458,0.000541950780655278,0.000548880001841178
1589985567.5724163,-3.6858346688034187,-0.5383306623931624,9.028330662393161,0.2915721450617284,-0.38944533475783477,-0.5911111111111111,0.003908955981133467,0.0006364636336440993,0.0
1589985567.5824163,-3.690330166772219,-0.55,9.03483491661389,0.3,-0.3855555555555555,-0.5911111111111111,0.00045537637162481335,-0.0005634231951729109,-0.0011268463903458218
1589985567.5924163,-3.694290683378812,-0.5728372664847522,8.950069567303368,0.3,-0.3855555555555555,-0.5911111111111111,-0.004050031060216084,-0.0017136206142375134,-0.00031329206976973985
1589985567.6024163,-3.6955327753974294,-0.5844672246025707,8.917663876987145,0.3,-0.3855555555555555,-0.5911111111111111,-0.006057686084097766,-0.004595790251454856,-0.0007197657323500023
1589985567.6124163,-3.695647228381375,-0.5756472283813747,8.953058314855875,0.3,-0.3855555555555555,-0.5911111111111111,-0.007494612149133411,-0.004170916059592047,-0.0026564752920702497
1589985567.6224163,-3.69,-0.5665667007065002,8.9802998978805,0.29771113380433345,-0.3897518102476108,-0.5888222449154447,-0.007977616548997068,-0.001090830782496456,-0.00139991807005292
1589985567.6324162,-3.69,-0.56,9.004745207722218,0.2933333333333333,-0.3977777777777778,-0.5844444444444444,-0.00602736282970516,-0.0005732089172228802,0.0016640396997193363
1589985567.6424162,-3.6933233106504195,-0.5566766893495807,9.000060136097483,0.2933333333333333,-0.3977777777777778,-0.5844444444444444,-0.0032757722628030932,0.0007283138267688792,0.0
1589985567.6524162,-3.7,-0.544125656167979,8.983497375328085,0.2933333333333333,-0.3977777777777778,-0.5844444444444444,0.0014723352490782218,-0.0006407915078936694,0.0006407915078936694
1589985567.6624162,-3.7,-0.5726090534979424,9.009316872427984,0.2933333333333333,-0.3977777777777778,-0.5844444444444444,0.003780648909541215,0.0004336389036590849,7.451765839276204e-05
1589985567.6724162,-3.7,-0.6051163842594203,9.00534915277826,0.2895349655351047,-0.3950646579219002,-0.5914985560697262,0.0032978834540441197,0.0016489417270220599,-0.001090830782496456
1589985567.6824162,-3.7,-0.5710363454626657,9.001585461814933,0.2855555555555556,-0.3922222222222223,-0.5988888888888889,0.0009178837272762121,0.001090830782496456,-0.001090830782496456
1589985567.6924162,-3.7,-0.5619909094188521,8.966033332130875,0.2855555555555556,-0.3922222222222223,-0.5988888888888889,-0.0004360017701403532,-0.0006531762980649569,-0.001090830782496456
1589985567.7024162,-3.696574513526341,-0.5731490270526816,8.930829378262933,0.2855555555555556,-0.3922222222222223,-0.5988888888888889,-0.0018381560005950011,-0.0017778419112922782,-0.0007171681734471835
1589985567.7124162,-3.6944666325612574,-0.5555333674387426,8.99,0.2855555555555556,-0.3922222222222223,-0.5988888888888889,-0.0022980242891052494,0.0030397668992646933,-0.0004872340291920593
1589985567.7224162,-3.7,-0.542550801197394,9.004898397605212,0.2884524662010135,-0.3922222222222223,-0.5935089119758956,-0.001090830782496456,0.0038289908407185863,-0.0014971215504373794
1589985567.7324162,-3.688994023449975,-0.5410059765500251,9.041005976550025,0.2933333333333333,-0.3922222222222223,-0.5844444444444444,0.0007100179193337715,0.002291396583716608,-0.0009810957637727603
1589985567.7424161,-3.695959554864186,-0.5659595548641857,8.975522077300466,0.2933333333333333,-0.3922222222222223,-0.5844444444444444,0.004502884727765555,0.0026921865567962073,0.0005803057906931607
1589985567.7524161,-3.698917601049479,-0.5744588005247394,8.943247196851564,0.2933333333333333,-0.3922222222222223,-0.5844444444444444,0.007149435790935473,0.00036830827712269884,0.0022997329744099317
1589985567.7624161,-3.685575422506564,-0.5744245774934359,8.983273732480308,0.2933333333333333,-0.3922222222222223,-0.5844444444444444,0.007153168944537104,0.0003571088163178092,0.0013419062157370148
1589985567.772416,-3.6825138056757853,-0.5774861943242148,9.0,0.291378151141056,-0.3922222222222223,-0.5791375213511202,0.005722343711270506,0.0019074479037568357,-0.0013650444437325322
1589985567.782416,-3.6852649270540945,-0.5628973905811414,8.995264927054095,0.2855555555555556,-0.3922222222222223,-0.5633333333333334,0.003530750513827372,0.00031605628348244335,-0.0019234033986549077
1589985567.792416,-3.67739145493679,-0.5523190915613172,8.970144726750947,0.2855555555555556,-0.3922222222222223,-0.5633333333333334,0.002481996929739035,-0.0005690962504956646,-0.001090830782496456
1589985567.802416,-3.692956260359714,-0.5782604339328566,8.949391652853715,0.2855555555555556,-0.3922222222222223,-0.5633333333333334,-0.0014796691420026582,0.0028266175252829296,-0.001090830782496456
1589985567.812416,-3.695676683235427,-0.585676683235427,8.970263217352011,0.2855555555555556,-0.3922222222222223,-0.5633333333333334,-0.003272492347489368,0.002948521027202068,-0.0020340321843522937
1589985567.822416,-3.6861558771758265,-0.5761558771758263,9.017688245648348,0.2808571832148989,-0.3866696003650825,-0.5740114522893713,-0.0024338348458281967,0.0006715020316658704,-0.003272492347489368
1589985567.832416,-3.70206982364624,-0.5644825440884401,9.024482544088439,0.2733333333333333,-0.37777777777777777,-0.5911111111111111,0.00011289136738286171,0.0,-0.003272492347489368
1589985567.842416,-3.715689719209627,-0.5513794384192543,8.972586911305898,0.2733333333333333,-0.37777777777777777,-0.5911111111111111,0.001090830782496456,-0.00047017869673419147,-0.0037426710442235596
1589985567.852416,-3.7063109805841083,-0.5436890194158917,8.898932941752326,0.2733333333333333,-0.37777777777777777,-0.5911111111111111,0.0014932403761046282,-0.003102878750537316,-0.0027536847555531354
1589985567.862416,-3.696753795114105,-0.55,8.889738614657686,0.2733333333333333,-0.37777777777777777,-0.5911111111111111,0.0014734495218279263,-0.0072531967381437214,0.0
1589985567.872416,-3.6907300119203206,-0.55,8.90780996423904,0.2733333333333333,-0.37777777777777777,-0.5911111111111111,0.00015926389485500236,-0.008567382365116645,0.0
1589985567.882416,-3.682033327757799,-0.58,8.94,0.2855555555555556,-0.37777777777777777,-0.5844444444444444,-0.001756235735229878,-0.007857617128386332,-0.001959859914081771
1589985567.892416,-3.69,-0.58,8.938659171060442,0.2855555555555556,-0.37777777777777777,-0.5844444444444444,-0.004070799633719447,-0.007849075771172515,-0.001090830782496456
1589985567.902416,-3.694096926826937,-0.58,8.958678487788557,0.2855555555555556,-0.37777777777777777,-0.5844444444444444,-0.0017347561753470859,-0.0012878507857012598,-0.001090830782496456
1589985567.912416,-3.6932653659108223,-0.5698980488662331,9.0303058534013,0.2855555555555556,-0.37777777777777777,-0.5844444444444444,0.0007457557608348655,0.001101951925998793,0.000378438452168601
1589985567.922416,-3.6818193627786138,-0.5427225488855463,9.088180637221386,0.2845447984563259,-0.3791928377166993,-0.5899025327802847,0.004164861437641843,0.004066339116865293,0.003272492347489368
1589985567.932416,-3.687750083702243,-0.5122499162977567,9.08,0.28,-0.3855555555555555,-0.6144444444444445,0.0035179201430527236,0.007635815477475192,0.003272492347489368
1589985567.942416,-3.6839295619962398,-0.5082113140112805,9.024986132052643,0.28,-0.3855555555555555,-0.6144444444444445,0.004363323129985824,0.007635815477475192,0.002843843628766705
1589985567.952416,-3.6927855053429646,-0.5067130320577876,8.928857978628141,0.28,-0.3855555555555555,-0.6144444444444445,0.004059471632694411,0.006116557991018125,0.0015739585704100854
1589985567.962416,-3.6928686929481396,-0.5535656535259305,8.89643434647407,0.28,-0.3855555555555555,-0.6144444444444445,0.001716682497168613,0.0025706140275731006,0.0
1589985567.972416,-3.6892921020427374,-0.5569026326524209,8.89619473469516,0.28412982313010554,-0.39140613832320503,-0.6030874308366542,-0.0014287011472403298,0.003272492347489368,0.0003378703647438739
1589985567.982416,-3.71,-0.55,8.92849585014142,0.2933333333333333,-0.4044444444444445,-0.5777777777777777,-0.003190453699128017,0.0027680962804218154,0.001090830782496456
1589985567.992416,-3.7066409342479987,-0.5567181315040032,8.946640934247998,0.2933333333333333,-0.4044444444444445,-0.5777777777777777,-0.004363323129985824,0.002548078797264205,0.0007244135502251634
1589985568.002416,-3.6983989207686236,-0.57,8.956010792313766,0.2933333333333333,-0.4044444444444445,-0.5777777777777777,-0.004363323129985824,0.0030978416964092233,-0.00017465065108014462
1589985568.012416,-3.6922949605088418,-0.57,9.046884881526525,0.2933333333333333,-0.4044444444444445,-0.5777777777777777,-0.0036122990596883058,0.002181661564992912,-0.0008404894257306166
1589985568.0224159,-3.6981582442161183,-0.57,9.064474732648353,0.2933333333333333,-0.4044444444444445,-0.5777777777777777,-0.0016935439533662736,0.002181661564992912,-0.00020090439028993927
1589985568.0324159,-3.6980495778844564,-0.58,9.074148733653368,0.3,-0.37777777777777777,-0.5844444444444444,0.000878072734246754,0.000984451758371605,0.000878072734246754
1589985568.0424159,-3.6806919384207912,-0.58,9.022075815262374,0.3,-0.37777777777777777,-0.5844444444444444,-0.0010153520095973468,3.773938644955461e-05,-0.0010153520095973468
1589985568.0524158,-3.697325093325236,-0.5653498133495276,8.87,0.3,-0.37777777777777777,-0.5844444444444444,0.002980705293375611,-0.0018898745108791547,-0.001014513348537883
1589985568.0624158,-3.69,-0.579235522502324,8.871274129162792,0.3,-0.37777777777777777,-0.5844444444444444,0.0020704728200608073,-0.0011186279687294821,0.0021260671925268596
1589985568.0724158,-3.691310524126456,-0.55,8.926552620632279,0.29737895174708817,-0.37777777777777777,-0.5863374237382141,-0.0018957495533244357,-0.00232461757082715,-0.0002859120116684762
1589985568.0824158,-3.7,-0.5500632813705819,8.970379688223492,0.28,-0.37777777777777777,-0.5988888888888889,0.0,-0.003244880640693656,-0.00218856449169184
1589985568.0924158,-3.703201827242525,-0.5567981727574751,9.01078903654485,0.28,-0.37777777777777777,-0.5988888888888889,0.0010477955149145776,-0.0006554950756945065,-0.0015261664892984054
1589985568.1024158,-3.7035399590163935,-0.5521533469945356,8.98938012295082,0.28,-0.37777777777777777,-0.5988888888888889,0.003272492347489368,-0.003188854536468038,0.0017118741275857976
1589985568.1124158,-3.6828215547703183,-0.5571784452296821,9.054356890459363,0.28,-0.37777777777777777,-0.5988888888888889,0.004503627866674414,0.00016747914310767133,0.0003077838797962615
1589985568.1224158,-3.6950066743240306,-0.5433244342346258,9.031655542793281,0.28333778288268713,-0.37907580445437833,-0.5964782679180594,0.00690762421473022,-0.002181661564992912,0.001090830782496456
1589985568.1324158,-3.7128042680893634,-0.5243914638212738,8.950423474491497,0.3,-0.3855555555555555,-0.5844444444444444,0.0024875597604178934,-0.0033590604456001233,0.0014832970760321933
1589985568.1424158,-3.6965685582158234,-0.5534314417841767,8.862842791079117,0.3,-0.3855555555555555,-0.5844444444444444,-0.0007807303807657391,-0.0058284661451347185,0.0010587248670355946
1589985568.1524158,-3.69,-0.5634272791445528,8.847136395722764,0.3,-0.3855555555555555,-0.5844444444444444,-0.006232613925528981,-0.0076665591723046305,-0.0014646889416050873
1589985568.1624157,-3.6846723949333375,-0.5673361974666687,8.917293235466637,0.3,-0.3855555555555555,-0.5844444444444444,-0.009236325482098158,-0.006911719240618369,-0.0016005100046229646
1589985568.1724157,-3.671373832812822,-0.5606869164064111,9.010383170310245,0.3,-0.3855555555555555,-0.5844444444444444,-0.0077856773896981864,0.00034152122138148173,-0.0001498619122229949
1589985568.1824157,-3.702646584037867,-0.597353415962133,9.103232920189335,0.3,-0.3922222222222223,-0.5988888888888889,-0.00240639974639865,0.002983794813792462,-0.001892964031296006
1589985568.1924157,-3.7068075684380033,-0.5995772946859903,9.117652979066023,0.3,-0.3922222222222223,-0.5988888888888889,0.001741201309419665,0.001833421303108979,-0.0007425905206125229
1589985568.2024157,-3.7018364177317045,-0.6163271645365918,9.07,0.3,-0.3922222222222223,-0.5988888888888889,0.006055120209861832,0.0012911528816229735,-0.00020032209912651744
1589985568.2124157,-3.7096848861361127,-0.6006302277277745,9.07,0.3,-0.3922222222222223,-0.5988888888888889,0.008623525489155756,0.0021472879747209475,-0.0010564571922244918
1589985568.2224157,-3.6961808685920357,-0.5812730438026549,9.00745391239469,0.3008486958684366,-0.3922222222222223,-0.5988888888888889,0.008587778723231418,-0.0006943376837011514,0.0008130957090159954
1589985568.2324157,-3.6767102048714415,-0.6369714341000895,8.969869385385676,0.30666666666666664,-0.3922222222222223,-0.5988888888888889,0.008367785280537783,-0.0036242294048258036,-0.0003588609794338654
1589985568.2424157,-3.6677788014895003,-0.8355506929248724,8.880002303351375,0.30666666666666664,-0.3922222222222223,-0.5988888888888889,0.007999509490526815,0.00030299459199021483,0.0001818470065258113
1589985568.2524157,-3.6460950818617515,-1.0863993695519316,8.755553089517193,0.30666666666666664,-0.3922222222222223,-0.5988888888888889,0.0020609961508269593,0.00048508268416525154,-0.002333098589575713
1589985568.2624156,-3.792236283540248,-0.8670965158189827,8.811871045254305,0.30666666666666664,-0.3922222222222223,-0.5988888888888889,-0.005719238461468603,-0.005128084190393631,-0.004597915092420985
1589985568.2724156,-3.577230116139367,-0.6655282338806567,8.872341529835804,0.30666666666666664,-0.3922222222222223,-0.5988888888888889,-0.006452161417179437,-0.010258544880369473,-0.008262529870975158
1589985568.2824156,-3.700439313233697,-0.3336262088224647,9.09,0.2933333333333333,-0.37777777777777777,-0.57,-0.0016861986305839356,-0.0013385622497009441,-0.0036201287283723596
1589985568.2924156,-3.715646902772251,-0.360816553919618,9.070816553919618,0.2933333333333333,-0.37777777777777777,-0.57,0.00034876489164736136,-0.003925486023229719,-0.0014395956741438173
1589985568.3024156,-3.6671541868369553,-0.3804387681532599,9.040073128025544,0.2933333333333333,-0.37777777777777777,-0.57,0.0014571000533728023,-0.006170738393969807,-0.0010828537523638727
1589985568.3124156,-3.79025979243388,-0.5032467358553733,9.06,0.2933333333333333,-0.37777777777777777,-0.57,0.002004579594309105,-0.002918328406121754,0.00038250289976122793
1589985568.3224156,-3.7481342484097757,-0.5172885838634081,9.06,0.2933333333333333,-0.37777777777777777,-0.57,0.0012387155917940587,-0.0013866004010916614,-0.0026809531102989564
1589985568.3324156,-3.6278391778599115,-0.5908263469455212,9.008453379007783,0.2933333333333333,-0.3977777777777778,-0.6144444444444445,-0.0006748407148663432,-0.0012595409612130419,-0.0003374203574331716
1589985568.3424156,-3.731810886252617,-0.6273227700012315,8.946141578752925,0.2933333333333333,-0.3977777777777778,-0.6144444444444445,-0.005290961400401153,-0.0024908743217980215,-0.0012540232945775828
1589985568.3524156,-3.6345602188718784,-0.5679533150940101,8.82637347924792,0.2933333333333333,-0.3977777777777778,-0.6144444444444445,-0.007635815477475192,-0.0030492336577369063,-0.0004719800457707755
1589985568.3624156,-3.73,-0.56,8.89,0.2933333333333333,-0.3977777777777778,-0.6144444444444445,-0.007635815477475192,-0.002181661564992912,-0.006544984694978735
1589985568.3724155,-3.6568720107136024,-0.530748804285441,8.919251195714558,0.2933333333333333,-0.3977777777777778,-0.6144444444444445,-0.0068381128597184565,-0.002181661564992912,-0.007342687312735471
1589985568.3824155,-3.816800401203611,-0.46551654964894684,8.976700100300903,0.28727961662766077,-0.38826479438314937,-0.6023370110330993,-0.0014507939995890675,0.0012144655652668664,-0.0008435612169556354
1589985568.3924155,-3.624911156215504,-0.3910501014848841,8.99,0.2855555555555556,-0.3855555555555555,-0.5988888888888889,0.0038082163852414287,-0.005741398638350644,0.005339605610036598
1589985568.4024155,-3.654781896521027,-0.45825926717231064,8.99,0.2855555555555556,-0.3855555555555555,-0.5988888888888889,0.007066608687363627,-0.0008538101851673467,-0.001991777069738348
1589985568.4124155,-3.706664430059994,-0.570006709820019,9.003342279760025,0.2855555555555556,-0.3855555555555555,-0.5988888888888889,0.007817010668039462,0.0036356146564400747,-0.005999203339819423
1589985568.4224155,-3.6901097252920745,-0.6196708241237765,9.069561098831702,0.2855555555555556,-0.3855555555555555,-0.5988888888888889,0.003302415279042693,2.393834524265937e-05,-0.003290446106421363
1589985568.4324155,-3.6503512119766466,-0.6024975578727367,9.011785365410391,0.2855555555555556,-0.3977777777777778,-0.6144444444444445,0.00011706500866701336,-0.00186984340156001,0.0005065713181987903
1589985568.4424155,-3.77024308840534,-0.6372035635446232,9.004802375696414,0.2855555555555556,-0.3977777777777778,-0.6144444444444445,-0.005026444586432476,-0.006614616461263921,-0.0013527597444345963
1589985568.4524155,-3.6641259889535753,-0.5079370055232124,8.92,0.2855555555555556,-0.3977777777777778,-0.6144444444444445,-0.009401759623791667,-0.012639893814077457,0.0016972278319093241
1589985568.4624155,-3.6790448075056617,-0.5028655774830152,8.919044807505662,0.2855555555555556,-0.3977777777777778,-0.6144444444444445,-0.011686552594650845,-0.01090830782496456,-0.0046759091427959944
1589985568.4724154,-3.6705639356195405,-0.5283081931413782,8.91056393561954,0.2855555555555556,-0.3977777777777778,-0.6144444444444445,-0.008911193759913977,-0.01090830782496456,-0.007451267977532863
1589985568.4824154,-3.6888145407366473,-0.6428872444198842,8.95703635184162,0.2803292942398202,-0.3862800028831599,-0.5862226333394733,-0.002569602201751099,-0.009882133815261136,-0.0035311194386614935
1589985568.4924154,-3.6568930641865123,-0.6831069358134879,8.982491971472662,0.28,-0.3855555555555555,-0.5844444444444444,0.006682652207504668,0.0015003302141705854,0.0006813313508223266
1589985568.5024154,-3.7151177967039044,-0.5975981639199204,8.954960734432031,0.28,-0.3855555555555555,-0.5844444444444444,0.011908949910423508,0.0031823036504518613,-0.0008202646913839349
1589985568.5124154,-3.5824875183035476,-0.46154702468112135,9.017735123405606,0.28,-0.3855555555555555,-0.5844444444444444,0.010233290967584997,0.0023504157793378024,0.00133789049326846
1589985568.5224154,-3.7378785526524707,-0.46894659774535574,9.05473298872678,0.28,-0.3855555555555555,-0.5844444444444444,0.007004618137265583,0.0031575839869176564,-0.002697950544630809
1589985568.5324154,-3.585454898345383,-0.2954548983453831,9.094909020330924,0.2848484750459616,-0.3855555555555555,-0.5970504795639445,-0.0010709820977744342,-0.003391478596169655,-0.00041650480020692963
1589985568.5424154,-3.7691302332115764,-0.3324751334644563,9.01591949985951,0.2855555555555556,-0.3855555555555555,-0.5988888888888889,-0.008336288832439339,-0.014005681833712888,-0.0023567799037339486
1589985568.5524154,-3.6925273953357687,-0.4149704973307109,8.92753161000281,0.2855555555555556,-0.3855555555555555,-0.5988888888888889,-0.010907388327255234,-0.013362906960008915,-0.002999554777437923
1589985568.5624154,-3.677171012842862,-0.4929275321071543,8.907171012842863,0.2855555555555556,-0.3855555555555555,-0.5988888888888889,-0.012935672076242792,-0.006534235108485032,-0.0004628919411440364
1589985568.5724154,-3.68,-0.5420663675142652,8.93804424500951,0.2855555555555556,-0.3855555555555555,-0.5988888888888889,-0.01156039310354516,-0.00545415391248228,-0.002294364429618467
1589985568.5824153,-3.6894389475227207,-0.5694389475227206,8.968877895045441,0.299189590866152,-0.3782141519267728,-0.5936450291540442,-0.006789790020103636,-0.0033948950100518185,0.0008460254573715549
1589985568.5924153,-3.69833735635741,-0.5616626436425904,9.011686781787049,0.3,-0.37777777777777777,-0.5933333333333334,-0.0029071267112567765,-0.002363027851558878,-0.0007280982093645241
1589985568.6024153,-3.67239526595387,-0.563592898930805,8.998383430838546,0.3,-0.37777777777777777,-0.5933333333333334,0.00026128298347470754,-0.003971398654773762,0.002749926380539953
1589985568.6124153,-3.6864975455584696,-0.5847463183377042,9.047741409454643,0.3,-0.37777777777777777,-0.5933333333333334,0.001799603053081622,-0.0016639185503633906,-0.00032671375867387607
1589985568.6224153,-3.671658667132094,-0.5716586671320941,9.032488000698141,0.3,-0.37777777777777777,-0.5933333333333334,-0.0008194320076559468,-0.006092653403577886,-0.001090830782496456
1589985568.6324153,-3.6926035001156428,-0.57,9.037534500038547,0.28493099992290494,-0.3928467778548728,-0.5866359999657356,-0.005200263068880645,-0.0049012117804250604,-0.001090830782496456
1589985568.6424153,-3.6810413648398863,-0.5479172703202279,8.942710446120797,0.28,-0.3977777777777778,-0.5844444444444444,-0.009817477042468105,-0.004249727847670099,0.0019544710003614623
1589985568.6524153,-3.685907346306646,-0.5286357821022154,8.889549525284494,0.28,-0.3977777777777778,-0.5844444444444444,-0.010263916305548938,-0.0028260530844085347,-0.0001488130876936112
1589985568.6624153,-3.662087731267809,-0.5165204478869848,8.95695910422603,0.28,-0.3977777777777778,-0.5844444444444444,-0.012862233236706816,0.00022773615325065474,-0.0008630946292458012
1589985568.6724153,-3.6873373600353174,-0.47443773327447125,9.041124533451057,0.28,-0.3977777777777778,-0.5844444444444444,-0.010107926006086227,0.0029820433838712466,0.0018912126013747906
1589985568.6824152,-3.7057922427762695,-0.47,9.057896121388135,0.28438673410451937,-0.3933910436732585,-0.5791803635190212,-0.006372144133465681,0.003272492347489368,0.0013203283377423063
1589985568.6924152,-3.708647210678756,-0.5060875519455987,9.023236053393779,0.2855555555555556,-0.3922222222222223,-0.5777777777777777,0.001312180417573301,0.0019603119299160666,0.002181661564992912
1589985568.7024152,-3.695442639466062,-0.5655081224027201,8.957213197330312,0.2855555555555556,-0.3922222222222223,-0.5777777777777777,0.0034727733298442146,-0.0002002809823548465,0.002181661564992912
1589985568.7124152,-3.69,-0.6187343149061808,8.977890524843636,0.2855555555555556,-0.3922222222222223,-0.5777777777777777,0.007497750651346702,0.0020435967388644227,0.002181661564992912
1589985568.7224152,-3.6713162507812145,-0.6511395820313096,9.004911665625048,0.2855555555555556,-0.3922222222222223,-0.5777777777777777,0.006277094892122153,0.0015023012723163927,0.0008229409796398732
1589985568.7324152,-3.6783089644403435,-0.67,9.007794023706438,0.2855555555555556,-0.39561277119265625,-0.5777777777777777,0.0027912229781943167,0.00042509804892446523,-0.0006657327335719907
1589985568.7424152,-3.680981591518117,-0.6429447745543516,8.990981591518118,0.2855555555555556,-0.3977777777777778,-0.5777777777777777,-0.0018604364918530087,0.001967511516232976,-0.002074586540612944
1589985568.7524152,-3.67,-0.598596715717637,8.904911494988271,0.2855555555555556,-0.3977777777777778,-0.5777777777777777,-0.002258198849582661,0.001090830782496456,-0.0020285869958134137
1589985568.7624152,-3.67,-0.5848352117066128,8.953076759026855,0.2855555555555556,-0.3977777777777778,-0.5777777777777777,-0.0030087724590163417,0.001090830782496456,-0.0005274397769460528
1589985568.7724152,-3.6932245397376433,-0.5645169735082378,9.016449079475287,0.2855555555555556,-0.3977777777777778,-0.5777777777777777,-0.003272492347489368,-0.0005981054078457789,0.0
1589985568.7824152,-3.692755432466979,-0.5527554324669792,9.022755432466978,0.29119021919234955,-0.38892330634853,-0.593071864791933,-0.001691972893310651,-0.0018810905095858143,-0.0007902597270893584
1589985568.7924151,-3.6892509207556134,-0.5529963169775455,8.970261969822978,0.2933333333333333,-0.3855555555555555,-0.5988888888888889,0.002099949695162329,-0.002863932998336454,-8.171186983058281e-05
1589985568.8024151,-3.6809457051205894,-0.5862171795176429,8.86229416656766,0.2933333333333333,-0.3855555555555555,-0.5988888888888889,0.0011939912081667873,0.0016658594366412557,-0.0009876703568261246
1589985568.8124151,-3.68,-0.589556726350816,8.902438005070513,0.2933333333333333,-0.3855555555555555,-0.5988888888888889,0.006472454213738825,-0.0010183003012565455,-4.835365415994035e-05
1589985568.822415,-3.68,-0.5729416891142449,8.993820709871652,0.2933333333333333,-0.3855555555555555,-0.5988888888888889,0.00375382510324234,0.0017003288092399401,-0.0018607730611575972
1589985568.832415,-3.69,-0.5473064653094949,9.047306465309495,0.31222222222222223,-0.3855555555555555,-0.57,0.0006990720419464446,0.002083721879855409,-0.0011887704676339587
1589985568.842415,-3.689012687228478,-0.5190126872284782,9.016544405299673,0.31222222222222223,-0.3855555555555555,-0.57,-0.003164793231176579,0.0008754325498708779,-0.002073962448680123
1589985568.852415,-3.6708818380271033,-0.5008818380271035,8.953086433094862,0.31222222222222223,-0.3855555555555555,-0.57,-0.0011870243890105057,-0.003080105134461268,-9.619360651404998e-05
1589985568.862415,-3.6793495630169404,-0.5093495630169405,8.968699126033881,0.31222222222222223,-0.3855555555555555,-0.57,-0.0031305890108502647,-0.0012327341191355596,0.0
1589985568.872415,-3.68,-0.5220967941194639,8.994193588238927,0.31222222222222223,-0.3855555555555555,-0.57,-0.005251825656744357,-0.001750608552248119,0.0
1589985568.882415,-3.6733338768189787,-0.5566644927240859,9.016666123181022,0.2862984098515831,-0.3774080716676404,-0.5751847624741278,-0.002909178512093022,-0.0007273390918386266,-0.0014543224731542854
1589985568.892415,-3.6894001378993337,-0.6411338389642228,8.987666436834445,0.2733333333333333,-0.37333333333333335,-0.5777777777777777,0.0017308048982060903,0.00423245352105382,0.0006399741157096343
1589985568.902415,-3.7,-0.68,8.893760850166302,0.2733333333333333,-0.37333333333333335,-0.5777777777777777,0.006391142777612784,0.006544984694978735,-0.0009369888651305043
1589985568.912415,-3.692745254994041,-0.6292167849582866,8.926273725029795,0.2733333333333333,-0.37333333333333335,-0.5777777777777777,0.006544984694978735,0.0025881351091474516,0.0004919090518360576
1589985568.922415,-3.69,-0.5897138047138046,8.98057239057239,0.2733333333333333,-0.37333333333333335,-0.5777777777777777,0.004332104067187104,-0.0018596767212257202,0.001828457658427
1589985568.932415,-3.69,-0.5672874652294854,9.012712534770515,0.2811021045819812,-0.38887087583062896,-0.5820152893679493,0.0025791311349276755,-0.0018857699223659829,0.0007949391398695269
1589985568.942415,-3.6803919398542155,-0.5311758195626455,9.02,0.2855555555555556,-0.3977777777777778,-0.5844444444444444,-0.0020106455418468813,-0.0042350611126263015,0.0020961535534198966
1589985568.952415,-3.6894461502943554,-0.53,8.925538497056447,0.2855555555555556,-0.3977777777777778,-0.5844444444444444,-0.002181661564992912,-0.0012720776748346065,0.0001208312615587669
1589985568.962415,-3.6801248349738467,-0.4790013202092281,8.94037450492154,0.2855555555555556,-0.3977777777777778,-0.5844444444444444,-0.005467771295702669,0.001090830782496456,0.0032180228146078123
1589985568.972415,-3.68713414328448,-0.42292685372415983,8.96140242985344,0.2855555555555556,-0.3977777777777778,-0.5844444444444444,-0.006232368222627398,0.001090830782496456,0.00015963510690889665
1589985568.982415,-3.6992270477466414,-0.47381638197313086,8.997681143239925,0.2804294179185326,-0.3926516401407549,-0.5844444444444444,-0.006544984694978735,8.431601113636036e-05,-0.0020973455538565514
1589985568.992415,-3.6607608454932454,-0.6075272521469525,9.029429365880066,0.28,-0.3922222222222223,-0.5844444444444444,-0.00012449305271336822,-0.0010700819403775613,0.003168748136894895
1589985569.002415,-3.6799539561371626,-0.769631649097298,8.95018417545135,0.28,-0.3922222222222223,-0.5844444444444444,0.00870655583480026,0.0054390860936037394,-0.0021691050492607953
1589985569.012415,-3.7086747978621353,-0.6696382074825271,8.964337398931068,0.28,-0.3922222222222223,-0.5844444444444444,0.004816727236236578,0.00545415391248228,-0.002181661564992912
1589985569.022415,-3.7032996566622316,-0.5882491416555781,8.98670034333777,0.28,-0.3922222222222223,-0.5844444444444444,0.004183354777044259,0.005909585127259725,-0.002181661564992912
1589985569.032415,-3.68,-0.5122154750244858,9.01762193927522,0.28338752856676463,-0.3885523996082273,-0.5881142670584394,0.00517701237969131,0.005990701629396794,-0.0019045200322019417
1589985569.042415,-3.6637624955689474,-0.42752499113789433,8.966931230060261,0.2933333333333333,-0.37777777777777777,-0.5988888888888889,0.0017064676803385712,0.00967703402928033,-0.00020521229928070523
1589985569.052415,-3.6014608424710888,-0.39073042123554436,8.847556474324405,0.2933333333333333,-0.37777777777777777,-0.5988888888888889,-0.009285820407269697,0.017293939326359118,0.0
1589985569.062415,-3.5503426324658305,-0.4215203145478375,8.798137052986332,0.2933333333333333,-0.37777777777777777,-0.5988888888888889,-0.02667746055227243,0.04486886624352114,-0.004529163720771654
1589985569.0724149,-3.6343849269955992,-0.5739571008072742,8.874812753183924,0.2933333333333333,-0.37777777777777777,-0.5988888888888889,-0.0530773595616998,0.0984722350483461,-0.014040794379718977
1589985569.0824149,-3.742814076246334,-0.6693411534701857,8.984550537634409,0.2887691539046378,-0.37777777777777777,-0.5943247094601933,-0.072419349290052,0.13189246720527903,-0.02321441453180493
1589985569.0924149,-3.8110674828306954,-0.6666993878769782,9.099901836369064,0.2855555555555556,-0.37777777777777777,-0.5911111111111111,-0.07370000796612074,0.12909948924713815,-0.02811800372757147
1589985569.1024148,-3.7490519877675843,-0.4205504587155964,8.933761467889909,0.2855555555555556,-0.37777777777777777,-0.5911111111111111,-0.05264676271975249,0.08868420902956661,-0.027394196898657176
1589985569.1124148,-3.74,-0.3525870098652912,8.956766237668386,0.2855555555555556,-0.37777777777777777,-0.5911111111111111,-0.04099568670139724,0.054405820306699076,-0.021149083366784907
1589985569.1224148,-3.767553377668883,-0.38444172208610433,9.001330066503325,0.2855555555555556,-0.37777777777777777,-0.5911111111111111,-0.04261494439159151,0.050857073933681454,-0.006449150419022625
1589985569.1324148,-3.846917298438744,-0.44182331152421506,9.061823311524215,0.29206140401487785,-0.37406015008673643,-0.6031934011069954,-0.04363323129985824,0.04652844354391277,0.031023065832855724
1589985569.1424148,-3.86,-0.5107172506298827,9.049760916456705,0.2933333333333333,-0.37333333333333335,-0.6055555555555555,-0.039953662076767774,0.02594521906016263,0.06799662807883942
1589985569.1524148,-3.8512453477340727,-0.6187918703933445,8.969962781872583,0.2933333333333333,-0.37333333333333335,-0.6055555555555555,-0.01812440460575198,-0.005602179880522282,0.11155267201490776
1589985569.1624148,-3.8047865474430282,-0.657128071534183,8.96,0.2933333333333333,-0.37333333333333335,-0.6055555555555555,0.003470054861242921,-0.025495523042881447,0.14028817586066814
1589985569.1724148,-3.7716055493063365,-0.6812958380202474,8.917408323959506,0.2933333333333333,-0.37333333333333335,-0.6055555555555555,0.010874523564509287,-0.029593785127565834,0.15219089476765343
1589985569.1824148,-3.709211530670988,-0.6730705102236626,8.933858979552676,0.2933333333333333,-0.36580911565496116,-0.593642210898133,0.005703085957962324,-0.02254080485857269,0.1541420810389944
1589985569.1924148,-3.67,-0.6681040654082363,8.968104065408237,0.2933333333333333,-0.36,-0.5844444444444444,-0.008840164010668878,0.003085899086024694,0.13591999792923298
1589985569.2024148,-3.6875461697525727,-0.7050923395051458,8.926134575618567,0.2933333333333333,-0.36,-0.5844444444444444,-0.008037322512812348,0.010506800789627405,0.1023236764564983
1589985569.2124147,-3.7350944916367457,-0.6971158595323583,8.952210351169105,0.2933333333333333,-0.36,-0.5844444444444444,0.005715880699231013,-0.0010379466489304646,0.07147137807126862
1589985569.2224147,-3.76,-0.6776189931022639,8.97619050344887,0.2933333333333333,-0.36,-0.5844444444444444,0.021193319455368335,-0.019790840575591488,0.031062592149347975
1589985569.2324147,-3.716045254981425,-0.6524181019925701,8.94483620398514,0.2864959285526662,-0.37562835378438214,-0.6108172914555894,0.030015713892158475,-0.03781915112108112,-0.017332457499119637
1589985569.2424147,-3.701032961328835,-0.5872307293018427,8.913098883986503,0.2855555555555556,-0.37777777777777777,-0.6144444444444445,0.018805435737488864,-0.025575777635391858,-0.039423354908546974
1589985569.2524147,-3.7121583350864986,-0.5739208324567507,8.897841664913502,0.2855555555555556,-0.37777777777777777,-0.6144444444444445,-0.00045133381800668143,-0.0014517107152813187,-0.04675664420536902
1589985569.2624147,-3.7633518231503382,-0.5916759115751692,8.940577127008728,0.2855555555555556,-0.37777777777777777,-0.6144444444444445,-0.02697414794454274,0.034370245816336756,-0.04702558245018819
1589985569.2724147,-3.7978917533646745,-0.6238556711528996,9.013675260094026,0.2855555555555556,-0.37777777777777777,-0.6144444444444445,-0.03662829853949803,0.04059071298505961,-0.03995983026794462
1589985569.2824147,-3.7955880019044597,-0.6904419933343914,9.06441199809554,0.2855555555555556,-0.3833824437038212,-0.6032351125923575,-0.02276280445198187,0.0274791197999506,-0.03363925814839868
1589985569.2924147,-3.765416637317743,-0.6936110915451621,9.020833274635486,0.2855555555555556,-0.3855555555555555,-0.5988888888888889,0.0024089403883094246,0.004136044306669313,-0.038982057516812434
1589985569.3024147,-3.7436637653511387,-0.5674782401335401,8.846637653511387,0.2855555555555556,-0.3855555555555555,-0.5988888888888889,0.026147059082548173,-0.02138408115007575,-0.0644178302462041
1589985569.3124146,-3.74,-0.4723415676277333,8.828452299737892,0.2855555555555556,-0.3855555555555555,-0.5988888888888889,0.02920137280577125,-0.031547495196433,-0.0865867838813921
1589985569.3224146,-3.74,-0.3080622713890624,8.882678205013828,0.2855555555555556,-0.3855555555555555,-0.5988888888888889,0.01905066039075218,-0.030251115062808753,-0.10306954389842751
1589985569.3324146,-3.7219613161683394,-0.23,8.916012894610553,0.29023225136376385,-0.39290464896845434,-0.5942121930806806,0.0052191087502388486,-0.01612038365614335,-0.10362189141810325
1589985569.3424146,-3.6592314533461794,-0.29769139553842733,8.97076854665382,0.2933333333333333,-0.3977777777777778,-0.5911111111111111,-0.012921975143605465,0.011579314679979793,-0.08298729828130545
1589985569.3524146,-3.7186017699115044,-0.5586814159292035,8.93712389380531,0.2933333333333333,-0.3977777777777778,-0.5911111111111111,-0.02743198083734672,0.040527742249158144,-0.049697478180958
1589985569.3624146,-3.7799822479678595,-0.7082948705970289,9.021634121274408,0.2933333333333333,-0.3977777777777778,-0.5911111111111111,-0.043082974792832324,0.05199368537058295,-0.010193351463270398
1589985569.3724146,-3.775309267468862,-0.7446907325311378,9.04,0.2933333333333333,-0.3977777777777778,-0.5911111111111111,-0.04020610672301562,0.04383564638489399,0.04239905195031428
1589985569.3824146,-3.724122535695317,-0.75,9.04,0.2861968388859382,-0.39268028174392416,-0.5849941158704867,-0.01816125727280357,0.019342027832067864,0.1149547585756113
1589985569.3924146,-3.5007970627193084,-0.5216636069992796,8.747729416959078,0.2855555555555556,-0.3922222222222223,-0.5844444444444444,0.015519313142475597,0.005497626939972376,0.16283252106950594
1589985569.4024146,-3.4517216117216116,-0.3868864468864469,8.712930402930404,0.2855555555555556,-0.3922222222222223,-0.5844444444444444,0.030111724457484584,-0.007204278025059009,0.1815494045183479
1589985569.4124146,-3.4731944385570768,-0.41745368996651266,8.875972192785385,0.2855555555555556,-0.3922222222222223,-0.5844444444444444,0.0047319888850976925,-0.007171203222694793,0.17012162881961287
1589985569.4224145,-3.4892944738057365,-0.43717789522294626,9.074233157165581,0.2855555555555556,-0.3922222222222223,-0.5844444444444444,-0.020802745836488678,0.01307659217424519,0.13496855036904876
1589985569.4324145,-2.6711631731812293,-0.09981313643839451,9.004922140182664,0.2920410742127507,-0.3764716769118911,-0.5668408938034861,-0.0036247783569256196,0.007259748540107552,0.08306399473506432
1589985569.4424145,-2.6176904080659447,-0.11601675863478439,9.049682028748553,0.2933333333333333,-0.37333333333333335,-0.5633333333333334,-0.0048370828510915205,0.024693859259466103,0.04940869317581344
1589985569.4524145,-2.809740718681755,-0.25730553901131625,8.944041691483026,0.2933333333333333,-0.37333333333333335,-0.5633333333333334,0.003863104559128106,0.01674400346319674,-0.005103667404959496
1589985569.4624145,-3.2068601849514673,-0.4676959085798206,8.97825305766539,0.2933333333333333,-0.37333333333333335,-0.5633333333333334,0.012128924917547159,0.020375048941313652,-0.027209994025113586
1589985569.4724145,-3.291137012369172,-0.5140913415794481,8.982954329210276,0.2933333333333333,-0.37333333333333335,-0.5633333333333334,0.006172898267267052,0.020279488733775695,-0.024072486920867317
1589985569.4824145,-3.316396713259149,-0.47900821685212697,8.963603286740852,0.2987989044197164,-0.38881911807808545,-0.5751754040204966,0.005955398280716529,0.01963495408493621,0.005012443682342497
1589985569.4924145,-3.3098984393380912,-0.4531640655634852,8.96,0.3,-0.3922222222222223,-0.5777777777777777,0.006544984694978735,0.017431135420683114,0.02156009803552118
1589985569.5024145,-2.4152413611184382,-0.9811659192825111,9.119547173129341,0.3,-0.3922222222222223,-0.5777777777777777,0.00834538780921781,0.014890372504196543,0.053944953574209246
1589985569.5124145,-1.7151913148030271,-1.1665563335455125,8.82464318551524,0.3,-0.3922222222222223,-0.5777777777777777,0.05124536157680818,0.052819000127666105,0.0914391468681457
1589985569.5224144,-1.7780753906321722,-0.9767548610983604,8.554490755191598,0.3,-0.3922222222222223,-0.5777777777777777,0.08266024971155841,0.07280573934156821,0.14399783505677338
1589985569.5324144,-1.9550365789275208,-0.8517474922694019,8.983362244513161,0.3,-0.3865345132446723,-0.6014765651842354,0.0015169944036844546,0.002997049142134653,0.2061445579172
1589985569.5424144,-1.98,-0.84,9.07,0.3,-0.3855555555555555,-0.6055555555555555,-0.014180800172453925,-0.009817477042468105,0.2127120025868089
1589985569.5524144,-2.0670250347209858,-0.8087187065987679,9.030618567714825,0.3,-0.3855555555555555,-0.6055555555555555,-0.028172032515465077,-0.04297937767174741,0.2975943778102156
1589985569.5624144,-2.1003245675432454,-0.7490262973702629,8.842890310968903,0.3,-0.3855555555555555,-0.6055555555555555,0.008588386375970793,-0.012912945256371655,0.369164426653993
1589985569.5724144,-2.11,-0.7230418094585332,8.843877998629198,0.3,-0.3855555555555555,-0.6055555555555555,0.01077148669186185,-0.01360839438281768,0.41483913353543045
1589985569.5824144,-2.109454634584746,-0.7278185383389845,8.990545365415255,0.29921224995574436,-0.38591913249905807,-0.6051919786120529,-0.012772510404929294,-0.02822261177468005,0.45307118911650823
1589985569.5924144,-2.12143802029878,-0.6757079864674801,8.96784296955183,0.2855555555555556,-0.3922222222222223,-0.5988888888888889,-0.01916436304260708,-0.04160602842132897,0.5141782677463971
1589985569.6024144,-2.1776465479808946,-0.6441178173397019,8.892353452019105,0.2855555555555556,-0.3922222222222223,-0.5988888888888889,-0.005903338103566722,-0.033430829456734985,0.5565158457025597
1589985569.6124144,-2.22,-0.6178434028718505,8.90673078659803,0.2855555555555556,-0.3922222222222223,-0.5988888888888889,-0.010551691963622814,-0.03390116474130817,0.5999209732489099
1589985569.6224144,-2.201714961961116,-0.603047506339814,8.986952493660187,0.2855555555555556,-0.3922222222222223,-0.5988888888888889,-0.01963495408493621,-0.04296836855479379,0.6309880877889824
1589985569.6324143,-2.185053412752661,-0.5932977248315594,9.013404550336881,0.2855555555555556,-0.39454198266228346,-0.5956412242728032,-0.017813018495790093,-0.04054060194029227,0.6672520186218964
1589985569.6424143,-2.195316713511752,-0.5551900281070512,9.000760112428205,0.2855555555555556,-0.3977777777777778,-0.5911111111111111,-0.010425078986329626,-0.04465496591278437,0.7006583988622189
1589985569.6524143,-2.1802103442311016,-0.54,8.904263795191143,0.2855555555555556,-0.3977777777777778,-0.5911111111111111,-0.012136808584784905,-0.046280000769327104,0.7294842455554182
1589985569.6624143,-2.217753635469984,-0.54,8.93938408867496,0.2855555555555556,-0.3977777777777778,-0.5911111111111111,-0.02157157529212416,-0.04960645515995874,0.7533701647247135
1589985569.6724143,-2.2175010381197575,-0.5183340254131716,8.971251557179636,0.2855555555555556,-0.3977777777777778,-0.5911111111111111,-0.02154402119560374,-0.054859792470799876,0.7792618439013601
1589985569.6824143,-2.2406839956913656,-0.4662106695390895,8.946894665230456,0.27491817374378746,-0.40591224622207106,-0.5873567410598989,-0.020387045391775067,-0.05174557019671811,0.8014333264265578
1589985569.6924143,-2.273684511199448,-0.4463154888005522,8.953684511199448,0.26666666666666666,-0.4122222222222222,-0.5844444444444444,-0.02250552860894452,-0.05333578565437963,0.8166874880260054
1589985569.7024143,-2.2499586004947747,-0.4299586004947746,8.84311253597213,0.26666666666666666,-0.4122222222222222,-0.5844444444444444,-0.02436489813273285,-0.05016918402390097,0.8254058293884103
1589985569.7124143,-2.3122280754565523,-0.5211193056391732,9.389493026289383,0.26666666666666666,-0.4122222222222222,-0.5844444444444444,-0.03690739920769109,-0.04957232659121374,0.8279405639148101
1589985569.7224143,-2.1589398750176954,-0.3976702327744858,9.01438509919712,0.26666666666666666,-0.4122222222222222,-0.5844444444444444,-0.040089459680980134,-0.06856670172228709,0.8286216189417527
1589985569.7324142,-2.209124194646692,-0.3550814519930858,8.815244355979257,0.27074677422171006,-0.4163023297772656,-0.5844444444444444,0.002121666157648014,-0.05492922373323716,0.8337046369600911
1589985569.7424142,-2.2699376818228805,-0.36195637727601637,8.928012463635424,0.2733333333333333,-0.4188888888888889,-0.5844444444444444,0.008696055896311696,-0.039706920268730114,0.8309860528896318
1589985569.7524142,-2.215779147764724,-0.32,8.946304524834243,0.2733333333333333,-0.4188888888888889,-0.5844444444444444,-0.021929289575118933,-0.04225196063587587,0.8215694540345668
1589985569.7624142,-2.3040532318006264,-0.28172775632150404,8.97069809808351,0.2733333333333333,-0.4188888888888889,-0.5844444444444444,-0.033891904945259524,-0.06731263744548167,0.8008582633304135
1589985569.7724142,-2.278948952879581,-0.21342342931937175,8.811321335078533,0.2733333333333333,-0.4188888888888889,-0.5844444444444444,-0.0126018797263496,-0.04767116132077215,0.7898280928834596
1589985569.7824142,-2.3493462650943586,-0.26098060235846193,9.006121887578631,0.26294367244932587,-0.4206802097309592,-0.5873105577917569,-0.015796802464992668,-0.05038731818795818,0.7689692222986134
1589985569.7924142,-2.3827535610090957,-0.1855071220181912,8.982028488072764,0.2411111111111111,-0.4244444444444445,-0.5933333333333334,-0.0236188171160512,-0.05485767787271037,0.7421917077070626
1589985569.8024142,-2.3568272988179593,-0.1643909003940136,8.836090996059864,0.2411111111111111,-0.4244444444444445,-0.5933333333333334,-0.013355739229884048,-0.04485694700231798,0.7189626191623376
1589985569.8124142,-2.3340078265123103,-0.16800260883743684,8.80596608511332,0.2411111111111111,-0.4244444444444445,-0.5933333333333334,-0.014176531472180013,-0.04537628391170648,0.700976967392807
1589985569.8224142,-2.338664831383345,-0.1313351686166552,8.913184981264816,0.2411111111111111,-0.4244444444444445,-0.5933333333333334,-0.0241439215176091,-0.050275312196628355,0.6636620486659064
1589985569.8324142,-2.405356463543501,-0.07535646354350124,8.946782317717506,0.2411111111111111,-0.432181558451724,-0.6076172361160033,-0.010441698137657869,-0.0411404966099942,0.6243082771216241
1589985569.8424141,-2.371004271089919,-0.06700142369663963,9.034992881516802,0.2411111111111111,-0.4388888888888889,-0.62,-0.012161909068169791,-0.040633058394963124,0.5806521762458905
1589985569.8524141,-2.3325510675256713,-0.05418368917522373,9.006020580927462,0.2411111111111111,-0.4388888888888889,-0.62,-0.017631383915093498,-0.039370095073245126,0.5394938103850807
1589985569.8624141,-2.353809383298908,-0.016190616701091766,8.926190616701092,0.2411111111111111,-0.4388888888888889,-0.62,-0.009324044292522081,-0.034014886934906945,0.4994274374949961
1589985569.872414,-2.4082841943215696,0.01,8.95656838864314,0.2411111111111111,-0.4388888888888889,-0.62,-0.002181661564992912,-0.027006102218785244,0.46318341126027807
1589985569.882414,-2.430959179937763,0.022054426749649157,9.023013606687412,0.23474905254879627,-0.4445812570762232,-0.6290408200622368,-0.005140263011862762,-0.02313154962631572,0.425902628894219
1589985569.892414,-2.41,0.05169786006574093,9.021510699671294,0.22,-0.4577777777777778,-0.65,-0.01181393080505285,-0.02543910757028228,0.38308869200545204
1589985569.902414,-2.4081146481851285,0.06,8.9536050745918,0.22,-0.4577777777777778,-0.65,-0.009880007927215932,-0.021610955670379392,0.33032439602570557
1589985569.912414,-2.4198544995204565,0.07489087464034246,8.879708999040913,0.22,-0.4577777777777778,-0.65,-0.00437125895008352,-0.01747709998023638,0.25382845616301497
1589985569.922414,-2.435793735833505,0.0815874716670101,8.907381207500515,0.22,-0.4577777777777778,-0.65,-0.003731324590701817,-0.012804303442816578,0.1976400388447354
1589985569.932414,-2.4248874015456865,0.0546622046370595,9.048490552083718,0.21375126855583904,-0.4543693788082354,-0.6573848644340083,-0.0082672089707421,-0.015369891642971735,0.12912103830092878
1589985569.942414,-2.4013846286775826,0.027589752451721607,9.082102648291356,0.20777777777777776,-0.4511111111111111,-0.6644444444444444,-0.0059072725876325545,-0.010835592056295099,0.062037531086003565
1589985569.952414,-2.417939250040937,0.05193057147535615,8.934164892746029,0.20777777777777776,-0.4511111111111111,-0.6644444444444444,0.007396822258713073,0.0041243299112237045,0.01837139800905936
1589985569.962414,-2.478362491252624,0.09183889277661146,8.873047196952026,0.20777777777777776,-0.4511111111111111,-0.6644444444444444,0.01936845923083436,0.01676364590673447,-0.026666109532210228
1589985569.972414,-2.5597866618042575,0.06978666180425765,9.063688896992904,0.20777777777777776,-0.4511111111111111,-0.6644444444444444,0.005547240260881486,0.008038211716807013,-0.10240524329070325
1589985569.982414,-2.5789064138213975,0.08890641382139763,9.031822643631003,0.20777777777777776,-0.4511111111111111,-0.6644444444444444,-0.0027953253607165187,0.004562142707807844,-0.1468989266058926
1589985569.992414,-2.574493704337012,0.08101259132597544,8.973481113011037,0.2411111111111111,-0.4311111111111111,-0.6788888888888889,0.009817477042468105,0.023176720376558074,-0.24626563866860712
1589985570.002414,-2.5016372539961194,0.030818626998059692,8.939623948997506,0.2411111111111111,-0.4311111111111111,-0.6788888888888889,0.0067646022016829566,0.020074189098344648,-0.32500478212993894
1589985570.012414,-2.4942418280512952,0.010848365610259085,9.003059473297462,0.2411111111111111,-0.4311111111111111,-0.6788888888888889,0.0037716365726134958,0.02178018308604599,-0.3963446652202871
1589985570.022414,-2.53563383541301,0.02,8.976479720738268,0.2411111111111111,-0.4311111111111111,-0.6788888888888889,0.01375053515994467,0.03917763639474697,-0.4612214567409696
1589985570.032414,-2.541867076808352,0.008132923191648024,8.904169230052199,0.23682577781920622,-0.4284739829314773,-0.6963598630789626,0.029536139781551424,0.058101406612042834,-0.52573035940785
1589985570.042414,-2.595804368947253,-0.02,9.068940984736892,0.22666666666666666,-0.4222222222222222,-0.7377777777777778,0.026462125048718834,0.05849833488355261,-0.6162814778177785
1589985570.052414,-2.62994371655287,-0.014971858276434767,8.92429645691087,0.22666666666666666,-0.4222222222222222,-0.7377777777777778,0.019677931086608653,0.052951339738584305,-0.7136243563327119
1589985570.062414,-2.62,-0.02999264579707303,8.834987130144878,0.22666666666666666,-0.4222222222222222,-0.7377777777777778,0.03272291792716031,0.07035517603987469,-0.7930191378216965
1589985570.072414,-2.62,-0.0798773383005707,8.934022867786936,0.22666666666666666,-0.4222222222222222,-0.7377777777777778,0.03259202819012061,0.0731124230587767,-0.8701761250425568
1589985570.082414,-2.6326802818273323,-0.12845352121822137,8.981959154518004,0.23512018788488803,-0.4222222222222222,-0.7429438185222463,0.02877765246354761,0.07219717315781529,-0.9559947262475375
1589985570.092414,-2.6341352593565333,-0.15586474064346686,8.956441234405778,0.2466666666666667,-0.4222222222222222,-0.75,0.03785376199577393,0.09097915494649825,-1.0530483578256569
1589985570.102414,-2.608935958811309,-0.19212808237738235,8.932055821515672,0.2466666666666667,-0.4222222222222222,-0.75,0.041853869625113095,0.10018626987591987,-1.1301941960779975
1589985570.112414,-2.592451687438734,-0.24961349950987258,8.869613499509873,0.2466666666666667,-0.4222222222222222,-0.75,0.042274962904638676,0.10496611240077883,-1.2136308936232663
1589985570.1224139,-2.5884838782582493,-0.32535482898900103,8.891612927527497,0.2466666666666667,-0.4222222222222222,-0.75,0.04354525975001174,0.11243298227387986,-1.323775912835957
1589985570.1324139,-2.5790833634067125,-0.38027787802237456,8.869361241429088,0.2429660371305987,-0.43029632302818877,-0.7456265287301015,0.04789656488861198,0.127718136922261,-1.4456964199463938
1589985570.1424139,-2.5965277731162946,-0.4465277731162947,8.904444369860716,0.2344444444444445,-0.4488888888888889,-0.7355555555555555,0.05017821599483697,0.15053464798451094,-1.5871587885323435
1589985570.1524138,-2.5887908159211883,-0.4436275522364344,8.797581631842377,0.2344444444444445,-0.4488888888888889,-0.7355555555555555,0.05149723120970914,0.15158986015640868,-1.599029925466193
1589985570.1624138,-2.560309083681177,-0.4896909163188233,8.81445910355794,0.2344444444444445,-0.4488888888888889,-0.7355555555555555,0.051420767874541126,0.1683900637483396,-1.7975637252103258
1589985570.1724138,-2.5653035294117648,-0.5226517647058824,8.90482431372549,0.2344444444444445,-0.4488888888888889,-0.7355555555555555,0.04835203693190467,0.17734538640045303,-1.958400244852774
1589985570.1824138,-2.6115925701782974,-0.5950647083469113,8.974203714910852,0.23637653947416068,-0.4488888888888889,-0.7374876505852717,0.05528492499256478,0.1757661718345206,-2.0502517486304366
1589985570.1924138,-2.6188479092142596,-0.7969816208215122,8.988202787714322,0.2411111111111111,-0.4488888888888889,-0.7422222222222222,0.054471167285764496,0.1738266502793239,-2.153458334924432
1589985570.2024138,-2.587246843106729,-0.9526107939802803,8.956661304272616,0.2411111111111111,-0.4488888888888889,-0.7422222222222222,0.07265934968087018,0.18164749678250092,-2.2355092821514244
1589985570.2124138,-2.5824605823454942,-1.0275394176545056,8.796358230713162,0.2411111111111111,-0.4488888888888889,-0.7422222222222222,0.08216445281715738,0.18949103698369,-2.301206357822776
1589985570.2224138,-2.5366083801922725,-1.1304095773625975,8.819825140576818,0.2411111111111111,-0.4488888888888889,-0.7422222222222222,0.049891074033734335,0.1656084928973457,-2.4100282259659713
1589985570.2324138,-2.5959501519257615,-1.170429908844543,8.972330212696066,0.2276420939293568,-0.4488888888888889,-0.7422222222222222,0.03963759437721057,0.16304216013969858,-2.4965759106397836
1589985570.2424138,-2.63,-1.15,9.02,0.1988888888888889,-0.4488888888888889,-0.7422222222222222,0.0567232006898157,0.17344209441693648,-2.5470898771292245
1589985570.2524137,-2.5392418251130633,-1.15,8.961274122131982,0.1988888888888889,-0.4488888888888889,-0.7422222222222222,0.05730556428352081,0.16878318566729567,-2.6152264175927216
1589985570.2624137,-2.360235325758085,-1.1350352988637127,8.705482417804074,0.1988888888888889,-0.4488888888888889,-0.7422222222222222,0.05400510825390374,0.1625389206035886,-2.7013795412101684
1589985570.2724137,-2.369809908725247,-1.1995175201113861,8.780204594678217,0.1988888888888889,-0.4488888888888889,-0.7422222222222222,0.0481129741213779,0.17604796326526795,-2.743037528512541
1589985570.2824137,-2.546626787678768,-1.3704785478547854,9.1455500550055,0.21912816281628164,-0.43277243002077986,-0.7107389072240557,0.060178398193119244,0.19812409092594802,-2.7755328236324806
1589985570.2924137,-2.482520987094105,-1.471176478439014,8.9146218319164,0.2588888888888889,-0.4011111111111111,-0.6488888888888888,0.08822895949259095,0.1965053758980874,-2.801335952928209
1589985570.3024137,-2.3761618642145024,-1.5103614184472887,8.83065410332724,0.2588888888888889,-0.4011111111111111,-0.6488888888888888,0.08395454561546065,0.20688609531397528,-2.8196548695444816
1589985570.3124137,-2.38179567671761,-1.6579485061269448,8.783333057965027,0.2588888888888889,-0.4011111111111111,-0.6488888888888888,0.06265291657251647,0.175120378802993,-2.8665913146532773
1589985570.3224137,-2.1979383318969643,-1.8185076127549553,8.916169204251652,0.2588888888888889,-0.4011111111111111,-0.6488888888888888,0.05742634417467398,0.17081064664592713,-2.913268337811405
1589985570.3324137,-2.434846081171515,-1.9809081604534895,8.819994882494194,0.28609514624256976,-0.3817165514134376,-0.6418852978869513,0.11552899800681309,0.23518960938876604,-2.9440204744908294
1589985570.3424137,-2.225737704918033,-1.908384074941452,8.403341139734582,0.3711111111111111,-0.3211111111111111,-0.62,0.11595335362293321,0.21653459383007712,-2.9941389000401553
1589985570.3524137,-2.362593426530381,-2.04,8.935861694717573,0.3711111111111111,-0.3211111111111111,-0.62,0.051342660582589614,0.1718901083080896,-3.0761330703925993
1589985570.3624136,-2.2470910210098327,-2.04,8.77959373430742,0.3711111111111111,-0.3211111111111111,-0.62,0.059495186308096845,0.18671288235446637,-3.1080020345923094
1589985570.3724136,-2.42,-2.188177843921496,8.672010045577155,0.3711111111111111,-0.3211111111111111,-0.62,0.06755500526764023,0.19347458129006181,-3.1401042900191074
1589985570.3824136,-2.3919986454234663,-2.2780013545765336,8.8540011610656,0.4080017846008299,-0.28866509707798493,-0.6173332043260444,0.06828651359471702,0.18347790648605017,-3.150973671666653
1589985570.3924136,-2.35,-2.32,8.89,0.4633333333333333,-0.24,-0.6133333333333333,0.0839939702522271,0.18871372537188688,-3.147046807502276
1589985570.4024136,-2.2814807756689244,-2.4328551930158895,8.805358605238084,0.4633333333333333,-0.24,-0.6133333333333333,0.08839061019888107,0.18211876545190595,-3.146167479512945
1589985570.4124136,-2.18,-2.5958160330025644,8.70928776898205,0.4633333333333333,-0.24,-0.6133333333333333,0.09398947807844125,0.17508966363069128,-3.1448651459372825
1589985570.4224136,-2.1364221405021557,-2.5698871417702254,8.72653499873193,0.4633333333333333,-0.24,-0.6133333333333333,0.08723568529194252,0.1752396275159146,-3.1448651459372825
1589985570.4324136,-2.0718298593559514,-2.576778270048467,8.70806696202908,0.4816981356486575,-0.21158653226685695,-0.606403219252079,0.07941978538999991,0.1758121076323102,-3.1363606164504825
1589985570.4424136,-2.1239413824189186,-2.6957655296756746,8.758175852743245,0.5222222222222223,-0.14888888888888888,-0.5911111111111111,0.08488581743677599,0.19565667726276076,-3.1051261706972455
1589985570.4524136,-2.142786730972827,-2.7506881543347843,8.775802846723915,0.5222222222222223,-0.14888888888888888,-0.5911111111111111,0.08262417627467745,0.19822721722158543,-3.073685903100133
1589985570.4624135,-2.1578199617956066,-2.829702125119389,8.868909980897804,0.5222222222222223,-0.14888888888888888,-0.5911111111111111,0.08284922304853276,0.19399506022415272,-3.0335568432171107
1589985570.4724135,-1.9241356255969435,-2.7212058261700096,8.752067812798472,0.5222222222222223,-0.14888888888888888,-0.5911111111111111,0.09377394021907928,0.19217427402906165,-2.987126795242288
1589985570.4824135,-1.9786862448198916,-2.9602936722983744,8.892627510360217,0.5242658413912797,-0.13983857542592001,-0.5957822406403854,0.07457438390879359,0.1792385021380487,-2.922551476589927
1589985570.4924135,-1.970329733822123,-2.8349460073318458,8.909340532355754,0.5372648584989197,-0.08227149966351432,-0.6254942797435625,0.09098235488393865,0.18835404156868485,-2.861477362404665
1589985570.5024135,-1.931061623238349,-3.108938376761651,8.729049724475365,0.5377777777777778,-0.08,-0.6266666666666667,0.08118469842785966,0.17995064065781116,-2.7809423005011165
1589985570.5124135,-1.9037900486028705,-3.1362099513971295,8.817682342040671,0.5377777777777778,-0.08,-0.6266666666666667,0.06928522918804789,0.15987028631562872,-2.7422690254717277
1589985570.5224135,-1.7965987859800274,-3.087156843548071,8.629441942431956,0.5377777777777778,-0.08,-0.6266666666666667,0.08679591233266346,0.18003150691742908,-2.6503535536422116
1589985570.5324135,-1.8259012016021363,-3.186782376502003,8.5679305740988,0.5431627354991841,-0.07432131731197152,-0.6273520249221184,0.06188899079063671,0.15104875114368482,-2.5989443898272038
1589985570.5424135,-1.68,-3.05,8.65,0.5988888888888889,-0.015555555555555557,-0.6344444444444445,0.05890486225480863,0.14508049407202864,-2.5372724000867564
1589985570.5524135,-1.665174232003668,-3.052965153599266,8.67372122879413,0.5988888888888889,-0.015555555555555557,-0.6344444444444445,0.05890486225480863,0.14508049407202864,-2.498458630235837
1589985570.5624135,-1.63,-3.064069187391556,8.711688656738,0.5988888888888889,-0.015555555555555557,-0.6344444444444445,0.05801710328151752,0.14619019278864254,-2.3937221408177836
1589985570.5724134,-1.63,-3.079230769230769,8.643461538461539,0.5988888888888889,-0.015555555555555557,-0.6344444444444445,0.05470935924520687,0.15032487283403084,-2.3465867883003573
1589985570.5824134,-1.628509510540344,-3.3640380421613765,8.789376362975526,0.6116408542659452,-0.014230676035861402,-0.6341132245645209,0.05558509044131027,0.1415301068338324,-2.2567339892157845
1589985570.5924134,-1.5430491778434492,-3.295022353565204,8.795067060695613,0.6844444444444444,-0.006666666666666667,-0.6322222222222222,0.05366594842398283,0.14082966777427572,-2.150868760146559
1589985570.6024134,-1.4334256091060713,-3.2968512182121428,8.650138413659107,0.6844444444444444,-0.006666666666666667,-0.6322222222222222,0.05761964418522344,0.13454586223323434,-2.052494363732124
1589985570.6124134,-1.5199669870527348,-3.4699339741054698,8.779950480579101,0.6844444444444444,-0.006666666666666667,-0.6322222222222222,0.04581939430723839,0.14398606213562234,-1.9722526645618252
1589985570.6224134,-1.2016920651602732,-3.1376487651077247,8.584781082501314,0.6844444444444444,-0.006666666666666667,-0.6322222222222222,0.04717025154514396,0.12744262587580377,-1.826876505424692
1589985570.6324134,-1.3584212259068598,-3.4560235843409552,8.92,0.8338974353858227,-0.03277431927318195,-0.663924371815848,0.022594810386298854,0.10929995807988996,-1.7252416024816997
1589985570.6424134,-1.3250964292533893,-3.474760358984151,8.916490357074661,1.3077777777777777,-0.11555555555555555,-0.7644444444444445,0.04045509571090828,0.11076650280265997,-1.5967556832187555
1589985570.6524134,-1.3827493373359308,-3.6463746686679652,8.861058027017533,1.3077777777777777,-0.11555555555555555,-0.7644444444444445,0.03172964881402044,0.10363554324460349,-1.4997607838563418
1589985570.6624134,-1.3559598249928146,-3.632979912496407,8.680228818701499,1.3077777777777777,-0.11555555555555555,-0.7644444444444445,0.03611307252081143,0.09559926644882,-1.4186674452807086
1589985570.6724133,-1.1441234049666598,-3.4819914931555194,8.604600011144337,1.3077777777777777,-0.11555555555555555,-0.7644444444444445,0.03678838413379074,0.08204486419015018,-1.2655335959945426
1589985570.6824133,-1.1674947528743105,-3.6066386819963223,8.970751128364197,1.3077777777777777,-0.11555555555555555,-0.7644444444444445,0.03508877175205079,0.07099738370884046,-1.173754527380585
1589985570.6924133,-1.0729575839837122,-3.575915167967424,8.744508992195453,0.9544444444444444,-0.16333333333333333,-0.7422222222222222,0.03453769397852386,0.06521406167376081,-1.0298615220603988
1589985570.7024133,-1.0286212099439576,-3.5261129472625377,8.901444891507401,0.9544444444444444,-0.16333333333333333,-0.7422222222222222,0.016875272903553628,0.0415095676353573,-0.9335191582149983
1589985570.7124133,-0.9622107669114428,-3.5463448913096336,8.438268248796382,0.9544444444444444,-0.16333333333333333,-0.7422222222222222,0.03378440275262646,0.059953891030953506,-0.8251616323123652
1589985570.7224133,-1.0608368316831684,-3.70264297029703,8.584316633663367,0.9544444444444444,-0.16333333333333333,-0.7422222222222222,0.0217108806661604,0.04254240051736178,-0.742365861055393
1589985570.7324133,-1.1090847424621078,-3.7601830515075783,8.741464412060628,0.9482613712995719,-0.15784178810597946,-0.7410222178947634,0.026020196204515764,0.0423826579419626,-0.6694232480567278
1589985570.7424133,-1.0455978327792144,-3.7724003612034642,8.767192053523786,0.6166666666666667,0.13666666666666666,-0.6766666666666666,0.01797697009791311,0.03486310941332976,-0.5734687220886623
1589985570.7524133,-0.9980006104384983,-3.7760012208769966,8.6,0.6166666666666667,0.13666666666666666,-0.6766666666666666,0.01908970516496418,0.036107131491482244,-0.5062568634602167
1589985570.7624133,-0.9809315291484383,-3.7418630582968766,8.6,0.6166666666666667,0.13666666666666666,-0.6766666666666666,0.014434835339931226,0.01841862615635704,-0.44201965987476205
1589985570.7724133,-1.02,-3.7940993638291425,8.650993638291427,0.6166666666666667,0.13666666666666666,-0.6766666666666666,0.014377288504254107,0.021565932756381162,-0.35182345034913204
1589985570.7824132,-1.02,-3.819511663132384,8.90511663132384,0.6166666666666667,0.13666666666666666,-0.6766666666666666,0.008833184837456307,0.013249777256184458,-0.2945343791255548
1589985570.7924132,-1.02,-3.7078836055744318,8.954846557770228,0.5610237153591625,0.17736076538409515,-0.6658702731293897,0.012803313402035776,0.004121301677416384,-0.2379908073594745
1589985570.8024132,-0.9432935247069135,-3.642744603922428,8.577684890982798,0.5422222222222223,0.19111111111111112,-0.6622222222222223,0.0061857168816573434,0.010129894229434876,-0.14390898937935523
1589985570.8124132,-0.989248383915854,-3.6810403199298785,8.68491289580366,0.5422222222222223,0.19111111111111112,-0.6622222222222223,0.00117281937861704,-0.0007313836938191154,-0.09712194601764573
1589985570.8224132,-1.0023386537126995,-3.6781852879944483,8.676370575988896,0.5422222222222223,0.19111111111111112,-0.6622222222222223,0.005652108284184447,-0.004363323129985824,-0.0321136494590256
1589985570.8324132,-1.0144665163081195,-3.720632807078418,8.761265614156835,0.5422222222222223,0.19111111111111112,-0.6622222222222223,0.0010218022384444808,-0.004363323129985824,-0.006316230061331515
1589985570.8424132,-0.9918282137857202,-3.74939059540476,8.781218809190479,0.5401354232433867,0.1765035182592623,-0.7310865885237952,0.0009578793241999267,-0.009485098396726782,0.04437964593971355
1589985570.8524132,-1.0065087719298245,-3.8160350877192983,8.738728070175439,0.54,0.17555555555555555,-0.7355555555555555,0.004692486102949666,-0.009817477042468105,0.0802210353615398
1589985570.8624132,-1.0224382099770122,-3.8163014916858233,8.665041193348658,0.54,0.17555555555555555,-0.7355555555555555,0.006948429366821059,-0.011458216713487866,0.12560997819287373
1589985570.8724132,-0.9802115878316022,-3.8514903434736647,8.693192274778932,0.54,0.17555555555555555,-0.7355555555555555,0.0031099210937327437,-0.014529023331958518,0.1448025195583153
1589985570.8824131,-0.734203127143053,-4.03228226580716,7.7281113701824165,0.5360948810557918,0.17578986269220803,-0.725792758195035,-0.14015514847126403,0.02579244025753587,-0.35488147011446314
1589985570.8924131,1.3177718137824646,-7.9524648676063485,-4.403287335432472,0.4844444444444445,0.17888888888888888,-0.5966666666666667,-2.3391589180208645,0.5622245263034922,-10.948311999800708
1589985570.9024131,-0.3901529535864979,-10.516883390870733,-0.47050656885308784,0.4844444444444445,0.17888888888888888,-0.5966666666666667,-2.8646957775807222,0.7544722267934483,-19.067673044001868
1589985570.9124131,-2.473518896220756,-10.013744211157768,0.460008398320336,0.4844444444444445,0.17888888888888888,-0.5966666666666667,-2.7916881133305136,2.0478723146630147,-17.82657264121316
1589985570.922413,-8.53651256106071,-5.6996842288904395,-1.845416957431961,0.4844444444444445,0.17888888888888888,-0.5966666666666667,-3.4143172863980733,3.114480598764402,-13.138708325909038
1589985570.932413,-2.7045915910676896,-0.5555933356594558,4.454813852058618,0.4844444444444445,0.17888888888888888,-0.5966666666666667,-3.589122671896059,2.4392049999913645,-6.046718142577548
1589985570.942413,-0.649840763035874,-1.6210941186040837,8.627505897665339,0.36777777777777776,0.43333333333333335,-0.59,-1.8371894849331867,0.5199577407512241,-3.92736142259719
1589985570.952413,-2.0462014007610434,-1.7405955991838087,11.476633210169306,0.36777777777777776,0.43333333333333335,-0.59,-1.1415400663867252,1.0591631220779993,-3.445177423510731
1589985570.962413,-0.5955524298322846,-0.8336485064530677,5.767936736315416,0.36777777777777776,0.43333333333333335,-0.59,0.8109524913862851,0.7606619292142659,-2.7961390045170447
1589985570.972413,-0.16351648798746873,-0.9679748560733975,7.425368919991048,0.36777777777777776,0.43333333333333335,-0.59,2.002359381242206,0.5350293871465911,-2.294789484703801
1589985570.982413,-0.10378928738531644,-1.3178056024574323,7.382706633846654,0.36777777777777776,0.43333333333333335,-0.59,3.1341473679066203,0.4494006907871124,-1.83965434861918
1589985570.992413,0.10185571616881522,-1.418987019370406,6.888525212806363,0.21760492613527757,0.6069097462707687,-0.5275905032135063,4.280098022521555,0.309939171803129,-1.3656114928518899
1589985571.002413,0.19362621201924277,-1.7208626835165384,6.910894588598918,0.19666666666666666,0.6311111111111111,-0.5188888888888888,5.488792378118737,0.18615216680813926,-0.9396600272770561
1589985571.012413,-0.7732725895562289,0.6140808233826412,-2.574629745143468,0.19666666666666666,0.6311111111111111,-0.5188888888888888,4.366877661677049,0.22232690510149922,-0.3548823347107204
1589985571.022413,-0.1565736945286046,0.682602922830155,-1.7212181429335234,0.19666666666666666,0.6311111111111111,-0.5188888888888888,2.4200837161999664,0.06739880053997216,-0.006294099447284596
1589985571.032413,0.06044613156967871,0.5031229209877509,-0.6017481313348725,0.19666666666666666,0.6311111111111111,-0.5188888888888888,0.43706366011890996,-0.037530205321710634,0.5349851143042714
1589985571.042413,0.31485033166725507,0.21425871903974436,2.985627380664821,0.1486140788775546,0.5761938679235545,-0.5986905078958071,-0.6425701287856401,-0.017960998353770637,0.823262754628983
1589985571.052413,4.1670426265191365,-5.257495737348087,19.97120660257573,0.13444444444444445,0.56,-0.6222222222222222,-2.16562407704055,-0.14232870375378245,1.2103925241014282
1589985571.062413,0.7966909123888986,-1.4002309087611096,5.242084890259385,0.13444444444444445,0.56,-0.6222222222222222,-1.7614598750907733,-0.168885694436314,1.3240896404610163
1589985571.072413,1.5431665896973006,-1.8808816491036566,6.441936899114153,0.13444444444444445,0.56,-0.6222222222222222,-0.4673790863505319,-0.23052463864488804,1.4751094602393586
1589985571.082413,9.757789159914354,-11.953259162853184,10.99387673705865,0.13444444444444445,0.56,-0.6222222222222222,0.6649617253246728,-0.15273023173590455,1.5749936370113868
1589985571.092413,0.9269633507853403,-3.292356020942408,8.995445026178011,0.16333333333333333,0.5544444444444444,-0.6288888888888889,0.8680899900977948,-0.017036378137104333,2.269344941975467
1589985571.102413,-0.8952233485574244,-0.8082638966247075,6.262164977163863,0.16333333333333333,0.5544444444444444,-0.6288888888888889,-0.019578267824488904,-0.12491567838220484,2.972684001841162
1589985571.112413,-0.2165104026219171,-2.3745659524155243,8.450260324835613,0.16333333333333333,0.5544444444444444,-0.6288888888888889,-0.1123801889026662,-0.006586663848277052,3.276183373658008
1589985571.122413,0.12109337968083425,-1.9117147822946527,6.293578990136108,0.16333333333333333,0.5544444444444444,-0.6288888888888889,-0.08581745482259266,-0.3761751239203231,3.355642175300968
1589985571.132413,0.253635645441618,-3.3318104868744776,11.576335011173057,0.16333333333333333,0.5544444444444444,-0.6288888888888889,-0.17463161038500155,-0.22436488127294976,3.517779645339319
1589985571.142413,-0.055432695760419426,-2.186062049649295,6.553671270916621,0.23449155089544813,0.5385135002141203,-0.6352612665810186,-0.035006703423054925,-0.2222887150249963,3.6517291102870235
1589985571.152413,0.19937741082650717,-2.95551142027478,8.995084514367443,0.23777777777777775,0.5377777777777778,-0.6355555555555555,-0.13073346666292332,-0.26234076097517195,3.768458468888466
1589985571.162413,0.06376030994143198,-2.7051833467015753,7.495939585634941,0.23777777777777775,0.5377777777777778,-0.6355555555555555,-0.08534301015845841,-0.26885179362041406,3.9094647881077838
1589985571.1724129,0.019327148629629073,-3.4541994945291097,9.603340950709022,0.23777777777777775,0.5377777777777778,-0.6355555555555555,-0.06387814067561695,-0.2646973027527673,3.9710897359778765
1589985571.1824129,-0.13682531663840075,-6.815811712914517,7.826251578681486,0.23777777777777775,0.5377777777777778,-0.6355555555555555,-0.14595916529339292,-0.3030020341454062,4.154610748424203
1589985571.1924129,0.6940166307360641,-4.3593489374807515,7.815823221435171,0.32,0.5066666666666667,-0.6711111111111111,-0.13233346279810826,-0.3403278490171054,4.695864657769199
1589985571.2024128,4.871711425226705,-10.448936802194538,2.6344809812520746,0.32,0.5066666666666667,-0.6711111111111111,-0.02320900540435888,-0.27955921381331617,4.7510187761748135
1589985571.2124128,2.1528511523072353,-2.717406915590656,5.236085824611674,0.32,0.5066666666666667,-0.6711111111111111,-0.6371569989023603,-0.59132967926152,2.6149913821296837
1589985571.2224128,-1.3945287439178229,-1.247120201838169,13.347877094972066,0.32,0.5066666666666667,-0.6711111111111111,-0.15201038535776756,0.07157237798616364,-0.21282326771978655
1589985571.2324128,-1.3021451312548808,-0.8607887307022286,8.921862197392922,0.32,0.5066666666666667,-0.6711111111111111,0.9097904851970554,0.3775615848587356,-0.030512333086128413
1589985571.2424128,-0.13425287356321838,-0.2659386973180077,1.6780651340996169,0.4244444444444445,0.4211111111111111,-0.6344444444444445,0.5376437443514764,0.5216030985920074,0.06364433393048288
1589985571.2524128,-0.9726936531734134,-1.8310281525903718,9.1332010661336,0.4244444444444445,0.4211111111111111,-0.6344444444444445,-0.17193110389176347,-0.049257869543531285,0.008768513228535231
1589985571.2624128,1.8979098473073053,-12.353755143092256,8.067404452774984,0.4244444444444445,0.4211111111111111,-0.6344444444444445,-0.4014878146517656,-0.3611025153007325,0.0925130125738458
1589985571.2724128,-2.3913600601039295,-4.424769288561471,9.616047749233049,0.4244444444444445,0.4211111111111111,-0.6344444444444445,-0.009132273133159074,0.04795325538882922,-0.06843770842986946
1589985571.2824128,-0.570681803952668,-2.674117119185258,7.891655362397479,0.4244444444444445,0.4211111111111111,-0.6344444444444445,0.16178276905092057,0.09187555673222399,-0.30905553318064083
1589985571.2924128,0.047337182191628746,-3.919534140113245,8.40522593538359,0.4244444444444445,0.4164220421153918,-0.6522629066281781,0.05995625987390096,0.036147833478856965,0.07349392162208829
1589985571.3024127,-0.03864211737629459,-4.47090525508247,8.71366321442271,0.4244444444444445,0.4155555555555556,-0.6555555555555556,-0.040567440297421896,-0.04666805894291416,0.07171239559636368
1589985571.3124127,-0.003156534916652175,-4.475786649442278,8.585790624301294,0.4244444444444445,0.4155555555555556,-0.6555555555555556,0.0013205250093227786,0.004248476016572663,-0.0032150687907827875
1589985571.3224127,0.11861784930239308,-4.219308924651196,8.663048061396665,0.4244444444444445,0.4155555555555556,-0.6555555555555556,0.005378769286132352,0.0015785845541934852,-0.002181661564992912
1589985571.3324127,0.1033982255928298,-4.211699112796415,8.36626539906018,0.4244444444444445,0.4155555555555556,-0.6555555555555556,0.004548667584112124,-0.005062229061968331,-0.002181661564992912
1589985571.3424127,0.059644444444444444,-4.321022222222222,8.80968888888889,0.4311111111111111,0.4211111111111111,-0.6555555555555556,-0.010884067140909082,0.011902175871239108,-0.0032579479370560822
1589985571.3524127,-0.014920888888888886,-4.535397555555555,8.744444222222223,0.4311111111111111,0.4211111111111111,-0.6555555555555556,-0.005800432084214766,-0.008432364355538163,-0.00020776690303949156
1589985571.3624127,0.048168301722258555,-4.32845301940266,8.62922650970133,0.4311111111111111,0.4211111111111111,-0.6555555555555556,-0.0035951518647536346,-0.0014519678276892004,0.0
1589985571.3724127,-0.011311005755140338,-4.352397130035748,8.61,0.4311111111111111,0.4211111111111111,-0.6555555555555556,0.00353397867075342,-0.006806471018242788,-0.001944706005212225
1589985571.3824127,0.07770930967940713,-4.317252177015259,8.658854654839702,0.4311111111111111,0.4211111111111111,-0.6555555555555556,0.0030310190958011208,0.0003580087276330267,-0.00018320551371585727
1589985571.3924127,0.0495985598559856,-4.386858685868587,8.71582898289829,0.42680628062806286,0.4175237523752376,-0.6598603860386039,0.0028860378056436388,-0.0037027372159771687,-0.002431050420757178
1589985571.4024127,0.057558619040978545,-4.44,8.646859772496365,0.4244444444444445,0.4155555555555556,-0.6622222222222223,-0.0016109186984573235,-0.0010527146163411324,-0.002968062831143912
1589985571.4124126,-0.006494280354581244,-4.3610501342553425,8.60877220730496,0.4244444444444445,0.4155555555555556,-0.6622222222222223,0.00042117374936055055,0.002315592971620093,-0.001224762189123637
1589985571.4224126,0.06986266294227188,-4.439862662942272,8.574054934823092,0.4244444444444445,0.4155555555555556,-0.6622222222222223,-0.003810417164230229,0.0012014119756475748,-0.0001105811931511188
1589985571.4324126,0.030229637195929325,-4.371789429879318,8.683760829266447,0.4244444444444445,0.4155555555555556,-0.6622222222222223,0.0033925402703994497,0.001090830782496456,0.0
1589985571.4424126,0.031939279249629755,-4.361939279249629,8.691606261313149,0.4134748048196296,0.4155555555555556,-0.6549091291390123,0.002356877493504407,-0.0007040723038496852,0.0
1589985571.4524126,0.05769989215837313,-4.364600215683254,8.744698813742104,0.4044444444444445,0.4155555555555556,-0.6488888888888888,-0.001090830782496456,-0.005541373320295508,-0.0016798558776512978
1589985571.4624126,0.03184706895202316,-4.425690172445279,8.507239310218884,0.4044444444444445,0.4155555555555556,-0.6488888888888888,-0.007232847543423125,-0.00040296793405206806,-0.00013432264468402283
1589985571.4724126,0.06796839404330832,-4.4394920985108275,8.670349871705714,0.4044444444444445,0.4155555555555556,-0.6488888888888888,-0.00038782420520592966,0.0,-0.0020708546492197895
1589985571.4824126,0.018580677290836657,-4.410617529880478,8.643271912350599,0.4044444444444445,0.4155555555555556,-0.6488888888888888,0.0016025651436078411,-0.0008012825718039206,-0.0013803789931889914
1589985571.4924126,0.05548127265404752,-4.335271848570278,8.805690696737818,0.42910278784624334,0.4155555555555556,-0.6488888888888888,0.007225051570252402,0.0009265252196073404,-8.215278144455777e-05
1589985571.5024126,0.05109028884350383,-4.410187400408465,8.65962519918307,0.4311111111111111,0.4155555555555556,-0.6488888888888888,0.0008325244426145052,0.0020627295017622686,-0.001943797438531625
1589985571.5124125,0.05912547060705234,-4.383498117571791,8.630874529392948,0.4311111111111111,0.4155555555555556,-0.6488888888888888,0.0019908688485878625,0.0001907927164050494,-0.003177095989286843
1589985571.5224125,0.029791469940195152,-4.417760662574755,8.584687204910294,0.4311111111111111,0.4155555555555556,-0.6488888888888888,0.0005340418408326802,-0.0016476197241602317,-0.002448682485409252
1589985571.5324125,0.02638417590027701,-4.372542416897507,8.665762638504155,0.4311111111111111,0.4155555555555556,-0.6488888888888888,0.0013928111185788372,-0.0007888504464140748,-0.0028780671242823307
1589985571.5424125,0.05479042504420721,-4.389580850088414,8.686946099941057,0.4155023249721658,0.42473719446081754,-0.654397872232046,0.001280256273346502,-0.00180281058329282,-0.002371087055842958
1589985571.5524125,0.04776566439053709,-4.387765664390537,8.698351503414194,0.4122222222222222,0.4266666666666667,-0.6555555555555556,0.0017581102768061902,-0.0008471025763734437,-0.00017982308206370952
1589985571.5624125,0.047255853686949095,-4.416279268434745,8.572138779947966,0.4122222222222222,0.4266666666666667,-0.6555555555555556,-0.00335877442351722,-0.001582981711002895,-0.0004921509285064391
1589985571.5724125,0.0323075232088202,-4.418205015472547,8.584872414900993,0.4122222222222222,0.4266666666666667,-0.6555555555555556,-0.004167520692320743,-0.002181661564992912,-0.0004475141724156876
1589985571.5824125,0.03568341069686308,-4.415227803565621,8.661366821393726,0.4122222222222222,0.4266666666666667,-0.6555555555555556,-0.00042116782037729394,-0.0016113966595704974,-0.0011405298108448294
1589985571.5924125,0.03284365441730573,-4.39140609069551,8.707156345582694,0.4192118444966533,0.4234895656328344,-0.6555555555555556,0.002805483894217912,0.0001568138759535443,-0.0015578392357679118
1589985571.6024125,0.03464483350053396,-4.37,8.72,0.4244444444444445,0.4211111111111111,-0.6555555555555556,0.004071244106835257,0.0002920790231505673,-0.001090830782496456
1589985571.6124125,0.03202836442844966,-4.377971635571551,8.656226915427597,0.4244444444444445,0.4211111111111111,-0.6555555555555556,0.0034937525831567405,0.002608711640487251,-0.001090830782496456
1589985571.6224124,0.05498078938176737,-4.421634648969612,8.656653859587845,0.4244444444444445,0.4211111111111111,-0.6555555555555556,-0.001269143323959377,-0.0003608161896696276,-0.001090830782496456
1589985571.6324124,0.0400875904159132,-4.396812650693189,8.673274939722724,0.4244444444444445,0.4211111111111111,-0.6555555555555556,-9.554632192978248e-06,-0.0018148664267631004,-0.0018148664267631004
1589985571.6424124,0.04476270719078403,-4.372618646404608,8.68,0.4244444444444445,0.4211111111111111,-0.6711384131458276,0.0002856500106620058,-0.002181661564992912,0.00023388075051043863
1589985571.6524124,0.036453300882263465,-4.376773349558868,8.64613325220566,0.4244444444444445,0.4211111111111111,-0.6766666666666666,0.0022165734598266896,-0.002181661564992912,-0.0003868848573880038
1589985571.6624124,0.04468068909126794,-4.387340344545634,8.622659655454365,0.4244444444444445,0.4211111111111111,-0.6766666666666666,6.966283368637022e-05,-0.0029823689434436617,-0.0002901234040457065
1589985571.6724124,0.05656396381844613,-4.396563963818446,8.633127927636892,0.4244444444444445,0.4211111111111111,-0.6766666666666666,-0.0032388829190026615,-0.002556474968653966,-0.0014320347576708037
1589985571.6824124,0.05174532207319092,-4.412382016890214,8.635872661036595,0.4244444444444445,0.4211111111111111,-0.6766666666666666,-0.004363323129985824,-0.0017314387258850436,-0.0012812158867771754
1589985571.6924124,0.04,-4.419976015473887,8.645035976789169,0.4244444444444445,0.42250333118418226,-0.6766666666666666,-0.003269876041550692,-0.000817469010387673,-0.000273361772108783
1589985571.7024124,0.044684237833350626,-4.385315762166649,8.685315762166649,0.4244444444444445,0.4266666666666667,-0.6766666666666666,0.0020438843284613477,-0.0005109710821153369,-6.888861826578213e-05
1589985571.7124124,0.05,-4.38,8.647317161042393,0.4244444444444445,0.4266666666666667,-0.6766666666666666,0.003650294194099165,-0.001803859718383115,0.0003778018466097969
1589985571.7224123,0.03878241091736164,-4.38,8.646826383623958,0.4244444444444445,0.4266666666666667,-0.6766666666666666,0.0014370186259786521,-0.002181661564992912,0.0
1589985571.7324123,0.038590673014499026,-4.397181346028998,8.6685906730145,0.4244444444444445,0.4266666666666667,-0.6766666666666666,-0.00046854852832885804,-0.002181661564992912,0.00046854852832885804
1589985571.7424123,0.04544334221911463,-4.401773368876459,8.68,0.4244444444444445,0.42160371357679405,-0.6766666666666666,-9.672226795810453e-05,-0.0026787158222620878,0.0005937765252272802
1589985571.7524123,0.03323656725308764,-4.3732365672530875,8.70705373098765,0.4244444444444445,0.4155555555555556,-0.6766666666666666,0.0025663829096317678,-0.0017969402203540563,-0.0007377760635676558
1589985571.7624123,0.03632496069476679,-4.382649921389533,8.650425432357565,0.4244444444444445,0.4155555555555556,-0.6766666666666666,0.0012026538003098329,-0.00385061551206917,0.00028906158228990094
1589985571.7724123,0.047349520640463875,-4.375300958719072,8.624699041280929,0.4244444444444445,0.4155555555555556,-0.6766666666666666,0.0008017083351211064,-0.0006439039017556419,-0.0013142942228668633
1589985571.7824123,0.04463851324634243,-4.396807433768288,8.635361486753657,0.4244444444444445,0.4155555555555556,-0.6766666666666666,-0.002418254092005547,-0.0012485591338382135,-0.0010119666068255772
1589985571.7924123,0.044572837000253725,-4.397135814998731,8.658291348001015,0.42139588644427534,0.41809602055569656,-0.667012899666131,-0.004456515639839177,-0.0022748540748462644,-0.001496457408964655
1589985571.8024123,0.05,-4.37,8.663287201520284,0.4177777777777778,0.4211111111111111,-0.6555555555555556,-0.0008417143417115101,0.0007322527218369375,-0.0020571033446004387
1589985571.8124123,0.037272783709957784,-4.382727216290042,8.605454742984852,0.4177777777777778,0.4211111111111111,-0.6555555555555556,0.002479154712963295,-0.0005949862959407663,0.0009916551132038026
1589985571.8224123,0.0520572568287403,-4.382647581057086,8.616762094714568,0.4177777777777778,0.4211111111111111,-0.6555555555555556,0.0024704678566153655,0.00022441190762909633,-0.0010264363985030985
1589985571.8324122,0.04202523342850528,-4.39198317771433,8.659957944285825,0.4177777777777778,0.4211111111111111,-0.6555555555555556,0.0008744996527012641,-0.0002163311297951919,-0.0002209186965554397
1589985571.8424122,0.05056052069166504,-4.406853506897222,8.700560520691665,0.4223467823759256,0.4211111111111111,-0.6555555555555556,-0.001495203258308237,0.0004043724758117811,0.00034322915334233743
1589985571.8524122,0.0384102100291428,-4.3992051050145715,8.693807657521857,0.4244444444444445,0.4211111111111111,-0.6555555555555556,-0.00041535100340458955,-0.0012642499662879737,0.0017663105615883224
1589985571.8624122,0.043267374517374516,-4.39,8.645098938223938,0.4244444444444445,0.4211111111111111,-0.6555555555555556,0.0004563115737108124,-0.0020034539299180806,0.0020034539299180806
1589985571.8724122,0.04545714417446632,-4.380304762782978,8.644238093042556,0.4244444444444445,0.4211111111111111,-0.6555555555555556,0.0,-0.0005620376224997877,3.3244462503119335e-05
1589985571.8824122,0.035950798812385124,-4.372975399406193,8.672975399406193,0.4244444444444445,0.4211111111111111,-0.6555555555555556,0.0,-0.0012982629049986098,-0.001739962234995761
1589985571.8924122,0.05,-4.3978411043068775,8.68,0.41899299590623185,0.4211111111111111,-0.6585290729400352,-0.0014596219328754192,-0.0029037011971104047,-0.002299411058905755
1589985571.9024122,0.05,-4.397732322071555,8.663299241553666,0.4122222222222222,0.4211111111111111,-0.6622222222222223,-0.0026652356340127344,-0.0016980874959730895,0.000123682644456811
1589985571.9124122,0.02887353336734221,-4.37295784445578,8.607747066734685,0.4122222222222222,0.4211111111111111,-0.6622222222222223,0.0016592384563883168,-0.0014134815607166663,-0.0012137092303322807
1589985571.9224122,0.03437995762920629,-4.362810021185397,8.618759915258414,0.4122222222222222,0.4211111111111111,-0.6622222222222223,0.004056797369136017,-0.001090830782496456,-0.0006130515216996144
1589985571.9324121,0.04,-4.378391303038517,8.652989128798145,0.4122222222222222,0.4211111111111111,-0.6622222222222223,0.0018555981944065954,-0.0005892857953806103,0.0
1589985571.9424121,0.04219333140460003,-4.3978066685954005,8.6843866628092,0.41344073966922223,0.4198925936641111,-0.6607600012858222,-0.001090830782496456,0.0,-0.00023925534123539005
1589985571.9524121,0.05,-4.399646479006729,8.695176760496635,0.4177777777777778,0.4155555555555556,-0.6555555555555556,-0.001090830782496456,-0.0005261338121623035,-0.001090830782496456
1589985571.962412,0.04418614743663928,-4.398372294873279,8.643489179493114,0.4177777777777778,0.4155555555555556,-0.6555555555555556,0.0014459409539074651,0.00017755508570550457,-0.0004566378483954757
1589985571.972412,0.05344556732816208,-4.396722783664081,8.650336701984486,0.4177777777777778,0.4155555555555556,-0.6555555555555556,0.002539150411004976,0.0018241727189808475,-0.0007333419364843915
1589985571.982412,0.03841699425461143,-4.383812745690959,8.675395751436348,0.4177777777777778,0.4155555555555556,-0.6555555555555556,0.001593076388846219,-0.0001726791395938597,-0.001090830782496456
1589985571.992412,0.03431444390164468,-4.380735832926233,8.687157221950821,0.422549259078326,0.4155555555555556,-0.6658937650400767,-8.02669206709961e-05,-0.0017912956639370946,-0.001090830782496456
1589985572.002412,0.06,-4.407759077508676,8.7,0.4311111111111111,0.4155555555555556,-0.6844444444444444,-0.002181661564992912,-0.0015140228120084595,0.0001787453060395545
1589985572.012412,0.049681459187589636,-4.425159270406205,8.632929484719332,0.4311111111111111,0.4155555555555556,-0.6844444444444444,0.001195073019594053,-0.0033072397598552334,0.002181661564992912
1589985572.022412,0.04,-4.394536936581517,8.611373573988232,0.4311111111111111,0.4155555555555556,-0.6844444444444444,0.004363323129985824,-0.0030738497560356456,-0.00039728518290744466
1589985572.032412,0.04,-4.37,8.666550042294332,0.4311111111111111,0.4155555555555556,-0.6844444444444444,0.004363323129985824,-0.002181661564992912,-0.0010231974285432805
1589985572.042412,0.04326240552086757,-4.37,8.69,0.4224113630554643,0.4191804505787418,-0.6797320809143024,0.0032957034198412066,-0.0025375348017077845,-0.0003558732367148724
1589985572.052412,0.046215264836211536,-4.377569470327577,8.678645794508634,0.4044444444444445,0.4266666666666667,-0.67,0.001090830782496456,-0.003272492347489368,-0.001090830782496456
1589985572.062412,0.03543559675314772,-4.3854355967531475,8.623484774025181,0.4044444444444445,0.4266666666666667,-0.67,0.0015887299390357798,-0.0017787948778713964,-0.000592931625957132
1589985572.072412,0.03388969921551622,-4.376110300784484,8.587779398431032,0.4044444444444445,0.4266666666666667,-0.67,0.0013330608372054296,-0.0004243003638937411,-0.0008486007277874822
1589985572.082412,0.04464115840280825,-4.379282316805616,8.651052742430892,0.4044444444444445,0.4266666666666667,-0.67,0.001012543690445065,-0.0026096463181640535,-0.0006628460293253145
1589985572.092412,0.04553665023859814,-4.385536650238598,8.718926699522804,0.41039557745964694,0.42170738915399797,-0.6764470607664693,0.000721033771157303,-0.0029026953361502147,0.0006039548512179196
1589985572.102412,0.04,-4.38,8.703299382641909,0.4177777777777778,0.4155555555555556,-0.6844444444444444,-0.0032752699319363787,-0.001818977165643097,-0.001456292766293282
1589985572.112412,0.03348510490321085,-4.386514895096789,8.624851049032108,0.4177777777777778,0.4155555555555556,-0.6844444444444444,-0.0029419935067232575,0.0006609976815322213,-0.002181661564992912
1589985572.122412,0.04773506151142355,-4.395911687170474,8.625470123022847,0.4177777777777778,0.4155555555555556,-0.6844444444444444,-0.002181661564992912,0.0008919314965843165,-0.002181661564992912
1589985572.132412,0.041259010863235676,-4.395314752715809,8.668740989136765,0.4177777777777778,0.4155555555555556,-0.6844444444444444,-0.000137336780511491,-0.0005110811961203552,-0.0011594991727522015
1589985572.142412,0.0336231586360702,-4.38545894712131,8.70816421151476,0.4177777777777778,0.4155555555555556,-0.6778851458418921,0.000695605485487132,0.00039522529700932395,0.0
1589985572.152412,0.0561978862393117,-4.38,8.699010568803441,0.4177777777777778,0.4155555555555556,-0.67,-0.0004147462728712161,0.002181661564992912,0.0
1589985572.162412,0.03416836150267667,-4.386457909624331,8.60896299413236,0.4177777777777778,0.4155555555555556,-0.67,0.0,0.0014772129041128925,-0.0007044486608800195
1589985572.172412,0.025937984839753535,-4.395937984839754,8.611565893878275,0.4177777777777778,0.4155555555555556,-0.67,-0.0006477336649200442,-0.0008523702122636768,0.00020463654734363245
1589985572.182412,0.034651199432780555,-4.376744002836097,8.653953598298342,0.4177777777777778,0.4155555555555556,-0.67,-0.0005834636308157473,-0.00015219295827007722,-0.0004312706725456703
1589985572.192412,0.04,-4.367852507018444,8.687852507018444,0.42075319561418517,0.4155555555555556,-0.67,-0.00048685160501132316,0.002181661564992912,-0.0016948099599815888
1589985572.202412,0.046096401725518564,-4.396096401725519,8.697807196548963,0.4244444444444445,0.4155555555555556,-0.67,-0.0017558450489624715,0.00018661876559486522,-0.002420859315428487
1589985572.2124119,0.05,-4.4,8.653920461230733,0.4244444444444445,0.4155555555555556,-0.67,-0.001689703171145528,-0.000106913994801688,-0.003764450741336752
1589985572.2224119,0.03969541080680977,-4.393130273871207,8.623739452257587,0.4244444444444445,0.4155555555555556,-0.67,-0.00034145990963564113,0.001090830782496456,-0.002489895947833787
1589985572.2324119,0.02344614508435965,-4.38,8.65689229016872,0.4244444444444445,0.4155555555555556,-0.67,0.0007149146685996207,0.001090830782496456,0.0007149146685996207
1589985572.2424119,0.02941795401153271,-4.38,8.668835908023066,0.4244444444444445,0.4155555555555556,-0.67,6.349136810486944e-05,0.001090830782496456,6.349136810486944e-05
1589985572.2524118,0.05,-4.377247039512253,8.723623519756126,0.4177777777777778,0.4088888888888889,-0.67,-0.0014860954715931025,0.0007905293781932929,-0.0006955660933998095
1589985572.2624118,0.03907817149039762,-4.39,8.659008114687584,0.4177777777777778,0.4088888888888889,-0.67,-0.0027773549019639954,0.002181661564992912,-0.0011913866739421666
1589985572.2724118,0.03558200412627282,-4.395582004126273,8.627910020631365,0.4177777777777778,0.4088888888888889,-0.67,-0.0014457857688011794,0.002790563757888975,-0.002790563757888975
1589985572.2824118,0.048617984781205374,-4.4,8.658617984781205,0.4177777777777778,0.4088888888888889,-0.67,0.0,0.002332416039246887,-0.0013923397310044066
1589985572.2924118,0.05181702398641477,-4.397272341328805,8.67545531734239,0.41959621689190785,0.41070732800301896,-0.6678784877001817,-0.0005950828085365935,0.001090830782496456,0.0004957479739598625
1589985572.3024118,0.03307479889542562,-4.3838504022091485,8.680775603313723,0.4244444444444445,0.4155555555555556,-0.6622222222222223,-0.002517070093504549,0.000755422253984819,-0.001090830782496456
1589985572.3124118,0.04,-4.379930675909878,8.625242634315425,0.4244444444444445,0.4155555555555556,-0.6622222222222223,-0.003272492347489368,0.0,-0.002174099479845623
1589985572.3224118,0.03514248890161822,-4.399715022196763,8.599715022196763,0.4244444444444445,0.4155555555555556,-0.6622222222222223,-0.0027426200842460657,-0.0005298722632433021,-0.0011530032945161598
1589985572.3324118,0.03451148182279814,-4.41,8.646091854582384,0.4244444444444445,0.4155555555555556,-0.6622222222222223,-0.001197408915596625,-0.0015829571071945994,0.0005987044577983125
1589985572.3424118,0.04,-4.397828298887123,8.702171701112878,0.42173962197491616,0.42006359300476953,-0.6622222222222223,0.0004425755416424413,-0.0008539349400655879,0.0
1589985572.3524117,0.029474232170744404,-4.369474232170744,8.709474232170745,0.4177777777777778,0.4266666666666667,-0.6622222222222223,0.001090830782496456,0.0016649223603746014,-0.0005740915778781453
1589985572.3624117,0.03619717495615979,-4.36809858747808,8.66355635634864,0.4177777777777778,0.4266666666666667,-0.6622222222222223,-0.00023429749487802794,0.0012982427134099227,-0.0006491213567049614
1589985572.3724117,0.04881847584394582,-4.383727174718684,8.621181524156054,0.4177777777777778,0.4266666666666667,-0.6622222222222223,-0.0017750898735045253,-0.0004065716914883866,-0.00121971507446516
1589985572.3824117,0.03659093478015146,-4.386704532609924,8.649886402170228,0.4177777777777778,0.4266666666666667,-0.6622222222222223,-0.0007313510553156696,-1.239160095409665e-05,-0.002913012620308582
1589985572.3924117,0.04844325760144682,-4.380778371199276,8.66766488640217,0.4177777777777778,0.4266666666666667,-0.6622222222222223,-8.490712643795901e-05,0.0019269401856790355,-0.002266568691430871
1589985572.4024117,0.05,-4.373861168967615,8.68227766206477,0.4244444444444445,0.4088888888888889,-0.6622222222222223,0.001760473368363495,-0.0004590484875523304,-0.001090830782496456
1589985572.4124117,0.05,-4.389323171068881,8.651353657862238,0.4244444444444445,0.4088888888888889,-0.6622222222222223,7.383058325487971e-05,0.0020709156901105924,-0.001090830782496456
1589985572.4224117,0.03,-4.382340199307843,8.599360797231371,0.4244444444444445,0.4088888888888889,-0.6622222222222223,-0.00025527614421721047,0.000580278494062035,-0.0009052808439068594
1589985572.4324117,0.03294480611378432,-4.392944806113784,8.632944806113786,0.4244444444444445,0.4088888888888889,-0.6622222222222223,-0.0007696022667564863,-0.0009302165246264712,0.002630035316009429
1589985572.4424117,0.052370728575155005,-4.40051708569938,8.661853642875775,0.4228639587276745,0.41310351746694224,-0.6640661222251206,0.001090830782496456,0.0,-0.0008322244118241517
1589985572.4524117,0.05840174458892104,-4.371598255411079,8.7,0.4177777777777778,0.4266666666666667,-0.67,0.001090830782496456,0.0,0.0
1589985572.4624116,0.04624593020186199,-4.383754069798138,8.666213371816758,0.4177777777777778,0.4266666666666667,-0.67,0.00027181980340661594,-0.00040950548954492,-0.00040950548954492
1589985572.4724116,0.044299993336442994,-4.39,8.62289998000933,0.4177777777777778,0.4266666666666667,-0.67,-0.0006217742729042904,-0.0006217742729042904,-0.0013253590372925388
1589985572.4824116,0.05644014950519976,-4.39,8.6735598504948,0.4177777777777778,0.4266666666666667,-0.67,-7.412756774754668e-05,0.001090830782496456,-0.0014050226648302435
1589985572.4924116,0.04718579942990412,-4.39,8.688442601710287,0.4162143330166134,0.4285428003800639,-0.6678111773343699,-0.001874679903994946,0.00047686746050052374,0.0003069816609979661
1589985572.5024116,0.04,-4.39,8.717745741782474,0.4122222222222222,0.43333333333333335,-0.6622222222222223,-0.0015132954609759924,-0.001090830782496456,0.001090830782496456
1589985572.5124116,0.03777010102696836,-4.3922298989730315,8.70101131335059,0.4122222222222222,0.43333333333333335,-0.6622222222222223,-0.0016951730766648816,-0.00036109805000441046,0.00011785380584039529
1589985572.5224116,0.03,-4.398425023367606,8.603149953264788,0.4122222222222222,0.43333333333333335,-0.6622222222222223,-0.0003436065984656349,0.0016662516672944596,-0.0027570824497909156
1589985572.5324116,0.03256502779227958,-4.39256502779228,8.635390166753677,0.4122222222222222,0.43333333333333335,-0.6622222222222223,-0.002181661564992912,-0.0005312285277409575,-0.00027980112737774923
1589985572.5424116,0.03900531277830667,-4.399005312778307,8.67403187666984,0.4122222222222222,0.43333333333333335,-0.6622222222222223,-0.002181661564992912,0.0008738236944206628,-0.0009823272384585594
1589985572.5524116,0.06736636701297304,-4.397366367012973,8.682633632987027,0.4122222222222222,0.4155555555555556,-0.6622222222222223,0.002181661564992912,0.003043515944607044,-0.0007452375989693584
1589985572.5624115,0.054305474153088736,-4.384305474153089,8.658680107841988,0.4122222222222222,0.4155555555555556,-0.6622222222222223,0.002181661564992912,0.003901212891099152,0.0020301395303828663
1589985572.5724115,0.042212997363996765,-4.368893501318002,8.583319496045995,0.4122222222222222,0.4155555555555556,-0.6622222222222223,0.0016988604357466755,0.00012070028231155912,-0.001090830782496456
1589985572.5824115,0.05962431764876813,-4.360187841175616,8.609436476473151,0.4122222222222222,0.4155555555555556,-0.6622222222222223,-0.0020997003903600393,0.0010703404888382378,-0.001090830782496456
1589985572.5924115,0.058847441415590625,-4.407694882831182,8.69769488283118,0.4122222222222222,0.4168361762048994,-0.6622222222222223,-0.003272492347489368,0.003986149215234538,-0.0012165554207468844
1589985572.6024115,0.04954983340576561,-4.39,8.682250832971171,0.4122222222222222,0.4266666666666667,-0.6622222222222223,-0.003076070116192382,0.0009435141090237164,-0.002083450449344419
1589985572.6124115,0.04,-4.38449244098665,8.699708425426577,0.4122222222222222,0.4266666666666667,-0.6622222222222223,0.0004900492916786748,-0.0018812708195840213,-0.0006007814908177812
1589985572.6224115,0.04,-4.371029464222016,8.621372618962688,0.4122222222222222,0.4266666666666667,-0.6622222222222223,-0.001128263157924921,-0.001090830782496456,-0.0020319320632790515
1589985572.6324115,0.04302779191692965,-4.4,8.672111167667719,0.4122222222222222,0.4266666666666667,-0.6622222222222223,-0.002181661564992912,-0.001421111645094538,0.002511942427590994
1589985572.6424115,0.04755198728139905,-4.402448012718601,8.695103974562798,0.415214237767179,0.4239466525348879,-0.6641262321144674,-0.0016475880391143608,-0.0019146248020536364,0.0030054555845500926
1589985572.6524115,0.04817654726055104,-4.405911726369725,8.667735179109174,0.4244444444444445,0.4155555555555556,-0.67,0.0,-0.00198275372713107,0.001735700092675605
1589985572.6624115,0.056464297019852575,-4.38585718807941,8.625250079138969,0.4244444444444445,0.4155555555555556,-0.67,-0.0003856853648509267,-0.0028868069826384415,0.0007051454176455293
1589985572.6724114,0.04470068850572432,-4.365299311494276,8.587948967241413,0.4244444444444445,0.4155555555555556,-0.67,-0.001090830782496456,-0.002181661564992912,0.0
1589985572.6824114,0.03,-4.38,8.61487516796337,0.4244444444444445,0.4155555555555556,-0.67,-0.001002197727758352,-0.002004395455516704,0.0001772661094762078
1589985572.6924114,0.03,-4.38,8.65662265058642,0.4244444444444445,0.4155555555555556,-0.67,-0.00024320707547572816,-0.0004864141509514563,0.0016952474140414556
1589985572.7024114,0.03,-4.383133062321948,8.723733875356103,0.4177777777777778,0.4088888888888889,-0.67,0.0009199487412833817,-0.0029307282650632193,0.00017088204121307434
1589985572.7124114,0.0338935490313561,-4.392212901937288,8.654958058717794,0.4177777777777778,0.4088888888888889,-0.67,-0.0008494406273124988,-0.0015155510961527053,0.001090830782496456
1589985572.7224114,0.046677360832617205,-4.390016041248926,8.620032082497852,0.4177777777777778,0.4088888888888889,-0.67,-0.0010890809536846598,-0.002181661564992912,0.0007266372453937054
1589985572.7324114,0.055315153927813165,-4.4053151539278135,8.663123230714792,0.4177777777777778,0.4088888888888889,-0.67,0.0007501391620431883,-0.0018409699445396442,0.00017034581022663386
1589985572.7424114,0.03236247973057253,-4.381574986487048,8.681574986487048,0.4183027732734606,0.40985138063097404,-0.67,-0.0011767329696008712,-0.00017180437420883022,0.001090830782496456
1589985572.7524114,0.058521267306972685,-4.399014178204649,8.699014178204648,0.4241158371793273,0.4205086644583963,-0.67,-0.002127893326971643,-0.0020741250889503736,0.001090830782496456
1589985572.7624114,0.04,-4.395942159383034,8.659710796915167,0.4244444444444445,0.4211111111111111,-0.67,-0.00044264174554515574,-0.001960340692220334,0.00044264174554515574
1589985572.7724113,0.04,-4.382464331619537,8.592321658097687,0.4244444444444445,0.4211111111111111,-0.67,-0.0019128446861058515,-0.0012252392219399863,0.0019128446861058515
1589985572.7824113,0.04,-4.39,8.658188895417156,0.4244444444444445,0.4211111111111111,-0.67,-0.0007335228146693266,0.0009121767985828912,-0.0001786539839135647
1589985572.7924113,0.04,-4.39,8.696694146592243,0.4244444444444445,0.4211111111111111,-0.67,0.0009465857161124319,7.212253319201201e-05,-0.001018708249304444
1589985572.8024113,0.047558758029190365,-4.38,8.68511751605838,0.4177777777777778,0.4211111111111111,-0.6555555555555556,-0.00079889456678444,-0.001090830782496456,0.001090830782496456
1589985572.8124113,0.04012645590682196,-4.38,8.669747088186355,0.4177777777777778,0.4211111111111111,-0.6555555555555556,-0.003258698147910378,-0.0011184191816544361,0.0010770365829174658
1589985572.8224113,0.04619503725674601,-4.38,8.657609925486508,0.4177777777777778,0.4211111111111111,-0.6555555555555556,-0.002596718613652274,-0.0024423782501706444,0.00041505704865936195
1589985572.8324113,0.04141689373297003,-4.38,8.661444141689373,0.4177777777777778,0.4211111111111111,-0.6555555555555556,-0.0024937521158433966,-0.002336220694937914,0.0
1589985572.8424113,0.022144544514985973,-4.3828593926866475,8.69,0.41738063990463226,0.42071397323796556,-0.6560321210033302,-0.003194514508443347,0.00015595567809204217,0.0
1589985572.8524113,0.04633488102147418,-4.416334881021474,8.691221706326175,0.4122222222222222,0.4155555555555556,-0.6622222222222223,-0.0023149290517691765,0.0019151265914403826,0.0
1589985572.8624113,0.025667272506967164,-4.395667272506967,8.66883000121168,0.4122222222222222,0.4155555555555556,-0.6622222222222223,-0.002654288817149804,0.0,0.00030910176516978213
1589985572.8724113,0.04,-4.398522521686691,8.61008558704829,0.4122222222222222,0.4155555555555556,-0.6622222222222223,-0.0007778311162566346,0.0006259993324796427,0.001090830782496456
1589985572.8824112,0.04,-4.379086299563939,8.66454314978197,0.4122222222222222,0.4155555555555556,-0.6622222222222223,0.0,0.0014382904202432734,0.001090830782496456
1589985572.8924112,0.04,-4.408822157434402,8.681177842565598,0.4122222222222222,0.41385422740524785,-0.6631383219954649,-0.00012848269274885372,-0.0013477961679941633,0.0008338653969987486
1589985572.9024112,0.03736401590060127,-4.397364015900601,8.679456063602405,0.4122222222222222,0.4011111111111111,-0.67,-0.0013783720422759897,-0.0024098685681507672,-0.0013783720422759897
1589985572.9124112,0.028629678603232858,-4.388629678603232,8.643148393016164,0.4122222222222222,0.4011111111111111,-0.67,-0.0018827038126914843,-0.00029895775230142773,-0.0017332249365407703
1589985572.9224112,0.02199535405318808,-4.38,8.607981416212752,0.4122222222222222,0.4011111111111111,-0.67,-0.0004353187246393258,-0.001746342840353586,0.001090830782496456
1589985572.9324112,0.030461052631578948,-4.38,8.640922105263158,0.4122222222222222,0.4011111111111111,-0.67,-0.002030782444129718,5.0293040287731336e-05,0.0009399516616332619
1589985572.9424112,0.03961976937902199,-4.38,8.662281383725869,0.4129404356174029,0.40166033311919047,-0.6694507779919207,0.001090830782496456,0.0010078773293343436,-0.0020987081118307993
1589985572.9524112,0.034200511027434106,-4.3842005110274345,8.713699233458849,0.4311111111111111,0.4155555555555556,-0.6555555555555556,0.0004035237728553155,-0.001090830782496456,0.0002291023365470468
1589985572.9624112,0.04830184238838085,-4.398301842388381,8.692547236417429,0.4311111111111111,0.4155555555555556,-0.6555555555555556,-0.0019038011755501876,-0.001090830782496456,0.0009982106526822145
1589985572.9724112,0.051783078858775124,-4.404650763423675,8.612481552011426,0.4311111111111111,0.4155555555555556,-0.6555555555555556,-0.0019871578343158567,0.00031281585978823457,0.001090830782496456
1589985572.9824111,0.0589145441561533,-4.38325636753154,8.662401809093073,0.4311111111111111,0.4155555555555556,-0.6555555555555556,-0.001209235647247321,-0.002798872888485908,0.001090830782496456
1589985572.9924111,0.030397924355523485,-4.389867358548159,8.699602075644476,0.4311111111111111,0.4155555555555556,-0.6555555555555556,0.0010618929067557836,0.0021093168756412314,1.44689378703362e-05
