time,acc_x,acc_y,acc_z,mag_x,mag_y,mag_z,gyr_x,gyr_y,gyr_z
1589988446.8801618,-3.86,-0.9,8.85,0.3566666666666667,-0.36,-0.6177777777777778,-0.008726646259971648,-0.004363323129985824,0.001090830782496456
1589988446.8901618,-3.8428118212334628,-0.9,8.902811821233463,0.3566666666666667,-0.36,-0.6177777777777778,-0.009204032811200434,-0.003903239956535071,-0.0012441918403133735
1589988446.9001617,-3.8591811656278616,-0.8991811656278617,8.92,0.35511997951929425,-0.3594541104185744,-0.6177777777777778,-0.005096870016924406,-0.0006442259130491136,-0.0020923405911034434
1589988446.9101617,-3.8585960747071857,-0.8871346417642714,8.917134641764271,0.3377777777777778,-0.3533333333333333,-0.6177777777777778,-0.00046570658921395603,0.002175388453497074,-0.000778268685855206
1589988446.9201617,-3.8607254221206304,-0.8864248592931232,8.89072542212063,0.3377777777777778,-0.3533333333333333,-0.6177777777777778,-0.0010116995045476908,-0.005024600920026157,0.0007008434290147157
1589988446.9301617,-3.830891496058895,-0.8945542519705523,8.855445748029448,0.3377777777777778,-0.3533333333333333,-0.6177777777777778,-0.005751173391694329,-0.008429626780759598,0.000696564168932663
1589988446.9401617,-3.8626114673496477,-0.88,8.88044586939859,0.3377777777777778,-0.3533333333333333,-0.6177777777777778,-0.005975250900482727,-0.007066081682979184,-0.0041270930392333805
1589988446.9501617,-3.8694580740475444,-0.8810838519049111,8.91108385190491,0.3385003457143852,-0.353694617301637,-0.615489645978521,-0.004658897885371945,-0.005335924010327831,-0.006190294988515389
1589988446.9601617,-3.860069391592425,-0.8998612168151497,8.92986121681515,0.3510185889878776,-0.3599537389383832,-0.5758485422791283,-0.00977962979993622,-0.0032876312445021226,-4.541669103826432e-05
1589988446.9701617,-3.84,-0.91,8.902235452474633,0.3511111111111111,-0.36,-0.5755555555555556,-0.009602164650492637,-0.00545415391248228,-0.003502073562083949
1589988446.9801617,-3.84,-0.91,8.837093083454132,0.3511111111111111,-0.36,-0.5755555555555556,-0.008812616857467011,-0.00545415391248228,-0.0003438823899814536
1589988446.9901617,-3.8584219509746265,-0.8984219509746267,8.882624392202986,0.3511111111111111,-0.36,-0.5755555555555556,-0.004765600131215996,0.00017213844531657093,-0.00017213844531657093
1589988447.0001616,-3.852405943860354,-0.8924059438603538,8.93075244911717,0.3511111111111111,-0.36,-0.5755555555555556,-0.0021406218320293266,0.0008283830201132383,-0.0008283830201132383
1589988447.0101616,-3.85,-0.8800960138511785,8.930192027702358,0.3445084536785635,-0.36550221452712306,-0.5986648565694723,-0.0043319026706623515,0.001090830782496456,-0.001090830782496456
1589988447.0201616,-3.848858777801771,-0.8840941481321529,8.931191157417404,0.34444444444444444,-0.3655555555555556,-0.5988888888888889,-0.0018595473142773208,-0.0005765373988356484,-0.0019894824320476957
1589988447.0301616,-3.7705163291966035,-0.9406743958197257,8.88253951665578,0.34444444444444444,-0.3655555555555556,-0.5988888888888889,-0.0021989039588116016,0.0007965700945989787,-0.0008873776603920385
1589988447.0401616,-3.8458548334421945,-0.9064296211626388,8.85514369693011,0.34444444444444444,-0.3655555555555556,-0.5988888888888889,0.009754777428581957,0.01573867182884093,-0.0001402725736799411
1589988447.0501616,-3.7902886310524373,-0.9498425648804887,9.019632651387807,0.34444444444444444,-0.3655555555555556,-0.5989209590058264,-0.015243008442515563,-0.017430394509995437,-0.001090830782496456
1589988447.0601616,-3.8848671641179124,-0.8982542741175024,8.89925997294084,0.34444444444444444,-0.3655555555555556,-0.6094296849019903,-0.00586399251240838,-0.009927181765909694,-0.001090830782496456
1589988447.0701616,-3.832088110585059,-0.9037356682448234,8.911647557659764,0.34444444444444444,-0.3655555555555556,-0.6111111111111112,-0.0063172071646348475,-0.007359981077908322,-0.0006352757218086808
1589988447.0801616,-3.8396999005694656,-0.8802000662870229,8.880900298291603,0.34444444444444444,-0.3655555555555556,-0.6111111111111112,-0.00545415391248228,-0.0021161900256656367,0.0010799188592752434
1589988447.0901616,-3.8299036144578316,-0.8891434830230011,8.95552464403067,0.34444444444444444,-0.3655555555555556,-0.6111111111111112,-0.0038751375245881766,0.005152831323932875,-0.0005921311454602888
1589988447.1001616,-3.9186688108152308,-0.841109324320641,8.89022186486413,0.34444444444444444,-0.36543229729770654,-0.6109632012016923,0.0031756855381511887,0.008557234343629833,-0.0032482906451548233
1589988447.1101615,-3.86,-0.8912135757284855,8.89514569708606,0.34444444444444444,-0.36,-0.6044444444444445,-0.00029654732558297484,0.0014879725109531966,-0.002181661564992912
1589988447.1201615,-3.86,-0.8996020079598408,8.861591968160637,0.34444444444444444,-0.36,-0.6044444444444445,0.005193668731325749,0.004233080539407559,-0.002181661564992912
1589988447.1301615,-3.842129215433952,-0.9078707845660478,8.795323038584879,0.34444444444444444,-0.36,-0.6044444444444445,0.002065530878096829,0.0031563616605932853,-0.0019494001912007462
1589988447.1401615,-3.859263843781277,-0.8907361562187226,8.838159609453193,0.34444444444444444,-0.36,-0.6044444444444445,0.0011309818757018937,0.0022218126581983496,-8.030218641087543e-05
1589988447.1501615,-3.853189283654009,-0.8763785673080186,8.874053581729953,0.34444444444444444,-0.36,-0.6044444444444445,-0.00039503702571523224,0.0014387276608870678,-0.0007429339041058441
1589988447.1601615,-3.8770376138929987,-0.87,8.917037613893,0.3624695203731105,-0.3650069655357406,-0.6164611617302218,0.0008753999854860196,0.003057061550478932,-0.001090830782496456
1589988447.1701615,-3.8483617678937017,-0.87,8.959547790132874,0.3644444444444445,-0.3655555555555556,-0.6177777777777778,-0.0006347670917694441,0.0006840955360905175,-0.001090830782496456
1589988447.1801615,-3.859450178200178,-0.9094501782001783,8.862199287199287,0.3644444444444445,-0.3655555555555556,-0.6177777777777778,-0.0033324686019026903,-5.997625441332236e-05,-0.0012107832913231006
1589988447.1901615,-3.851664501039501,-0.901664501039501,8.893341995841997,0.3644444444444445,-0.3655555555555556,-0.6177777777777778,-0.004181754232847315,-0.0009092618853579476,-0.002909354553212351
1589988447.2001615,-3.8770044221215265,-0.9,8.9,0.3644444444444445,-0.3655555555555556,-0.6177777777777778,-0.0053452316271088,-0.0030546477767424097,-0.004254400844612345
1589988447.2101614,-3.8476831198429946,-0.9080792200392513,8.948475320235508,0.3536721510587761,-0.36106709997819375,-0.6177777777777778,-0.008098072487695535,-0.007679023306178124,-0.0017194045547725698
1589988447.2201614,-3.842886436236347,-0.8728864362363473,8.867011036936438,0.3511111111111111,-0.36,-0.6177777777777778,-0.005296723237566237,-0.007320954127643108,-0.0017093695402447858
1589988447.2301614,-3.8589322672583637,-0.8889322672583638,8.794804797337362,0.3511111111111111,-0.36,-0.6177777777777778,-0.00442155891708863,-0.005570625486687892,0.0009161234211880376
1589988447.2401614,-3.831311601906787,-0.9,8.861804417161082,0.3511111111111111,-0.36,-0.6177777777777778,-0.0018955144181320666,-0.0009477572090660333,0.0005185364887747651
1589988447.2501614,-3.8385037209780855,-0.9,8.92653348880277,0.3511111111111111,-0.36,-0.6177777777777778,-0.00032643744326156846,-0.00016321872163078423,-0.0026196174609662308
1589988447.2601614,-3.8360013494926424,-0.902998987880518,8.937997301014715,0.3511111111111111,-0.3533333333333333,-0.6255555555555555,-0.002181661564992912,0.0023997541180864343,0.0007636919528561724
1589988447.2701614,-3.8224809835485583,-0.9139421546081727,8.973066955598798,0.3511111111111111,-0.3533333333333333,-0.6255555555555555,-0.0006051862801352398,0.005414306653224272,-0.0018313337239134293
1589988447.2801614,-3.9356781813839374,-0.831728727446425,8.786050546062487,0.3511111111111111,-0.3533333333333333,-0.6255555555555555,0.0064100785539556605,0.00949399599013433,0.0
1589988447.2901614,-3.890144386303928,-0.8499422454784289,8.849797859174501,0.3511111111111111,-0.3533333333333333,-0.6255555555555555,-0.006504034428505964,-0.005406903605013698,0.0
1589988447.3001614,-3.8656327131263386,-0.8743672868736614,8.898734573747323,0.3511111111111111,-0.3533333333333333,-0.6255555555555555,-0.0005643527082436163,-0.00013803659093995172,-0.001329029330385582
1589988447.3101614,-3.856376787145207,-0.8963767871452069,8.91086963856438,0.3468599196809732,-0.36112718428858614,-0.6205958322203946,0.0004900940629216292,0.0011856936340635636,-0.002181661564992912
1589988447.3201613,-3.842158647594278,-0.8910793237971392,8.837841352405722,0.34444444444444444,-0.3655555555555556,-0.6177777777777778,0.0017107177161127776,0.003037020423049301,-0.0025660765741691662
1589988447.3301613,-3.8584399200357122,-0.8992199600178561,8.821560079964287,0.34444444444444444,-0.3655555555555556,-0.6177777777777778,-0.0018413049153526927,0.0012610091073165658,0.002761957373029039
1589988447.3401613,-3.8454365315566137,-0.8854365315566137,8.856408671108465,0.34444444444444444,-0.3655555555555556,-0.6177777777777778,-0.002181661564992912,0.001090830782496456,-0.0006990775720010032
1589988447.3501613,-3.84,-0.88,8.913830646433416,0.34444444444444444,-0.3655555555555556,-0.6177777777777778,-0.0031378979319186947,0.001090830782496456,0.0006870475357844356
1589988447.3601613,-3.865154955636853,-0.89,8.938788738909214,0.3566666666666667,-0.37333333333333335,-0.6044444444444445,-0.003404620435836412,0.0005623184291082819,0.0008265746058023689
1589988447.3701613,-3.8300722205269047,-0.8900361102634523,8.929638897365477,0.3566666666666667,-0.37333333333333335,-0.6044444444444445,-0.004367262148679611,-0.003264614310101793,-0.0010987088198840308
1589988447.3801613,-3.8493254171858586,-0.9,8.83,0.3566666666666667,-0.37333333333333335,-0.6044444444444445,-0.00545415391248228,-0.0012380019222981964,-0.003272492347489368
1589988447.3901613,-3.840658571902095,-0.9,8.836585719020952,0.3566666666666667,-0.37333333333333335,-0.6044444444444445,-0.00545415391248228,-0.0031288142468308268,-0.0030569751965015563
1589988447.4001613,-3.847975785488739,-0.9,8.909757854887388,0.3566666666666667,-0.37333333333333335,-0.6044444444444445,-0.00545415391248228,-0.0015324458823483909,-0.0006624226497779022
1589988447.4101613,-3.839138077932917,-0.9,8.930861922067082,0.3377777777777778,-0.3533333333333333,-0.5966666666666667,-0.003084450122911985,0.0001880422245773828,-0.0009027885579190732
1589988447.4201612,-3.8318450383404916,-0.9,8.938154961659508,0.3377777777777778,-0.3533333333333333,-0.5966666666666667,-0.0014933557058352915,0.001779136641654076,0.00068830585915762
1589988447.4301612,-3.85123699586718,-0.89,8.841132962804618,0.3377777777777778,-0.3533333333333333,-0.5966666666666667,-0.0004048059509221564,0.002316596881966964,0.003272492347489368
1589988447.4401612,-3.8593324960338444,-0.8906675039661555,8.923337519830778,0.3377777777777778,-0.3533333333333333,-0.5966666666666667,-0.003272492347489368,0.003418119122233541,0.0031268655727451954
1589988447.4501612,-3.8537874140666313,-0.8962125859333686,8.951062929666843,0.3377777777777778,-0.3533333333333333,-0.5966666666666667,-0.003272492347489368,0.0046278683424939545,0.0019171163524847813
1589988447.4601612,-3.855291331688291,-0.9,8.959417336623417,0.34130533223663845,-0.35627296204905057,-0.6078372557863921,-0.003272492347489368,0.003722569666686246,-0.001217948211898256
1589988447.4701612,-3.86,-0.9,8.86561177700909,0.34444444444444444,-0.3588888888888889,-0.6177777777777778,-0.003320360434678799,0.002325265826561205,-0.003128888085921075
1589988447.4801612,-3.86,-0.9,8.781260156061458,0.34444444444444444,-0.3588888888888889,-0.6177777777777778,-0.0042404938815102855,0.005085666167055665,-0.00036848774542661434
1589988447.4901612,-3.852453174965738,-0.9,8.792640475102788,0.34444444444444444,-0.3588888888888889,-0.6177777777777778,-0.004363323129985824,0.00545415391248228,0.00164646181149762
1589988447.5001612,-3.858327759197324,-0.9,8.883277591973245,0.34444444444444444,-0.3588888888888889,-0.6177777777777778,-0.009813828778981494,0.009996241953312005,0.0012732439568269671
1589988447.5101612,-3.8534498238954686,-0.8934498238954688,8.919650528313595,0.34881122851413193,-0.3596166862338368,-0.6039496282237673,-0.011622821197524103,0.010193794452405017,0.0018053441550559992
1589988447.5201612,-3.85,-0.89,8.892804326767841,0.3511111111111111,-0.36,-0.5966666666666667,-0.011999138607461015,0.006774413142169123,0.002181661564992912
1589988447.5301611,-3.8566753000946354,-0.8966753000946357,8.823246999053643,0.3511111111111111,-0.36,-0.5966666666666667,-0.01636811230283906,0.004360497847289713,0.003637986130118927
1589988447.5401611,-3.86,-0.9,8.891566265060241,0.3511111111111111,-0.36,-0.5966666666666667,-0.016697596495924664,0.006042282557261995,0.002516796323470739
1589988447.5501611,-3.842779970063954,-0.9086100149680228,8.918610014968023,0.3511111111111111,-0.36,-0.5966666666666667,-0.016362461737446838,0.008423398567953651,0.0031208685014803695
1589988447.560161,-3.8413793879026428,-0.9,8.977241224194715,0.3377777777777778,-0.3533333333333333,-0.6255555555555555,-0.017528526459203594,0.011209243582005753,0.003272492347489368
1589988447.570161,-3.8548561330227327,-0.9,8.950287733954534,0.3377777777777778,-0.3533333333333333,-0.6255555555555555,-0.018263568880446245,0.01414941326697636,0.003272492347489368
1589988447.580161,-3.8191848161719295,-0.8895924080859648,8.889796204042984,0.3377777777777778,-0.3533333333333333,-0.6255555555555555,-0.018521892612113438,0.01313443077061009,0.0010019080211912156
1589988447.590161,-3.784648194656017,-0.8723240973280085,8.881162048664004,0.3377777777777778,-0.3533333333333333,-0.6255555555555555,-0.01758005236528877,0.015018111264259433,-0.0027654529661074673
1589988447.600161,-3.8137067904817177,-0.8784266976204295,8.913706790481719,0.3377777777777778,-0.3533333333333333,-0.6255555555555555,-0.022968553215435766,0.016190841070865793,-0.01062617327481266
1589988447.610161,-3.7427069916697806,-0.7872483900037365,8.904541398333956,0.3429306449997924,-0.35848620055534797,-0.6161086323151953,-0.023155141287338445,0.016362461737446838,-0.01452854639021177
1589988447.620161,-3.570928982363482,-0.7401238643151309,9.00931874626678,0.34444444444444444,-0.36,-0.6133333333333333,-0.017487071271892713,0.019614686833766562,-0.033700906500762115
1589988447.630161,-3.484051559620953,-0.4781215451434588,8.714696137141354,0.34444444444444444,-0.36,-0.6133333333333333,0.002452861795071328,0.03960941094598567,-0.07660123359399572
1589988447.640161,-3.3529451829428796,-0.4367195314556462,8.818201171360885,0.34444444444444444,-0.36,-0.6133333333333333,-0.015612174600130903,0.02304979425038362,-0.1300436329298023
1589988447.650161,-3.1106255680096937,-0.45029990911844897,8.973624659194183,0.34444444444444444,-0.36,-0.6133333333333333,-0.007207711485132218,0.01553615989811561,-0.22020853143149943
1589988447.660161,-3.149528748180495,-0.5489412502021673,9.08,0.3566666666666667,-0.3411111111111111,-0.6177777777777778,0.002245747652934338,0.01682442848562199,-0.36352835590076366
1589988447.670161,-3.225844250363901,-0.5404617499595666,9.08,0.3566666666666667,-0.3411111111111111,-0.6177777777777778,0.011495447537749325,0.020524308439547986,-0.43567601500232056
1589988447.680161,-2.6631248859789594,-0.7155565240305677,8.957474307258833,0.3566666666666667,-0.3411111111111111,-0.6177777777777778,0.01970126672590081,0.02247784046333544,-0.48230130149360434
1589988447.690161,-2.042477651876026,-0.8090787099912837,8.914964222731236,0.3566666666666667,-0.3411111111111111,-0.6177777777777778,0.039177216408977575,0.03360695456795073,-0.4665350565120661
1589988447.700161,-1.6946918932309407,-1.294141739435602,8.825878078487232,0.3566666666666667,-0.3411111111111111,-0.6177777777777778,0.055633090507328335,0.04992231291661213,-0.45468342809233986
1589988447.710161,-1.57165723456373,-1.5292818650223836,8.431381028803107,0.3644444444444445,-0.37333333333333335,-0.5966666666666667,0.03354458988600006,0.14575553948506034,-0.5601083907888632
1589988447.720161,-1.784224174339049,-1.4371695244530787,8.60852014528254,0.3644444444444445,-0.37333333333333335,-0.5966666666666667,-0.0012365943011981573,0.09242439039802305,-0.6258061831424598
1589988447.730161,-1.9754236898559607,-1.3520801409745633,8.82375957707631,0.3644444444444445,-0.37333333333333335,-0.5966666666666667,-0.008998936076809946,0.016540645251719166,-0.6909984263480801
1589988447.740161,-2.07463626677373,-1.299527324387344,8.89309084451582,0.3644444444444445,-0.37333333333333335,-0.5966666666666667,0.016049070444987934,0.0451504460536534,-0.7009361191202361
1589988447.750161,-2.198690983856229,-1.1807017209869022,8.943738196771244,0.3644444444444445,-0.37333333333333335,-0.5966666666666667,0.03428977389341785,0.058772371004573935,-0.7222521690026822
1589988447.760161,-2.215173785916855,-1.14,9.01671796337415,0.3446761590002516,-0.34944665508826694,-0.6090218450692871,0.019824525112606406,0.047019466263949726,-0.7524078404838163
1589988447.770161,-2.2516265909373576,-1.1704647402678163,9.076282077857469,0.3377777777777778,-0.3411111111111111,-0.6133333333333333,0.01986308293043612,0.0506091260363368,-0.790268439517434
1589988447.780161,-2.3124866299075495,-1.1878533228307284,8.937173417354172,0.3377777777777778,-0.3411111111111111,-0.6133333333333333,0.0283986834360586,0.06673192699140149,-0.8092364406410395
1589988447.790161,-2.3948492174576916,-1.2180684565466344,8.901287695635578,0.3377777777777778,-0.3411111111111111,-0.6133333333333333,0.028431833246796538,0.06566054565545341,-0.8319900597895186
1589988447.800161,-2.4075355142152457,-1.22,8.877393457354263,0.3377777777777778,-0.3411111111111111,-0.6133333333333333,0.025895609084528936,0.06298385568940844,-0.8523006508235306
1589988447.8101609,-2.42,-1.2599825138432075,8.849947541529621,0.3644444444444445,-0.3477777777777778,-0.6044444444444445,0.022909353876235262,0.06108843126361122,-0.8770470235652476
1589988447.8201609,-2.42,-1.2425200882634582,8.797560264790373,0.3644444444444445,-0.3477777777777778,-0.6044444444444445,0.02481420901217967,0.06299328639955563,-0.8960955749246915
1589988447.8301609,-2.411504521138096,-1.256990957723808,8.696549732519054,0.3644444444444445,-0.3477777777777778,-0.6044444444444445,0.02601582098287978,0.06234147239933315,-0.9155253985153831
1589988447.8401608,-2.432030292400074,-1.2820302924000744,8.753434308000248,0.3644444444444445,-0.3477777777777778,-0.6044444444444445,0.023776806670175066,0.06458048671203787,-0.9328983115204551
1589988447.8501608,-2.485621945204251,-1.3030348414869288,8.845174207434644,0.3644444444444445,-0.3477777777777778,-0.6044444444444445,0.029305909284932312,0.06544984694978735,-0.9487785777011298
1589988447.8601608,-2.51,-1.3547308695504896,8.996300260831273,0.4101693333182782,-0.3338615072509588,-0.6104085603845097,0.03565255204090411,0.0644739707611172,-0.9700909537031214
1589988447.8701608,-2.5035111289352314,-1.3729777421295368,9.003511128935232,0.4155555555555556,-0.3322222222222222,-0.6111111111111112,0.03528958979227305,0.06789814631784086,-0.9804241395656621
1589988447.8801608,-2.4921015094339625,-1.3878984905660376,8.913116603773585,0.4155555555555556,-0.3322222222222222,-0.6111111111111112,0.03576817670435576,0.07239794507318073,-0.9988056632258064
1589988447.8901608,-2.49,-1.4185254952397384,8.872884702856156,0.4155555555555556,-0.3322222222222222,-0.6111111111111112,0.03475275629064453,0.07370799219313182,-1.0086967867729355
1589988447.9001608,-2.50995819197423,-1.4549686439806724,8.855010452006441,0.4155555555555556,-0.3322222222222222,-0.6111111111111112,0.03218292849475537,0.07635359422660537,-1.0199130999897468
1589988447.9101608,-2.5240561707311766,-1.47,8.861887658537645,0.4195181084014378,-0.31306988346712494,-0.6150736639569934,0.026004663557265675,0.07529796037357692,-1.0355489630344354
1589988447.9201608,-2.52,-1.4863134124566748,8.853686587543326,0.4222222222222222,-0.3,-0.6177777777777778,0.022907446432425576,0.07308566242726255,-1.0533102593930617
1589988447.9301608,-2.528033027442563,-1.5462311920979435,8.705405506033859,0.4222222222222222,-0.3,-0.6177777777777778,0.02553624851572164,0.07396192978836125,-1.0611818016231616
1589988447.9401608,-2.487097487960432,-1.5857415072237409,8.730063516855395,0.4222222222222222,-0.3,-0.6177777777777778,0.03366783970458462,0.07604846844092641,-1.0690210954606338
1589988447.9501607,-2.507181443022511,-1.5845637113954978,8.816108040463032,0.4222222222222222,-0.3,-0.6177777777777778,0.035499592135119155,0.07457913348905422,-1.0748490543908837
1589988447.9601607,-2.547808686524078,-1.5948405721033985,8.88890434326204,0.4265094986076485,-0.2940637711586406,-0.6177777777777778,0.03664495793759285,0.07340943348486746,-1.081745583407439
1589988447.9701607,-2.5804014193834552,-1.6491971612330893,8.905200709691728,0.43666666666666665,-0.28,-0.6177777777777778,0.03974964146809608,0.07522353593023909,-1.089696163651943
1589988447.9801607,-2.57,-1.6781660855378906,8.851003486772656,0.43666666666666665,-0.28,-0.6177777777777778,0.03699766099625019,0.07813971827019797,-1.0988478182259633
1589988447.9901607,-2.57,-1.68,8.84,0.43666666666666665,-0.28,-0.6177777777777778,0.035997415822383035,0.07671899936495127,-1.107931527438098
1589988448.0001607,-2.5757783207020344,-1.7204482449142402,8.857334962106103,0.43666666666666665,-0.28,-0.6177777777777778,0.032215513766633716,0.07572783776546037,-1.1125264908453534
1589988448.0101607,-2.6120085139318885,-1.7628034055727555,8.850794891640867,0.4537378740970072,-0.27573219814241484,-0.6177777777777778,0.03084906601935914,0.07666395888421029,-1.1169240120493102
1589988448.0201607,-2.5779055294023774,-1.8047296470650815,8.83131758823373,0.4633333333333333,-0.2733333333333333,-0.6177777777777778,0.029739884288205794,0.07744898555724837,-1.1237841772714414
1589988448.0301607,-2.577743792655864,-1.825487585311728,8.729330695473767,0.4633333333333333,-0.2733333333333333,-0.6177777777777778,0.03283129808831889,0.07829370229747702,-1.1238018200136175
1589988448.0401607,-2.572609963720864,-1.8595601451165438,8.73695018139568,0.4633333333333333,-0.2733333333333333,-0.6177777777777778,0.03300962635168543,0.07692756052833541,-1.1259740896884638
1589988448.0501606,-2.5831460745777117,-1.8634269627111442,8.78286518644428,0.4633333333333333,-0.2733333333333333,-0.6177777777777778,0.03200791633397558,0.07564114763383382,-1.1296962268825115
1589988448.0601606,-2.6044430146030324,-1.888886029206065,8.850550551110613,0.49141697283922986,-0.24524969382743683,-0.6450590275835059,0.0379360466608107,0.07526732399225547,-1.1304037772027733
1589988448.0701606,-2.594066598641149,-1.9079667006794254,8.877966700679426,0.5022222222222222,-0.2344444444444445,-0.6555555555555556,0.042098803419579445,0.07874345292667662,-1.128362626199118
1589988448.0801606,-2.6304218103477757,-1.933098177341586,8.851127278323018,0.5022222222222222,-0.2344444444444445,-0.6555555555555556,0.04254240051736178,0.08026055219383539,-1.1266592189581472
1589988448.0901606,-2.6479244489609983,-1.9560377755195009,8.811886673441498,0.5022222222222222,-0.2344444444444445,-0.6555555555555556,0.04188378137791426,0.07874562048639518,-1.123761510118
1589988448.1001606,-2.6338309740037453,-2.003183181973782,8.830845129981274,0.5022222222222222,-0.2344444444444445,-0.6555555555555556,0.03875982435297117,0.07812192190272191,-1.119773129806959
1589988448.1101606,-2.5889834451901566,-2.0505082774049215,8.863672184936615,0.5113370121799652,-0.2162148645289585,-0.650998160576684,0.03261403454702648,0.07779411433010265,-1.1106445319624456
1589988448.1201606,-2.5893165800234246,-2.0406834199765753,8.850683419976574,0.5155555555555555,-0.20777777777777776,-0.6488888888888888,0.029840891239830518,0.07815135622731863,-1.1043837615536218
1589988448.1301606,-2.563522646431112,-2.095659236423998,8.730567939293335,0.5155555555555555,-0.20777777777777776,-0.6488888888888888,0.028656618724665312,0.07535656672878885,-1.090892735062832
1589988448.1401606,-2.55,-2.104552857008378,8.720894285983244,0.5155555555555555,-0.20777777777777776,-0.6488888888888888,0.030889133206440697,0.07333398225591473,-1.0788848607818717
1589988448.1501606,-2.562871958516155,-2.1386158755484646,8.768615875548464,0.5155555555555555,-0.20777777777777776,-0.6488888888888888,0.033038205550441124,0.07238360599824059,-1.0682253051757387
1589988448.1601605,-2.5806751513270214,-2.1706751513270217,8.806012726990533,0.529789090658251,-0.19354424267508233,-0.6601571041785228,0.03614471099245474,0.07199483164476607,-1.0577376210963831
1589988448.1701605,-2.59,-2.193410059949348,8.82,0.5422222222222223,-0.1811111111111111,-0.67,0.03891048269676953,0.07492045288234032,-1.0453376520151445
1589988448.1801605,-2.549324755400458,-2.227116829733028,8.806441585133486,0.5422222222222223,-0.1811111111111111,-0.67,0.037790914540047314,0.07487916114492682,-1.035827422764815
1589988448.1901605,-2.5445004177784964,-2.269000835556993,8.807250208889249,0.5422222222222223,-0.1811111111111111,-0.67,0.03629737150128735,0.07417649320975901,-1.0274806252989985
1589988448.2001605,-2.5437290580053737,-2.2862709419946263,8.822541883989253,0.5422222222222223,-0.1811111111111111,-0.67,0.03394525485348665,0.07417649320975901,-1.024012828234071
1589988448.2101605,-2.5248446225609356,-2.2824223112804676,8.852733066158596,0.5523258071815985,-0.15837804495251445,-0.6969428932250035,0.029418533028716914,0.07087010276358224,-1.0240258715932198
1589988448.2201605,-2.491447096720905,-2.322829354918642,8.810032419261583,0.5555555555555556,-0.1511111111111111,-0.7055555555555556,0.02758294069924584,0.07059182972543519,-1.0281834029924821
1589988448.2301605,-2.475054850240355,-2.344945149759645,8.755383951682484,0.5555555555555556,-0.1511111111111111,-0.7055555555555556,0.0272707695624114,0.07198286517864479,-1.0319019873094046
1589988448.2401605,-2.47,-2.37566110895696,8.72,0.5555555555555556,-0.1511111111111111,-0.7055555555555556,0.029510123767471204,0.07308566242726255,-1.0374666131142298
1589988448.2501605,-2.443514674517108,-2.422071104569077,8.724414220913816,0.5555555555555556,-0.1511111111111111,-0.7055555555555556,0.032597126303103116,0.07453021284332138,-1.0435416673337365
1589988448.2601604,-2.40620923371342,-2.4462092337134203,8.743267682003031,0.5566085461907166,-0.14352957853795106,-0.7072403405718134,0.0340225084851227,0.07759868014114729,-1.0490583392461907
1589988448.2701604,-2.384041022247953,-2.441917955504094,8.823835911008189,0.5611111111111111,-0.1111111111111111,-0.7144444444444444,0.03620663231271547,0.08355316310614509,-1.0615651936939667
1589988448.2801604,-2.365960895291999,-2.4710586570620015,8.769804476459996,0.5611111111111111,-0.1111111111111111,-0.7144444444444444,0.03938538974100627,0.08858825652448063,-1.0730737018823393
1589988448.2901604,-2.325631934066929,-2.4868736131866145,8.794988905492913,0.5611111111111111,-0.1111111111111111,-0.7144444444444444,0.03736155941199596,0.08828957029192616,-1.0863973158302138
1589988448.3001604,-2.292624493072853,-2.524751013854293,8.82,0.5611111111111111,-0.1111111111111111,-0.7144444444444444,0.03283845951944772,0.08916183638147766,-1.0958851125811524
1589988448.3101604,-2.28,-2.570767893364242,8.840767893364243,0.5480350301039957,-0.0795746804468914,-0.7244438005087093,0.028277836172968834,0.08751838729796327,-1.1078639897918447
1589988448.3201604,-2.256963841138115,-2.5723212803793714,8.857678719620628,0.5422222222222223,-0.06555555555555556,-0.7288888888888889,0.025595532815943216,0.09120134205662456,-1.1182575143497613
1589988448.3301604,-2.2562545956776314,-2.6012729783881574,8.753671873480265,0.5422222222222223,-0.06555555555555556,-0.7288888888888889,0.02440683744769552,0.09135607541275281,-1.126423648571367
1589988448.3401604,-2.214445476220354,-2.6143056845275443,8.69,0.5422222222222223,-0.06555555555555556,-0.7288888888888889,0.02337712375466197,0.09302356878824608,-1.1356910718086688
1589988448.3501604,-2.18,-2.615316360672615,8.705949082017845,0.5422222222222223,-0.06555555555555556,-0.7288888888888889,0.025227146381442363,0.09664205303895425,-1.1433977176323216
1589988448.3601604,-2.173393572977591,-2.659638562134455,8.739819281067227,0.5598393609486466,-0.08317269428197994,-0.7523784071907881,0.0272707695624114,0.10177801740386119,-1.1493457499871194
1589988448.3701603,-2.17,-2.7391794925124793,8.736849001663893,0.5688888888888889,-0.09222222222222222,-0.7644444444444445,0.026553493872132166,0.10434620002744255,-1.1551301296754366
1589988448.3801603,-2.165162251969999,-2.7361357637899935,8.696135763789993,0.5688888888888889,-0.09222222222222222,-0.7644444444444445,0.02776308812064093,0.10524747156656843,-1.1605377589101917
1589988448.3901603,-2.149831162566329,-2.7254220935841778,8.675253256150507,0.5688888888888889,-0.09222222222222222,-0.7644444444444445,0.025570062814206602,0.10802908208112634,-1.1689080613264013
1589988448.4001603,-2.111744571003544,-2.7621094695699098,8.730364898566364,0.5688888888888889,-0.09222222222222222,-0.7644444444444445,0.018294113738846013,0.11061422177102744,-1.1750548601828428
1589988448.4101603,-2.071329993263725,-2.7822166554395418,8.790443331087907,0.5688888888888889,-0.09340443845664459,-0.7653803656300289,0.012751449951687793,0.11160325925290818,-1.1771031341531817
1589988448.4201603,-2.0896245709253636,-2.8230830472835757,8.772332189134303,0.5688888888888889,-0.11888888888888888,-0.7855555555555556,0.007340460148519319,0.11512794282003962,-1.1814516433619133
1589988448.4301603,-2.056344827586207,-2.7690344827586206,8.647172413793104,0.5688888888888889,-0.11888888888888888,-0.7855555555555556,0.008922243503729632,0.10873702158761225,-1.1864778346941107
1589988448.4401603,-1.915620591150236,-2.6749425756427447,8.786506150527604,0.5688888888888889,-0.11888888888888888,-0.7855555555555556,-0.015957494068646202,0.09802805867657753,-1.1929275325175994
1589988448.4501603,-1.8363629077502606,-2.7627266169752343,9.201819347599583,0.5688888888888889,-0.11888888888888888,-0.7855555555555556,-0.0322292105201165,0.08022567752263167,-1.1941622790607527
1589988448.4601603,-1.8706399179177018,-2.771066529862836,8.58619856355978,0.5808504038113067,-0.1281318776925754,-0.8073037645054061,0.03476420800125965,0.10520561602764286,-1.1724350628378435
1589988448.4701602,-1.9006938355015692,-2.8689757780493066,8.568656412467956,0.5933333333333334,-0.13777777777777778,-0.83,0.03422541362909602,0.10468010897823217,-1.1695219702608208
1589988448.4801602,-1.95,-2.985029735164506,8.880654173619133,0.5933333333333334,-0.13777777777777778,-0.83,-0.01038559765665239,0.07421541644907798,-1.179194563085222
1589988448.4901602,-1.9135978801145528,-2.9557319200763685,8.630458540439118,0.5933333333333334,-0.13777777777777778,-0.83,0.025221857640358992,0.09079483105096403,-1.1648610607897816
1589988448.5001602,-1.8666190134696932,-2.930647605387877,8.633523946121226,0.5933333333333334,-0.13777777777777778,-0.83,0.0371432949218373,0.09509861197255089,-1.1537301594630038
1589988448.5101602,-1.8520566169077268,-2.9652123134039754,8.79425477608477,0.5665408513161627,-0.14313627418121191,-0.7901461829994586,0.020366111913160685,0.08191675980555198,-1.1488537162054036
1589988448.5201602,-1.854291035938072,-3.054574621562843,8.842873107814215,0.5044444444444445,-0.15555555555555556,-0.6977777777777778,0.016702740059318162,0.08019152970993822,-1.1375508997864192
1589988448.5301602,-1.8510055708495003,-3.0568044566796004,8.660771031582598,0.5044444444444445,-0.15555555555555556,-0.6977777777777778,0.030652952673562373,0.08072147790473774,-1.125234005394323
1589988448.5401602,-1.8574346405228759,-3.08902614379085,8.595748366013071,0.5044444444444445,-0.15555555555555556,-0.6977777777777778,0.02298515921366225,0.07284468150929928,-1.1140569226280814
1589988448.5501602,-1.8143657797462454,-3.1273598854440707,8.672640114555929,0.5044444444444445,-0.15555555555555556,-0.6977777777777778,0.01663919252771818,0.068384471998732,-1.1015122350070015
1589988448.5601602,-1.7940160371702638,-3.17,8.662128297362111,0.5080142552624567,-0.13926829369837462,-0.6850603267386092,0.02683268786551403,0.07592007307785455,-1.0831774731799932
1589988448.5701602,-1.80632869686014,-3.1883565156993,8.7532869686014,0.5222222222222223,-0.07444444444444444,-0.6344444444444445,0.023887676854367927,0.07337553911439196,-1.0589335646884177
1589988448.5801601,-1.794907819453274,-3.240368722186904,8.776567069294341,0.5222222222222223,-0.07444444444444444,-0.6344444444444445,0.023760763201568544,0.07116162555120632,-1.0421983146352392
1589988448.5901601,-1.479766001986943,-2.9750892350269655,8.83669865881351,0.5222222222222223,-0.07444444444444444,-0.6344444444444445,0.0402197019323782,0.08442460922119698,-1.015449417456066
1589988448.6001601,-1.1592701185277605,-2.5958550931289546,8.312841398568162,0.5222222222222223,-0.07444444444444444,-0.6344444444444445,0.0820255947345381,0.13045666034765446,-0.9864744432109671
1589988448.61016,-1.5676617697010868,-3.02808933423913,8.561297978940217,0.5286526268115942,-0.038675318916062795,-0.6235931366998793,0.07658843715631496,0.09682637722789011,-0.9778491143060045
1589988448.62016,-1.6158173492933372,-3.1887135852321893,9.6062402653591,0.54,0.024444444444444446,-0.6044444444444445,-0.07899607275407067,-0.054563248765432046,-1.0130767214279648
1589988448.63016,-1.4727331357852536,-3.0009196444134565,8.368990064493637,0.54,0.024444444444444446,-0.6044444444444445,0.016490920039112275,0.03740045579868448,-0.9647805225824588
1589988448.64016,-1.5381621772172045,-3.1432853220865,8.201057175824612,0.54,0.024444444444444446,-0.6044444444444445,0.08472312941133826,0.0863839630055375,-0.9218830428464908
1589988448.65016,-1.6115482377861023,-3.296935297232628,8.836256496754073,0.54,0.024444444444444446,-0.6044444444444445,-0.020563830074573738,0.02943856762598125,-0.9220863184212905
1589988448.66016,-1.5775211267605633,-3.296676056338028,8.59850704225352,0.543887323943662,0.05878247261345852,-0.616754303599374,0.02306723009634054,0.04398045349259655,-0.890947564464359
1589988448.67016,-1.626758567213044,-3.410137850819566,8.89111292997609,0.5466666666666666,0.08333333333333333,-0.6255555555555555,0.03243369536303972,0.052805894764131917,-0.8630470496223572
1589988448.68016,-1.6469152003632648,-3.4679434669088436,8.868496537631968,0.5466666666666666,0.08333333333333333,-0.6255555555555555,0.026812271429221317,0.04156373621491814,-0.8434463600428449
1589988448.69016,-1.6330951912482292,-3.4761903824964584,8.70277723122934,0.5466666666666666,0.08333333333333333,-0.6255555555555555,0.03899286496704571,0.043494709698444885,-0.8174045731365944
1589988448.70016,-1.6393262303236469,-3.5014609842589173,8.83168787407134,0.5466666666666666,0.08333333333333333,-0.6255555555555555,0.04191730079599505,0.044956927612919556,-0.7918944010612616
1589988448.71016,-1.605675454501693,-3.4745403636013545,8.616322908810835,0.5466666666666666,0.08333333333333333,-0.6255555555555555,0.04338559288085405,0.04569107365534906,-0.7676675816610883
1589988448.72016,-1.6320364608735136,-3.55,8.884027345655136,0.5544444444444444,0.12222222222222222,-0.6044444444444445,0.035997415822383035,0.03817410580697777,-0.7210689767125465
1589988448.73016,-1.6038209919106643,-3.55,8.862865743932998,0.5544444444444444,0.12222222222222222,-0.6044444444444445,0.035997415822383035,0.04202139356788398,-0.6979852501471092
1589988448.74016,-1.53,-3.5054399878379408,8.556239896622495,0.5544444444444444,0.12222222222222222,-0.6044444444444445,0.029155725817902718,0.038877212404860896,-0.6477877057207905
1589988448.75016,-1.5205480432138514,-3.5105480432138516,8.698903913572297,0.5544444444444444,0.12222222222222222,-0.6044444444444445,0.025955820414237826,0.03250080510921657,-0.604918075910844
1589988448.76016,-1.4949911930150193,-3.4799823860300387,8.669876702210269,0.5583401832105406,0.1289006315355299,-0.6044444444444445,0.02291128920455278,0.030549026068091574,-0.5710297400832269
1589988448.77016,-1.4838898931799507,-3.4624476581758423,8.491897124075596,0.57,0.14888888888888888,-0.6044444444444445,0.0285189237787154,0.038663452863843574,-0.5342276801598946
1589988448.78016,-1.5271773291862332,-3.6128226708137667,8.833305279421031,0.57,0.14888888888888888,-0.6044444444444445,0.01375842506492999,0.020083651408695294,-0.49397004993081917
1589988448.79016,-1.517730785010941,-3.6268076449671773,8.751346074945296,0.57,0.14888888888888888,-0.6044444444444445,0.010304114079189033,0.022760612433838028,-0.45464576109623067
1589988448.80016,-1.4960950873912104,-3.7021434222829606,8.755237718478025,0.57,0.14888888888888888,-0.6044444444444445,0.024855296896804272,0.017027332632280685,-0.40266704521467483
1589988448.81016,-1.4642488151658768,-3.780829383886256,8.713004739336492,0.5751121642969984,0.1527230121116377,-0.6070005265929437,0.015644633044794548,0.014389919154216871,-0.3673445037454706
1589988448.82016,-1.4523342664026764,-3.6753314671946473,8.805888577865774,0.5966666666666667,0.1688888888888889,-0.6177777777777778,0.017331749826078734,0.01347768462541023,-0.3141823525128384
1589988448.83016,-1.446166131025958,-3.6638338689740424,8.732470704573549,0.5966666666666667,0.1688888888888889,-0.6177777777777778,0.01090830782496456,0.01264155568782271,-0.27761004287475594
1589988448.84016,-1.4058717882413785,-3.708256423517243,8.63,0.5966666666666667,0.1688888888888889,-0.6177777777777778,0.009107035639777295,0.014370994862356752,-0.2417448617152662
1589988448.85016,-1.4096251223352196,-3.722406280583805,8.656469086421856,0.5966666666666667,0.1688888888888889,-0.6177777777777778,0.006807469188192533,0.01204003141710228,-0.21596736729893207
1589988448.8601599,-1.4334215565295094,-3.7283553891323775,8.72190928045615,0.5966666666666667,0.1688888888888889,-0.6177777777777778,0.007456416261512092,0.009444243123824046,-0.19974369046594315
1589988448.8701599,-1.378007505532925,-3.5871879911473203,8.687616512172434,0.6911111111111111,0.1811111111111111,-0.6411111111111111,0.003664536447879809,0.004755367230376265,-0.167242409429834
1589988448.8801599,-1.3984561752988047,-3.5230776892430278,8.721523904382469,0.6911111111111111,0.1811111111111111,-0.6411111111111111,-0.0006714476330506073,0.0020980022320723673,-0.14113546760664555
1589988448.8901598,-1.3583912832929783,-3.5404891041162228,8.598391283292978,0.6911111111111111,0.1811111111111111,-0.6411111111111111,-0.000579804293882862,0.003447976117922938,-0.12477445455073238
1589988448.9001598,-1.3863883374689825,-3.5944466501240697,8.633611662531019,0.6911111111111111,0.1811111111111111,-0.6411111111111111,0.005060182645999999,-0.0015758850659291232,-0.09753718930602834
1589988448.9101598,-1.3823988796977789,-3.62,8.695174233048915,0.7713403098923844,0.17711297828147957,-0.6632341127684057,0.0033166144028486007,-0.0033166144028486007,-0.07426779247084857
1589988448.9201598,-1.3829690352241226,-3.612969035224123,8.839532485971198,1.0255555555555556,0.16444444444444445,-0.7333333333333333,-0.000255653093605839,-0.001278265468029195,-0.03770221227753741
1589988448.9301598,-1.3510638692047614,-3.575106448674602,8.716170317879364,1.0255555555555556,0.16444444444444445,-0.7333333333333333,-0.002390538322211252,-0.006104007682339678,0.007635748114173663
1589988448.9401598,-1.3316377194201288,-3.5427295323668813,8.66436725178701,1.0255555555555556,0.16444444444444445,-0.7333333333333333,-0.00521595727827312,-0.007516717160370612,0.04083442084790062
1589988448.9501598,-1.3815824225080164,-3.5101142985208424,8.68084836051443,1.0255555555555556,0.16444444444444445,-0.7333333333333333,-0.00864657251808512,-0.009737403300581576,0.11610323986101435
1589988448.9601598,-1.4177364410578215,-3.6041147467503363,8.74592559390408,1.0255555555555556,0.16444444444444445,-0.7333333333333333,-0.01180160582569115,-0.012892436608187606,0.16185122282130182
1589988448.9701598,-1.42,-3.588130042143287,8.76450403371463,1.4322222222222225,-0.3033333333333333,-1.1411111111111112,-0.01617090633549707,-0.019826509486885975,0.25677442096251124
1589988448.9801598,-1.401340134085757,-3.605072107268606,8.689236724063088,1.4322222222222225,-0.3033333333333333,-1.1411111111111112,-0.010777853239270257,-0.026033752828573294,0.31774446463531486
1589988448.9901597,-1.3732376042702605,-3.5767623957297396,8.578276876864686,1.4322222222222225,-0.3033333333333333,-1.1411111111111112,-0.009786149779834252,-0.030511934647266918,0.3664337290818895
1589988449.0001597,-1.3898607331519128,-3.5581671202177043,8.701972146630382,1.4322222222222225,-0.3033333333333333,-1.1411111111111112,-0.011999138607461015,-0.03337030695049908,0.4041768147168568
1589988449.0101597,-1.4215287413280475,-3.497293111992071,8.739649405351834,1.282328006276842,-0.24168139522079063,-1.0533394587600484,-0.01107506763487544,-0.036459451308675825,0.43377888787032787
1589988449.0201597,-1.4015311473117527,-3.446156284229416,8.792344263441235,0.7244444444444444,-0.012222222222222223,-0.7266666666666667,-0.008474384173819271,-0.038598361735548,0.45730690256592166
1589988449.0301597,-1.416671811030373,-3.4266872441214926,8.69001543309112,0.7244444444444444,-0.012222222222222223,-0.7266666666666667,-0.010180526140271514,-0.03890685907206901,0.4657830606369005
1589988449.0401597,-1.41,-3.3822817362817363,8.672953043953044,0.7244444444444444,-0.012222222222222223,-0.7266666666666667,-0.012196816323382705,-0.03785695026277142,0.46603364294335237
1589988449.0501597,-1.41,-3.3552809882905756,8.69222479063246,0.7244444444444444,-0.012222222222222223,-0.7266666666666667,-0.015271630954950384,-0.03642148770830639,0.4587543854097085
1589988449.0601597,-1.4155250252165141,-3.39,8.738416750721715,0.7047999103412829,0.014584381606050413,-0.721346272013727,-0.015472526540958478,-0.03550927179791088,0.450083132117924
1589988449.0701597,-1.453086597451628,-3.350740207645116,8.750204813591317,0.6177777777777778,0.13333333333333333,-0.6977777777777778,-0.012079882735934147,-0.03770323527609677,0.4332797113395042
1589988449.0801597,-1.47,-3.3487669423472375,8.657290725425154,0.6177777777777778,0.13333333333333333,-0.6977777777777778,-0.009795880809904081,-0.03649717458398398,0.4232639398411889
1589988449.0901597,-1.47,-3.4620872671599896,8.650995151824445,0.6177777777777778,0.13333333333333333,-0.6977777777777778,-0.01735002683474141,-0.03512369348855902,0.41570979381635165
1589988449.1001596,-1.5500378758836428,-3.3016729793139405,8.665170441476393,0.6177777777777778,0.13333333333333333,-0.6977777777777778,-0.009464884429580446,-0.03418074172421535,0.40760159356887016
1589988449.1101596,-1.5886280342876422,-3.3081046723812735,8.83882615429439,0.6177777777777778,0.13333333333333333,-0.6977777777777778,-0.020690306479846217,-0.03558391948049856,0.4019888825437372
1589988449.1201596,-1.5305368939164976,-3.39,8.755368939164976,0.62,0.16666666666666666,-0.72,-0.005981248282427839,-0.03284205555710381,0.40810976873438437
1589988449.1301596,-1.5395915547687924,-3.39,8.845915547687923,0.62,0.16666666666666666,-0.72,-0.014870640786901732,-0.03481747611365356,0.42885168457815687
1589988449.1401596,-1.5165689329399674,-3.427633009580005,8.590238837139921,0.62,0.16666666666666666,-0.72,-0.010333874244869135,-0.03625561442358355,0.4660950489080331
1589988449.1501596,-1.5652315444028244,-3.4206812079424536,8.708419464978288,0.62,0.16666666666666666,-0.72,-0.011850522088879106,-0.03701393834558855,0.49263638617820754
1589988449.1601596,-1.4219907091132669,-3.4559953545566335,8.74,0.6167369555646642,0.15687753336065946,-0.7240046454433665,-0.014180800172453925,-0.04036073895236887,0.5349464561718356
1589988449.1701596,-1.3575006107392389,-3.437499633556457,8.742499877852152,0.5955555555555555,0.09333333333333334,-0.75,-0.01227193957292777,-0.03926996146692535,0.5495061266009588
1589988449.1801596,-1.2935787539526538,-3.4407845483292028,8.730784548329202,0.5955555555555555,0.09333333333333334,-0.75,-0.006544984694978735,-0.037307466208762956,0.5332345562733551
1589988449.1901596,-1.8623307830050462,-4.134127624938955,7.768370828585382,0.5955555555555555,0.09333333333333334,-0.75,-0.005865128804718939,-0.03986523932425914,0.4882848736694508
1589988449.2001595,-5.812967252880533,-8.021796694966646,1.251895542753184,0.5955555555555555,0.09333333333333334,-0.75,-0.1806214842005651,0.46736259546205716,0.2804737294396937
1589988449.2101595,-9.29761916312917,-10.431802304426926,-6.079862947240752,0.5955555555555555,0.09333333333333334,-0.75,-0.6030502856823957,1.6611228045757365,-0.06218608654064178
1589988449.2201595,-3.4173083557404498,-2.793660900005073,1.0223025214347319,0.52,0.14666666666666667,-0.6111111111111112,-1.1620042397576895,-0.9640363002779521,-6.385832450607771
1589988449.2301595,0.11435127418843186,-2.0665242677381834,0.15869726128793485,0.52,0.14666666666666667,-0.6111111111111112,-0.8536446988480719,-1.4598058422399083,-8.053272853733224
1589988449.2401595,-0.18316289779772096,-1.7991373915097124,0.012087343291806892,0.52,0.14666666666666667,-0.6111111111111112,-1.025953648006267,-0.8067280260542944,-7.8324298524851255
1589988449.2501595,0.035395290223646056,-2.1570037805748297,1.0002207612771967,0.52,0.14666666666666667,-0.6111111111111112,-1.0079352119146838,-0.7664047263938661,-7.62427631857291
1589988449.2601595,0.009922414709320863,-3.8000042512488044,5.9801679243277714,0.52,0.14666666666666667,-0.6111111111111112,-0.9898739240403617,-0.6371970516006394,-7.427686146710098
1589988449.2701595,-0.018815446228460153,-2.200961898813242,3.1879152735422718,0.4990939486350443,0.30764326217682575,-0.6330624650443146,0.04030619140139058,0.787246167091835,-6.824656040777269
1589988449.2801595,-0.13159656889872717,-2.120090460176238,3.628254225022349,0.4977777777777778,0.31777777777777777,-0.6344444444444445,1.1740970988232768,2.2493380468852773,-6.300834931594656
1589988449.2901595,1.063687761055493,-0.08607206789100312,8.64989673804946,0.4977777777777778,0.31777777777777777,-0.6344444444444445,2.1123629469458756,3.1601648377782374,-5.740247193144661
1589988449.3001595,-0.4170950739242856,-0.7395630842670556,0.1892736856063113,0.4977777777777778,0.31777777777777777,-0.6344444444444445,2.337592617875795,3.0357955918775414,-5.432357474634401
1589988449.3101594,0.6030108580612284,0.2493912429932186,-0.1882615342401318,0.4825181294343617,0.3341618212622877,-0.6346050723217436,1.087186071029307,0.05935306453077303,-4.667302148973078
1589988449.3201594,0.6769960017247463,0.643978675865313,4.086435655207557,0.39574543007591506,0.42732829846819886,-0.6355184691570956,0.5330098688942715,-0.024939108609507488,-4.3426876098583795
1589988449.3301594,0.7492810457516339,-0.7591764705882353,17.615307189542484,0.3922222222222223,0.4311111111111111,-0.6355555555555555,-1.1358699734715318,0.5058631504052388,-3.73771100034653
1589988449.3401594,0.030259986054387955,-1.4399880466181891,6.91533419663313,0.3922222222222223,0.4311111111111111,-0.6355555555555555,-0.8473124538176142,0.17995524193497814,-3.3055975785385954
1589988449.3501594,1.44952226692443,-1.8664251005799677,10.828513854781685,0.3922222222222223,0.4311111111111111,-0.6355555555555555,0.39230174928872136,0.29260722134248707,-2.8202298622081154
1589988449.3601594,1.069663340125747,-1.01174251528293,5.671198425553408,0.3922222222222223,0.4311111111111111,-0.6355555555555555,0.9437216969190785,0.5029755250627388,-2.513442752616081
1589988449.3701594,0.7597328151958334,-3.124593579179902,11.872888240321203,0.3211111111111111,0.4811111111111111,-0.6222222222222222,0.05874675273800098,0.06021708857496867,-2.0991137805758084
1589988449.3801594,0.5297858651660028,-2.0154377025654258,7.524185626521761,0.3211111111111111,0.4811111111111111,-0.6222222222222222,-0.4362799674738277,-0.025361301208298298,-1.85270703757916
1589988449.3901594,0.5682139850274194,-2.2127018909140554,7.6293296470748855,0.3211111111111111,0.4811111111111111,-0.6222222222222222,0.040838478503890226,0.16645206009558594,-1.4356736505677627
1589988449.4001594,0.601708294722324,-2.6550371743206256,9.057305993146993,0.3211111111111111,0.4811111111111111,-0.6222222222222222,0.13408671201640748,0.1131105224446421,-1.1677508903745757
1589988449.4101593,0.53,-2.882156659988367,9.722216118399793,0.3171844862376757,0.4852757132496032,-0.6213893017945238,-0.07621483033987726,0.03346368233030506,-0.8659957745869499
1589988449.4201593,0.5296425906760692,-2.6534549567979973,8.49941177886351,0.28444444444444444,0.52,-0.6144444444444445,0.1341721862470641,0.05781403147231216,-0.32834006553143325
1589988449.4301593,0.49970837160477627,-2.9405832567904473,9.290206993832829,0.28444444444444444,0.52,-0.6144444444444445,0.1279052768050305,0.055714457750615634,-0.3190510423990789
1589988449.4401593,0.4722472843450479,-2.9521099041533545,9.484033226837061,0.28444444444444444,0.52,-0.6144444444444445,-0.06974785963611828,-0.021496545684866898,0.11928391435305494
1589988449.4501593,0.41194584664536743,-2.9253092651757187,8.9882214057508,0.28444444444444444,0.52,-0.6144444444444445,-0.03247328310220947,-0.04634626337413944,0.5578083441637468
1589988449.4601593,0.40522057886013,-2.92522057886013,8.612646946321561,0.2793109921090286,0.5249564367376429,-0.6178077408021307,-0.032647384502403336,-0.07237181708859583,1.0245094392208847
1589988449.4701593,0.36746331152491196,-2.959549270256668,8.335073376950177,0.25222222222222224,0.5511111111111111,-0.6355555555555555,-0.022777095722311853,-0.09778371829433988,1.3824199190203912
1589988449.4801593,0.3459970921334558,-3.1499709213345577,8.583905978981736,0.25222222222222224,0.5511111111111111,-0.6355555555555555,-0.03839185116030093,-0.11758849209579136,1.6377472207863975
1589988449.4901593,0.3571382010993822,-3.348842243518023,9.16450065671061,0.25222222222222224,0.5511111111111111,-0.6355555555555555,-0.07308210715837958,-0.14121522696794697,1.9181403127163956
1589988449.5001593,0.3154245481716246,-3.1956841112871843,8.455873267406174,0.25222222222222224,0.5511111111111111,-0.6355555555555555,-0.05495570166370897,-0.1450881742839448,2.155463399385287
1589988449.5101593,0.2906899307405434,-3.2072376132125733,7.962758835020423,0.25440606562876145,0.5520306241243907,-0.6385439728487144,-0.08482163399192097,-0.17385587785707365,2.3458873887842655
1589988449.5201592,1.1720153828263866,-9.220730435071516,7.8167672807615,0.2733333333333333,0.56,-0.6644444444444444,-0.1196809187125072,-0.21802956028289402,2.7965603238350516
1589988449.5301592,4.63492399953486,-26.897589913118594,7.5171594929979895,0.2733333333333333,0.56,-0.6644444444444444,-0.3894985841466375,-0.39816135382624296,3.7534629739239813
1589988449.5401592,0.12126061140232869,-2.684914181008489,9.464886579765274,0.2733333333333333,0.56,-0.6644444444444444,-0.08749973856146018,-0.4383525789713884,6.152782931317327
1589988449.5501592,-1.138827704305845,-3.1771284738698964,6.7585138954795845,0.2733333333333333,0.56,-0.6644444444444444,0.3404877420324855,-0.16870612121996814,6.305736892828154
1589988449.5601592,-0.8366733674858958,-2.904375202645743,5.671936320601777,0.2760849923264812,0.5588500529580875,-0.6644444444444444,-0.10254332807109931,-0.3180527552707989,6.257377019066374
1589988449.5701592,-0.7550774917320537,-3.747532585435445,9.15336035276571,0.34357787720928895,0.5306440712160185,-0.6644444444444444,-0.5307673043791155,-0.6276003409160854,6.159468996769623
1589988449.5801592,8.317412390417598,-12.635168007572172,6.410455682509634,0.3477777777777778,0.5288888888888889,-0.6644444444444444,-0.5027526559173463,-0.5551083297482462,2.5624974778193295
1589988449.5901592,-1.1532543157682822,0.6214761689063366,6.88077507675273,0.3477777777777778,0.5288888888888889,-0.6644444444444444,-0.0455291873239527,0.0923029286268883,-1.4357663102102962
1589988449.6001592,-2.4678059610705594,-0.33761739659367407,15.090029602595296,0.3477777777777778,0.5288888888888889,-0.6644444444444444,0.8082354312801403,0.5942195629940262,-1.442917451206436
1589988449.6101592,-1.9574955421340237,1.4189830313488638,3.426327868852459,0.35993142236282877,0.5179608219090531,-0.6638316556418368,0.7690521409849951,0.14078788513772147,-1.2770654325610988
1589988449.6201591,-1.3827460321095666,-2.02361816641092,9.502339509424456,0.48,0.41,-0.6577777777777778,-0.3596810581908449,-0.018970932112832302,-1.1607146543400673
1589988449.6301591,-1.4156476625591197,-2.3086977574724106,10.554688073099321,0.48,0.41,-0.6577777777777778,-0.4889912117696626,0.1193177460360259,-1.034675037728483
1589988449.6401591,-0.9095949293780766,-2.544855699623564,9.704519481355169,0.48,0.41,-0.6577777777777778,0.017393207506602892,0.10018112554012053,-0.8469889520955648
1589988449.6501591,-0.5688219195123468,-2.482410897555514,7.996766809728183,0.48,0.41,-0.6577777777777778,0.11371542819138725,0.08986655754380099,-0.5894789975965017
1589988449.660159,-0.5601256453318406,-2.7954767680537413,9.596881258941345,0.48,0.41,-0.6577777777777778,-0.1661263970978129,-0.07614130491589399,-0.4879770474068596
1589988449.670159,-5.977429238305007,-15.432296262204543,8.303453762451099,0.4455555555555555,0.44222222222222224,-0.6788888888888889,-0.06622446267458784,-0.002774681343754342,0.15561173211567395
1589988449.680159,0.9236758276077461,-12.612564022485946,7.545090568394753,0.4455555555555555,0.44222222222222224,-0.6788888888888889,-0.10081838281449129,-0.18176061598064622,1.3227805159663302
1589988449.690159,4.98909470509772,-8.135654081849639,8.709969842834774,0.4455555555555555,0.44222222222222224,-0.6788888888888889,0.13598620985535875,0.05779317602094274,0.2936573655544275
1589988449.700159,-0.7515235167894225,-1.535564770244929,7.712659050049295,0.4455555555555555,0.44222222222222224,-0.6788888888888889,0.29607516396920286,0.2479540883661167,-0.2211038018171596
1589988449.710159,-0.7874419098706749,-1.8669166423241363,7.402400616087315,0.4455555555555555,0.44222222222222224,-0.6788888888888889,-0.04903825625870334,0.005389527323116428,-0.2523092439973062
1589988449.720159,-1.184294908110313,-5.067348229055723,9.0923972897641,0.43928741744531813,0.44849036033245965,-0.6788888888888889,-0.273959373828979,-0.18858397462346013,-0.20172644745972323
1589988449.730159,0.16009752438109526,-2.299444861215304,8.729713053263316,0.4388888888888889,0.4488888888888889,-0.6788888888888889,0.04984679328897722,0.00985675677057,0.050914301732913156
1589988449.740159,-0.5428640514469454,-3.25583691318328,7.636735176848875,0.4388888888888889,0.4488888888888889,-0.6788888888888889,0.13524719121447815,0.06970067771689142,-0.01464942949460115
1589988449.750159,-0.42909519057373463,-4.9671623159479665,8.728376840520335,0.4388888888888889,0.4488888888888889,-0.6788888888888889,-0.08166496622374766,-0.04946856579934346,-0.02374144488193864
1589988449.760159,0.41538981389078555,-4.915758880893605,9.242411191063956,0.4388888888888889,0.4488888888888889,-0.6788888888888889,-0.05923598651040543,-0.042259250891483455,0.0034937447699769225
1589988449.770159,-0.13956360642239607,-4.516419247814399,8.351003317753614,0.4122222222222222,0.44222222222222224,-0.6933333333333334,0.005682818123202967,0.008369411264410667,0.0
1589988449.780159,0.0,-4.5,8.86,0.4122222222222222,0.44222222222222224,-0.6933333333333334,-0.003272492347489368,-0.003272492347489368,0.0
1589988449.790159,-0.01013186440038484,-4.52026372880077,8.69282423739365,0.4122222222222222,0.44222222222222224,-0.6933333333333334,-0.0005094549544844224,-0.0016146699116864009,0.0
1589988449.800159,-0.02588731028824999,-4.575323861729499,8.6830700674945,0.4122222222222222,0.44222222222222224,-0.6933333333333334,-0.00038716215041955694,0.0,0.0
1589988449.810159,-0.09043792766373411,-4.491211730205278,8.608686217008797,0.4122222222222222,0.44222222222222224,-0.6933333333333334,0.0004554405120428995,0.0006592755192589529,0.0006592755192589529
1589988449.820159,-0.03117834515725179,-4.535291930649873,8.704113585492621,0.42960751335196495,0.44222222222222224,-0.6814381341392988,-0.0014115952043307453,-0.0025024259868272015,-0.0034007401791581156
1589988449.830159,-0.04505649876849606,-4.538966100738903,8.65885310320191,0.43333333333333335,0.44222222222222224,-0.6788888888888889,0.0001127809140005643,0.0005515784508330927,-0.001304066491327856
1589988449.840159,-0.06,-4.529340335921247,8.649208403105495,0.43333333333333335,0.44222222222222224,-0.6788888888888889,0.0065018097819860305,1.4391637664234971e-05,0.0
1589988449.850159,-0.05675609539852824,-4.481081301533824,8.599731713804415,0.43333333333333335,0.44222222222222224,-0.6788888888888889,0.002977613097925427,0.001090830782496456,-5.8975849912788263e-05
1589988449.860159,-0.012131926589236633,-4.495956024470255,8.733604220232289,0.43333333333333335,0.44222222222222224,-0.6788888888888889,-0.0010788383171156987,0.001090830782496456,-0.0008702661329210132
1589988449.870159,-0.02954292623941959,-4.5,8.696142684401451,0.4284095122934301,0.43401585382238345,-0.6682206099690985,-0.010238244901738199,-0.002131802552201659,-0.001090830782496456
1589988449.880159,-0.03029926527686518,-4.569600979630847,8.61930171435398,0.4266666666666667,0.4311111111111111,-0.6644444444444444,-0.009708661117089151,-0.005399745949792803,-1.0881592537895475e-05
1589988449.890159,-0.055353324174183136,-4.536195567767756,8.560842243593573,0.4266666666666667,0.4311111111111111,-0.6644444444444444,-0.0005987482265312673,-0.0008447895045138615,-0.0009218728815936837
1589988449.900159,-0.031259087590082224,-4.479160608273279,8.602098479316803,0.4266666666666667,0.4311111111111111,-0.6644444444444444,0.00527102704566615,-0.002090098131584847,-0.0031351471973772712
1589988449.9101589,-0.051232578812025774,-4.46584494745865,8.635387631353376,0.4266666666666667,0.4311111111111111,-0.6644444444444444,0.002366000504490313,-0.0006375848609969286,-0.0009563772914953929
1589988449.9201589,-0.052471446396007294,-4.512699875227949,8.70269987522795,0.44088726791865285,0.43529364089110706,-0.653569867016455,-0.0013728826231765073,0.0032849512075639508,-0.0008212378018909877
1589988449.9301589,-0.05769324160259004,-4.53769324160259,8.68153379198705,0.4455555555555555,0.43666666666666665,-0.65,-0.0005032566135353945,0.00016731075134203063,0.0005875741689610615
1589988449.9401588,-0.050169412640789356,-4.54,8.51271060225263,0.4455555555555555,0.43666666666666665,-0.65,0.00536175365072376,0.002126221407937801,1.848005235170389e-05
1589988449.9501588,-0.05879047841505107,-4.522419043169897,8.59790478415051,0.4455555555555555,0.43666666666666665,-0.65,0.0035363690228806073,0.002181661564992912,0.0
1589988449.9601588,-0.054339236631684155,-4.486035419790105,8.655286106946527,0.4455555555555555,0.43666666666666665,-0.65,0.002037505360571919,-0.0015232993957594349,-0.0006174934934587244
1589988449.9701588,-0.055449157108767605,-4.487245785543838,8.695449157108767,0.4419227841497104,0.43666666666666665,-0.6693747808311737,-0.0030700450365357106,-0.0031745014674052045,-0.0016852416137867654
1589988449.9801588,-0.06,-4.492526203829047,8.670877006381744,0.4388888888888889,0.43666666666666665,-0.6855555555555556,-0.006544984694978735,-0.002181661564992912,-0.002181661564992912
1589988449.9901588,-0.02255932889363111,-4.5473932079914645,8.545166120902167,0.4388888888888889,0.43666666666666665,-0.6855555555555556,-0.006544984694978735,-0.0005480041025867988,-0.0013648328337898554
1589988450.0001588,-0.02858448294111421,-4.5328310341177716,8.559558621176304,0.4388888888888889,0.43666666666666665,-0.6855555555555556,-0.0018147286122242841,0.0006757508689649216,0.0009364218243983092
1589988450.0101588,-0.05189629499868617,-4.51,8.655429622492774,0.4388888888888889,0.43666666666666665,-0.6855555555555556,0.002388515260719007,0.00044198854338518053,0.0015328193258816365
1589988450.0201588,-0.0536351884610151,-4.503635188461015,8.706364811538986,0.43535288247834175,0.42888745256346295,-0.681312347862899,0.0046610788177920415,0.0013885864703026731,0.0003965375473451194
1589988450.0301588,-0.05,-4.520004120171674,8.659986266094421,0.43333333333333335,0.4244444444444445,-0.6788888888888889,-0.0010909805961661551,0.002181511751323213,-1.4981366969908407e-07
1589988450.0401587,-0.05,-4.541605665236052,8.58798111587983,0.43333333333333335,0.4244444444444445,-0.6788888888888889,-0.0018764349396897405,0.0013960574077996274,-0.0007856041571932845
1589988450.0501587,-0.059924916789225166,-4.520225249632324,8.619549500735351,0.43333333333333335,0.4244444444444445,-0.6788888888888889,0.002148900333968171,0.001090830782496456,-0.001090830782496456
1589988450.0601587,-0.04435576040320012,-4.496533640604801,8.682576958387198,0.43333333333333335,0.4244444444444445,-0.6788888888888889,0.003034922471039875,0.00023756987644949325,0.0006156910295974695
1589988450.0701587,-0.04909251761883341,-4.480907482381167,8.690907482381165,0.438384732010463,0.4406089202112594,-0.6718169307409073,-0.0006948668961165756,-0.000991839810901486,9.899097159497003e-05
1589988450.0801587,-0.05,-4.518038314925227,8.670980842537386,0.4388888888888889,0.44222222222222224,-0.6711111111111111,-0.007314835507706296,-0.0021281649033647624,-0.0010373341208683065
1589988450.0901587,-0.05,-4.52,8.558348166441453,0.4388888888888889,0.44222222222222224,-0.6711111111111111,-0.007635815477475192,-0.002181661564992912,-0.001090830782496456
1589988450.1001587,-0.04994316890202319,-4.539943168902023,8.60017049329393,0.4388888888888889,0.44222222222222224,-0.6711111111111111,-0.002181661564992912,-0.001090830782496456,-0.0032538944141665142
1589988450.1101587,-0.04313269249504758,-4.533132692495048,8.620601922514858,0.4388888888888889,0.44222222222222224,-0.6711111111111111,-0.002181661564992912,-0.001090830782496456,-0.001025171221708057
1589988450.1201587,-0.07328312699753867,-4.521679218250615,8.721528599243232,0.42224732539011955,0.44222222222222224,-0.6831300180824446,0.004171933841671541,0.0007244821908362451,0.001815312973332701
1589988450.1301587,-0.062165309238992106,-4.508110206159328,8.698385721557647,0.4188888888888889,0.44222222222222224,-0.6855555555555556,0.0028602032886939394,-0.00020614452939771415,0.002830149220939997
1589988450.1401587,-0.04333670865567662,-4.506663291344323,8.603367086556766,0.4188888888888889,0.44222222222222224,-0.6855555555555556,0.001090830782496456,0.0010897262108425854,0.00036508302303731293
1589988450.1501586,-0.05673756869496127,-4.526737568694961,8.57,0.4188888888888889,0.44222222222222224,-0.6855555555555556,-0.00012635956127772952,0.0015730663931058193,0.0007349547331648226
1589988450.1601586,-0.05981618875743601,-4.529816188757436,8.626010961834101,0.4188888888888889,0.44222222222222224,-0.6855555555555556,2.0050696155773408e-05,0.001090830782496456,0.0016262208256667974
1589988450.1701586,-0.05,-4.5049757468856795,8.710048506228642,0.43391314200320924,0.4530730716936758,-0.6696966217126619,0.001090830782496456,-0.0013675068846713786,0.0002713848934405112
1589988450.1801586,-0.07800726076351466,-4.5,8.72,0.4388888888888889,0.4566666666666666,-0.6644444444444444,-0.0029826601740698096,0.0018918293915733534,-0.0030551182174246992
1589988450.1901586,-0.05408141894103018,-4.512959290529484,8.635764611558349,0.4388888888888889,0.4566666666666666,-0.6644444444444444,-0.007513410256152451,0.002181661564992912,-0.002565672696045521
1589988450.2001586,-0.04851734489659773,-4.554069379586391,8.607034689793196,0.4388888888888889,0.4566666666666666,-0.6644444444444444,-0.006101084243128944,0.002181661564992912,-0.0031107597648277023
1589988450.2101586,-0.05655605273944528,-4.540331841781664,8.629668158218337,0.4388888888888889,0.4566666666666666,-0.6644444444444444,-0.002593536256539428,0.001466507151007199,-0.0018421835195179422
1589988450.2201586,-0.025947932139785787,-4.53,8.66553905089516,0.4388888888888889,0.4443700866060338,-0.6767410245050773,0.00355229969620103,0.001090830782496456,0.001695047504722036
1589988450.2301586,-0.05411054467400053,-4.495889455326,8.652944727663,0.4388888888888889,0.44222222222222224,-0.6788888888888889,0.0015726607196267992,0.0001606099790434479,0.001251440761539904
1589988450.2401586,-0.043099682145161675,-4.506900317854838,8.599299046435485,0.4388888888888889,0.44222222222222224,-0.6788888888888889,0.00016906143499485012,0.0009217693475016058,-0.0007527079125067557
1589988450.2501585,-0.04,-4.542729202722972,8.598182300680742,0.4388888888888889,0.44222222222222224,-0.6788888888888889,-0.0026776516362588673,-0.0015868208537624113,-0.002875931873335701
1589988450.2601585,-0.04660577855342253,-4.5301826643397325,8.639634671320534,0.4388888888888889,0.44222222222222224,-0.6788888888888889,-0.0018313350298037262,-0.001461082906150091,0.0003304009467247366
1589988450.2701585,-0.05,-4.511748041599136,8.701259792004322,0.4288031619544991,0.44222222222222224,-0.6843901944894651,-0.00019068175854214451,0.0007094672654121669,0.0012815125410386005
1589988450.2801585,-0.04107924491677585,-4.501079244916776,8.674316979667104,0.4266666666666667,0.44222222222222224,-0.6855555555555556,0.0019462068495785267,0.00011772735770719262,0.00011772735770719262
1589988450.2901585,-0.04793998687080448,-4.492060013129196,8.606480105033564,0.4266666666666667,0.44222222222222224,-0.6855555555555556,-0.0004166930623944599,0.0008661182091291239,-0.0017322364182582478
1589988450.3001585,-0.05773617981845253,-4.505472359636905,8.597736179818453,0.4266666666666667,0.44222222222222224,-0.6855555555555556,-0.002778603399475628,-0.0005969418344827155,-0.0004938889480137405
1589988450.3101585,-0.06,-4.523231332655137,8.619846998982707,0.4266666666666667,0.44222222222222224,-0.6855555555555556,-0.003272492347489368,-0.0018124880301801745,0.0
1589988450.3201585,-0.050077820248946386,-4.525038910124473,8.64488326962658,0.42997405991701787,0.4394660611802629,-0.6679161248870158,-0.0005666375720112921,-0.0005581486997060666,-0.0010823419101912302
1589988450.3301585,-0.04,-4.513430039653637,8.679709881039086,0.43333333333333335,0.43666666666666665,-0.65,0.0036150045621115455,0.0018075022810557727,-0.002181661564992912
1589988450.3401585,-0.05160321752999099,-4.51,8.643587129880036,0.43333333333333335,0.43666666666666665,-0.65,0.0030976084442141576,0.002181661564992912,-0.0015488042221070788
1589988450.3501585,-0.06680187267354849,-4.516801872673548,8.623603745347097,0.43333333333333335,0.43666666666666665,-0.65,-4.424606228553519e-05,0.002923630774085728,-0.001090830782496456
1589988450.3601584,-0.06012052088538758,-4.515060260442693,8.634939739557307,0.43333333333333335,0.43666666666666665,-0.65,-0.001090830782496456,0.0011171243608393555,-0.001090830782496456
1589988450.3701584,-0.04453527272727273,-4.507267636363636,8.653661818181819,0.43333333333333335,0.43818464646464644,-0.657893494949495,-0.0013888854188483968,-0.0004947215097925745,-0.001090830782496456
1589988450.3801584,-0.04050197297620471,-4.5,8.679498027023795,0.43333333333333335,0.44222222222222224,-0.6788888888888889,-0.001608867795023411,0.001090830782496456,-0.000518037012526955
1589988450.3901584,-0.056865945408194986,-4.506865945408195,8.60134054591805,0.43333333333333335,0.44222222222222224,-0.6788888888888889,-0.001090830782496456,0.001090830782496456,-0.0014979169204398575
1589988450.4001584,-0.06,-4.517340967214247,8.59936386885699,0.43333333333333335,0.44222222222222224,-0.6788888888888889,-0.001090830782496456,0.00029005548143657344,-0.0005801109628731469
1589988450.4101584,-0.05361852186142189,-4.526381478138578,8.629144434415734,0.43333333333333335,0.44222222222222224,-0.6788888888888889,-0.003875275899052133,0.0013922225582778387,0.0013922225582778387
1589988450.4201584,-0.05692978765182754,-4.53,8.660789362955482,0.43333333333333335,0.43837234019342913,-0.6688791956140269,-0.006210076481160011,-8.610614104028261e-05,-0.0008420287097180143
1589988450.4301584,-0.03740505867774619,-4.514936705785164,8.67,0.43333333333333335,0.43666666666666665,-0.6644444444444444,2.7617311158766034e-05,0.0021954702205722945,-0.0013600863142257244
1589988450.4401584,-0.03682748695035766,-4.51,8.63586256524821,0.43333333333333335,0.43666666666666665,-0.6644444444444444,0.0029264248582472107,0.0025277290542350694,-0.002580357369005053
1589988450.4501584,-0.04,-4.50280292396112,8.62719707603888,0.43333333333333335,0.43666666666666665,-0.6644444444444444,0.0009172547213359109,0.0006115031475572737,-0.0017023339300537297
1589988450.4601583,-0.04609310639620735,-4.506093106396207,8.65437242558483,0.43333333333333335,0.43666666666666665,-0.6644444444444444,0.0,-0.0006646548018009027,0.0009031336229062524
1589988450.4701583,-0.05,-4.517356805929919,8.67,0.4423249850254567,0.44075378107217733,-0.6799754791853848,-0.000802503036920826,-0.00028832774557563,-0.0002258475457695662
1589988450.4801583,-0.05625927013730817,-4.507481459725383,8.632444379176151,0.4455555555555555,0.44222222222222224,-0.6855555555555556,0.00027473012585085875,0.0,-0.001090830782496456
1589988450.4901583,-0.05152219208239965,-4.5084778079176,8.593044384164799,0.4455555555555555,0.44222222222222224,-0.6855555555555556,0.0001660453980353925,-0.00046239269223053174,-0.001090830782496456
1589988450.5001583,-0.04,-4.510142779121479,8.594643052196302,0.4455555555555555,0.44222222222222224,-0.6855555555555556,-0.0032413427753278864,0.0005220532121271175,-0.001090830782496456
1589988450.5101583,-0.04,-4.504591284760227,8.642956423801138,0.4455555555555555,0.44222222222222224,-0.6855555555555556,-0.005954985387248614,-0.000322495808838758,-8.916783296378803e-05
1589988450.5201583,-0.04285252099312952,-4.5157050419862585,8.67,0.4420691410083972,0.44222222222222224,-0.6836538748934692,-0.005611499382871823,-0.0026501688060847593,0.0007796690117941516
1589988450.5301583,-0.037356863190149234,-4.523678431595075,8.67,0.43333333333333335,0.44222222222222224,-0.6788888888888889,-0.0005141877835895172,-0.0024699830644463816,0.0
1589988450.5401583,-0.04494134935162031,-4.52,8.587822578566088,0.43333333333333335,0.44222222222222224,-0.6788888888888889,0.0035356033532135903,-0.004087416537728412,0.0
1589988450.5501583,-0.05,-4.52,8.604711612050373,0.43333333333333335,0.44222222222222224,-0.6788888888888889,0.004363323129985824,-0.00131502295751173,0.0
1589988450.5601583,-0.04562476914147011,-4.52,8.65750092343412,0.43333333333333335,0.44222222222222224,-0.6788888888888889,0.002454268529580702,0.0001363034822938952,0.0004772636501012804
1589988450.5701582,-0.04441013578530953,-4.51558986421469,8.68441013578531,0.4421536049039524,0.4397721467859392,-0.6788888888888889,0.0,-0.00012868840857549338,0.0006097595955359747
1589988450.5801582,-0.04366805577816958,-4.51,8.67733611155634,0.4533333333333333,0.43666666666666665,-0.6788888888888889,0.0006907079670223192,0.001090830782496456,0.0013814159340446385
1589988450.5901582,-0.04,-4.517319790155151,8.582162518138185,0.4533333333333333,0.43666666666666665,-0.6788888888888889,0.0002923655402311072,-0.0005060997020342416,0.0013831963227275632
1589988450.6001582,-0.04,-4.52,8.618502237363979,0.4533333333333333,0.43666666666666665,-0.6788888888888889,0.0008302705465167396,-0.0002605602359797164,0.001090830782496456
1589988450.6101582,-0.04,-4.507675413684728,8.652324586315272,0.4533333333333333,0.43666666666666665,-0.6788888888888889,-0.0015979768443500472,-0.0013444038134232516,0.00041862887578483017
1589988450.6201582,-0.033774630895616706,-4.512450738208766,8.672450738208767,0.4443411335158908,0.44012520505799074,-0.6788888888888889,-0.00191432749719663,-0.002181661564992912,-0.0013581648502927382
1589988450.6301582,-0.03,-4.52,8.658508643203582,0.4388888888888889,0.44222222222222224,-0.6788888888888889,-0.0026537263525729608,-0.0014002137799546599,-0.0006187659949164078
1589988450.6401582,-0.04161327122350034,-4.52580663561175,8.597740279494248,0.4388888888888889,0.44222222222222224,-0.6788888888888889,0.000527941773332965,0.0008093862779147106,0.0
1589988450.6501582,-0.05,-4.523921388837948,8.578235833486154,0.4388888888888889,0.44222222222222224,-0.6788888888888889,0.003935565964528598,0.0001924407138752227,0.0019892208511176892
1589988450.6601582,-0.05450122143541854,-4.510997557129163,8.62150855004793,0.4388888888888889,0.44222222222222224,-0.6788888888888889,0.0023992947697508557,-0.0005998236924377139,0.002290478167371884
1589988450.6701581,-0.057562671965759704,-4.50243732803424,8.66487465606848,0.4375348177587554,0.4438471075783824,-0.6753683039505418,0.0,0.00026587124467908883,0.001090830782496456
1589988450.6801581,-0.042327699660594305,-4.521508450509108,8.68,0.43333333333333335,0.4488888888888889,-0.6644444444444444,0.0,0.001090830782496456,0.001090830782496456
1589988450.6901581,-0.03501719027860107,-4.534982809721399,8.649896858328393,0.43333333333333335,0.4488888888888889,-0.6644444444444444,0.0002736452798770007,0.0005435402227424546,0.0005435402227424546
1589988450.700158,-0.0544260874588412,-4.515573912541158,8.590982612211889,0.43333333333333335,0.4488888888888889,-0.6644444444444444,0.0015736420271090057,-0.001090830782496456,-0.00012520829327135677
1589988450.710158,-0.056456151832460735,-4.50645615183246,8.647719240837697,0.43333333333333335,0.4488888888888889,-0.6644444444444444,0.0014085138310638138,0.00045546468536174006,-6.889081839719122e-05
1589988450.720158,-0.05,-4.5,8.67625668558782,0.43333333333333335,0.44431372682955705,-0.6723469970923812,-0.00040833225893692005,0.002047495570678608,-0.0013649970471190718
1589988450.730158,-0.05,-4.508388282427316,8.640641011504393,0.43333333333333335,0.43666666666666665,-0.6855555555555556,-0.0015483406166960025,-0.0009150196683990928,0.0004575098341995464
1589988450.740158,-0.05,-4.5310108858147515,8.566967342555744,0.43333333333333335,0.43666666666666665,-0.6855555555555556,-0.0003800095866002117,-0.0003800095866002117,0.0004902801230322227
1589988450.750158,-0.05,-4.522660998400538,8.574678003198922,0.43333333333333335,0.43666666666666665,-0.6855555555555556,0.00046036689308153605,0.001090830782496456,0.0018913916682447602
1589988450.760158,-0.05487938914683691,-4.51,8.624396945734185,0.43333333333333335,0.43666666666666665,-0.6855555555555556,0.0,0.0016230895706113384,0.0022079747712596028
1589988450.770158,-0.055081084959816305,-4.514918915040183,8.66475674512055,0.43005405663987756,0.4426786739380023,-0.6822762788620997,0.0010731407884634336,0.0016450911707611951,0.002700541965191606
1589988450.780158,-0.05638540924448939,-4.507229181511021,8.673614590755511,0.4266666666666667,0.4488888888888889,-0.6788888888888889,0.0014851214687202651,0.0017873708787691028,0.0015771627448952366
