time,acc_x,acc_y,acc_z,mag_x,mag_y,mag_z,gyr_x,gyr_y,gyr_z
1589988505.342106,-3.87,-0.81,8.83,0.3377777777777778,-0.3688888888888889,-0.62,-0.001090830782496456,0.002181661564992912,-0.003272492347489368
1589988505.352106,-3.8946679482698356,-0.8153320517301643,8.888671793079343,0.3377777777777778,-0.3688888888888889,-0.62,-0.0026908557313767,0.0,-0.002181661564992912
1589988505.362106,-3.8923176677067084,-0.81,8.925364664586583,0.3224131131911943,-0.35437781677933783,-0.6490221442191021,-0.004110504802178289,-0.0008380124546889213,-0.0030196740196818334
1589988505.372106,-3.8722848709989313,-0.8188575645005343,8.93,0.31777777777777777,-0.35,-0.6577777777777778,-0.0014646919254466175,-0.0030232515855225938,-0.006171123552028573
1589988505.382106,-3.87,-0.82,8.886094673168902,0.31777777777777777,-0.35,-0.6577777777777778,-0.0020486964229550456,-0.0013567610665721885,-0.0017556564926857875
1589988505.392106,-3.878539357177717,-0.8370787143554347,8.905618071533151,0.31777777777777777,-0.35,-0.6577777777777778,-0.0040446602994301415,-0.0020223301497150708,-0.00015933141527784106
1589988505.402106,-3.875082808169119,-0.844917191830881,8.954254726477929,0.31777777777777777,-0.35,-0.6577777777777778,-0.004363323129985824,-0.0005725143012233697,0.0
1589988505.412106,-3.8657957411618775,-0.8457957411618772,9.0,0.3219820366159006,-0.3514014196127076,-0.6498363999724347,-0.004363323129985824,0.0008615240345860991,-0.0004586134958207138
1589988505.422106,-3.8643524976437322,-0.83,8.971295004712536,0.3377777777777778,-0.3566666666666667,-0.62,-0.0027977085064367162,0.0015656146235491076,0.0009495676821053033
1589988505.432106,-3.87,-0.8100264657157865,8.880105862863147,0.3377777777777778,-0.3566666666666667,-0.62,-0.0014554033639106317,0.002907919766075192,-0.0021758876415007692
1589988505.442106,-3.875187908496732,-0.8155637254901961,8.86075163398693,0.3377777777777778,-0.3566666666666667,-0.62,-0.001090830782496456,0.002706579318988347,-0.0015337579874807193
1589988505.452106,-3.88479523163606,-0.8252047683639399,8.889590463272121,0.3377777777777778,-0.3566666666666667,-0.62,0.00047840510084810406,0.002704740192774432,0.001090830782496456
1589988505.462106,-3.8754585932506007,-0.82,8.904847135583134,0.32808350661151153,-0.3534352429445779,-0.62,0.001652921094891361,0.0038012328175909193,-0.0004953906278081972
1589988505.472106,-3.8798474860136123,-0.8133841713287959,8.936463314684817,0.31777777777777777,-0.35,-0.62,0.003255855652378066,0.0029199732167314177,-0.002181661564992912
1589988505.482106,-3.8831386398240566,-0.8031386398240569,8.874525038064625,0.31777777777777777,-0.35,-0.62,0.004363323129985824,0.0006847449870500931,-0.0014332032760215026
1589988505.492106,-3.872631392914435,-0.8,8.88421164251339,0.31777777777777777,-0.35,-0.62,0.0011481617567634466,0.0008037903433055943,-0.00028704043919086165
1589988505.502106,-3.87,-0.8,8.937350955045341,0.31777777777777777,-0.35,-0.62,-0.0013581190506366256,0.00041177125717814316,0.0
1589988505.512106,-3.87,-0.8143803617903158,8.974380361790317,0.33215813956809365,-0.36038581684856147,-0.62,-0.0029659886302085305,0.0007843270652156184,0.0
1589988505.522106,-3.87,-0.8278367404749539,8.94081629762523,0.3377777777777778,-0.3644444444444445,-0.62,-0.0024176365730377994,0.001090830782496456,0.001709711548903137
1589988505.532106,-3.87,-0.8223026887401667,8.876118821181166,0.3377777777777778,-0.3644444444444445,-0.62,-0.0038609543779294544,0.0019304771889647272,-0.001176924060880173
1589988505.542106,-3.8640076449748273,-0.8080152899496551,8.848015289949656,0.3377777777777778,-0.3644444444444445,-0.62,-0.0030559940657647307,0.0015279970328823654,-0.0015279970328823654
1589988505.552106,-3.8635547289193277,-0.8,8.864883102435293,0.3377777777777778,-0.3644444444444445,-0.62,-0.002181661564992912,-0.0008479730818200214,-0.001090830782496456
1589988505.562106,-3.8680705303661393,-0.8038589392677219,8.913858939267723,0.3377777777777778,-0.36401567341469765,-0.62,-0.002602606539094444,-0.00352143318178276,-0.001301303269547222
1589988505.572106,-3.8666453339897235,-0.82,8.93,0.3377777777777778,-0.3622222222222222,-0.62,-0.0021886426671977443,-0.0007248934875960264,-0.0007318745898008592
1589988505.5821059,-3.8818385171341943,-0.814080741432903,8.88856519003032,0.3377777777777778,-0.3622222222222222,-0.62,0.00020055110841260006,-0.001736521727950984,-0.001291381890909056
1589988505.5921059,-3.8780629854157387,-0.8259160194456818,8.879895024307102,0.3377777777777778,-0.3622222222222222,-0.62,0.001090830782496456,-0.001747619466338863,-0.002181661564992912
1589988505.6021059,-3.8633605745418524,-0.8399182763744427,8.933524021792968,0.3377777777777778,-0.3622222222222222,-0.62,0.0014574125982091085,-0.0014574125982091085,-0.0018150797492802594
1589988505.6121058,-3.874274868072503,-0.82,8.975725131927497,0.33445288038805343,-0.3622222222222222,-0.6237998827311136,0.0017153457965331813,-0.0003163984911539895,-0.0006245150140367253
1589988505.6221058,-3.88,-0.8146508967451472,8.959301793490294,0.33,-0.3622222222222222,-0.6288888888888889,-7.616251533261844e-05,0.002181661564992912,-0.0005834966489145372
1589988505.6321058,-3.88,-0.8046612806375895,8.901951525738303,0.33,-0.3622222222222222,-0.6288888888888889,-0.002255558666421926,0.002181661564992912,-0.001090830782496456
1589988505.6421058,-3.867630881127358,-0.8123691188726418,8.872369118872642,0.33,-0.3622222222222222,-0.6288888888888889,-0.005296384690284709,0.0028562923459246924,-0.001090830782496456
1589988505.6521058,-3.870238691852994,-0.825119345926497,8.895358037779491,0.33,-0.3622222222222222,-0.6288888888888889,-0.004869682658117491,0.003272492347489368,-0.0016492647947835375
1589988505.6621058,-3.871752238912477,-0.8382477610875227,8.918247761087523,0.33,-0.3622222222222222,-0.6229321725479002,-0.0019229555953474294,0.0014731100113001166,-0.001731815980945599
1589988505.6721058,-3.873067945725498,-0.8303980814117526,8.916932054274502,0.33,-0.3622222222222222,-0.6144444444444445,0.00213823761920497,-0.001090830782496456,-0.0018035766555647794
1589988505.6821058,-3.88,-0.82,8.862726970402395,0.33,-0.3622222222222222,-0.6144444444444445,0.003272492347489368,-0.003300839748222209,2.8347400732840755e-05
1589988505.6921058,-3.8699122337578933,-0.8099122337578936,8.890438831210531,0.33,-0.3622222222222222,-0.6144444444444445,0.003272492347489368,-0.0010621093469303498,0.0005406284853205437
1589988505.7021058,-3.8567615780445967,-0.8032384219554032,8.949715265866208,0.33,-0.3622222222222222,-0.6144444444444445,0.003272492347489368,0.001121890458293096,0.0
1589988505.7121058,-3.859786140649089,-0.8051069296754556,8.97,0.33,-0.3622222222222222,-0.6242305850935332,0.003806243520582665,-0.002692084301776347,0.0
1589988505.7221057,-3.87,-0.8069254814001766,8.997701925600706,0.33,-0.3622222222222222,-0.6344444444444445,0.0028524174710019713,-0.003607870300493898,0.0
1589988505.7321057,-3.8772209935140776,-0.8244419870281553,8.894464103774757,0.33,-0.3622222222222222,-0.6344444444444445,0.0013939733644565927,-0.0009094277458804108,0.0007876882005363191
1589988505.7421057,-3.88,-0.8239318967810587,8.856068103218941,0.33,-0.3622222222222222,-0.6344444444444445,0.0008701883230768925,0.00044128491883912676,0.001090830782496456
1589988505.7521057,-3.887344022393007,-0.8036720111965036,8.898360055982518,0.33,-0.3622222222222222,-0.6344444444444445,0.0,0.0017811072803111407,0.0006902764978146847
1589988505.7621057,-3.8962168674698794,-0.8062168674698795,8.93378313253012,0.33,-0.3676867469879518,-0.6289799196787149,-0.00041267574181191223,-0.000147196442939281,0.0008253514836238245
1589988505.7721057,-3.8798510912272595,-0.8,8.924776636840889,0.33,-0.37666666666666665,-0.62,-0.0005372936775937575,-0.0016281244600902134,-3.248685461788208e-05
1589988505.7821057,-3.8784898843930637,-0.8127348265895954,8.880285404624278,0.33,-0.37666666666666665,-0.62,0.0004630513617894999,-0.001553882144285956,-0.000792507479624412
1589988505.7921057,-3.886223701541419,-0.8243355523121284,8.841888149229291,0.33,-0.37666666666666665,-0.62,0.001090830782496456,-0.002387626695118618,0.0012967959126221618
1589988505.8021057,-3.87,-0.8086197043669989,8.897408374018495,0.33,-0.37666666666666665,-0.62,0.001090830782496456,-0.003272492347489368,0.0007712657360616829
1589988505.8121057,-3.8527945582917167,-0.82,8.954264852763906,0.33446067007251784,-0.3683825651034192,-0.62,-0.00016038424695978548,-0.00514931489167373,-0.001090830782496456
1589988505.8221056,-3.8504831988651476,-0.8095168011348524,8.965724798297721,0.3377777777777778,-0.3622222222222222,-0.62,-0.00223437038460995,-0.0042579054907517485,-0.0005190609814397091
1589988505.8321056,-3.86,-0.794561555075594,8.920177105831533,0.3377777777777778,-0.3622222222222222,-0.62,-0.002679250034243995,-0.002181661564992912,-0.0011864846264907456
1589988505.8421056,-3.8694997160243405,-0.8042495740365112,8.884249574036511,0.3377777777777778,-0.3622222222222222,-0.62,-0.002181661564992912,-0.002181661564992912,-0.0011454032985603354
1589988505.8521056,-3.877224521693826,-0.82,8.91387739153087,0.3377777777777778,-0.3622222222222222,-0.62,-0.002181661564992912,-0.0009706306959826926,0.0006055154345051097
1589988505.8621056,-3.87,-0.823203614276013,8.956407228552026,0.3335062920764271,-0.3622222222222222,-0.6221357428506753,-0.0025311216717449174,0.0032300418852489283,0.001482741351488901
1589988505.8721056,-3.8679236008707254,-0.8320763991292746,8.957541605224353,0.3244444444444444,-0.3622222222222222,-0.6266666666666667,-0.002819492330097047,0.004774653886393799,0.0
1589988505.8821056,-3.8639986378833533,-0.8360013621166467,8.88600817269988,0.3244444444444444,-0.3622222222222222,-0.6266666666666667,-0.0006546470533746325,0.0008731103776274413,0.0
1589988505.8921056,-3.8658340619838727,-0.8258340619838724,8.85,0.3244444444444444,-0.3622222222222222,-0.6266666666666667,0.0,-0.0006363974399000503,0.00045443334259640564
1589988505.9021056,-3.86,-0.8107447734349315,8.863882839847603,0.3244444444444444,-0.3622222222222222,-0.6266666666666667,0.0,-0.0005047943018077862,0.0015956250843042422
1589988505.9121056,-3.862746558076401,-0.8,8.896479348458406,0.325970310042445,-0.3640532609398229,-0.6272770129058669,-0.0011984120382609893,-0.0007912277729312087,0.0015824555458624173
1589988505.9221056,-3.87179384785703,-0.8017938478570299,8.93820615214297,0.33,-0.3688888888888889,-0.6288888888888889,-0.004559001576142175,0.00019567844615635065,-0.0007827137846254026
1589988505.9321055,-3.8748109326018807,-0.81,8.867731191222571,0.33,-0.3688888888888889,-0.6288888888888889,-0.0060201933575139924,0.001090830782496456,-0.0015331259048272589
1589988505.9421055,-3.87,-0.8145616152524343,8.864739383029212,0.33,-0.3688888888888889,-0.6288888888888889,-0.007042579728504807,0.0005932357489703846,9.56407154443133e-05
1589988505.9521055,-3.8673618030027144,-0.8252763939945718,8.945829181983715,0.33,-0.3688888888888889,-0.6288888888888889,-0.007060250178489361,-0.0005755652989858306,-0.0008030481330035407
1589988505.9621055,-3.860156835125571,-0.8396863297488576,8.989058989246573,0.33,-0.3688888888888889,-0.6288888888888889,-0.005488370029032226,-0.0021474454484429664,-1.7108058274972792e-05
1589988505.9721055,-3.86,-0.826900279766703,9.009299160699891,0.33,-0.3566666666666667,-0.6344444444444445,-0.004777899862960792,-0.0040251961052250795,-0.001090830782496456
1589988505.9821055,-3.8690501533147708,-0.8154749233426144,8.966648926796603,0.33,-0.3566666666666667,-0.6344444444444445,-0.003272492347489368,-0.0027788830563861364,-0.00010361220028999216
1589988505.9921055,-3.8756671752719396,-0.8056671752719398,8.88566717527194,0.33,-0.3566666666666667,-0.6344444444444445,-0.002327216629783378,-0.002181661564992912,0.0006181929236434608
1589988506.0021055,-3.8679524705361588,-0.8,8.88,0.33,-0.3566666666666667,-0.6344444444444445,-0.002207584866109618,-0.001734959931547647,0.0008934032668905296
1589988506.0121055,-3.8839729355402675,-0.8029966169425334,8.894983084712667,0.3323307020664149,-0.358331453856963,-0.6327796572541481,-0.006218104494552147,0.0006537604008531765,0.005343963731265588
1589988506.0221055,-3.94,-0.7959452271647934,8.922972613582397,0.3377777777777778,-0.3622222222222222,-0.6288888888888889,-0.00545415391248228,-0.00011804526245283789,0.014918220431053397
1589988506.0321054,-3.9450879772350014,-0.7292961821199905,8.874384159354992,0.3377777777777778,-0.3622222222222222,-0.6288888888888889,-0.006009166131340329,-0.004918335348843873,0.05278213797466204
1589988506.0421054,-3.8989564799230587,-0.6848956479923058,8.880834816061553,0.3377777777777778,-0.3622222222222222,-0.6288888888888889,-0.005988186265509698,-0.008794944489296503,0.11143645583130127
1589988506.0521054,-3.6873011684885038,-0.5941311722578213,8.960674707877875,0.3377777777777778,-0.3622222222222222,-0.6288888888888889,-0.008412102140631358,-0.013478112721535554,0.1751529677248776
1589988506.0621054,-3.423384345452773,-0.39776293985768596,9.015124281119018,0.32012747614560655,-0.3622222222222222,-0.6243339723386512,-0.013676055682297902,-0.016389575671508307,0.24292362386793429
1589988506.0721054,-3.2260668519899656,-0.23694555563089023,9.038263611092278,0.3033333333333333,-0.3622222222222222,-0.62,-0.018592049151450376,-0.02010962707714329,0.3079041285070139
1589988506.0821054,-3.026933613567184,-0.11858965067401073,8.990491375561675,0.3033333333333333,-0.3622222222222222,-0.62,-0.01942750808020576,-0.03025541476690398,0.3493467405112162
1589988506.0921054,-3.1675946517497784,-0.13298792550651478,8.869833549355345,0.3033333333333333,-0.3622222222222222,-0.62,-0.013547092897487026,-0.035997415822383035,0.37839616860491976
1589988506.1021054,-3.0126954709946268,-0.5163428007456958,8.933748766312096,0.3033333333333333,-0.3622222222222222,-0.62,-0.01189423032845571,-0.03772804356070604,0.4161307106609118
1589988506.1121054,-2.4377557846255073,-1.1257788682969625,9.157975243996052,0.3033333333333333,-0.3622222222222222,-0.62,-0.01565720177627747,-0.04086385310055752,0.46254069185071345
1589988506.1221054,-1.6037074030552292,-1.826545240893067,8.865370152761457,0.3111111111111111,-0.3622222222222222,-0.6055555555555555,0.061567848095744455,0.019279889306144767,0.5607126586493005
1589988506.1321054,-1.8842819200123175,-1.1373832711035836,8.440229031140536,0.3111111111111111,-0.3622222222222222,-0.6055555555555555,0.07280215307573186,0.01605203747265619,0.5541689524214596
1589988506.1421053,-2.088698014918399,-1.0185207940326404,8.937484640279676,0.3111111111111111,-0.3622222222222222,-0.6055555555555555,-0.03587472308159551,-0.04614727144529512,0.496421701077052
1589988506.1521053,-2.162108171288917,-0.9878918287110827,9.129472957177772,0.3111111111111111,-0.3622222222222222,-0.6055555555555555,-0.05321923569620527,-0.05689416821762171,0.46067403210156493
1589988506.1621053,-2.230568967767193,-0.8754195484797077,9.050270129192223,0.3132068960517349,-0.3622222222222222,-0.610096422926907,0.002838039059197682,-0.018449460315311975,0.418657096272726
1589988506.1721053,-2.2238403294367695,-0.8034600823591924,8.975361317747078,0.31777777777777777,-0.3622222222222222,-0.62,0.010995394607679804,-0.013255883476827615,0.364221305267224
1589988506.1821053,-2.25,-0.8150068633407592,9.069986273318483,0.31777777777777777,-0.3622222222222222,-0.62,-0.008187968937757271,-0.022908943781099762,0.2857497498564974
1589988506.1921053,-2.2639604240282685,-0.8060395759717315,8.97623745583039,0.31777777777777777,-0.3622222222222222,-0.62,-0.005983354598812833,-0.014353585712654309,0.2209417747829325
1589988506.2021053,-2.2839249954116276,-0.793924995411628,8.852525032118605,0.31777777777777777,-0.3622222222222222,-0.62,0.0056068662179218085,0.00015271230543952843,0.1582741254202306
1589988506.2121053,-2.3016994512723423,-0.7961001829092194,8.817799634181561,0.31214470864665,-0.3700218564037837,-0.6256330691311277,0.00793047945485398,0.00545415391248228,0.08518435251389501
1589988506.2221053,-2.3236261720664735,-0.775495311734105,8.81912148380058,0.3033333333333333,-0.38222222222222224,-0.6344444444444445,0.0008991682798463506,0.004663045889934607,0.008812249301787034
1589988506.2321053,-2.337559915957409,-0.7482554040098287,8.8,0.3033333333333333,-0.38222222222222224,-0.6344444444444445,-0.0030821864465794954,0.003209057047186077,-0.04967201550601138
1589988506.2421052,-2.447848011920634,-0.7230379970198415,8.8364559642381,0.3033333333333333,-0.38222222222222224,-0.6344444444444445,0.0016569703331878465,0.005164208164731036,-0.15499481218153352
1589988506.2521052,-2.416002423150406,-0.728001211575203,8.921998788424796,0.3033333333333333,-0.38222222222222224,-0.6344444444444445,0.005890221900775493,0.012435206595754228,-0.22143336235267316
1589988506.2621052,-2.3899423725127757,-0.7149711862563879,8.935028813743612,0.3033333333333333,-0.38222222222222224,-0.6344444444444445,0.008732932443669844,0.015277917138648579,-0.2782875732105602
1589988506.2721052,-2.4847620970702695,-0.7195238270063881,9.063809751083046,0.31708997234256064,-0.38222222222222224,-0.6143385874309584,0.011895253775615953,0.02259579193689039,-0.38516731124558723
1589988506.2821052,-2.4560689540028386,-0.7539310459971617,9.019103431004257,0.31777777777777777,-0.38222222222222224,-0.6133333333333333,0.017551093025862084,0.03216070379642736,-0.463452648263249
1589988506.2921052,-2.441549210852988,-0.76,8.911549210852987,0.31777777777777777,-0.38222222222222224,-0.6133333333333333,0.022738453743723873,0.04011487161338093,-0.5767260842417109
1589988506.3021052,-2.4489872317786845,-0.76,8.918987231778685,0.31777777777777777,-0.38222222222222224,-0.6133333333333333,0.02192709152506367,0.04417168270668194,-0.6432577861718476
1589988506.3121052,-2.4656807173595983,-0.812879521760268,8.909921673839062,0.3168179371910218,-0.3814223550665923,-0.6142931739200893,0.019949061182433073,0.05439302963481692,-0.7487180085362338
1589988506.3221052,-2.4430239299926173,-0.8279840466715883,8.85705583664944,0.31178309555391504,-0.37722665370233655,-0.6193280155571961,0.021596709255258355,0.05933597385329278,-0.8138001074128326
1589988506.3321052,-2.452125661733452,-0.8042513234669036,8.789371691332741,0.3111111111111111,-0.37666666666666665,-0.62,0.024230150940124432,0.06201401872061115,-0.928534644343439
1589988506.3421052,-2.459119174829326,-0.8226424755120213,8.756606188780053,0.3111111111111111,-0.37666666666666665,-0.62,0.025137149557926917,0.06559397163131266,-1.001953490824932
1589988506.3521051,-2.442793307664416,-0.8855866153288326,8.916759845986498,0.3111111111111111,-0.37666666666666665,-0.62,0.028617559568177825,0.07085525748700675,-1.106705810481274
1589988506.3621051,-2.4508059736873298,-0.900080597368733,8.960644778949865,0.31143350058604297,-0.3766039798243188,-0.6201164184215031,0.034968127703448086,0.07641969743831341,-1.1623326263761802
1589988506.3721051,-2.5384547865045257,-0.9369388314894396,9.001515955015085,0.3511111111111111,-0.3688888888888889,-0.6344444444444445,0.04338199213545222,0.0860929492974532,-1.263617799965469
1589988506.382105,-2.5235864948699596,-0.9907594846098783,8.922067525650203,0.3511111111111111,-0.3688888888888889,-0.6344444444444445,0.04550651388343817,0.0906218018663346,-1.334509469450089
1589988506.392105,-2.540736226926092,-1.0457874230869741,8.897157484617395,0.3511111111111111,-0.3688888888888889,-0.6344444444444445,0.047296103874642566,0.09623403855785337,-1.4074573161971817
1589988506.402105,-2.56,-1.11,8.91,0.3511111111111111,-0.3688888888888889,-0.6344444444444445,0.04864163661982214,0.10382825793462302,-1.4729841501745995
1589988506.412105,-2.5521175772214604,-1.1231373712975663,8.908686262870244,0.35373858537062436,-0.3672832101747419,-0.6356122107820059,0.05003490950471226,0.1071880296649021,-1.528213354776669
1589988506.422105,-2.5006042617648867,-1.2089928970585224,8.900100710294149,0.37090969052281564,-0.3567897570261806,-0.6432438130718686,0.04909837100123758,0.10906110667185147,-1.5778498954608275
1589988506.432105,-2.55,-1.2253830426939265,8.839233914612146,0.3711111111111111,-0.3566666666666667,-0.6433333333333333,0.04273813347316271,0.1125513035529359,-1.6469851174637913
1589988506.442105,-2.551531504596756,-1.2845945137902683,8.739189027580537,0.3711111111111111,-0.3566666666666667,-0.6433333333333333,0.04522524578965761,0.11487135463366314,-1.704781720806166
1589988506.452105,-2.5672064429329544,-1.331619328798864,8.833238657597727,0.3711111111111111,-0.3566666666666667,-0.6433333333333333,0.05035485736491535,0.11829109568383496,-1.7475284839333136
1589988506.462105,-2.6093841118714667,-1.3655429931567986,8.922463552514133,0.37261661542530333,-0.3559139145095706,-0.6446335416046811,0.05788121444522998,0.12531117404125683,-1.809573375541268
1589988506.472105,-2.601584535852425,-1.435739177328176,8.953661856590301,0.39168224569407256,-0.34638109937518596,-0.6610993132004364,0.0587320162064292,0.12360957051885839,-1.8495610583176312
1589988506.482105,-2.6186740819209042,-1.4445850988700564,8.958785310734463,0.3955555555555556,-0.34444444444444444,-0.6644444444444444,0.06312355015921979,0.12769345257418613,-1.903830970566819
1589988506.492105,-2.61,-1.5463978312436462,8.828530441658195,0.3955555555555556,-0.34444444444444444,-0.6644444444444444,0.06264261801975045,0.13596091215573922,-1.9495882709403838
1589988506.502105,-2.60183278561763,-1.5781672143823702,8.865444809588247,0.3955555555555556,-0.34444444444444444,-0.6644444444444444,0.06376507957692176,0.13883247767223447,-1.988270024894477
1589988506.512105,-2.5829118514250857,-1.6160151828379707,8.878544074287458,0.40057041078764744,-0.3366795073108829,-0.6665474482514506,0.06154208716859008,0.13978515701797334,-2.017961679665986
1589988506.522105,-2.6075877497959308,-1.7226462496598844,8.844707500680231,0.43,-0.2911111111111111,-0.6788888888888889,0.05891762494528315,0.1423725611514993,-2.048368124612474
1589988506.532105,-2.6266083683526316,-1.7543472805877196,8.78130543882456,0.43,-0.2911111111111111,-0.6788888888888889,0.06168406177511952,0.14652221639625385,-2.0615086995541967
1589988506.542105,-2.6519450532757536,-1.8277802131030143,8.729725266378768,0.43,-0.2911111111111111,-0.6788888888888889,0.058026203870990924,0.14641346604230654,-2.079245737469616
1589988506.552105,-2.654109100676385,-1.865890899323615,8.77824725905306,0.43,-0.2911111111111111,-0.6788888888888889,0.0599330181458145,0.1432843909661629,-2.0944609469880806
1589988506.562105,-2.6087112431018813,-1.916443784490592,8.849021298286829,0.43930768870863285,-0.2858128883077355,-0.6788888888888889,0.06791267165390472,0.14645248799364954,-2.104105819640102
1589988506.572105,-2.602397563341011,-1.965594314462359,8.91,0.5022222222222222,-0.25,-0.6788888888888889,0.06981317007977318,0.14809145282998204,-2.1113678091728922
1589988506.582105,-2.619023286665245,-2.038232535001066,8.879814038329425,0.5022222222222222,-0.25,-0.6788888888888889,0.07011251349967793,0.1468765545914571,-2.120189440127546
1589988506.592105,-2.5729920076165658,-2.08834665397239,8.817007992383434,0.5022222222222222,-0.25,-0.6788888888888889,0.06997635878025389,0.15100705071233023,-2.1249383643030963
1589988506.602105,-2.5326177538008827,-2.1678532614026484,8.865235507601765,0.5022222222222222,-0.25,-0.6788888888888889,0.06648929794398026,0.15001492248741446,-2.125509469588496
1589988506.612105,-2.541374956155735,-2.1941248684672043,8.87725008768853,0.5040554970965353,-0.24312521922132585,-0.6798055263260454,0.06356815428464616,0.15162547876700738,-2.1278699481177186
1589988506.622105,-2.5353240841101234,-2.2522870149577283,8.845324084110123,0.5155555555555555,-0.2,-0.6855555555555556,0.06416913168466687,0.15098512113444715,-2.1319338221480115
1589988506.6321049,-2.4899424718253407,-2.335747158956948,8.798505682086104,0.5155555555555555,-0.2,-0.6855555555555556,0.06077306492469457,0.14960054664956796,-2.1307059771106855
1589988506.6421049,-2.423119861002349,-2.3823842501957713,8.72587191660141,0.5155555555555555,-0.2,-0.6855555555555556,0.059205064951068295,0.1511350533770303,-2.1330244838249612
1589988506.6521049,-2.3727141086687102,-2.4643715347987736,8.707285891331288,0.5155555555555555,-0.2,-0.6855555555555556,0.061722337783169115,0.15458006413281294,-2.1358466721280607
1589988506.6621048,-2.327465031065796,-2.4959149275131436,8.757604906802612,0.5183721877046714,-0.19436673570176838,-0.687996636751456,0.06572636916439757,0.15317717990718754,-2.136031020271134
1589988506.6721048,-2.297863600342859,-2.570681998285705,8.837863600342859,0.5488888888888889,-0.13333333333333333,-0.7144444444444444,0.06988756455213888,0.15747132830906885,-2.1405918292537507
1589988506.6821048,-2.291080329274012,-2.6045983536299384,8.831080329274013,0.5488888888888889,-0.13333333333333333,-0.7144444444444444,0.0735872649960967,0.15525150804269414,-2.1487311702304575
1589988506.6921048,-2.2591868205635013,-2.6644175725819985,8.752615376009249,0.5488888888888889,-0.13333333333333333,-0.7144444444444444,0.06863363518117412,0.16203272325877502,-2.161614251690881
1589988506.7021048,-2.2122610900818587,-2.7269852132241885,8.807362061571165,0.5488888888888889,-0.13333333333333333,-0.7144444444444444,0.06351483205112333,0.1645921248238004,-2.169292456385958
1589988506.7121048,-2.187630463604947,-2.740789845465018,8.808420309069964,0.5491521707105614,-0.13135871967078905,-0.715629212641971,0.06339742354679294,0.1688202949629537,-2.17995377668858
1589988506.7221048,-2.1329329044317413,-2.7590223651894195,8.771955269621161,0.5552296772853621,-0.08577742035978467,-0.7429779922285736,0.06638071261047061,0.16285371683559832,-2.190892503255398
1589988506.7321048,-2.0660704401392733,-2.805718239442907,8.786598741183823,0.5555555555555556,-0.08333333333333333,-0.7444444444444445,0.06087219957691438,0.1618716042952498,-2.195823155597305
1589988506.7421048,-2.043805415830488,-2.876194584169512,8.659291876254269,0.5555555555555556,-0.08333333333333333,-0.7444444444444445,0.05982676195988336,0.16413141060673356,-2.1998678261405087
1589988506.7521048,-2.0068100298347353,-2.919569910495793,8.713189970165265,0.5555555555555556,-0.08333333333333333,-0.7444444444444445,0.05890486225480863,0.16776703913483668,-2.196284167904601
1589988506.7621047,-1.9927498240085817,-2.9617505279742553,8.727250175991419,0.5555555555555556,-0.08333333333333333,-0.7444444444444445,0.05890486225480863,0.17160136546568788,-2.1886155152428985
1589988506.7721047,-1.9706680463040807,-2.977995861087758,8.748133609260817,0.5822222222222222,-0.03,-0.7866666666666666,0.056446736495506473,0.1716676161460372,-2.1755387895867675
1589988506.7821047,-1.9267854689765702,-3.0978569793177138,8.733570937953141,0.5822222222222222,-0.03,-0.7866666666666666,0.05952815845175214,0.17332521077054824,-2.1601953505307665
1589988506.7921047,-1.895850657615613,-3.081383114128129,8.674467543487484,0.5822222222222222,-0.03,-0.7866666666666666,0.05533062121398548,0.17250213798110695,-2.132376562154722
1589988506.8021047,-1.8704291169161769,-3.089856961027941,8.640572155888236,0.5822222222222222,-0.03,-0.7866666666666666,0.05348191460509003,0.17342649128555462,-2.1111164361524244
1589988506.8121047,-1.8202584914439333,-3.139741508556067,8.753694876699582,0.5822222222222222,-0.03,-0.7866666666666666,0.04569934138507369,0.17034154763403545,-2.0828526430845327
1589988506.8221047,-1.7680626193203512,-3.22,8.702906071019472,0.6222222222222222,-0.05666666666666665,-0.8133333333333334,0.03272492347489368,0.17099626354159675,-2.032444556459323
1589988506.8321047,-1.736032836960672,-3.22,8.750950744558992,0.6222222222222222,-0.05666666666666665,-0.8133333333333334,0.03272492347489368,0.16662887947227173,-2.0001259143463184
1589988506.8421047,-1.681451764952341,-3.2456988233651063,8.648575294158723,0.6222222222222222,-0.05666666666666665,-0.8133333333333334,0.02384286591615534,0.15739340696815268,-1.949332318467944
1589988506.8521047,-1.637518592227925,-3.274987605181383,8.641253098704654,0.6222222222222222,-0.05666666666666665,-0.8133333333333334,0.023044138296479895,0.15339976886977547,-1.9157857584415758
1589988506.8621047,-1.5055486713479278,-3.1172559548395977,8.505975492220845,0.6222222222222222,-0.05666666666666665,-0.8133333333333334,0.018730359041155928,0.14645067846259938,-1.866185282542963
1589988506.8721046,-1.5883180099354934,-3.325137910580559,9.03140616890339,0.6233333333333333,-0.022222222222222227,-0.8511111111111112,0.006635246958882201,0.1336317854260327,-1.8026760387546612
1589988506.8821046,-1.5805433009564767,-3.3951102913917106,8.899236116260102,0.6233333333333333,-0.022222222222222227,-0.8511111111111112,0.052432063106903216,0.13617605298981164,-1.7500945091032296
1589988506.8921046,-1.565709877371401,-3.3969356266938577,8.743564816057102,0.6233333333333333,-0.022222222222222227,-0.8511111111111112,0.014983051227989999,0.1229964614035875,-1.6963844735808278
1589988506.9021046,-1.4321577317484748,-3.3107886587423736,8.56805051273017,0.6233333333333333,-0.022222222222222227,-0.8511111111111112,0.03965462288888701,0.11477260418328848,-1.625292434022201
1589988506.9121046,-1.4477132048880894,-3.388566024440447,8.770271663545163,0.6233333333333333,-0.022222222222222227,-0.8511111111111112,0.03456410620779047,0.11646944307698733,-1.577780944998633
1589988506.9221046,-1.4863672795851013,-3.5063672795851013,8.727350735073507,0.5344444444444445,-0.09222222222222222,-0.7333333333333333,0.024944613010778167,0.10322335185322498,-1.499281500903356
1589988506.9321046,-1.3907987588208797,-3.412662529402933,8.842544917671788,0.5344444444444445,-0.09222222222222222,-0.7333333333333333,0.031576005311756805,0.10000790770583141,-1.439186754877965
1589988506.9421046,-1.4193685716655606,-3.514419998341075,8.573157141672196,0.5344444444444445,-0.09222222222222222,-0.7333333333333333,0.029314674834574946,0.08740421889254583,-1.3689477537924983
1589988506.9521046,-1.4106710351692102,-3.5753027538155275,8.616644824153948,0.5344444444444445,-0.09222222222222222,-0.7333333333333333,0.027417166726153873,0.08930172700096692,-1.308227494323024
1589988506.9621046,-1.398074191610309,-3.597888712584536,8.667703233558763,0.5344444444444445,-0.09222222222222222,-0.7333333333333333,0.027921221507292857,0.08489496055053916,-1.2593120528313253
1589988506.9721045,-1.3780245034624459,-3.6339509930751084,8.735926489612662,0.5198077264541004,-0.013716189364922332,-0.6827701257303266,0.030321086383734434,0.07789333660958105,-1.1856044370063787
1589988506.9821045,-1.3449192211682477,-3.637459610584124,8.716108637044433,0.51,0.03888888888888889,-0.6488888888888888,0.0309501205524307,0.07389937971232242,-1.109086551788553
1589988506.9921045,-1.3204592799147052,-3.6109185598294102,8.623214959402935,0.51,0.03888888888888889,-0.6488888888888888,0.029502530794278586,0.0637190823866629,-1.0154472451697905
1589988507.0021045,-1.02703464093299,-3.4012066988337626,9.324910530757082,0.51,0.03888888888888889,-0.6488888888888888,0.03229432181758434,0.06280187334009699,-0.9325266116025109
1589988507.0121045,-1.0996364973927344,-3.3104543782590823,7.827497241274855,0.51,0.03888888888888889,-0.6488888888888888,0.07288244601258193,0.1142794942703378,-0.8523403174611742
1589988507.0221045,-1.1,-3.4123041240029415,8.30791197601403,0.5248647017782052,0.11321239777991489,-0.6357729755551784,0.06364288270398427,0.05959742286305423,-0.8133092877163208
1589988507.0321045,-1.1144110515351253,-3.339849731908063,8.485889484648748,0.5288888888888889,0.13333333333333333,-0.6322222222222222,-0.08560959640486213,-0.017398566574125623,-0.7618509188755247
1589988507.0421045,-1.1430596632628667,-3.4687684846829003,8.199403367371334,0.5288888888888889,0.13333333333333333,-0.6322222222222222,0.0526751384968497,0.039634120701721606,-0.6868490287593418
1589988507.0521045,-1.1539681218032591,-3.4505816581420246,8.982884501011062,0.5288888888888889,0.13333333333333333,-0.6322222222222222,0.00553498983225096,0.028370293774481695,-0.615551905007076
1589988507.0621045,-1.1967314652755356,-3.564617240734762,8.690668320617172,0.5288888888888889,0.13333333333333333,-0.6322222222222222,-0.005349443499555596,0.016708400918974672,-0.5720141716798497
1589988507.0721045,-1.211253890408375,-3.6250155616335,8.848714986324625,0.5222222222222223,0.17888888888888888,-0.6044444444444445,0.033798779148542464,0.024265043622449457,-0.4713519111116155
1589988507.0821044,-1.21519055766322,-3.651583475910635,8.74354806714771,0.5222222222222223,0.17888888888888888,-0.6044444444444445,-0.00016629293190478876,0.011301779406034655,-0.4106161172761671
1589988507.0921044,-1.1923886096438916,-3.6161537314704377,8.581659780201058,0.5222222222222223,0.17888888888888888,-0.6044444444444445,0.02889156586244761,0.012829412497264981,-0.34009635071051136
1589988507.1021044,-1.2687961981719433,-3.7775923963438864,8.776629354881441,0.5222222222222223,0.17888888888888888,-0.6044444444444445,0.018885540765857883,0.004363323129985824,-0.2753114056734064
1589988507.1121044,-1.2340705722612266,-3.7081411445224535,8.679397602331434,0.5222222222222223,0.17888888888888888,-0.6044444444444445,0.028734284003923114,0.004363323129985824,-0.2245524982156856
1589988507.1221044,-1.24732829444627,-3.68910943148209,8.8221886296418,0.5303194946507467,0.22139956913864245,-0.6246876255157556,0.020800705548846325,-0.0035861554873790813,-0.14038952738791804
1589988507.1321044,-1.2191116911719722,-3.7044415441401393,8.736446764687889,0.5311111111111111,0.2255555555555556,-0.6266666666666667,0.018859758393755338,-0.005938651219470325,-0.0538910269692557
1589988507.1421044,-1.2105583538960376,-3.747208230519812,8.70223341558415,0.5311111111111111,0.2255555555555556,-0.6266666666666667,0.011395563518824347,-0.010603773016302193,0.004889507670825827
1589988507.1521044,-1.21,-3.731204305199319,8.624817220797276,0.5311111111111111,0.2255555555555556,-0.6266666666666667,0.005782577208216764,-0.015008892318362797,0.06715997529089651
1589988507.1621044,-1.2183968994229009,-3.73,8.72915969249771,0.5311111111111111,0.2255555555555556,-0.6266666666666667,0.00362223463887689,-0.01618759059175308,0.11944986161281246
1589988507.1721044,-1.2288214185015252,-3.7211785814984752,8.73235716299695,0.5605158394495282,0.24221823494732525,-0.6315674547230695,0.0023102248628146306,-0.025985136584194213,0.21147303601660922
1589988507.1821043,-1.2219922377562398,-3.760038811218801,8.75402328673128,0.5644444444444444,0.24444444444444444,-0.6322222222222222,0.002181661564992912,-0.0272707695624114,0.222529479629277
1589988507.1921043,-1.207040542954099,-3.731121628862297,8.682243257724593,0.5644444444444444,0.24444444444444444,-0.6322222222222222,0.0035953190320038575,-0.029391255762927816,0.2783689495762094
1589988507.2021043,-1.2511154130442435,-3.7696346485516172,8.733711590581112,0.5644444444444444,0.24444444444444444,-0.6322222222222222,-0.003071112337838391,-0.03518978407729089,0.3412307666182279
1589988507.2121043,-1.2100598842018195,-3.673877253928867,8.731272456575683,0.5644444444444444,0.24444444444444444,-0.6322222222222222,-0.00027760696042887414,-0.035316463127456885,0.3768461074106239
1589988507.2221043,-1.2077304683275047,-3.7001240220643905,8.77546093665501,0.5706067707394455,0.23828211814944336,-0.6322222222222222,-0.004624419339561264,-0.03641904746312085,0.428911147786488
1589988507.2321043,-1.2344474451766232,-3.8050135032948043,8.785552554823377,0.5733333333333334,0.23555555555555555,-0.6322222222222222,-0.007635815477475192,-0.041816161983006625,0.47469957843388394
1589988507.2421043,-1.26945728846738,-3.7809045192210333,8.6327135576631,0.5733333333333334,0.23555555555555555,-0.6322222222222222,-0.014062398883294365,-0.04256213406555504,0.5357810017713664
1589988507.2521043,-1.246376205237434,-3.7327524104748684,8.69299678603351,0.5733333333333334,0.23555555555555555,-0.6322222222222222,-0.016757756425092467,-0.04941428385773122,0.5736251179427421
1589988507.2621043,-1.232388550789174,-3.6667198555242195,8.732834347632478,0.5733333333333334,0.23555555555555555,-0.6322222222222222,-0.01579273190022787,-0.052099327087191144,0.620957082579201
1589988507.2721043,-1.23,-3.6682583125989594,8.73087084370052,0.6382517781296339,0.23555555555555555,-0.6403370278217597,-0.019254976838827965,-0.05833489638564626,0.6755028220996284
1589988507.2821043,-1.2997719928186715,-3.709869710182098,8.66022800718133,0.6444444444444445,0.23555555555555555,-0.6411111111111111,-0.02180950944272845,-0.06107941761260087,0.7274277953667214
1589988507.2921042,-1.3,-3.6813739360609725,8.726794149191065,0.6444444444444445,0.23555555555555555,-0.6411111111111111,-0.024939234822569406,-0.06004565076225477,0.7640146889392728
1589988507.3021042,-1.291415858822518,-3.68,8.64415858822518,0.6444444444444445,0.23555555555555555,-0.6411111111111111,-0.021343569822341344,-0.06374123121238222,0.7994730528882062
1589988507.3121042,-1.328795619637018,-3.602408760725964,8.761905106765862,0.6444444444444445,0.23555555555555555,-0.6411111111111111,-0.026650508725084312,-0.06689818353485591,0.8329639585255993
1589988507.3221042,-1.34,-3.554429611324505,8.731812296865348,0.8868896111454332,0.2800669728795652,-0.7216104828672988,-0.027431834775320234,-0.06763150851478028,0.8689235003923962
1589988507.3321042,-1.3321284637480832,-3.5027707824884993,8.775100753763416,0.9288888888888888,0.2877777777777778,-0.7355555555555555,-0.029846723777149687,-0.07192476553934408,0.9029496045466953
1589988507.3421042,-1.33,-3.4837076183939604,8.695614275909403,0.9288888888888888,0.2877777777777778,-0.7355555555555555,-0.031916046620117315,-0.07514483949258736,0.9307490816826807
1589988507.3521042,-1.3874504774119993,-3.504621633176571,8.681036055294285,0.9288888888888888,0.2877777777777778,-0.7355555555555555,-0.034515459167183,-0.07188181554402862,0.9621736886921205
1589988507.3621042,-1.4111328608053084,-3.5489650128185795,8.734531443221233,0.9288888888888888,0.2877777777777778,-0.7355555555555555,-0.036728195129438396,-0.07090400086226964,0.9786201405555387
1589988507.3721042,-1.4489287773378945,-3.5655356113310526,8.765178537110351,1.2460340034080282,0.1088479327619121,-1.1014510170700353,-0.0355493773190292,-0.0735337009306164,0.9951299091194906
1589988507.3821042,-1.4979285879216608,-3.567928587921661,8.742071412078339,1.586666666666667,-0.08333333333333333,-1.4944444444444445,-0.035332530887112586,-0.073750547362533,1.0050810965264618
1589988507.3921041,-1.517838237824815,-3.53297057305111,8.706485286525554,1.586666666666667,-0.08333333333333333,-1.4944444444444445,-0.03281315105496137,-0.0754149080847006,1.0059817931342452
1589988507.4021041,-1.5116838840566191,-3.511683884056619,8.641787188396334,1.586666666666667,-0.08333333333333333,-1.4944444444444445,-0.026191207535287604,-0.07545100724856699,0.9984888012522529
1589988507.4121041,-1.5248868118676042,-3.4727829703309894,8.756537900874637,1.586666666666667,-0.08333333333333333,-1.4944444444444445,-0.02752495689318091,-0.07364342472841384,0.983216191459107
1589988507.4221041,-1.4984397013983808,-3.3842552833561137,8.8,1.0704804495379618,-0.1078802322457038,-1.0231439853269313,-0.022853289109799686,-0.07239712352287402,0.9633273560027734
1589988507.432104,-1.5275730994152048,-3.368543859649123,8.752426900584796,0.7688888888888888,-0.12222222222222222,-0.7477777777777778,-0.021710722135370984,-0.07614636774563564,0.9347571382052686
1589988507.442104,-1.53,-3.333220821472143,8.694831232208214,0.7688888888888888,-0.12222222222222222,-0.7477777777777778,-0.02181661564992912,-0.073349165267768,0.912688223268079
1589988507.452104,-1.637196424830668,-3.3567991062076667,8.707866070805112,0.7688888888888888,-0.12222222222222222,-0.7477777777777778,-0.029612159648519813,-0.06723900442831952,0.891354843388064
1589988507.462104,-1.6427808695652173,-3.36,8.796629565217392,0.7688888888888888,-0.12222222222222222,-0.7477777777777778,-0.03211823185012435,-0.06811564767250738,0.876427328212823
1589988507.472104,-1.6954645193759437,-3.2860473074987415,8.691338701560142,0.652824246491081,0.08422904434379018,-0.7220997595481742,-0.027683056385589475,-0.0656972190436942,0.8473728331860081
1589988507.482104,-1.6581814350437256,-3.4890928247813715,8.914183963755137,0.6433333333333333,0.10111111111111112,-0.72,-0.0217967322103156,-0.06636218650846999,0.8307964234958313
1589988507.492104,-1.6780676685554734,-3.4233428594892006,8.847729325778106,0.6433333333333333,0.10111111111111112,-0.72,-0.025012175626883217,-0.06592833619521944,0.8132443670252653
1589988507.502104,-1.6591058282208588,-3.3516840490797546,8.830104294478527,0.6433333333333333,0.10111111111111112,-0.72,-0.029636132384947424,-0.06544984694978735,0.7839171765743411
1589988507.512104,-1.644206078508999,-3.227409933916009,8.657438103359016,0.6433333333333333,0.10111111111111112,-0.72,-0.02227850045060612,-0.06286710899375778,0.7608864114008761
1589988507.522104,-1.6913301635161777,-3.154053113765511,8.606525571146932,0.6411180692463309,0.10649103817954567,-0.7225317303851456,-0.018993080561755527,-0.06061707316065224,0.7388372854781635
1589988507.532104,-1.7190139396935245,-3.316824518042511,8.872880276816609,0.6355555555555555,0.12,-0.7288888888888889,-0.019658657951074885,-0.05762685936098237,0.6961329623343969
1589988507.542104,-1.6865193568026358,-3.353646456326326,8.75850839809476,0.6355555555555555,0.12,-0.7288888888888889,-0.01773655771365034,-0.05293844017447632,0.6461635347393915
1589988507.552104,-1.6981982111058804,-3.3745946333176415,8.701171377694088,0.6355555555555555,0.12,-0.7288888888888889,-0.015094756372824241,-0.04830120649663416,0.589535105793472
1589988507.562104,-1.6249340098782759,-3.3026792799114735,8.759282880354107,0.6355555555555555,0.12,-0.7288888888888889,-0.01597757520754006,-0.04536929830888548,0.5274733137386486
1589988507.572104,-1.57437125999958,-3.3037724400025197,8.766167719990761,0.6249234911103179,0.09811045555392249,-0.752654680001773,-0.009262270353016813,-0.04090289057754941,0.4543016470151647
1589988507.582104,-1.5951356496906235,-3.5227066476281137,8.829192448040615,0.6166666666666667,0.0811111111111111,-0.7711111111111111,-0.012441666659316234,-0.027034708450666963,0.3331438399293
1589988507.592104,-1.5514688375670775,-3.490669767952968,8.81840186077178,0.6166666666666667,0.0811111111111111,-0.7711111111111111,0.007416634427407091,-0.015257526331730248,0.22861296744552329
1589988507.602104,-1.391809529954512,-3.4193557441042683,8.702453785850244,0.6166666666666667,0.0811111111111111,-0.7711111111111111,0.02188689306621603,0.0006190535953445528,0.05856997998471031
1589988507.612104,-3.433169150196396,-5.468146185339901,6.4115323066691605,0.6166666666666667,0.0811111111111111,-0.7711111111111111,-0.06476574549515358,0.1261788361711985,-0.13059727100042262
1589988507.622104,-15.573246796033342,-8.401155404737587,-6.395529601686819,0.5464551920549681,0.06684940533060983,-0.6153294018164047,-1.406711665113548,2.6214496908615517,-2.425637137906371
1589988507.632104,-15.72,-8.43,-6.55,0.5455555555555556,0.06666666666666668,-0.6133333333333333,-1.423534171157875,2.6529004630313806,-2.454369260617026
1589988507.642104,-2.0671918321468716,-0.6173744848257774,-0.22548520044960657,0.5455555555555556,0.06666666666666668,-0.6133333333333333,-0.12078846090921629,-1.5067221772650727,-4.023607812392258
1589988507.652104,-0.09978333904696607,-0.7293925265683923,0.1979609187521426,0.5455555555555556,0.06666666666666668,-0.6133333333333333,-0.20385514471269078,-0.6860658483707311,-3.8775317939169494
1589988507.662104,-0.14659850374064837,-0.6765249376558604,0.15914962593516208,0.5455555555555556,0.06666666666666668,-0.6133333333333333,-0.13723684948786335,-0.4332694179373558,-3.7505179267690116
1589988507.672104,0.010156169691218915,-0.669718894555806,0.12024987150595026,0.5455312624924771,0.06707964873900114,-0.613510325650048,-0.07729907341555076,-0.392365186474034,-3.64392050925994
1589988507.6821039,0.013860126083530336,-0.48442454688731285,0.21647852639873916,0.5377777777777778,0.1988888888888889,-0.67,-0.011836652958397663,-0.2440950064915251,-3.391919987229911
1589988507.6921039,2.0292526193247964,-1.5518672875436554,3.9527054714784637,0.5377777777777778,0.1988888888888889,-0.67,0.40412211603960474,0.2406222859816594,-3.2024106391680673
1589988507.7021039,5.489964893033461,1.2916171146461872,10.423363686231488,0.5377777777777778,0.1988888888888889,-0.67,1.4056324592257523,2.274802956165698,-2.9939365303240306
1589988507.7121038,1.900533397134574,2.3343220649083793,4.243759675739579,0.5377777777777778,0.1988888888888889,-0.67,0.15526006663108904,1.475867213181242,-2.3983518898038683
1589988507.7221038,0.9646185092929679,-0.8613770837325159,8.276630197355814,0.5280532030401737,0.22234227502075748,-0.6562711886057354,-0.42767737856874577,0.0013774272892906891,-1.9075556872420476
1589988507.7321038,2.0625589023560944,-0.4649349973998961,14.13614944597784,0.5188888888888888,0.24444444444444444,-0.6433333333333333,0.7564366693928836,0.30028862260090133,-1.6877398533820636
1589988507.7421038,1.8846451178984016,-0.41895592657065994,10.432769821174237,0.5188888888888888,0.24444444444444444,-0.6433333333333333,0.6709644211948246,0.1262981884983198,-1.49214546805907
1589988507.7521038,0.9917226794321126,-1.646507426472999,8.98547493360438,0.5188888888888888,0.24444444444444444,-0.6433333333333333,-0.4164116591762586,-0.09341759082147147,-1.2068282378907218
1589988507.7621038,0.10222952130698049,-1.9523803267451159,9.50518031912868,0.5188888888888888,0.24444444444444444,-0.6433333333333333,-0.511323533300832,0.16796218495073367,-1.012454056969464
1589988507.7721038,0.05268503853869708,-2.888950128462324,11.110693696547354,0.5118192767786264,0.2929217846291016,-0.6241443861769065,0.3002558087114174,0.06171622876100824,-0.8466985304389619
1589988507.7821038,0.08,-2.98,11.25,0.5111111111111111,0.2977777777777777,-0.6222222222222222,0.37742745074377376,0.03926990816987242,-0.8366672101747817
1589988507.7921038,-0.34787081022265864,-2.692010031580903,9.472690480613572,0.5111111111111111,0.2977777777777777,-0.6222222222222222,-0.15393199777115824,0.009650209181708978,-0.6113779845375386
1589988507.8021038,-0.44,-2.63,9.09,0.5111111111111111,0.2977777777777777,-0.6222222222222222,-0.2683443724941282,0.003272492347489368,-0.5628686837681712
1589988507.8121037,-0.4537245914429413,-2.584251361856862,8.536441478468033,0.5111111111111111,0.2977777777777777,-0.6222222222222222,-0.07821004584015037,0.03970242895048248,-0.4001815696232979
1589988507.8221037,-0.4900124953142571,-2.6100499812570286,8.177685867799575,0.5080536465492107,0.29875060741110965,-0.6212493925888903,0.11069649371539725,0.06612113791614936,-0.19334106689818606
1589988507.8321037,-0.47311817597944766,-2.721766217084136,8.653828944551487,0.4866666666666667,0.3055555555555556,-0.6144444444444445,0.019531732674988977,-0.006448886029383087,0.01564983700338818
1589988507.8421037,-0.5235062363888339,-2.85176697683627,8.39176697683627,0.4866666666666667,0.3055555555555556,-0.6144444444444445,0.05143123523855989,0.006844849779416734,0.11429546121360187
1589988507.8521037,-0.615464853329936,-3.0960846577698504,9.06394559989808,0.4866666666666667,0.3055555555555556,-0.6144444444444445,-0.03253776210835201,-0.016476245564330805,0.21043222635704645
1589988507.8621037,-0.5986160095803884,-2.929142461314486,8.52709629699204,0.4866666666666667,0.3055555555555556,-0.6144444444444445,-0.020270800313707718,-0.01654747290850777,0.34137468269369275
1589988507.8721037,-0.5547732327627889,-2.9109070689488448,8.530215646455856,0.4866666666666667,0.3335852969302346,-0.6387368869691662,-0.03470707584155359,-0.03830235536576078,0.4703200094448778
1589988507.8821037,-0.4995198472241168,-3.0646137407356884,8.379185877324604,0.4866666666666667,0.3388888888888889,-0.6433333333333333,-0.009104689829479588,-0.04472406208235469,0.5643466347369718
1589988507.8921037,-0.495609317846371,-3.224623628312905,8.526326124622987,0.4866666666666667,0.3388888888888889,-0.6433333333333333,0.000265865065258393,-0.042276535452103386,0.62512226982283
1589988507.9021037,-0.5,-3.3655817587031884,8.747605341536058,0.4866666666666667,0.3388888888888889,-0.6433333333333333,-0.013343809510526692,-0.04657092738257671,0.6843316608061317
1589988507.9121037,-0.5266324259544598,-3.4348422592644474,8.901474685218906,0.49016385391321193,0.34077198971395173,-0.6411812181046901,-0.0401310483692434,-0.06045507420355602,0.7589781267369391
1589988507.9221036,-0.5984403355589796,-3.447898242828906,8.986338578387885,0.4995931753764316,0.3458493166556854,-0.6353785587427088,-0.0365705811772737,-0.06757600858749539,0.8465656196593934
1589988507.9321036,-0.6059359048388959,-3.4174872387111677,8.845564383878045,0.5011111111111111,0.3466666666666667,-0.6344444444444445,-0.020924399466310577,-0.06694904325538584,0.8894815480704306
1589988507.9421036,-0.601092042961081,-3.3787363436886477,8.661497632521076,0.5011111111111111,0.3466666666666667,-0.6344444444444445,-0.002959365081872875,-0.06483550979839317,0.9238264667465614
1589988507.9521036,-0.6492434526315789,-3.4903728842105264,8.882631747368421,0.5011111111111111,0.3466666666666667,-0.6344444444444445,-0.018008288850190627,-0.06674640612137678,0.9369411156486666
1589988507.9621036,-4.041485609565584,-14.169115844499188,6.766171964189148,0.5011111111111111,0.3466666666666667,-0.6344444444444445,-0.10239478396469337,0.028472400647606297,0.7761065699566961
1589988507.9721036,-4.934986750417115,-14.575940720384727,5.955368730984395,0.5078341784713362,0.3466666666666667,-0.6618538729130544,-0.39868350206185954,-0.060978307924723724,-1.3330673744153412
1589988507.9821036,-0.8761308912923345,-1.8861222073103339,9.704187258230046,0.5155555555555555,0.3466666666666667,-0.6933333333333334,-0.04314323152466237,0.1520809460448651,-4.07027432945839
1589988507.9921036,-0.001189599961764598,-1.1314288104000383,3.9816343258614912,0.5155555555555555,0.3466666666666667,-0.6933333333333334,0.9562934653702055,0.676989301258267,-4.232633933112695
1589988508.0021036,0.5460205177144221,-1.8116545389478707,4.808003101514971,0.5155555555555555,0.3466666666666667,-0.6933333333333334,0.6702134334453046,0.2901807670154565,-3.99554321413947
1589988508.0121036,-0.36562322912450274,-3.132611966951594,10.167668277816137,0.5155555555555555,0.3466666666666667,-0.6933333333333334,-0.08501189544157928,0.12826057376242272,-3.724824230544808
1589988508.0221035,-1.088941140878685,-2.8276288278597597,10.116913509697804,0.49063800463881135,0.37072499168973,-0.6984886886954184,-0.1436969074669011,0.26480831190351856,-3.3002976237685244
1589988508.0321035,-0.580058435629502,-2.7171289438977375,8.517239322309019,0.4833333333333333,0.37777777777777777,-0.7,0.18260629031146575,0.30387095047059365,-2.9943595366052342
1589988508.0421035,-0.5935089808474745,-3.126284856604148,9.457075270417784,0.4833333333333333,0.37777777777777777,-0.7,0.07812746671602502,0.1882618105352066,-2.778231041989297
1589988508.0521035,-0.5478431612180467,-3.085757612791527,9.277130257663712,0.4833333333333333,0.37777777777777777,-0.7,0.047191545975202476,0.1601673981275865,-2.5689434648215626
1589988508.0621035,-6.754565495091061,-12.453000109493047,8.94899485382678,0.4833333333333333,0.37777777777777777,-0.7,0.09175543491213811,0.1726703233771652,-2.366955012920604
1589988508.0721035,-9.790798416759955,-17.837568766991843,7.390091156245003,0.46310837464683613,0.39631732324040014,-0.7054775929775929,-0.054089890172978355,0.12308567857493494,-1.444900359000287
1589988508.0821035,0.535541596924605,-2.1064680780620595,9.095323633821987,0.43,0.4266666666666667,-0.7144444444444444,-0.18892147017888317,-0.16058340514966077,1.2347799160863424
1589988508.0921035,0.16839810195887583,-0.7071251977126172,11.371499209149531,0.43,0.4266666666666667,-0.7144444444444444,0.134296094218659,-0.20481472748632393,2.766840717841073
1589988508.1021035,0.16056185194116224,-4.298861827827345,8.988917289606945,0.43,0.4266666666666667,-0.7144444444444444,0.24748049113264903,-0.005146659052405522,2.6203536182735716
1589988508.1121035,1.0622263605536717,-4.952881205180945,11.662306965367724,0.43,0.4266666666666667,-0.7144444444444444,-0.2829535552372056,-0.3299493880925576,1.156452995141904
1589988508.1221035,-0.9231570499281914,-1.0244187716482216,9.244781194559433,0.43,0.44414317629279193,-0.7014618944364657,-0.04584359893807477,0.010001371004322523,-0.42761561940605264
1589988508.1321034,-0.553015873015873,-2.1632142857142855,8.691309523809524,0.43,0.4655555555555556,-0.6855555555555556,0.30110392551767257,0.28999216909438524,-0.5629379428654726
1589988508.1421034,-0.1321948519236092,-3.5044489669656955,9.183947021377053,0.43,0.4655555555555556,-0.6855555555555556,-0.004280686317967797,-0.008811840497506607,-0.4996860300590008
1589988508.1521034,0.5447246376811594,-6.412347826086956,9.93095652173913,0.43,0.4655555555555556,-0.6855555555555556,-0.25003738631831807,-0.12270739663160857,-0.5025441605819396
1589988508.1621034,-2.833904988884661,-9.857789149025654,8.252682501852556,0.43,0.4655555555555556,-0.6855555555555556,0.012622011701125396,0.05000287386549215,-0.7200733454790889
1589988508.1721034,-0.9780208464146671,-6.144343840261207,7.75489765163883,0.43069160143441193,0.44204110678554986,-0.681405946949084,0.07996558135094953,0.03045558996455383,-0.24444280839391708
1589988508.1821034,1.1148090936770525,-3.9519208362935148,8.304394803613112,0.4311111111111111,0.42777777777777776,-0.6788888888888889,0.01265777765051673,-0.04040037331958025,0.1856469774602233
1589988508.1921034,-0.47082424622787056,-4.870412123113935,8.726811537355195,0.4311111111111111,0.42777777777777776,-0.6788888888888889,-0.03500262926583951,-0.005804414396734098,-0.01748230261135822
1589988508.2021034,-0.5915108610603971,-5.0826252841014945,8.726110697119863,0.4311111111111111,0.42777777777777776,-0.6788888888888889,-0.03220684083453888,0.011618939026445962,-0.11055900615439525
1589988508.2121034,-0.025411154619536462,-4.799741242459519,8.71623346385861,0.4311111111111111,0.42777777777777776,-0.6788888888888889,0.00681408476419233,0.0015913961622090853,-0.009099876857898516
1589988508.2221034,-0.04445478526334509,-4.565545214736655,8.762273926316725,0.4311111111111111,0.43085845263147493,-0.6745759440937128,0.01322922094395173,-0.0016957198755260714,0.015669081466501675
1589988508.2321033,-0.04855698456353433,-4.5101011080552595,8.744278492281767,0.4311111111111111,0.43333333333333335,-0.6711111111111111,0.00545415391248228,-0.0007815282399053745,0.001090830782496456
1589988508.2421033,-0.07154263776321403,-4.425382944894714,8.710755031605073,0.4311111111111111,0.43333333333333335,-0.6711111111111111,0.0031877622874846986,0.00033536690749726226,0.0008390094908300581
1589988508.2521033,-0.06821969111305812,-4.489762407875071,8.610385679190504,0.4311111111111111,0.43333333333333335,-0.6711111111111111,-0.0006344392815787513,-0.0009387002821905543,0.0004143204276007859
1589988508.2621033,-0.010285161063193101,-4.597372645660975,8.657942967787362,0.4311111111111111,0.43333333333333335,-0.6711111111111111,0.0061273161299221805,0.0004176685650565553,0.0013152181883097562
1589988508.2721033,-0.05407335014712064,-4.489633249264397,8.731467002942413,0.4311111111111111,0.4414800336275746,-0.6769948391013965,0.008282312687135081,-0.001737327992156346,0.001737327992156346
1589988508.2821033,-0.06,-4.442436904990096,8.784138393712862,0.4311111111111111,0.4533333333333333,-0.6855555555555556,0.0004514287252079434,-0.0015697898993142724,0.000132912548860823
1589988508.2921033,-0.04288371548900327,-4.534108563406645,8.603007721104351,0.4311111111111111,0.4533333333333333,-0.6855555555555556,-0.012460840265284153,-0.002181661564992912,-0.0004684651149443718
1589988508.3021033,-0.03562543225775679,-4.597498270968973,8.541250864515513,0.4311111111111111,0.4533333333333333,-0.6855555555555556,-0.009748875750501703,-0.0015680220978319475,-0.0006136394671609646
1589988508.3121033,-0.04,-4.587943186025377,8.565886372050755,0.4311111111111111,0.4533333333333333,-0.6855555555555556,-0.0028547523642089437,-0.001957297965254235,-0.0006575971911175667
1589988508.3221033,-0.047380627009646306,-4.570477491961415,8.639204180064308,0.4259173365487674,0.45141983744194353,-0.6839154162200786,0.0029694009809540785,-0.0030041251762811362,0.0005367343424164635
1589988508.3321033,-0.07,-4.500375716828159,8.733966778722563,0.41,0.4455555555555555,-0.6788888888888889,0.007059661825102632,0.0005966458264554477,0.0010703386084135681
1589988508.3421032,-0.05518915653552821,-4.524936947821491,8.640504417428074,0.41,0.4455555555555555,-0.6788888888888889,0.0027614665848518976,0.0027339548819632917,0.0
1589988508.3521032,-0.048448185776487664,-4.55112046444122,8.583103628447025,0.41,0.4455555555555555,-0.6788888888888889,-0.0004607770550620734,0.0012601074548687652,-0.0004607770550620734
1589988508.3621032,-0.058088102802408836,-4.56470482241927,8.596326046754232,0.41,0.4455555555555555,-0.6788888888888889,-0.0004651638876661116,0.00020855563161011477,-0.0004651638876661116
1589988508.3721032,-0.05145858030252738,-4.5116686424202195,8.722286974251979,0.41,0.4455555555555555,-0.6788888888888889,0.0017043422771709533,0.0009317243532224696,0.0017043422771709533
1589988508.3821032,-0.05905833188983198,-4.53,8.7,0.4311111111111111,0.4455555555555555,-0.6855555555555556,0.003169772291342714,-0.0022843816211395663,0.00010272005614665442
1589988508.3921032,-0.04996115946198663,-4.530077681076027,8.699300870315758,0.4311111111111111,0.4455555555555555,-0.6855555555555556,0.0021435299559665667,-0.003259781811147253,0.001090830782496456
1589988508.4021032,-0.04,-4.55,8.543054306779355,0.4311111111111111,0.4455555555555555,-0.6855555555555556,-0.008753519810988014,-0.0008382782501346169,0.0008114046991182503
1589988508.4121032,-0.04,-4.550352320868002,8.609471518697998,0.4311111111111111,0.4455555555555555,-0.6855555555555556,-0.011864625750614815,-0.0032340601026761683,0.0
1589988508.4221032,-0.04205463509596056,-4.561781459616158,8.61287416153537,0.42837159764983035,0.4471536050746359,-0.6855555555555556,-0.002122063920514488,-0.0008667048615493224,0.0
1589988508.4321032,-0.05156967813381917,-4.53,8.730581931197085,0.4177777777777778,0.4533333333333333,-0.6855555555555556,0.007229885985771352,0.0008561266134907705,0.0
1589988508.4421031,-0.06351700602016949,-4.515931975919322,8.68,0.4177777777777778,0.4533333333333333,-0.6855555555555556,0.008222786924646201,0.003919570540871789,0.0003836458429026226
1589988508.4521031,-0.0641085664589071,-4.5047285838527324,8.65348854906508,0.4177777777777778,0.4533333333333333,-0.6855555555555556,0.0013445252295924937,0.001090830782496456,0.0014121586354792683
1589988508.4621031,-0.05,-4.54,8.62299417703763,0.4177777777777778,0.4533333333333333,-0.6855555555555556,-0.0028725916368695513,0.0006909300718766392,0.0009819594331334615
1589988508.472103,-0.05110873440285205,-4.54,8.677782531194296,0.4177777777777778,0.45173182808476925,-0.6855555555555556,-0.0019397732417441435,0.0,-0.001090830782496456
1589988508.482103,-0.06,-4.51891126931759,8.70217746136482,0.4177777777777778,0.4388888888888889,-0.6855555555555556,0.0018403389273720378,0.0,-0.0006307460506534465
1589988508.492103,-0.05579029415751661,-4.511048529212417,8.692644706520266,0.4177777777777778,0.4388888888888889,-0.6855555555555556,0.0006896617553969731,-0.00045920767182360635,-0.00045920767182360635
1589988508.502103,-0.046792749577320804,-4.536792749577321,8.616036252113396,0.4177777777777778,0.4388888888888889,-0.6855555555555556,-0.005063036627632471,-4.1260536026484695e-05,-0.001090830782496456
1589988508.512103,-0.03824866120089095,-4.540508032794654,8.646497322401782,0.4177777777777778,0.4388888888888889,-0.6855555555555556,-0.006736026122243588,0.0016085372831983543,-0.0005177065007018984
1589988508.522103,-0.034528253968253965,-4.585471746031746,8.640565925925927,0.4187840564373898,0.4398951675485009,-0.6845492768959436,-0.00631859979226635,-0.0009261788218453507,0.0018523576436907014
1589988508.532103,-0.06,-4.558571987480438,8.698571987480438,0.4244444444444445,0.4455555555555555,-0.6788888888888889,0.001350450784851181,-5.192400047094502e-05,5.192400047094502e-05
1589988508.542103,-0.06131314108767176,-4.5273737178246565,8.667373717824656,0.4244444444444445,0.4455555555555555,-0.6788888888888889,0.00711795058305603,-0.001090830782496456,0.001090830782496456
1589988508.552103,-0.0688407383929772,-4.511159261607022,8.65,0.4244444444444445,0.4455555555555555,-0.6788888888888889,0.010023117052829813,-0.0009643749579057779,0.001090830782496456
1589988508.562103,-0.06078391824660481,-4.519216081753394,8.65,0.4244444444444445,0.4455555555555555,-0.6788888888888889,0.0038710778555393925,-8.551221543571792e-05,0.001090830782496456
1589988508.572103,-0.06695404346277165,-4.553908086925543,8.656091913074457,0.4244444444444445,0.4467400942089221,-0.6788888888888889,0.0007585684672009555,0.0007585684672009555,-0.001090830782496456
1589988508.582103,-0.05201175632347702,-4.524023512646954,8.685976487353045,0.4244444444444445,0.45255098365198115,-0.6788888888888889,-0.0008713822100433926,-0.0008713822100433926,-0.001090830782496456
1589988508.592103,-0.04,-4.53,8.704823363454226,0.4244444444444445,0.4533333333333333,-0.6788888888888889,0.002181661564992912,-0.0028499777298915873,0.0008795734736975656
1589988508.602103,-0.040820973881086756,-4.530820973881087,8.60492584328652,0.4244444444444445,0.4533333333333333,-0.6788888888888889,0.0019129984906584062,-0.0014490482149424637,0.0
1589988508.612103,-0.05,-4.54477793169497,8.66,0.4244444444444445,0.4533333333333333,-0.6788888888888889,-0.0026544052733581862,-0.004672366667051415,0.0010423829939078203
1589988508.622103,-0.05,-4.559124040155285,8.66,0.4244444444444445,0.4533333333333333,-0.6788888888888889,-0.007349158288621524,-0.002324990159419746,0.004172218337416712
1589988508.632103,-0.06,-4.537603117278084,8.665206234556168,0.4244444444444445,0.4533333333333333,-0.6855555555555556,-0.00440831653044234,-0.0008293714369864711,0.001397283528462957
1589988508.642103,-0.06,-4.528274139683462,8.644822419050385,0.4244444444444445,0.4533333333333333,-0.6855555555555556,0.0006035286211157973,0.000376524311913834,-0.000902568626539539
1589988508.652103,-0.056787130368317965,-4.523212869631682,8.632851478526728,0.4244444444444445,0.4533333333333333,-0.6855555555555556,0.007675237131655604,0.0014807221461155494,0.00035046970943868126
1589988508.662103,-0.04749072562694762,-4.527490725626948,8.670037097492209,0.4244444444444445,0.4533333333333333,-0.6855555555555556,0.004359276421340266,0.0,0.00026967266413994594
1589988508.672103,-0.04035147443412391,-4.520351474434124,8.699297051131751,0.4244444444444445,0.4528256480395988,-0.6860632408492902,0.0010141509560958799,7.667982640057601e-05,-0.002066641825392048
1589988508.682103,-0.049807466859049514,-4.52980746685905,8.6803850662819,0.4244444444444445,0.43916699231470624,-0.6997218965741826,-0.0010488265671365507,0.0021396573496330067,0.0010278244594565987
1589988508.692103,-0.04,-4.528796570537803,8.672779423226812,0.4244444444444445,0.4388888888888889,-0.7,0.0009595569923035855,-0.0023129353551857826,0.00026254758038574095
1589988508.702103,-0.04156739409499358,-4.52,8.623134788189986,0.4244444444444445,0.4388888888888889,-0.7,0.0001709761727122173,-0.0029305400020649334,0.002096173478636803
1589988508.712103,-0.06,-4.530209398822734,8.66765704911705,0.4244444444444445,0.4388888888888889,-0.7,0.0005111525889995936,0.000812412619830903,0.000812412619830903
1589988508.7221029,-0.05894566379472989,-4.557891327589459,8.69,0.4251473352479579,0.43959177969240226,-0.7,-0.004363323129985824,-0.00011501023878091367,-0.00011501023878091367
1589988508.7321029,-0.05,-4.542647855264707,8.687352144735293,0.4311111111111111,0.4455555555555555,-0.7,-0.0034968145208845026,-0.0013796669855302298,-0.0005131583764289085
1589988508.7421029,-0.05,-4.548820692563116,8.670565540504928,0.4311111111111111,0.4455555555555555,-0.7,-0.0005762608408244336,-0.001795734108738895,0.001090830782496456
1589988508.7521029,-0.05440561622464899,-4.531188767550702,8.617622464898595,0.4311111111111111,0.4455555555555555,-0.7,0.003512781437175015,0.0008505416928108092,0.0013311198721821028
1589988508.7621028,-0.05812456541174134,-4.5023750869176515,8.68,0.4311111111111111,0.4455555555555555,-0.7,0.00410424133789791,-0.0005181635841758272,0.0016634979808170848
1589988508.7721028,-0.023379066165080772,-4.514505421553441,8.683379066165081,0.43261291829559145,0.44643160974650237,-0.7,0.0027810270956277207,-0.0018130626260966765,0.0
1589988508.7821028,-0.05,-4.54544766936291,8.698619173407275,0.4444444444444444,0.4533333333333333,-0.7,-0.0013391219020484312,0.0005942485433925057,0.0
1589988508.7921028,-0.05,-4.5316843590542915,8.664210897635728,0.4444444444444444,0.4533333333333333,-0.7,-0.0020897940297330336,-0.0009070957119766997,0.0
1589988508.8021028,-0.06,-4.517878942533429,8.612121057466572,0.4444444444444444,0.4533333333333333,-0.7,-0.0004297296524492265,0.0015205604349456826,0.0007602802174728413
1589988508.8121028,-0.05201637107776262,-4.495322419281492,8.663950886766713,0.4444444444444444,0.4533333333333333,-0.7,0.001090830782496456,-0.00029029293948018467,0.0005805858789603693
1589988508.8221028,-0.030696508739048948,-4.511393017478098,8.728606982521903,0.4439801052850785,0.4528302992440202,-0.7,0.0009768648065715984,-0.0012427854170629325,0.0022576388822761503
1589988508.8321028,-0.04897790175652705,-4.547955803513054,8.692044196486945,0.4317925099400931,0.43962707095361936,-0.7,-0.002014421130985534,-0.0052311666671391085,0.004251829507314238
1589988508.8421028,-0.04747492378798309,-4.562525076212017,8.65474923787983,0.4311111111111111,0.4388888888888889,-0.7,-0.0029861076998770253,-0.0005508861720435194,0.0008153876964746963
1589988508.8521028,-0.045761366189798515,-4.555596584525504,8.611687514043892,0.4311111111111111,0.4388888888888889,-0.7,0.002033532120856437,-0.0018674277855395848,0.0003142337794533271
1589988508.8621027,-0.05743265204672772,-4.517432652046727,8.69,0.4311111111111111,0.4388888888888889,-0.7,0.004643377347666691,-0.001090830782496456,0.0008107765648155885
1589988508.8721027,-0.05,-4.511800258185659,8.692700387278489,0.4311111111111111,0.4388888888888889,-0.6993999139381136,0.005355965060214379,-0.001090830782496456,0.00019637770453580138
1589988508.8821027,-0.04780432423743118,-4.532195675762569,8.72,0.4311111111111111,0.4388888888888889,-0.6933333333333334,0.0034052788459092436,-0.001090830782496456,0.0014631283519354766
1589988508.8921027,-0.04175016210425418,-4.54,8.706873784218095,0.4311111111111111,0.4388888888888889,-0.6933333333333334,-0.00019091306976792307,-0.001090830782496456,-0.000899917712728533
1589988508.9021027,-0.06,-4.54,8.578949114527358,0.4311111111111111,0.4388888888888889,-0.6933333333333334,-0.001937612324929689,-0.0013348800225596788,0.0008467815424332331
1589988508.9121027,-0.06,-4.54,8.621294794905968,0.4311111111111111,0.4388888888888889,-0.6933333333333334,-0.0005628003554072952,-0.0020056514226298584,0.00035202028472610715
1589988508.9221027,-0.06,-4.54,8.675641196505257,0.4311111111111111,0.4388888888888889,-0.6933333333333334,0.0019778879781249597,-0.00115875531145244,0.002045812507080944
1589988508.9321027,-0.05809682160573213,-4.523806356788535,8.71048410802866,0.4244444444444445,0.4455555555555555,-0.6788888888888889,0.0013512433341730855,-0.0012984353402014125,0.0
1589988508.9421027,-0.05039096086716884,-4.539218078265662,8.671954804335844,0.4244444444444445,0.4455555555555555,-0.6788888888888889,-0.0020110727055292006,-0.002139014350126984,0.0
1589988508.9521027,-0.043908475520807726,-4.55,8.58586271328121,0.4244444444444445,0.4455555555555555,-0.6788888888888889,-0.0008776565119599093,0.0013040050530330025,0.0013289644828467255
1589988508.9621027,-0.057657799413220565,-4.55,8.60648669911983,0.4244444444444445,0.4455555555555555,-0.6788888888888889,-0.00012774722494201336,0.0020539143400508985,-0.0016706726652248585
1589988508.9721026,-0.05,-4.51001288406525,8.690051536261,0.42443585506761106,0.445546966178722,-0.6789346988986672,0.004368944863977245,0.0,-0.001090830782496456
1589988508.9821026,-0.05,-4.519172144214181,8.726688576856725,0.41832968163499035,0.4394407927461014,-0.7115009572059776,0.008365426030116075,0.0,-0.001090830782496456
1589988508.9921026,-0.06817527896995709,-4.5054741630901285,8.702629184549357,0.4177777777777778,0.4388888888888889,-0.7144444444444444,0.00029464603488067373,0.001584523004281075,-0.001090830782496456
1589988509.0021026,-0.06097476394849785,-4.5270757081545066,8.594621459227469,0.4177777777777778,0.4388888888888889,-0.7144444444444444,-0.0028471713392136683,-0.0007718400262896816,-0.001090830782496456
1589988509.0121026,-0.046610926084151426,-4.53,8.653389073915848,0.4177777777777778,0.4388888888888889,-0.7144444444444444,0.001090830782496456,-0.0012756760900746276,0.0
1589988509.0221026,-0.03198364400425465,-4.53,8.668016355995745,0.4177777777777778,0.4388888888888889,-0.7144444444444444,0.001090830782496456,-0.0020734705679251366,0.0
1589988509.0321026,-0.05,-4.532538338445126,8.704769969329245,0.4244444444444445,0.4455555555555555,-0.6933333333333334,-0.0005537795424675301,-0.001627882022525382,0.002164933262554308
1589988509.0421026,-0.04807324877419949,-4.54,8.640732487741996,0.4244444444444445,0.4455555555555555,-0.6933333333333334,-0.0019714856102613144,-0.0002101759547315977,-0.0013010067372280537
1589988509.0521026,-0.04332711999806338,-4.543327119998064,8.569981359994191,0.4244444444444445,0.4455555555555555,-0.6933333333333334,-0.000909364536949102,-0.001090830782496456,-0.00163726282835085
1589988509.0621026,-0.06,-4.556129863880104,8.626450226866492,0.4244444444444445,0.4455555555555555,-0.6933333333333334,0.0004221663612033411,-0.0006686644212931149,0.0008093865416942286
1589988509.0721025,-0.06,-4.534503815481919,8.662493640863467,0.4244444444444445,0.4455555555555555,-0.6933333333333334,0.0027812022908531857,0.0016903715083567297,-0.0007633040780723346
1589988509.0821025,-0.06,-4.520299985395063,8.737900102234555,0.4244444444444445,0.4455555555555555,-0.6857888775294939,0.002214384895316378,-0.002050768243699047,0.004199706478368493
1589988509.0921025,-0.043384399336141966,-4.5283078003319295,8.689693603983148,0.4244444444444445,0.4455555555555555,-0.6855555555555556,0.001443300169768067,-0.0016278905185742782,0.003440371385954768
1589988509.1021025,-0.059254648800185175,-4.521490702399629,8.593726755999073,0.4244444444444445,0.4455555555555555,-0.6855555555555556,-0.002262966768245779,0.0012534411890021903,-0.0009282203759907216
1589988509.1121025,-0.05,-4.537707824548583,8.644584350902832,0.4244444444444445,0.4455555555555555,-0.6855555555555556,-0.002772417239231854,0.0028974360162962324,0.0007157744513033202
1589988509.1221025,-0.05,-4.52157683210584,8.67684633578832,0.4244444444444445,0.4455555555555555,-0.6855555555555556,0.000746819382520649,0.00025800854998185487,-0.0019236530150110573
1589988509.1321025,-0.04228512598874664,-4.535429748022507,8.687714874011252,0.4244444444444445,0.43612626509735697,-0.6804123062147199,0.001090830782496456,-0.0008415622054557078,-0.0004985371540814963
1589988509.1421025,-0.05059701769353463,-4.521791053080603,8.711641752290516,0.4244444444444445,0.43333333333333335,-0.6788888888888889,-0.0009605817269359347,-0.00013024905556052122,-6.512452778026061e-05
1589988509.1521025,-0.058376052524203415,-4.54512815757261,8.602735264661153,0.4244444444444445,0.43333333333333335,-0.6788888888888889,0.0007365404033451905,-0.0018273711858416465,-0.0009136855929208232
1589988509.1621025,-0.05,-4.5569488271844,8.626102345631198,0.4244444444444445,0.43333333333333335,-0.6788888888888889,0.0,0.0,0.002070717790660506
1589988509.1721025,-0.05,-4.5357608567531615,8.668478286493677,0.4244444444444445,0.43333333333333335,-0.6788888888888889,0.0,0.0,0.0013003014451598266
