time,acc_x,acc_y,acc_z,mag_x,mag_y,mag_z,gyr_x,gyr_y,gyr_z
1589988600.0416489,-3.88,-0.75,9.1,0.32,-0.33555555555555555,-0.6222222222222222,-0.011999138607461015,0.009817477042468105,0.008726646259971648
1589988600.0516489,-3.916653048740524,-0.7774897865553929,9.090836737814868,0.32,-0.33555555555555555,-0.6222222222222222,-0.011999138607461015,0.009817477042468105,0.010725759951896969
1589988600.0616488,-3.9102544468373615,-0.7751272234186807,9.004618329743957,0.32,-0.33555555555555555,-0.6222222222222222,-0.008782157948512186,0.011467601138347923,0.01946841901931459
1589988600.0716488,-3.9119729151230755,-0.7640135424384622,9.002040627315386,0.32,-0.33555555555555555,-0.6222222222222222,-0.004585921039108496,0.012867371480834798,0.030751087310278837
1589988600.0816488,-3.9113386464946642,-0.7513386464946643,8.998661353505335,0.3166316958590361,-0.33314962402629567,-0.6222222222222222,-0.003744895898574555,0.01229118596811318,0.03617777201281607
1589988600.0916488,-3.894694480807398,-0.7293889616147966,8.999388961614796,0.31222222222222223,-0.33,-0.6222222222222222,-0.0032058383995026965,0.007502507581501849,0.04042739290035555
1589988600.1016488,-3.89,-0.7357610566680869,8.958477886663825,0.31222222222222223,-0.33,-0.6222222222222222,0.001829955783258477,0.006600330297696962,0.03915921696443596
1589988600.1116488,-3.9049211278540423,-0.75,8.949894837138723,0.31222222222222223,-0.33,-0.6222222222222222,0.007624343988849581,0.004923077882016066,0.035460604047604025
1589988600.1216488,-3.908269422152582,-0.7441347110762911,8.999326444618545,0.31222222222222223,-0.33,-0.6222222222222222,0.009177673271846386,-0.0003775535174939562,0.03381575425739013
1589988600.1316488,-3.862255001010305,-0.717353000606183,9.050195999191756,0.3071895556902629,-0.3392265553085921,-0.5953813340517725,0.007079709988641375,-0.006299002243318594,0.03381575425739013
1589988600.1416488,-3.8221728310823013,-0.7030432077705753,9.07391358445885,0.3055555555555556,-0.3422222222222222,-0.5866666666666667,0.0027506431393344672,-0.004600342232959778,0.031539149324003576
1589988600.1516488,-3.8829593504795117,-0.7218878051438535,9.007040649520489,0.3055555555555556,-0.3422222222222222,-0.5866666666666667,-0.0012967583787235144,0.004686138189910534,0.017809453050060924
1589988600.1616488,-3.896211024978467,-0.7437889750215332,8.986894487510767,0.3055555555555556,-0.3422222222222222,-0.5866666666666667,-0.004437877326877377,0.009139959318731503,0.0048171782630477625
1589988600.1716487,-3.9011996907174544,-0.755599845358727,8.99,0.3055555555555556,-0.3422222222222222,-0.5866666666666667,-0.004232457173578404,0.010428325411920042,0.0017016791519483944
1589988600.1816487,-3.9040391949774103,-0.7659608050225899,8.97807838995482,0.3055555555555556,-0.34685840390645883,-0.613159133433733,-0.0019720464260692544,0.0063567470999941625,0.0008812156435727984
1589988600.1916487,-3.9,-0.7487987859937795,8.977067071335407,0.3055555555555556,-0.35,-0.6311111111111111,-0.00031993288702044395,0.0017306965565373437,0.000770897895476012
1589988600.2016487,-3.9,-0.7328606830143258,8.937164098085955,0.3055555555555556,-0.35,-0.6311111111111111,0.00700900806057587,-0.003581841257887456,0.001090830782496456
1589988600.2116487,-3.9,-0.7160131791853294,8.954967052036677,0.3055555555555556,-0.35,-0.6311111111111111,0.009817477042468105,-0.004691291177787035,0.0026165562518869452
1589988600.2216487,-3.910877579605939,-0.71,9.029826687832664,0.3055555555555556,-0.35,-0.6311111111111111,0.009224197108807411,-0.004363323129985824,0.002085932480167982
1589988600.2316487,-3.908110749185668,-0.729815418023887,9.08,0.31304138014235733,-0.3451562311497165,-0.6328724816021233,0.0065651194651225354,-0.0017694909761668894,0.001955441500436101
1589988600.2416487,-3.89,-0.7437747287811104,9.071887364390555,0.3244444444444444,-0.3377777777777778,-0.6355555555555555,0.005484870509979188,0.00306661282998884,0.002830016714991404
1589988600.2516487,-3.8970143401901285,-0.7164928299049358,8.989856598098717,0.3244444444444444,-0.3377777777777778,-0.6355555555555555,0.006813781710398132,0.0035981773101564176,0.0017990886550782088
1589988600.2616487,-3.914646365422397,-0.7146463654223968,8.883231827111985,0.3244444444444444,-0.3377777777777778,-0.6355555555555555,0.0007382931327505481,0.002435081486466794,0.000583990939548692
1589988600.2716486,-3.9230388183373863,-0.73,8.966961181662615,0.3244444444444444,-0.3377777777777778,-0.6355555555555555,-0.006876468353462303,0.0028928187854829236,-0.00033148365848356686
1589988600.2816486,-3.9104467261100604,-0.73,8.97955327388994,0.3244444444444444,-0.3377777777777778,-0.6355555555555555,-0.005502884171702152,0.002206026694602848,0.0010421005232765835
1589988600.2916486,-3.8930075324029043,-0.7069924675970956,8.946992467597095,0.3244444444444444,-0.33555555555555555,-0.6166666666666667,-0.0018535906725485481,-0.0066516028001421005,0.002722968667764005
1589988600.3016486,-3.8881402100283142,-0.7079065266477904,8.924186946704419,0.3244444444444444,-0.33555555555555555,-0.6166666666666667,-0.00152206491499837,-0.004363323129985824,-0.0019532990475002844
1589988600.3116486,-3.874510407109576,-0.733531221328728,8.949614478205335,0.3244444444444444,-0.33555555555555555,-0.6166666666666667,-0.004641707023351085,-0.003379304946642555,-0.0013044559808028304
1589988600.3216486,-3.88221494330846,-0.7522149433084602,9.0210747165423,0.3244444444444444,-0.33555555555555555,-0.6166666666666667,-0.007877428311710476,-0.0009735973938164897,0.0006076051140258873
1589988600.3316486,-3.89,-0.7589369088950078,9.060531545552497,0.3242082019766684,-0.3352602524708355,-0.6157807574125065,-0.008726646259971648,0.003562405472970289,-0.0009748655323040876
1589988600.3416486,-3.89,-0.7437933826506201,9.06620661734938,0.32,-0.33,-0.6,-0.007899058546954756,0.008312852403463203,0.0015046246390049015
1589988600.3516486,-3.8963085475675405,-0.7373829048649192,8.977988881621975,0.32,-0.33,-0.6,-0.007921296270881971,0.004195036537717102,0.0014935057770412942
1589988600.3616486,-3.911859003631461,-0.73,8.93592950181573,0.32,-0.33,-0.6,-0.00613941301778465,0.002181661564992912,0.001090830782496456
1589988600.3716486,-3.8961477312408848,-0.734770453751823,8.944770453751822,0.32,-0.33,-0.6,-0.0028021957902965465,0.0006205342253036345,0.001090830782496456
1589988600.3816485,-3.8809993549678596,-0.7473329033119064,8.975665161591671,0.32,-0.33285168462129694,-0.5975556988960312,-0.0018907264482662276,-0.001090830782496456,0.0002909351167266844
1589988600.3916485,-3.9,-0.76,9.02453132359868,0.32,-0.3377777777777778,-0.5933333333333334,-0.003272492347489368,0.0008863321242611338,0.00039204139757173626
1589988600.4016485,-3.9,-0.7421128002785192,8.982300800742717,0.32,-0.3377777777777778,-0.5933333333333334,-0.0019716984762324823,0.006524477025631583,0.004783249307506682
1589988600.4116485,-3.9140223165832015,-0.7346741055277338,8.982718738694137,0.32,-0.3377777777777778,-0.5933333333333334,-0.0005809649634675604,0.012295706993173915,0.0055252530569209445
1589988600.4216485,-3.925276040434092,-0.7494479191318165,9.031809898914771,0.32,-0.3377777777777778,-0.5933333333333334,0.0,0.016620113762934905,0.005136279206450021
1589988600.4316485,-3.911096047871801,-0.7778079042563981,9.067259880320497,0.32,-0.3377777777777778,-0.5933333333333334,0.0,0.017393512382060786,0.0074564750638276625
1589988600.4416485,-3.8984972957170005,-0.7515027042829996,9.0241037859962,0.3055555555555556,-0.33555555555555555,-0.6077777777777778,0.006261250694924037,0.00808346908641841,0.014868082563729504
1589988600.4516485,-3.9628030242097645,-0.7145328292983726,8.941729805088608,0.3055555555555556,-0.33555555555555555,-0.6077777777777778,0.00047930576407770754,0.0020797407285897875,0.01716267921970288
1589988600.4616485,-3.960344022336915,-0.7142365682375835,8.918473136475168,0.3055555555555556,-0.33555555555555555,-0.6077777777777778,-0.00730270553076344,-0.002606272454065862,0.023794195226068817
1589988600.4716485,-3.908931319144157,-0.7222137361711686,8.938854944684675,0.3055555555555556,-0.33555555555555555,-0.6077777777777778,-0.008610071262549805,-0.00980914588132813,0.028486506503469674
1589988600.4816484,-3.87,-0.7329313011735105,8.990519108214572,0.30750975633789585,-0.3375097563378958,-0.6103833788208981,-0.004683078485269139,-0.014255738967110139,0.022211309799868642
1589988600.4916484,-3.87,-0.7491991203518592,9.052265493802478,0.31222222222222223,-0.3422222222222222,-0.6166666666666667,-0.00645762227765205,-0.0025311112342996534,0.015271630954950384
1589988600.5016484,-3.8534571332511485,-0.7865428667488513,9.00831424408831,0.31222222222222223,-0.3422222222222222,-0.6166666666666667,-0.008125130650625513,0.007146500304324871,0.02128678704841173
1589988600.5116484,-3.770195147033618,-0.8214784162973483,8.982217624446022,0.31222222222222223,-0.3422222222222222,-0.6166666666666667,-0.008221548418885718,0.007050082536064666,0.03848033054953598
1589988600.5216484,-3.6378516749221763,-0.8354907296826359,9.028037081269456,0.31222222222222223,-0.3422222222222222,-0.6166666666666667,-0.011186071694360743,0.004577444347467459,0.061876397471163816
1589988600.5316484,-3.4409960784313727,-0.8200905525846702,9.035135828877005,0.3050653990889285,-0.3400201227965934,-0.6166666666666667,-0.017423659255905423,0.0011007085371757465,0.09636566354404877
1589988600.5416484,-3.0454732393752586,-0.8947526521009868,8.947354869627725,0.2977777777777777,-0.3377777777777778,-0.6166666666666667,-0.025348324957931125,0.005282902960569675,0.14402366635768632
1589988600.5516484,-2.7115220439320766,-0.9221603832372643,8.760801916186322,0.2977777777777777,-0.3377777777777778,-0.6166666666666667,-0.024312492219881673,0.040107234228924545,0.1817670501858463
1589988600.5616484,-2.220487534626039,-0.7864542936288089,8.650293628808864,0.2977777777777777,-0.3377777777777778,-0.6166666666666667,-0.021893970963036902,0.07054925423106441,0.20818067338616714
1589988600.5716484,-1.517987103838433,-0.5956676196848957,8.851181945373806,0.2977777777777777,-0.3377777777777778,-0.6166666666666667,-0.03460824723356601,0.052421920675690584,0.21563599178509996
1589988600.5816483,-1.7454983468997118,-0.7606372653274299,9.094183020436573,0.30638343763225334,-0.33921205442019037,-0.6184595124696824,-0.04904817764820485,0.02233797712676276,0.20232950637102476
1589988600.5916483,-1.841976263643107,-0.7236627106071845,9.036337289392815,0.3244444444444444,-0.3422222222222222,-0.6222222222222222,-0.022768043876137477,-0.011507617446618528,0.18978874910664503
1589988600.6016483,-1.9552206083858592,-0.74,9.01238969580707,0.3244444444444444,-0.3422222222222222,-0.6222222222222222,0.0017665838611024408,-0.007124479206315916,0.17376091355355816
1589988600.6116483,-2.036487049576211,-0.755063213220323,9.05272124627113,0.3244444444444444,-0.3422222222222222,-0.6222222222222222,0.0002692599492946647,-0.0030308143688302968,0.15253341112624422
1589988600.6216483,-2.129270519437897,-0.78,9.137811558313691,0.3244444444444444,-0.3422222222222222,-0.6222222222222222,-0.0009316828120215426,-0.014237169146863448,0.13210326263089023
1589988600.6316483,-2.12,-0.7734796169302437,9.103479616930244,0.3234784617674435,-0.3439126919069738,-0.6210147438759711,0.0036987967900880487,-0.0006166551447525301,0.09798668787938145
1589988600.6416483,-2.125744506058739,-0.7509574176764565,9.075212911617717,0.32,-0.35,-0.6166666666666667,0.012776655188001978,0.0017174591864074413,0.06594896158898877
1589988600.6516483,-2.199752175461809,-0.7639504350923617,8.950991298152765,0.32,-0.35,-0.6166666666666667,0.00852470018156739,0.008928592338375908,0.012215406315394771
1589988600.6616483,-2.239159985882116,-0.7516800282357686,8.843739978823173,0.32,-0.35,-0.6166666666666667,0.004546585781489792,0.009409508639847852,-0.03666278794920455
1589988600.6716483,-2.25,-0.7379340254196177,8.867934025419618,0.32,-0.35,-0.6166666666666667,0.0013161936493100732,0.00850128339315803,-0.08317394744549973
1589988600.6816483,-2.273398737101494,-0.7366292930848606,8.906741413830279,0.3174001403220562,-0.34740014032205624,-0.6166666666666667,0.0,0.009817477042468105,-0.13131324527092744
1589988600.6916482,-2.3318544578125913,-0.7258059437501214,8.983708915625183,0.31222222222222223,-0.3422222222222222,-0.6166666666666667,0.0012931207491779988,0.013696839290002101,-0.18801808195853173
1589988600.7016482,-2.35650363516193,-0.7532518175809649,9.010244547257106,0.31222222222222223,-0.3422222222222222,-0.6166666666666667,0.004336647162403293,0.019280235813298234,-0.2391478864610968
1589988600.7116482,-2.374560799737791,-0.7645607997377909,9.008243198951163,0.31222222222222223,-0.3422222222222222,-0.6166666666666667,0.011022539367084395,0.019041629377118157,-0.30104712897180297
1589988600.7216482,-2.3598336536906963,-0.7800831731546518,9.04008317315465,0.31222222222222223,-0.3422222222222222,-0.6166666666666667,0.016729096259524706,0.02183476121740342,-0.34923823328987175
1589988600.7316482,-2.3210487127713275,-0.8020974255426553,9.057902574457344,0.31222222222222223,-0.34303788771103255,-0.6172492848729598,0.01756768933723943,0.027095113318284004,-0.40378745094008267
1589988600.7416482,-2.329870646138314,-0.819741292276628,9.040258707723371,0.31222222222222223,-0.34989939144091087,-0.62215035896573,0.01853001298502356,0.03479370250055708,-0.5154169940830422
1589988600.7516482,-2.425859566208119,-0.82,9.020665878977129,0.31222222222222223,-0.35,-0.6222222222222222,0.019221600197400626,0.03716484135642285,-0.5315066313291522
1589988600.7616482,-2.411699879109309,-0.8208499395546542,8.87594957688258,0.31222222222222223,-0.35,-0.6222222222222222,0.021353045535190004,0.04609303493369462,-0.5978072156909364
1589988600.7716482,-2.4280563896579963,-0.8290281948289981,8.933197363802986,0.31222222222222223,-0.35,-0.6222222222222222,0.016892499235005853,0.04876936271380511,-0.7030761083752823
1589988600.7816482,-2.456027134184116,-0.863013567092058,8.92506783546029,0.32260228665042195,-0.3476561144839549,-0.62054801828219,0.01975439674433792,0.05651391417430391,-0.8054506430671728
1589988600.7916481,-2.477553226717572,-0.8964362935115024,8.963776613358787,0.3466666666666667,-0.3422222222222222,-0.6166666666666667,0.026736966439558953,0.06314634687247711,-0.8774806469829094
1589988600.8016481,-2.4771327410840738,-0.9451469035663705,8.967426548216816,0.3466666666666667,-0.3422222222222222,-0.6166666666666667,0.030856031338588757,0.06654067773228381,-0.9369749922631996
1589988600.8116481,-2.4634006072512946,-0.9700288316791263,8.966685887786085,0.3466666666666667,-0.3422222222222222,-0.6166666666666667,0.037094536701499925,0.06945794661443493,-1.009446033385695
1589988600.8216481,-2.51,-0.9835196124522209,8.986480387547779,0.3466666666666667,-0.3422222222222222,-0.6166666666666667,0.042865370978790174,0.07668112523618031,-1.0791909582822237
1589988600.831648,-2.515443445715863,-0.9917737828634536,8.994556554284136,0.34787632127019186,-0.3388956720625279,-0.6263439034948683,0.04433042332742308,0.08111511665966936,-1.1515804562178862
1589988600.841648,-2.521102754444227,-1.0529657485185908,8.994828742592954,0.3511111111111111,-0.33,-0.6522222222222223,0.03777263513059113,0.08476128805700135,-1.2264792874895905
1589988600.851648,-2.5006187731978904,-1.05979374226737,9.02896871133685,0.3511111111111111,-0.33,-0.6522222222222223,0.03181408651950187,0.08401646948061518,-1.2801062249893937
1589988600.861648,-2.5,-1.0922632730165043,8.893065818254126,0.3511111111111111,-0.33,-0.6522222222222223,0.03817907738737596,0.09203601119986721,-1.377552996551552
1589988600.871648,-2.5066564684286083,-1.1216641171071522,8.906656468428608,0.3511111111111111,-0.33,-0.6522222222222223,0.03836060440399201,0.10090101303952208,-1.4406060541337842
1589988600.881648,-2.5440312712440516,-1.1394062995694538,8.942687514162701,0.3582778155449807,-0.3291041619457663,-0.6531180602764559,0.040295976281846765,0.10436183013143072,-1.507596364681339
1589988600.891648,-2.569952413324269,-1.1998889644232948,8.959968275549514,0.404359845909812,-0.3233439081501624,-0.6588783140720598,0.04689361154484538,0.10907442674785829,-1.5641475240784701
1589988600.901648,-2.5849401608789484,-1.282230723955268,8.975299195605258,0.4044444444444445,-0.3233333333333333,-0.6588888888888889,0.05808347545017425,0.11591056179353453,-1.6420695022892648
1589988600.911648,-2.5898513561692673,-1.35,8.932475660258344,0.4044444444444445,-0.3233333333333333,-0.6588888888888889,0.06023331662574732,0.11588190105968568,-1.6979376609543229
1589988600.921648,-2.55,-1.3684164624183006,9.007381535947713,0.4044444444444445,-0.3233333333333333,-0.6588888888888889,0.0671717821592649,0.12630650759183124,-1.7552011368956795
1589988600.931648,-2.548192076460613,-1.4272316941575458,8.87446338831509,0.40806029152321743,-0.3185122038949694,-0.6562774437764417,0.06824776821135695,0.12654867982050283,-1.7996120319996662
1589988600.941648,-2.514276570376723,-1.4921542870290962,8.94964628610873,0.4244444444444445,-0.2966666666666667,-0.6444444444444445,0.05477653538538989,0.118472638031149,-1.8608450533988052
1589988600.951648,-2.4865772187281623,-1.5626577218728164,8.924818728162125,0.4244444444444445,-0.2966666666666667,-0.6444444444444445,0.062177354602297986,0.1294208597150582,-1.8986649338900206
1589988600.961648,-2.5526305150083446,-1.5921084549749664,8.822108454974966,0.4244444444444445,-0.2966666666666667,-0.6444444444444445,0.0589618101702806,0.14220884222997535,-1.9411640565073116
1589988600.971648,-2.5503816688759966,-1.6585495894089899,8.875572503313995,0.4244444444444445,-0.2966666666666667,-0.6444444444444445,0.05430005664109799,0.1326400241129838,-1.9727966061642435
1589988600.981648,-2.579264551448689,-1.7379775164838949,8.918896827173034,0.4244444444444445,-0.2966666666666667,-0.6444444444444445,0.05666303194591227,0.1405166084623647,-1.9956387007774479
1589988600.991648,-2.563751757160429,-1.7587587858021438,8.903751757160428,0.4633333333333333,-0.25222222222222224,-0.6733333333333333,0.06524522033983499,0.1400355933794511,-2.0333793431296256
1589988601.001648,-2.5729643296432965,-1.8048216482164823,8.912964329643296,0.4633333333333333,-0.25222222222222224,-0.6733333333333333,0.0647427524573204,0.14104052914448026,-2.0469459759575193
1589988601.011648,-2.5737993468386744,-1.853641436954917,8.913799346838674,0.4633333333333333,-0.25222222222222224,-0.6733333333333333,0.06530595703488504,0.14221383352493677,-2.0646118281954706
1589988601.021648,-2.547558402882919,-1.9113715136575782,8.887558402882918,0.4633333333333333,-0.25222222222222224,-0.6733333333333333,0.06931337715490332,0.1439312992906589,-2.095526211978469
1589988601.031648,-2.504381329113924,-1.9829382911392406,8.888299050632911,0.4808190928270042,-0.2351431082981716,-0.6818728902953587,0.074390171771267,0.14867350426178003,-2.1349752157007154
1589988601.041648,-2.46,-2.04,8.92,0.5111111111111111,-0.20555555555555555,-0.6966666666666667,0.07853981633974483,0.15489797111449674,-2.167480764820458
1589988601.051648,-2.46,-2.04,8.92,0.5111111111111111,-0.20555555555555555,-0.6966666666666667,0.07853981633974483,0.15489797111449674,-2.167480764820458
1589988601.061648,-2.3703669048846976,-2.233302143962278,8.812201429308185,0.5111111111111111,-0.20555555555555555,-0.6966666666666667,0.0716346236165373,0.15699958645099438,-2.2274662511599526
1589988601.071648,-2.373800437142366,-2.264203934281294,8.832802622854196,0.5111111111111111,-0.20555555555555555,-0.6966666666666667,0.06826376120511397,0.15625050591512252,-2.237578838394223
1589988601.0816479,-2.3772339694000344,-2.2951057246003095,8.853403816400206,0.5111111111111111,-0.20555555555555555,-0.6966666666666667,0.06489289879369066,0.15550142537925066,-2.247691425628493
1589988601.0916479,-2.3537475853187377,-2.3396893110109467,8.859061493882807,0.5181603706088573,-0.19388781569721686,-0.7044451599055591,0.06480240762347306,0.15728438295192862,-2.277554405923301
1589988601.1016479,-2.2542382856372702,-2.427285143088189,8.808476571274541,0.5433333333333333,-0.15222222222222226,-0.7322222222222222,0.07187197290125927,0.16580627893946132,-2.360760209257984
1589988601.1116478,-2.2353951210746215,-2.4838146367761356,8.770790242149243,0.5433333333333333,-0.15222222222222226,-0.7322222222222222,0.06433524812157856,0.16580627893946132,-2.3792594428081095
1589988601.1216478,-2.2221248076189473,-2.5196879809526314,8.783625577143157,0.5433333333333333,-0.15222222222222226,-0.7322222222222222,0.0651840303958648,0.17096058029986155,-2.396153268598153
1589988601.1316478,-2.211090225069389,-2.547274437326528,8.816729324791835,0.5433333333333333,-0.15222222222222226,-0.7322222222222222,0.06939693220683468,0.17818269769009565,-2.41240303272618
1589988601.1416478,-2.180265883525186,-2.708581954532344,8.859645488633085,0.5510421783453223,-0.0762350356754741,-0.7388298036610699,0.0773813109726878,0.18322090026822713,-2.463742018960953
1589988601.1516478,-2.1672518859426035,-2.7303969824918344,8.872748114057396,0.5511111111111111,-0.07555555555555556,-0.7388888888888889,0.07605838203398999,0.18298145075475292,-2.4705835138664827
1589988601.1616478,-2.1544002059063248,-2.75095967054988,8.885599794093675,0.5511111111111111,-0.07555555555555556,-0.7388888888888889,0.07465648121495318,0.18270107059094556,-2.4770322576340518
1589988601.1716478,-2.141548525870046,-2.771522358607926,8.898451474129955,0.5511111111111111,-0.07555555555555556,-0.7388888888888889,0.07325458039591637,0.1824206904271382,-2.483481001401621
1589988601.1816478,-2.1190362688135793,-2.7992770033115866,8.90409645243808,0.5514859395277408,-0.07227580691004515,-0.7413252735969824,0.07171884144163151,0.18262872434879907,-2.4929557150320396
1589988601.1916478,-2.010912173550933,-2.8907666223799797,8.845875785758194,0.5551824897931306,-0.03993099208788594,-0.7653528503220149,0.06899703163912214,0.18716507401964808,-2.529246512398832
1589988601.2016478,-1.916970459228173,-3.0210098469239424,8.773940918456345,0.5555555555555556,-0.03666666666666667,-0.7677777777777778,0.05890486225480863,0.20125290870672152,-2.534539952466641
1589988601.2116477,-1.9010650857655698,-3.0263116380781434,8.74213017153114,0.5555555555555556,-0.03666666666666667,-0.7677777777777778,0.05890486225480863,0.19836123021003657,-2.5316482739699557
1589988601.2216477,-1.870659873480056,-3.0710977688548806,8.729670063259972,0.5555555555555556,-0.03666666666666667,-0.7677777777777778,0.059695992455258536,0.19819551131707852,-2.520934152404332
1589988601.2316477,-1.8093843524251807,-3.2018469427244582,8.762462590299277,0.5571972824217406,-0.03700869309712189,-0.7677777777777778,0.061438630543937466,0.20438829672230666,-2.491825937007286
1589988601.2416477,-1.7945930244795723,-3.2381104632806417,8.797296512239786,0.5822222222222222,-0.042222222222222223,-0.7677777777777778,0.04781897785968203,0.20876091242044983,-2.45445488035198
1589988601.2516477,-1.7762879657256523,-3.2637120342743478,8.778863897176956,0.5822222222222222,-0.042222222222222223,-0.7677777777777778,0.04084418954704426,0.2033779761390162,-2.420293379395437
1589988601.2616477,-1.749042895618472,-3.290957104381528,8.73438284175261,0.5822222222222222,-0.042222222222222223,-0.7677777777777778,0.03770098351752006,0.19832239463006837,-2.377280278597271
1589988601.2716477,-1.7090896311861459,-3.3318207376277083,8.760014056952395,0.5822222222222222,-0.042222222222222223,-0.7677777777777778,0.03530227499447927,0.18831496866601807,-2.3433963047975084
1589988601.2816477,-1.7030113759872472,-3.3439772480255057,8.82687486414028,0.5822222222222222,-0.042222222222222223,-0.7677777777777778,0.030661031482099855,0.17836944685377648,-2.3162118785107144
1589988601.2916477,-1.6811347833838473,-3.378297824924229,8.78453913353539,0.6241449258136725,0.0007485489590142863,-0.7814026564449992,0.03350629009574858,0.16829740466609575,-2.2533547602419475
1589988601.3016477,-1.664925871015567,-3.4553706449221644,8.772462935507782,0.6266666666666667,0.0033333333333333327,-0.7822222222222223,0.03710441904049843,0.16223277713401468,-2.2092755945013347
1589988601.3116477,-1.6299321131330229,-3.5000135773733954,8.660067886866978,0.6266666666666667,0.0033333333333333327,-0.7822222222222223,0.04582377923495824,0.1581600960301945,-2.1390332628978483
1589988601.3216476,-1.5929531668782622,-3.5074093666243473,8.697046833121739,0.6266666666666667,0.0033333333333333327,-0.7822222222222223,0.050664311980435264,0.152512807827138,-2.092241446358237
1589988601.3316476,-1.5370680233653666,-3.5302931976634633,8.75087959299039,0.623669534995708,0.00193250005234177,-0.7805281912777674,0.04799655442984406,0.1440536290968645,-2.012845481050983
1589988601.3416476,-1.4580346711889955,-3.5381965328811003,8.774589598643301,0.5428798861043067,-0.03582787932081319,-0.7348644766869753,0.04799655442984406,0.14577786936482193,-1.9611182730122614
1589988601.3516476,-1.4435169378054495,-3.59,8.821847425855259,0.5244444444444445,-0.04444444444444445,-0.7244444444444444,0.04486550055848778,0.13304067843799935,-1.871358091048671
1589988601.3616476,-1.4084170181428666,-3.59,8.723567650800026,0.5244444444444445,-0.04444444444444445,-0.7244444444444444,0.045631262015109746,0.12691458678502368,-1.8154575047152675
1589988601.3716476,-1.3919299913045236,-3.596541424844796,8.730375725465613,0.5244444444444445,-0.04444444444444445,-0.7244444444444444,0.045437620840563735,0.11596434967854595,-1.7168912840093538
1589988601.3816476,-1.3325578855837092,-3.5710962366787324,8.806711289963802,0.5244444444444445,-0.04444444444444445,-0.7244444444444444,0.04266198138876809,0.11041307077495466,-1.6521263634674552
1589988601.3916476,-1.31,-3.6118918058870326,8.808108194112968,0.52,0.09,-0.6222222222222222,0.04056710296197719,0.10020907871452048,-1.5515747949731118
1589988601.4016476,-1.2707756059421424,-3.6183656502475894,8.785290852228304,0.52,0.09,-0.6222222222222222,0.042342969244512876,0.09383259866561461,-1.4739873549746643
1589988601.4116476,-1.0912485909581484,-3.5934733181436624,8.589591317903826,0.52,0.09,-0.6222222222222222,0.05566209010803675,0.08835729338221293,-1.3816900907087803
1589988601.4216475,-1.1659242735544466,-3.5538233049603756,8.381677722336365,0.52,0.09,-0.6222222222222222,0.06116022773706912,0.08684940472555155,-1.2991430262200685
1589988601.4316475,-1.1857614428022658,-3.6007155413763914,9.106880656292727,0.5197308852572867,0.09190622942755243,-0.622110091079425,-0.0315240082003815,0.08036920753028742,-1.2396921462023276
1589988601.4416475,-0.994602513184452,-3.1819864574516568,8.515198255094733,0.5075938103609177,0.17787717661016703,-0.6170529765392713,-0.02655919761047234,0.06448181364257813,-1.1642270252357088
1589988601.4516475,-1.0689164270005076,-3.57,8.406501437996955,0.5066666666666667,0.18444444444444444,-0.6166666666666667,0.08843839981579561,0.0434169474769711,-1.0585214487563248
1589988601.4616475,-1.060046734901032,-3.57,8.459719590593808,0.5066666666666667,0.18444444444444444,-0.6166666666666667,0.06231500024768701,0.11307934632526065,-0.9637031836572642
1589988601.4716475,-1.06,-3.57,8.746108922733434,0.5066666666666667,0.18444444444444444,-0.6166666666666667,0.01354837752247584,0.0437690610861549,-0.9290907164256894
1589988601.4816475,-1.0239707778255265,-3.6060292221744734,8.367576278470134,0.5066666666666667,0.18444444444444444,-0.6166666666666667,0.03625383371581904,0.05785387703162124,-0.8156451618546039
1589988601.4916475,-1.0662318220701454,-3.6947583404619335,8.964950812660394,0.5272141431422869,0.23495699078034407,-0.6209473909324209,0.022960168365026987,0.04477678401495611,-0.7445158039083681
1589988601.5016475,-1.09,-3.753597887299311,8.773703697226205,0.5333333333333333,0.25,-0.6222222222222222,0.03550683004512786,0.03471035072898452,-0.6394057502061197
1589988601.5116475,-1.09,-3.7829399419357097,8.722355101612509,0.5333333333333333,0.25,-0.6222222222222222,0.031505927992743314,0.0331099899080307,-0.5785920390098744
1589988601.5216475,-1.07,-3.786757948169917,8.6579972138468,0.5333333333333333,0.25,-0.6222222222222222,0.03635106881585337,0.026007036209795185,-0.46239276457015555
1589988601.5316474,-1.07,-3.8427865348650814,8.890115644441051,0.5333333333333333,0.25,-0.6222222222222222,0.03023929810916772,0.015529714998334053,-0.38905151608992755
1589988601.5416474,-1.068500164095832,-3.841499835904168,8.757000328191664,0.52,0.2822222222222222,-0.6077777777777778,0.03291591731226219,0.012517345879421507,-0.2734176127365821
1589988601.5516474,-1.0532053385844,-3.8567946614156,8.7264106771688,0.52,0.2822222222222222,-0.6077777777777778,0.023739680747832018,0.00667792261114776,-0.19166568698074968
1589988601.5616474,-1.0410057142857143,-3.87,8.723017142857143,0.52,0.2822222222222222,-0.6077777777777778,0.015375104046318618,-0.002730193615619701,-0.051310186681130444
1589988601.5716474,-1.051037511253376,-3.868443733119936,8.75259377813344,0.52,0.2822222222222222,-0.6077777777777778,0.006318634852504929,-0.008258277544278162,0.06140429089040133
1589988601.5816474,-1.0678197459237773,-3.8432703811143343,8.794549364809443,0.52,0.2822222222222222,-0.6077777777777778,0.002657319216994368,-0.01832689554193221,0.15476783959592066
1589988601.5916474,-1.0731753585828543,-3.843175358582854,8.734289113622845,0.5344444444444445,0.3211111111111111,-0.6222222222222222,-0.001350614199069576,-0.02687269455744326,0.2868212967557003
1589988601.6016474,-1.109919430439079,-3.8798388608781575,8.898831741366642,0.5344444444444445,0.3211111111111111,-0.6222222222222222,-0.004354534354267314,-0.03492416259132361,0.3876404226935748
1589988601.6116474,-1.0905919913663242,-3.844143939564269,8.616511905029565,0.5344444444444445,0.3211111111111111,-0.6222222222222222,-0.0026336952487438885,-0.03978651809415925,0.4907149499348629
1589988601.6216474,-1.1,-3.909797102043326,8.72,0.5344444444444445,0.3211111111111111,-0.6222222222222222,-0.009810837222362732,-0.048012047343423264,0.575040457698372
1589988601.6316473,-1.1,-3.8238360010657266,8.72,0.5344444444444445,0.3211111111111111,-0.6222222222222222,-0.006997766771053187,-0.05457587839647886,0.6481802894324201
1589988601.6416473,-1.1346150626781193,-3.7807692767602683,8.812307830280806,0.5633333333333334,0.31222222222222223,-0.6377777777777778,-0.01308996938995747,-0.05647152067767944,0.7432756643601255
1589988601.6516473,-1.0761019989238099,-3.7891282858680273,8.837384857604082,0.5633333333333334,0.31222222222222223,-0.6377777777777778,-0.01308996938995747,-0.06558978512359068,0.8071035154815044
1589988601.6616473,-1.119365156833668,-3.8041043305239053,8.762426182118523,0.5633333333333334,0.31222222222222223,-0.6377777777777778,-0.017705600760551513,-0.06654067773228381,0.8591468055531974
1589988601.6716473,-1.1500656552213644,-3.839803034335906,8.769803034335906,0.5633333333333334,0.31222222222222223,-0.6377777777777778,-0.024012600962221246,-0.07199483164476607,0.9395204261700312
1589988601.6816473,-1.1562678555585129,-3.821196433324461,8.751196433324461,0.5633333333333334,0.31222222222222223,-0.6377777777777778,-0.02536571117161553,-0.07199483164476607,0.9692888507767055
1589988601.6916473,-1.1728591224018474,-3.835718244803695,8.810725173210162,0.6090546574287914,0.31222222222222223,-0.6420641519117269,-0.02828400776268871,-0.0748002569551311,1.018061536573308
1589988601.7016473,-1.2203533209516229,-3.7705299814274342,8.749646679048377,0.6344444444444445,0.31222222222222223,-0.6444444444444445,-0.03284054748593304,-0.08187012069275387,1.0828556923082402
1589988601.7116473,-1.2389006809940744,-3.7983510214911114,8.731099319005926,0.6344444444444445,0.31222222222222223,-0.6444444444444445,-0.038910156866438325,-0.08490492538300652,1.1223081532815242
1589988601.7216473,-1.2305709028342016,-3.7434254170052097,8.673425417005209,0.6344444444444445,0.31222222222222223,-0.6444444444444445,-0.03207002356215033,-0.09022757575452504,1.1606459597924563
1589988601.7316473,-1.2548491194270517,-3.7151508805729483,8.711415199045087,0.6344444444444445,0.31222222222222223,-0.6444444444444445,-0.033441171651661133,-0.09415311286573366,1.1953530354079724
1589988601.7416472,-1.2703264072909186,-3.749020778127244,8.810816018227296,0.9455555555555556,0.3322222222222222,-0.7244444444444444,-0.03721286589707733,-0.09386485556278,1.2441523857509207
1589988601.7516472,-1.291511388101983,-3.688992407932011,8.85193926345609,0.9455555555555556,0.3322222222222222,-0.7244444444444444,-0.04444928397136436,-0.09724880650877878,1.2825587854277714
1589988601.7616472,-1.3200389474684147,-3.6700097368671036,8.70002921060131,0.9455555555555556,0.3322222222222222,-0.7244444444444444,-0.039275218807053286,-0.10035536986223777,1.318848404116173
1589988601.7716472,-1.3598822076565025,-3.679970551914126,8.729911655742377,0.9455555555555556,0.3322222222222222,-0.7244444444444444,-0.04470800064307598,-0.09926881349503322,1.3536182078667183
1589988601.7816472,-1.3764460437313197,-3.71289208746264,8.795784174925279,0.9455555555555556,0.3322222222222222,-0.7244444444444444,-0.04562105461997502,-0.10105958628241814,1.3824247622819523
1589988601.7916472,-1.45,-3.8294405096671063,8.819360582476692,1.5711111111111111,-0.08666666666666667,-1.3022222222222222,-0.0490612291004421,-0.10038258810157236,1.4193016285873814
1589988601.8016472,-1.45,-3.795182549035623,8.780208627469284,1.5711111111111111,-0.08666666666666667,-1.3022222222222222,-0.04745967318605466,-0.1019841440159598,1.4273094081593185
1589988601.8116472,-1.45,-3.76092458840414,8.741056672461875,1.5711111111111111,-0.08666666666666667,-1.3022222222222222,-0.04585811727166723,-0.10358569993034725,1.4353171877312556
1589988601.8216472,-1.4404542371295581,-3.712271185647791,8.730454237129559,1.5711111111111111,-0.08666666666666667,-1.3022222222222222,-0.0374846432796594,-0.10362892433716332,1.4157489670005055
1589988601.8316472,-1.4458479284231456,-3.6749124294611266,8.765087570538872,1.5711111111111111,-0.08666666666666667,-1.3022222222222222,-0.03963988674000074,-0.102991014303383,1.391204853648032
1589988601.8416471,-1.4898177006762716,-3.5589881127399505,8.801376485907506,1.104675188903357,-0.05253720894414808,-0.9982172376938622,-0.0383491144787291,-0.10005612934975788,1.3421812512817177
1589988601.8516471,-1.546061166985459,-3.49,8.803484708253636,0.7511111111111111,-0.02666666666666667,-0.7677777777777778,-0.03244387542544317,-0.0960426461865171,1.2736596843336643
1589988601.8616471,-1.568622771013693,-3.472754457972614,8.73964060290415,0.7511111111111111,-0.02666666666666667,-0.7677777777777778,-0.03148386031511621,-0.09208048286154534,1.1861313851862882
1589988601.8716471,-1.5782228289131566,-3.47,8.70533151326053,0.7511111111111111,-0.02666666666666667,-0.7677777777777778,-0.031634092692397225,-0.08086612785249468,1.1203033511656069
1589988601.881647,-1.6097251343493966,-3.4922938507620476,8.759450268698792,0.7511111111111111,-0.02666666666666667,-0.7677777777777778,-0.031634092692397225,-0.07935044362879894,1.0531614193607197
1589988601.891647,-1.6440556107249256,-3.530069513406157,8.804055610724925,0.6796124903453602,0.068219353414984,-0.7336989959174667,-0.029666047642109672,-0.07307049695461612,0.9940906657841267
1589988601.901647,-1.6684523533503361,-3.516190586598655,8.862261766751681,0.6322222222222222,0.13111111111111112,-0.7111111111111111,-0.027439591622999478,-0.07056635674109348,0.9122463807598539
1589988601.911647,-1.654704577982946,-3.3952843348720947,8.747636623863569,0.6322222222222222,0.13111111111111112,-0.7111111111111111,-0.02476806198728991,-0.06673282157040049,0.8637422076393729
1589988601.921647,-1.6583019799265069,-3.3849059397795207,8.81792573904459,0.6322222222222222,0.13111111111111112,-0.7111111111111111,-0.026715093792772444,-0.06635545247573749,0.8012249316765244
1589988601.931647,-1.6009562345169281,-3.397380470685384,8.758814822460776,0.6322222222222222,0.13111111111111112,-0.7111111111111111,-0.01841484048818888,-0.06171017096452608,0.7497930097839898
1589988601.941647,-1.6068286867204697,-3.435771582293959,8.890972120322818,0.6212920165212902,0.13607938642971656,-0.729990557321812,-0.0211247424206788,-0.05024050726109105,0.6737622770124629
1589988601.951647,-1.5474895581956563,-3.332839242621125,8.731398737701875,0.62,0.13666666666666666,-0.7322222222222222,-0.006230715273327629,-0.05395797908002848,0.5924645813164775
1589988601.961647,-1.4599780884559506,-3.204412794436373,8.834478529068521,0.62,0.13666666666666666,-0.7322222222222222,-0.008242894880495047,-0.04290282387329513,0.5030933548125376
1589988601.971647,-1.441681056600406,-3.0818537358052787,8.716896905606497,0.62,0.13666666666666666,-0.7322222222222222,0.004885193047212563,-0.02602481852005656,0.4032173742609823
1589988601.981647,-1.5055130503768346,-3.0108652122173742,8.804647838159461,0.62,0.13666666666666666,-0.7322222222222222,0.0022760415770032762,-0.021120855132268274,0.31359961421495675
1589988601.991647,-1.5497132270639546,-3.006003705276159,8.92057354587209,0.6137136387613056,0.12637989373062128,-0.7430804825436035,-0.0033037744221118878,-0.016829671942138767,0.1817872930375003
1589988602.001647,-1.3693849878934625,-3.0684358353510897,9.082179176755448,0.6077777777777778,0.11666666666666667,-0.7533333333333333,0.020451624491589725,-0.000739370210767169,-0.008560424426448401
1589988602.011647,-1.2741993957703928,-3.0013595166163145,8.8497583081571,0.6077777777777778,0.11666666666666667,-0.7533333333333333,0.04895885832255996,0.03743757610018048,-0.12571248045048278
1589988602.021647,-1.2363755107508876,-2.9191265322526627,8.59147347444571,0.6077777777777778,0.11666666666666667,-0.7533333333333333,0.05280645033998412,0.07069206739823113,-0.22774320359401967
1589988602.031647,-1.2818626688353016,-2.9813528039035426,8.972018951983594,0.6077777777777778,0.11666666666666667,-0.7533333333333333,0.03818871983471434,0.041536114713128264,-0.3883698542625268
1589988602.041647,-15.056893869993178,-10.586465646623136,-1.2061124646720582,0.5517721686212087,0.10047227365753825,-0.6959781914260035,-0.48659638368009167,1.640964524501726,-0.8119769288768675
1589988602.051647,-6.373531909630607,-1.649431480870712,-0.7128359993403706,0.5155555555555555,0.09,-0.6588888888888889,-0.5448809938954738,-1.4281828839706492,-4.534370217635255
1589988602.061647,-1.2523133101753792,-1.0065524019317122,0.3307753960857409,0.5155555555555555,0.09,-0.6588888888888889,-0.44445185365741713,-1.0201312326938354,-5.308590746814499
1589988602.071647,-0.31667583929554216,-1.1428524255051498,0.3519034515292083,0.5155555555555555,0.09,-0.6588888888888889,-0.3986205629902318,-0.4591858997147247,-5.347743751299014
1589988602.081647,-0.2678657662416057,-0.8944578585980533,0.00966441560401421,0.5155555555555555,0.09,-0.6588888888888889,-0.28655806946469353,-0.3561055692012838,-5.113014919411558
1589988602.091647,-0.08594454072790295,-0.6412593876372039,0.1044887348353553,0.5324366133898197,0.2250484626741126,-0.6529308684767957,-0.24652775684419906,-0.2158811464372853,-4.797404462305562
1589988602.101647,1.1492578630136987,-1.3651020273972603,3.4998932602739727,0.5344444444444445,0.2411111111111111,-0.6522222222222223,-0.2354443901043975,-0.07820664972157301,-4.508653062689168
1589988602.111647,1.999855569093309,-1.9435602599248654,3.9591895116255458,0.5344444444444445,0.2411111111111111,-0.6522222222222223,0.3016994116182571,0.5298251444486693,-4.281506003434944
1589988602.121647,0.754992198256081,2.611715465810004,11.115691601652133,0.5344444444444445,0.2411111111111111,-0.6522222222222223,2.3576299414019504,2.861520974115049,-4.143162340090581
1589988602.1316469,0.3715815708138901,1.0619033694927582,8.32488334040361,0.5344444444444445,0.2411111111111111,-0.6522222222222223,1.5731341329758677,2.095247997735785,-3.860117191601116
1589988602.1416469,0.8507942119542876,-0.7487511304776782,7.948772506782866,0.502650296436369,0.29877168461728193,-0.6484500351704167,0.14783945381567232,0.5538311915415686,-3.421010980908415
1589988602.1516469,1.1825826767040626,-0.6027675093002138,15.612145054043761,0.4688888888888889,0.36,-0.6444444444444445,0.2635751870776292,0.5107348391019639,-3.0581560330355386
1589988602.1616468,1.4551625668082773,-0.702011785665342,11.252162189941071,0.4688888888888889,0.36,-0.6444444444444445,0.5772510903081796,0.3198668987761308,-2.9457643667605375
1589988602.1716468,1.1878272714335087,-1.0515880212251205,7.4345249761115735,0.4688888888888889,0.36,-0.6444444444444445,0.44488719671132737,0.08441436158150116,-2.795786255334702
1589988602.1816468,-0.11830496453900718,-1.8661843971631205,9.819617021276596,0.4688888888888889,0.36,-0.6444444444444445,-0.3367513250190661,0.10877491210659991,-2.5213568437266307
1589988602.1916468,-0.14792303897385295,-2.477533300444006,11.72282683769117,0.45910979553801456,0.3710014800197336,-0.646889217782163,-0.30183131688072135,0.24696796383979952,-2.2733290212479105
1589988602.2016468,0.36280221720096034,-2.6127393729699193,9.624402979805113,0.4511111111111111,0.38,-0.6488888888888888,0.30673677115336706,0.2938710221000745,-2.0393543244802954
1589988602.2116468,0.20244500640870197,-2.591434856410434,9.168989850001733,0.4511111111111111,0.38,-0.6488888888888888,0.24988958039928952,0.20874791135542964,-1.885129644413694
1589988602.2216468,-0.15074767027668834,-2.8007476702766883,10.227439283272767,0.4511111111111111,0.38,-0.6488888888888888,-0.14808327141439748,0.050833585778815873,-1.7489626333802477
1589988602.2316468,-0.08695045585184338,-2.57523953634443,9.13656997658882,0.4511111111111111,0.38,-0.6488888888888888,-0.07728953104898645,0.05210068093468121,-1.5757186542452526
1589988602.2416468,0.007186254539013379,-2.6178177309361437,8.625795323709148,0.41706546019937213,0.4260076363672147,-0.6157633907044943,0.22798537253335305,0.19340228823522443,-1.3307089253181195
1589988602.2516468,0.016204475043029257,-2.565528743545611,8.826551118760758,0.41,0.4355555555555555,-0.6088888888888889,0.08619095226332188,0.10766342112765441,-1.2209100815273222
1589988602.2616467,0.0009453858142388152,-2.8631826773220146,9.854175150048082,0.41,0.4355555555555555,-0.6088888888888889,-0.011391272728897069,0.04522880236616792,-1.0812361956380825
1589988602.2716467,0.14619740837757017,-2.9375210366489717,9.388724124342243,0.41,0.4355555555555555,-0.6088888888888889,0.06736506552919494,0.08684248523051186,-0.9399902447144102
1589988602.2816467,0.19,-2.871046182688606,8.796444652751042,0.41,0.4355555555555555,-0.6088888888888889,0.033578602046964064,0.07612545784145425,-0.8592233835686967
1589988602.2916467,0.185290781505335,-2.853546092473325,8.622439680861289,0.4016280560094845,0.45962489452828775,-0.6224932978734767,-0.005961663379682399,0.047476671797947734,-0.7655992124516234
1589988602.3016467,0.06595598834043372,-2.88,8.605225984176304,0.3922222222222223,0.4866666666666667,-0.6377777777777778,0.0379275353519747,0.06818892622428942,-0.570419836604755
1589988602.3116467,0.09426686901704412,-3.012652346486108,8.937808778893299,0.3922222222222223,0.4866666666666667,-0.6377777777777778,0.020163305347670014,0.021990949918110028,-0.4362640564845247
1589988602.3216467,0.1420689425700406,-3.033620815864777,8.648966526918214,0.3922222222222223,0.4866666666666667,-0.6377777777777778,0.013146372898175995,0.014556896151965088,-0.25942985972287014
1589988602.3316467,0.11094054897879536,-3.1332179870777503,9.009580026885217,0.3922222222222223,0.4866666666666667,-0.6377777777777778,0.013243866356734812,0.010001055996844269,-0.08110476578603383
1589988602.3416467,0.10868126705336008,-3.1913187329466397,9.1331325780163,0.3896276017981445,0.4965262242781623,-0.6517887280677979,-0.006994456412751574,-0.006766734325507369,0.05598576982960795
1589988602.3516467,0.11163063528370103,-3.1975540470744486,8.826222976462775,0.38666666666666666,0.5077777777777778,-0.6677777777777778,-0.005641123580285665,-0.016006712304949655,0.22841552301116652
1589988602.3616467,0.09,-3.243143696709861,8.766187677633798,0.38666666666666666,0.5077777777777778,-0.6677777777777778,0.00994159392229163,-0.017380356775152837,0.4009215885238834
1589988602.3716466,0.08587146972351736,-3.2847711816588956,8.811148991773825,0.38666666666666666,0.5077777777777778,-0.6677777777777778,-0.0028922419473188044,-0.02074596684045245,0.5333769577237958
1589988602.3816466,-0.4156916133095413,-6.012959798467513,7.532032749029074,0.38666666666666666,0.5077777777777778,-0.6677777777777778,-0.04327899468026261,-0.058543595404285595,0.7650038985728036
1589988602.3916466,-0.02085474860335168,-7.389893854748603,7.427966480446928,0.37574674115456236,0.515967721911856,-0.6823376784605835,-0.3981867527581546,-0.26530893778596343,2.5313228018021126
1589988602.4016466,4.253937414278496,-5.539741933155274,10.756087851007003,0.36,0.5277777777777778,-0.7033333333333334,-0.47077596624244666,-0.6327152803741243,5.704648323138135
1589988602.4116466,2.2567836175074705,-3.4298164879592203,8.615796800843734,0.36,0.5277777777777778,-0.7033333333333334,0.15101469789610483,-0.41921572268536506,5.628477683486327
1589988602.4216466,-1.9930342631232156,1.1563985284427851,11.65496888498426,0.36,0.5277777777777778,-0.7033333333333334,0.12211071559291303,-0.15724512606033952,1.968497944566216
1589988602.4316466,-1.9743335841194514,0.5705526940216448,9.512609526014238,0.36,0.5277777777777778,-0.7033333333333334,0.12672790850869967,0.1660072862437884,-0.7255147794036099
1589988602.4416466,-1.357766050635616,0.49516205533596847,5.538142292490118,0.40897553680162374,0.5022016641147077,-0.7006124701776876,0.4142986964851596,0.3229522867085472,-0.843949755424694
1589988602.4516466,-1.2569824585352536,-1.3879649853252338,8.875426933315131,0.46,0.4755555555555556,-0.6977777777777778,-0.08400930784974225,-0.035376094214306264,-0.7897334172348943
1589988602.4616466,-1.0121877180739707,-2.2038202198185624,8.46021153175157,0.46,0.4755555555555556,-0.6977777777777778,-0.15807602438735008,0.01059972755388676,-0.6452000981195637
1589988602.4716465,-0.9547404063205418,-2.1037246049661396,7.950519187358917,0.46,0.4755555555555556,-0.6977777777777778,0.06643725810956405,0.10041060417300335,-0.4272904831265124
1589988602.4816465,-0.7966912658984561,-2.3622493867370284,8.834461874626374,0.46,0.4755555555555556,-0.6977777777777778,0.011650286826222725,0.01719366620395922,-0.3015761361874768
1589988602.4916465,-0.5301660516605167,-2.5310581180811806,8.676929889298894,0.432810065600656,0.467010147601476,-0.6977777777777778,-0.0643590161672909,-0.0448394848598015,-0.20286061318514326
1589988602.5016465,-0.5677741101869748,-12.881039544832676,7.606694173597689,0.4211111111111111,0.4633333333333333,-0.6977777777777778,0.014870419181336567,0.027545176906424072,-0.10248889258319636
1589988602.5116465,-2.7612581652939503,-18.120545816013014,6.949565206165604,0.4211111111111111,0.4633333333333333,-0.6977777777777778,-0.07496157255349113,0.03727089196969037,-0.18231102662648785
1589988602.5216465,-1.038201854751295,-6.799317114296038,6.732135372756835,0.4211111111111111,0.4633333333333333,-0.6977777777777778,-0.03317371041371192,-0.056808464953074816,-0.19390367830838454
1589988602.5316465,0.26256555026752193,-0.36635578941145175,6.358476602914659,0.4211111111111111,0.4633333333333333,-0.6977777777777778,0.17765094579595272,-0.058211553181100995,-0.12018616461792123
1589988602.5416465,-0.1093904638032458,-1.1846590203671405,5.781944781104969,0.4211111111111111,0.4633333333333333,-0.6977777777777778,0.4609934595976357,0.031051482193176216,-0.020779602496567018
1589988602.5516465,-0.030054675757509752,-4.277439170496874,10.577279935521815,0.4066666666666667,0.4688888888888889,-0.6888888888888889,-0.15905083640056833,0.030142401141374953,0.06915275968619652
1589988602.5616465,0.9235851122058019,-5.814001094690749,9.619573070607554,0.4066666666666667,0.4688888888888889,-0.6888888888888889,-0.31049868324212887,-0.10079766020437829,0.04778818007675634
1589988602.5716465,0.23252534638679168,-2.0500942503940927,8.67166282253381,0.4066666666666667,0.4688888888888889,-0.6888888888888889,0.02304479354895396,-0.0025244501381102707,-0.05589271038926809
1589988602.5816464,-0.5768074652296231,-3.622284344414946,7.30180211594088,0.4066666666666667,0.4688888888888889,-0.6888888888888889,0.1891280223584633,0.0844078782275485,-0.057623588851252634
1589988602.5916464,-0.30062224610424504,-4.850273401397098,8.839120042987641,0.419291850259717,0.4688888888888889,-0.6930972834199057,-0.004724135487037692,0.01847795834879752,0.005043635778775014
1589988602.6016464,-0.08373968276753033,-4.368946027416924,8.710412689298787,0.43333333333333335,0.4688888888888889,-0.6977777777777778,-0.042319388137835395,-0.03645729811739375,0.008291699700568856
1589988602.6116464,-0.07314232258625941,-4.570295870861071,8.6405543227603,0.43333333333333335,0.4688888888888889,-0.6977777777777778,-0.008664138139162884,-0.002461927664746711,-0.00034277422056256377
1589988602.6216464,-0.08184816562183589,-4.523366509403477,8.593316745298262,0.43333333333333335,0.4688888888888889,-0.6977777777777778,-0.010866901421578904,-0.0004446135936757136,-0.0012924343776414848
1589988602.6316464,-0.09420419268836054,-4.483633541506885,8.655225156130163,0.43333333333333335,0.4688888888888889,-0.6977777777777778,-0.004835056349939096,0.0004586062800010209,-0.001723055284991891
1589988602.6416464,-0.09604924887718755,-4.474689484280626,8.761113520210623,0.4359671674152083,0.4715227229707639,-0.6859255244093405,0.0069759447888533615,0.001521790876371082,-0.0002289105947472042
1589988602.6516464,-0.09603522208718385,-4.480528331307758,8.79154211286661,0.44,0.4755555555555556,-0.6677777777777778,0.007635815477475192,0.002181661564992912,0.001090830782496456
1589988602.6616464,-0.10597431237125894,-4.498179813401188,8.716102750514963,0.44,0.4755555555555556,-0.6677777777777778,-0.000836237512989042,0.0008782687972291835,0.001090830782496456
1589988602.6716464,-0.10500256470959596,-4.524971788194445,8.665017952967172,0.44,0.4755555555555556,-0.6677777777777778,-0.0027290353211639456,0.0010902712496613687,-0.0005445760919955971
1589988602.6816463,-0.1,-4.541667411367733,8.678554612267538,0.44,0.4755555555555556,-0.6677777777777778,0.002763405488610462,0.001902899113973911,-0.000787849309897907
1589988602.6916463,-0.1,-4.444731214273608,8.801340461920097,0.44,0.4755555555555556,-0.6677777777777778,0.006993044997747068,0.0011979591957844767,0.002736850281049264
1589988602.7016463,-0.09596747519294377,-4.4840325248070565,8.774032524807057,0.4211111111111111,0.4622222222222222,-0.6888888888888889,-0.0031580874101299686,-0.001090830782496456,0.0
1589988602.7116463,-0.09801047120418849,-4.505968586387434,8.672076788830715,0.4211111111111111,0.4622222222222222,-0.6888888888888889,-0.008069863328102053,-0.0006548792132264937,0.0
1589988602.7216463,-0.08323312375287074,-4.550300628741388,8.591729980045931,0.4211111111111111,0.4622222222222222,-0.6888888888888889,-0.008472347694209136,0.00035267909132518787,0.00035267909132518787
1589988602.7316463,-0.09,-4.528378232175701,8.709730606945795,0.4211111111111111,0.4622222222222222,-0.6888888888888889,0.00014752120286925987,0.001090830782496456,0.0009139233560156394
1589988602.7416463,-0.09222621440025983,-4.51109514239896,8.775583500801819,0.4211111111111111,0.46098543644430007,-0.6888888888888889,0.007030669334226797,0.0018193577413685488,0.0004856846392480617
1589988602.7516463,-0.10132825873183524,-4.474686965072659,8.826015223804495,0.4211111111111111,0.4566666666666666,-0.6888888888888889,0.007857302952888301,0.004073542027624708,0.002036771013812354
1589988602.7616463,-0.10550640596733825,-4.475948752261294,8.755064059673382,0.4211111111111111,0.4566666666666666,-0.6888888888888889,-0.00026921378244200477,0.0012013114260189454,0.001090830782496456
1589988602.7716463,-0.1,-4.52,8.694704666272887,0.4211111111111111,0.4566666666666666,-0.6888888888888889,-0.002117229740864356,0.0011552626066250122,-0.0006420631274410625
1589988602.7816463,-0.10400794367214299,-4.52,8.722063549377143,0.4211111111111111,0.4566666666666666,-0.6888888888888889,0.0006579645503377253,0.0017444627317843666,-0.0013072638985758213
1589988602.7916462,-0.10578121967314934,-4.509453049182873,8.76578121967315,0.42251737122006133,0.45783855009079183,-0.6844357318772132,0.0028122948029774514,0.0008607320102404977,0.0002300987722559583
1589988602.8016462,-0.09528521479742781,-4.464714785202572,8.802852147974278,0.42777777777777776,0.4622222222222222,-0.6677777777777778,-6.222421613154934e-05,0.0011530549986280053,-6.222421613154934e-05
1589988602.8116462,-0.10537629306254152,-4.465376293062541,8.737097845686629,0.42777777777777776,0.4622222222222222,-0.6677777777777778,-0.0046096063635019165,0.0015951989681586686,-0.0016772933793306995
1589988602.8216462,-0.09035347128045847,-4.509293057439083,8.654734896539656,0.42777777777777776,0.4622222222222222,-0.6677777777777778,-0.008707367392299022,0.0005550548250845412,-0.0011101096501690824
1589988602.8316462,-0.07758096371851411,-4.547473012093828,8.67,0.42777777777777776,0.4622222222222222,-0.6677777777777778,-0.007612264086429708,0.0,0.0
1589988602.8416462,-0.09460282459890154,-4.541799058467033,8.67,0.42777777777777776,0.4622222222222222,-0.6677777777777778,-0.002660805466776683,0.0,0.0
1589988602.8516462,-0.09917827220773456,-4.526713088830938,8.779178272207734,0.42777777777777776,0.4688888888888889,-0.6888888888888889,0.008547373065844448,0.0019127517738021138,0.0011804673795600554
1589988602.8616462,-0.09142096210397825,-4.495683848415913,8.771420962103978,0.42777777777777776,0.4688888888888889,-0.6888888888888889,0.006854990535734816,-0.0006258220213623345,0.0020266586446148712
1589988602.8716462,-0.11583436130843507,-4.49833127738313,8.707503083925305,0.42777777777777776,0.4688888888888889,-0.6888888888888889,0.0016820899277583171,0.0,0.00022720034567586442
1589988602.8816462,-0.0986343637837212,-4.528634363783722,8.673656362162788,0.42777777777777776,0.4688888888888889,-0.6888888888888889,-0.0039164197232631525,-0.00014896780224089035,0.0009418629802555656
1589988602.8916461,-0.09,-4.52,8.762089204712051,0.42777777777777776,0.4677282196044162,-0.6861032826061544,-0.00017924325815974298,-0.0008629339014122777,-0.00022789688108417825
1589988602.9016461,-0.09,-4.52,8.769323375704996,0.42777777777777776,0.4637092357194463,-0.6764577212822267,0.002977259303819515,-7.380826091746328e-05,-0.0010170225215789927
1589988602.9116461,-0.09,-4.473957749000418,8.784274631497285,0.42777777777777776,0.4633333333333333,-0.6755555555555556,0.00022738389468640694,-0.003272492347489368,-0.0006591073385914315
1589988602.921646,-0.09061585249952481,-4.49,8.6824634099981,0.42777777777777776,0.4633333333333333,-0.6755555555555556,-0.003608387779468889,-0.0030709550883016557,0.0009564726097046476
1589988602.931646,-0.0964821232011089,-4.504071507195564,8.705928492804436,0.42777777777777776,0.4633333333333333,-0.6755555555555556,-0.007959164599719544,0.0007674816602521032,-0.0007070899523704044
1589988602.941646,-0.08350390675035224,-4.526751953375176,8.699488279748943,0.4256124133612285,0.4651378036804577,-0.6845779072911775,-0.003356222377771294,0.002181661564992912,0.0007086138482683203
1589988602.951646,-0.07924946231790869,-4.515375268841045,8.735375268841047,0.4211111111111111,0.4688888888888889,-0.7033333333333334,0.005290411991072533,0.002181661564992912,0.0006682218323055384
1589988602.961646,-0.09,-4.501014088082244,8.70753522020561,0.4211111111111111,0.4688888888888889,-0.7033333333333334,0.008125920943909695,0.0026717670314274156,-0.00011061984962744886
1589988602.971646,-0.09791664223017223,-4.493958321115087,8.695833284460345,0.4211111111111111,0.4688888888888889,-0.7033333333333334,0.006567717000300833,0.002408920643621042,0.0006590449305622929
1589988602.981646,-0.11247400035861574,-4.497525999641384,8.722474000358616,0.4211111111111111,0.4688888888888889,-0.7033333333333334,0.0027327491980723034,0.0008209592077879236,-0.0005397431494170647
1589988602.991646,-0.1165465279497977,-4.495180208075303,8.740360416150606,0.4197680942026991,0.4667784337470986,-0.6996880017247865,0.0012791884634390464,0.00037671536188518096,-0.0019933038840503213
1589988603.001646,-0.09849816702251944,-4.518498167022519,8.787747250533778,0.4133333333333333,0.4566666666666666,-0.6822222222222222,0.002099749282892707,0.002181661564992912,-0.0010089185003962508
1589988603.011646,-0.08862360316162443,-4.487064595257563,8.729817388934315,0.4133333333333333,0.4566666666666666,-0.6822222222222222,-0.0007905475744502798,0.001711316975756228,-0.00047034458923668395
1589988603.021646,-0.09737572792918706,-4.477872816212439,8.700497088283251,0.4133333333333333,0.4566666666666666,-0.6822222222222222,-0.0035587560231382168,0.0008045671068476073,-0.00023203975554990993
1589988603.031646,-0.09086233403214534,-4.497412997903564,8.72655066387142,0.4133333333333333,0.4566666666666666,-0.6822222222222222,-0.00426925707927998,9.406605070584389e-05,0.00189946341287538
1589988603.041646,-0.08,-4.491446005297214,8.72084319576223,0.41511382304623323,0.45819280070629514,-0.6870549800143791,-0.0044553015192968035,0.002431374663289281,0.0007491392948891074
1589988603.051646,-0.08,-4.533731043447434,8.704924173789735,0.4211111111111111,0.4633333333333333,-0.7033333333333334,0.0005371440348205063,0.0016445175301724058,0.002458504938830887
1589988603.061646,-0.08250253643809853,-4.529989854247606,8.71498478137141,0.4211111111111111,0.4633333333333333,-0.7033333333333334,0.004364429859888137,-0.0005448620262970716,0.0008178464043967638
1589988603.071646,-0.09299442001594281,-4.488022319936229,8.693955360127543,0.4211111111111111,0.4633333333333333,-0.7033333333333334,0.006655893818741008,0.0007641902295850612,-0.00032664055291139473
1589988603.081646,-0.09426436445224856,-4.465735635547752,8.75,0.4211111111111111,0.4633333333333333,-0.7033333333333334,0.003424831958085595,-0.0003128303906334095,-0.0007780003918630464
1589988603.091646,-0.0817465875563337,-4.485239762669002,8.756986350225334,0.42227550281533355,0.4643036597535187,-0.6996460929366289,0.0007097844883416455,-0.001090830782496456,-0.0001905231470774052
1589988603.101646,-0.08723353916370226,-4.51,8.776167695818511,0.42777777777777776,0.4688888888888889,-0.6822222222222222,-0.00048728265473556363,-0.0007890567186160098,-0.0007890567186160098
1589988603.111646,-0.08019565071481308,-4.51,8.740978253574065,0.42777777777777776,0.4688888888888889,-0.6822222222222222,0.0010481464180293486,-2.13421822335537e-05,-2.13421822335537e-05
1589988603.121646,-0.09290814488693216,-4.494183710226136,8.684540724434662,0.42777777777777776,0.4688888888888889,-0.6822222222222222,0.002003574762439258,-0.00013914259370887338,0.001725289575021511
1589988603.131646,-0.09848664619393263,-4.48,8.72605341522427,0.42777777777777776,0.4688888888888889,-0.6822222222222222,-0.0014209933657897487,0.0018514989816996192,0.003107411055842722
1589988603.141646,-0.09312541112541112,-4.484688116688117,8.755311883311883,0.42777777777777776,0.4669789154233599,-0.6822222222222222,-0.00378388654702267,-0.00017046473317776733,0.002011196831815145
1589988603.151646,-0.10662672161370784,-4.513373278386291,8.73,0.42777777777777776,0.4566666666666666,-0.6822222222222222,-0.004705146744130006,-0.0007228631923267101,0.0014587983726662018
1589988603.161646,-0.09186813186813188,-4.507802197802198,8.701538461538462,0.42777777777777776,0.4566666666666666,-0.6822222222222222,0.0011267922368644707,-0.0008870492077443707,0.0017381369611207266
1589988603.1716459,-0.08349940257745156,-4.496998805154903,8.691494623197064,0.42777777777777776,0.4566666666666666,-0.6822222222222222,0.004363323129985824,-0.0010364847494434297,0.0018542819928627774
1589988603.1816459,-0.09711043185526343,-4.507629856048245,8.75,0.42777777777777776,0.4566666666666666,-0.6822222222222222,0.004104780531833666,0.0008322881843442981,0.0022383219548807367
1589988603.1916459,-0.11365180130138072,-4.5,8.754761149023965,0.42777777777777776,0.4575483609303637,-0.6799298171366097,0.0025800112921035845,-0.00034624052769289187,-0.0009177105186500101
1589988603.2016459,-0.08,-4.5,8.763969180287013,0.42777777777777776,0.4622222222222222,-0.6677777777777778,-0.001090830782496456,-0.002181661564992912,0.0006994764644630553
1589988603.2116458,-0.08749857827605817,-4.502499526092019,8.712503317355864,0.42777777777777776,0.4622222222222222,-0.6677777777777778,-0.000818174782213674,-0.0008183815635790022,0.002181661564992912
1589988603.2216458,-0.10437439532450096,-4.50718719766225,8.674064011688747,0.42777777777777776,0.4622222222222222,-0.6677777777777778,0.00030682913750951706,0.0008178592474132316,0.001874832427483395
1589988603.2316458,-0.09117191795305561,-4.5,8.715859589765278,0.42777777777777776,0.4622222222222222,-0.6677777777777778,0.001090830782496456,-0.004431462570279639,0.0009629943647211259
1589988603.2416458,-0.09992970946579195,-4.5,8.760140581068416,0.42777777777777776,0.4621441216286577,-0.6679261689055503,0.00105249324328032,0.003257157331802914,-1.5335015686454395e-05
1589988603.2516458,-0.09,-4.502386960919235,8.772839117242293,0.42777777777777776,0.4511111111111111,-0.6888888888888889,-0.004102946085254034,0.001090830782496456,-0.0016609074755293322
1589988603.2616458,-0.09,-4.509341413672464,8.751975758982606,0.42777777777777776,0.4511111111111111,-0.6888888888888889,-0.0033443329713900814,0.001090830782496456,-0.00014368124780142662
1589988603.2716458,-0.09239566284779051,-4.520417348608838,8.671143617021277,0.42777777777777776,0.4511111111111111,-0.6888888888888889,0.0004771268848153484,-0.001090830782496456,0.0002613262778853007
1589988603.2816458,-0.1005546801134573,-4.489445319886543,8.770277340056728,0.42777777777777776,0.4511111111111111,-0.6888888888888889,0.00545415391248228,-0.000969818354056887,0.0010605776753865638
1589988603.2916458,-0.11860253207675713,-4.47,8.781397467923242,0.4268461324956158,0.45188748217957936,-0.6879572436067269,0.004691953398369918,0.003120052244666896,0.00015244010282247224
1589988603.3016458,-0.10404248784233427,-4.481915024315331,8.787021243921167,0.4211111111111111,0.4566666666666666,-0.6822222222222222,-0.0003249318824339328,0.0012068659176911135,0.0017406945473643217
1589988603.3116457,-0.09,-4.51,8.745771540078055,0.4211111111111111,0.4566666666666666,-0.6822222222222222,-0.0017696936501383513,-0.001090830782496456,0.0025936294798474726
1589988603.3216457,-0.09,-4.51,8.675333767856173,0.4211111111111111,0.4566666666666666,-0.6822222222222222,-0.002399756622858832,-0.0007999188742862773,0.001090830782496456
1589988603.3316457,-0.08729211976221546,-4.507292119762215,8.706247281426707,0.4211111111111111,0.4566666666666666,-0.6822222222222222,0.0002953839118689203,-0.0002953839118689203,0.0013862146943653762
1589988603.3416457,-0.08045365205843294,-4.5,8.751360956175299,0.42196800944370666,0.4572211302936402,-0.6838352073188726,0.0009918592565201507,-0.001090830782496456,0.002033204276028454
1589988603.3516457,-0.08881716403201009,-4.5,8.77763432806402,0.44,0.4688888888888889,-0.7177777777777777,-0.0014779129478546713,-0.0005747212286855022,-0.0007037486171382406
1589988603.3616457,-0.08054992707060354,-4.5,8.761099854141207,0.44,0.4688888888888889,-0.7177777777777777,-0.004183359916963092,0.003032541396792391,0.0020016983519701792
1589988603.3716457,-0.09,-4.517724432670199,8.646826701989404,0.44,0.4688888888888889,-0.7177777777777777,-0.0009405321194977815,0.0002482258890990261,0.002776040569291316
1589988603.3816457,-0.09199364115904328,-4.506012717681913,8.691930052749475,0.44,0.4688888888888889,-0.7177777777777777,0.0037074373765966333,0.0013083032970500885,0.0008733582679428234
1589988603.3916457,-0.09957059758653082,-4.490858804826939,8.775276573451839,0.44,0.4688888888888889,-0.7177777777777777,0.005360472838344189,0.0021348210279238666,4.684053706904552e-05
1589988603.4016457,-0.08362645044037467,-4.478186774779813,8.788186774779811,0.4133333333333333,0.4633333333333333,-0.6977777777777778,0.0031765699985182687,-0.002283531404599739,0.0015882849992591343
1589988603.4116457,-0.09665688056293398,-4.471671559718533,8.781671559718532,0.4133333333333333,0.4633333333333333,-0.6977777777777778,-0.001087628287538757,0.0012699671671144493,-0.0005438141437693784
1589988603.4216456,-0.09898893050353726,-4.484044277985851,8.674044277985852,0.4133333333333333,0.4633333333333333,-0.6977777777777778,-0.0013114119284934089,-0.002402242710989865,-0.0038118702649934414
1589988603.4316456,-0.09200715771951727,-4.51197136912193,8.701971369121932,0.4133333333333333,0.4633333333333333,-0.6977777777777778,-0.002834598462334403,-0.003925429244830859,-3.903930390956531e-06
1589988603.4416456,-0.09022489128183889,-4.509775108718161,8.720674673845517,0.41378311589701106,0.463308345413129,-0.6977527898575735,-0.002108066065109428,-0.0010417671159074664,0.0010417671159074664
1589988603.4516456,-0.09891054048457237,-4.501089459515428,8.746731621453717,0.4311544143024781,0.46234327327949193,-0.6967877177239364,0.0007343059897828184,0.0008531475873540307,-0.0008531475873540307
