time,acc_x,acc_y,acc_z,mag_x,mag_y,mag_z,gyr_x,gyr_y,gyr_z
1589988609.0782588,-3.83,-0.75,9.03,0.3033333333333333,-0.3422222222222222,-0.6255555555555555,0.001090830782496456,0.004363323129985824,0.0
1589988609.0882587,-3.8364946676032954,-0.7494840028098857,9.047420014049427,0.3033333333333333,-0.3422222222222222,-0.6255555555555555,-0.0015857763543488934,0.004745695578106588,5.628656186583685e-05
1589988609.0982587,-3.827183782052861,-0.7412648717885558,8.969713525629972,0.3033333333333333,-0.3422222222222222,-0.6255555555555555,-0.006237782972282921,0.006990162525961352,0.002181661564992912
1589988609.1082587,-3.82,-0.7654570016708735,9.029085996658253,0.3033333333333333,-0.3422222222222222,-0.6255555555555555,-0.0064452823969305155,0.011651654188300735,0.002429443686104971
1589988609.1182587,-3.82,-0.7505460556720822,9.058907888655837,0.3033333333333333,-0.3422222222222222,-0.6255555555555555,-0.009698346175255296,0.014091452022044319,0.003242709630686166
1589988609.1282587,-3.8132268477292963,-0.7632268477292965,9.047092609082814,0.3244444444444444,-0.35,-0.6233333333333333,-0.013055122057524649,0.021712073652630646,0.0029553451965676466
1589988609.1382587,-3.8257473615927746,-0.7671263192036127,8.985515830443353,0.3244444444444444,-0.35,-0.6233333333333333,-0.01464469106059674,0.032123239711029705,-0.00031346994717682144
1589988609.1482587,-3.8374094367751552,-0.76,8.902590563224845,0.3244444444444444,-0.35,-0.6233333333333333,-0.01252479616802471,0.041734156345831705,3.951566136906558e-05
1589988609.1582587,-3.830978376651044,-0.7580432466979122,8.91782701320835,0.3244444444444444,-0.35,-0.6233333333333333,-0.010801583488181114,0.04286257352771212,0.0031657680107059216
1589988609.1682587,-3.84521421490453,-0.7417380716348433,8.99521421490453,0.3232857300212155,-0.3486481665062329,-0.6233333333333333,-0.010196665450762313,0.046762863885586675,0.002181661564992912
1589988609.1782587,-3.8693331237401294,-0.75,9.022667505039482,0.31777777777777777,-0.3422222222222222,-0.6233333333333333,-0.012144628437937675,0.051123556946856774,0.002327151395469572
1589988609.1882586,-3.8615763874761897,-0.75,9.053694450095241,0.31777777777777777,-0.3422222222222222,-0.6233333333333333,-0.013836885775620023,0.04943129960917442,0.0040194087331519215
1589988609.1982586,-3.9019620410703175,-0.7739240821406348,8.987848164281269,0.31777777777777777,-0.3422222222222222,-0.6233333333333333,-0.014394825652056372,0.041941730847522875,0.0008768053028940088
1589988609.2082586,-3.898324908046602,-0.784162454023301,9.028756318965048,0.31777777777777777,-0.3422222222222222,-0.6233333333333333,-0.014316464728107126,0.02417548706427905,-0.00031838874228108584
1589988609.2182586,-3.87,-0.7705512417872488,9.05055124178725,0.31777777777777777,-0.3415484822600292,-0.6225370951961962,-0.011578220550370466,0.008005072447816423,-0.0009705684804705852
1589988609.2282586,-3.87,-0.7786325889674574,9.058632588967457,0.31777777777777777,-0.33167128015088554,-0.6108640381581173,-0.005407452962621832,-0.0025733862740383827,0.0007925079731718823
1589988609.2382586,-3.86149602132043,-0.78,9.045039786795698,0.31777777777777777,-0.33,-0.6088888888888889,-0.006983053034436694,-0.0012540213932560804,0.0
1589988609.2482586,-3.869423705747822,-0.78,8.965762942521785,0.31777777777777777,-0.33,-0.6088888888888889,-0.003523948151510136,-0.00211879761398772,0.0
1589988609.2582586,-3.8525852561700304,-0.76,8.96034102468012,0.31777777777777777,-0.33,-0.6088888888888889,-0.0029904846463985504,0.0018996538639020942,-0.001090830782496456
1589988609.2682586,-3.8603873320411313,-0.7601291106803771,8.990258221360754,0.31793557972046094,-0.3299139262130819,-0.6090036539381131,-0.0021253264031911305,0.0010485794111451197,-0.0010485794111451197
1589988609.2782586,-3.885440452237233,-0.77,9.014559547762767,0.33,-0.3233333333333333,-0.6177777777777778,0.002181661564992912,-0.001932976812298453,0.001932976812298453
1589988609.2882586,-3.869442516926601,-0.7705574830733991,9.024982652339407,0.33,-0.3233333333333333,-0.6177777777777778,0.002181661564992912,-0.0009692068430595553,0.0010300188127780057
1589988609.2982585,-3.86,-0.7741708395315218,8.948743740702717,0.33,-0.3233333333333333,-0.6177777777777778,0.0005920046462110182,0.0007728993987400773,0.0
1589988609.3082585,-3.8616109205543547,-0.76,8.97966552332613,0.33,-0.3233333333333333,-0.6177777777777778,-0.0029210440017200436,-0.0003514483457693243,0.0
1589988609.3182585,-3.869926839423439,-0.76,9.029561036540635,0.33,-0.3233333333333333,-0.6177777777777778,-0.0011067919442920102,-0.0021657004031973574,0.0
1589988609.3282585,-3.87,-0.7690066942524751,9.020993305747524,0.3129873553008803,-0.32933779616831677,-0.6227814968069306,-0.000108352848583077,-0.001199183631079533,-0.001964955867826758
1589988609.3382585,-3.87,-0.7623982581800424,9.004796516360084,0.3111111111111111,-0.33,-0.6233333333333333,-0.0016584427955600928,0.0005676120130636369,-0.002181661564992912
1589988609.3482585,-3.85,-0.7808606343348536,8.941721268669706,0.3111111111111111,-0.33,-0.6233333333333333,-0.001184711424989623,0.004457203772478991,0.0019000196375134105
1589988609.3582585,-3.85,-0.788161925982662,8.956323851965324,0.3111111111111111,-0.33,-0.6233333333333333,-0.001981158793130988,0.0052536511406203554,-0.0004893224669106845
1589988609.3682585,-3.85,-0.7616997805765127,8.96,0.3111111111111111,-0.33,-0.6233333333333333,-0.002181661564992912,0.012657329028809233,0.0009672192507398168
1589988609.3782585,-3.873834116737074,-0.7758894111580492,9.023557644632197,0.32170405188314394,-0.3361792154503525,-0.6303952938480218,-0.0030482945053400498,0.013956602330304607,0.00022419784214931825
1589988609.3882585,-3.8832178563124855,-0.7716089281562427,9.005519646593815,0.3244444444444444,-0.3377777777777778,-0.6322222222222222,0.0014418444544274244,0.01256344888206102,0.0029214786755583995
1589988609.3982584,-3.9006208155812536,-0.7793791844187462,8.932483262325015,0.3244444444444444,-0.3377777777777778,-0.6322222222222222,0.0030693309236038443,0.009275713245440041,0.001090830782496456
1589988609.4082584,-3.9022157253770646,-0.77,8.974670564773762,0.3244444444444444,-0.3377777777777778,-0.6322222222222222,0.00016982652756208257,0.0007511777273722909,0.0012606573100585386
1589988609.4182584,-3.861611841468373,-0.77,8.999032895118976,0.3244444444444444,-0.3377777777777778,-0.6322222222222222,0.0010556658566923437,-0.0010205009308882314,0.0021464966391887995
1589988609.4282584,-3.8749105333356426,-0.78,9.03,0.3111111111111111,-0.3377777777777778,-0.5955555555555555,-0.00018505823013234294,-0.001090830782496456,0.00018505823013234294
1589988609.4382584,-3.8531147910134935,-0.78,9.03,0.3111111111111111,-0.3377777777777778,-0.5955555555555555,-0.0009775737852110503,-0.001090830782496456,0.0009775737852110503
1589988609.4482584,-3.8521536810474353,-0.7721536810474351,8.945075767332046,0.3111111111111111,-0.3377777777777778,-0.5955555555555555,-0.0006209704660521786,-0.0030375621892672292,-0.0006209704660521786
1589988609.4582584,-3.8610549093330198,-0.78,9.00316472799906,0.3111111111111111,-0.3377777777777778,-0.5955555555555555,0.001090830782496456,-0.0020665888076728083,0.0009757580251763524
1589988609.4682584,-3.869268397759762,-0.78,9.027805193279285,0.3111111111111111,-0.3377777777777778,-0.5955555555555555,0.001090830782496456,-0.0011706362069159673,7.980542441951132e-05
1589988609.4782584,-3.8540067812218757,-0.7560101718328136,9.037996609389062,0.33243540281527684,-0.3377777777777778,-0.6195453837227419,0.001963125550215372,0.0032706430560981246,0.0008722947677189161
1589988609.4882584,-3.8406926610035557,-0.7406926610035559,8.978845564994074,0.3377777777777778,-0.3377777777777778,-0.6255555555555555,-0.0023579626187127684,0.017881452221834376,0.002181661564992912
1589988609.4982584,-3.871599194360524,-0.77,8.933598187311178,0.3377777777777778,-0.3377777777777778,-0.6255555555555555,-0.009861088303359454,0.036433528431296526,0.002181661564992912
1589988609.5082583,-3.8997583081570997,-0.77,8.996956193353475,0.3377777777777778,-0.3377777777777778,-0.6255555555555555,-0.010629009006787597,0.04411273546557798,0.002181661564992912
1589988609.5182583,-3.9189338198373114,-0.7878676396746226,9.055735279349246,0.3377777777777778,-0.3377777777777778,-0.6255555555555555,-0.012857364961727884,0.03716043796353097,0.0002326044282295861
1589988609.5282583,-3.8906562202798787,-0.7706562202798787,9.020656220279879,0.33,-0.33,-0.6177777777777778,-0.0017436199659531912,0.011959074128288668,-0.001090830782496456
1589988609.5382583,-3.857063910796845,-0.74,8.975319553984226,0.33,-0.33,-0.6177777777777778,0.003272492347489368,0.0017313860790877933,-0.0012509696066442904
1589988609.5482583,-3.8418547729127006,-0.74,8.899273864563503,0.33,-0.33,-0.6177777777777778,0.003272492347489368,0.0050495052349394005,-0.0020804993956071924
1589988609.5582583,-3.83,-0.7774688557307015,8.983796716403948,0.33,-0.33,-0.6177777777777778,-0.00450137563418034,0.01897187006608298,-0.002181661564992912
1589988609.5682583,-3.83,-0.7643896658714938,9.003415501192759,0.33,-0.33,-0.6177777777777778,-0.005214734779607299,0.02681882066577953,-0.002181661564992912
1589988609.5782583,-3.8277681327521376,-0.79,9.040892746899145,0.3244444444444444,-0.3377777777777778,-0.6022222222222222,-0.008970105209613066,0.03813038559744768,-0.006447601115122168
1589988609.5882583,-3.78853460049015,-0.79,9.05658615980394,0.3244444444444444,-0.3377777777777778,-0.6022222222222222,-0.013249819679357403,0.037274442703498806,-0.004735715327224432
1589988609.5982583,-3.6486982564483554,-0.7885872820560444,8.957063589719777,0.3244444444444444,-0.3377777777777778,-0.6022222222222222,-0.011690931363410638,0.021212306590148507,0.017725183479033256
1589988609.6082582,-3.577971922069417,-0.7789859610347086,9.002028077930582,0.3244444444444444,-0.3377777777777778,-0.6022222222222222,-0.010149320517865327,0.011018922316763633,0.04192465597305019
1589988609.6182582,-3.560804682383759,-0.7704023411918796,9.01919531761624,0.3244444444444444,-0.3377777777777778,-0.6022222222222222,-0.012958303542806929,0.011955249991744167,0.06439652017258302
1589988609.6282582,-3.4780860219059684,-0.7178729230310706,9.012553274718725,0.3285815140451531,-0.33198588033678567,-0.6195979145451986,-0.014714592823079475,0.006312956591534002,0.0808837695644464
1589988609.6382582,-3.460272119421552,-0.6811584512517493,8.95257502721194,0.33,-0.33,-0.6255555555555555,-0.01879380498675553,0.004706635445920022,0.11207620528866478
1589988609.6482582,-3.123164964249234,-1.031520684371808,9.008103166496424,0.33,-0.33,-0.6255555555555555,-0.02515827380009823,0.02431538696027289,0.1416145714652529
1589988609.6582582,-3.0058029067706484,-0.7386698964118319,8.8027980621529,0.33,-0.33,-0.6255555555555555,-0.01308395433187919,0.08975484916200122,0.15101052500790416
1589988609.6682582,-2.634099610067352,-0.32566623340816897,9.050600259955099,0.33,-0.33,-0.6255555555555555,-0.03831291242961774,0.11047863617085787,0.11587019051462547
1589988609.6782582,-1.52,-1.31,9.62,0.3111111111111111,-0.35,-0.6177777777777778,-0.08617563181722003,0.022907446432425576,0.00545415391248228
1589988609.6882582,-1.5721407508472338,-1.1495669204700498,9.238971436116367,0.3111111111111111,-0.35,-0.6177777777777778,-0.023173708811710186,0.021157393015605857,-0.015984000443559267
1589988609.6982582,-1.9014007704125937,-0.8207782057847742,8.716225646278195,0.3111111111111111,-0.35,-0.6177777777777778,0.0858063703804608,0.08282250091352196,-0.0893929401888943
1589988609.7082582,-1.9854530070584044,-0.8674738928102247,9.089791142481797,0.3111111111111111,-0.35,-0.6177777777777778,-0.0018054292650915432,0.012529312825811365,-0.15153619342585584
1589988609.7182581,-2.0551407930383383,-0.8830281586076677,9.233767506772843,0.3111111111111111,-0.35,-0.6177777777777778,-0.026441107722864836,-0.009037749300640942,-0.19255848970299544
1589988609.7282581,-2.1363583866780074,-0.8529132906575944,9.179468194637181,0.31729222933484535,-0.34278869540564333,-0.6095362868127988,0.006401226880230107,0.018877051556840614,-0.25114456055039414
1589988609.7382581,-2.181220094063118,-0.8431299843228137,9.080689796196578,0.31777777777777777,-0.3422222222222222,-0.6088888888888889,0.02630433111166578,0.03305765251529118,-0.28563847554468796
1589988609.748258,-2.218629736457387,-0.86794460468608,9.04,0.31777777777777777,-0.3422222222222222,-0.6088888888888889,0.010445580760249162,0.028018132388619013,-0.3538314736799372
1589988609.758258,-2.2273540493086545,-0.8626459506913454,9.017937852074036,0.31777777777777777,-0.3422222222222222,-0.6088888888888889,0.008726646259971648,0.024061960217660504,-0.39870481580441147
1589988609.768258,-2.2696136101499422,-0.86,8.90700461361015,0.31777777777777777,-0.3422222222222222,-0.6088888888888889,0.020825934960035566,0.03932790966822661,-0.450586967573496
1589988609.778258,-2.2899635748293465,-0.88989072448804,8.85010927551196,0.32995548034697925,-0.3355798390026578,-0.6177453998483081,0.025085134627677846,0.050154375776393145,-0.5103260312002721
1589988609.788258,-2.3329181396945255,-0.8804863566157543,8.867081860305474,0.33,-0.33555555555555555,-0.6177777777777778,0.013196075943504578,0.043580178023084684,-0.562089695429039
1589988609.798258,-2.3761064012356274,-0.8876844002059379,8.823893598764373,0.33,-0.33555555555555555,-0.6177777777777778,0.0147664454478893,0.04279499327089232,-0.5989933787820798
1589988609.808258,-2.435718968952883,-0.9265751751623064,8.974588288230379,0.33,-0.33555555555555555,-0.6177777777777778,0.019261363649174745,0.045534700038030056,-0.6477702656195906
1589988609.818258,-2.480538113815097,-0.9137847544739612,9.038645736578117,0.33,-0.33555555555555555,-0.6177777777777778,0.024941380774598513,0.04581489286485115,-0.6857177506331892
1589988609.828258,-2.5004145840145746,-0.97,9.100414584014574,0.3511111111111111,-0.3377777777777778,-0.6022222222222222,0.022816998231419774,0.048177450831855664,-0.7369384632217215
1589988609.838258,-2.5110989768007292,-0.97,9.106703069597812,0.3511111111111111,-0.3377777777777778,-0.6022222222222222,0.020865644601839258,0.0524797573321784,-0.7773308558853934
1589988609.848258,-2.5620883395805896,-0.97,8.953734981258231,0.3511111111111111,-0.3377777777777778,-0.6022222222222222,0.02735473402685682,0.05804183398219346,-0.8079222774604763
1589988609.858258,-2.5848905324200526,-0.9997810648401059,8.937445266210027,0.3511111111111111,-0.3377777777777778,-0.6022222222222222,0.030798058014641135,0.0613413199245419,-0.8427185775532368
1589988609.868258,-2.571802777890921,-1.0039342592969736,8.946065740703025,0.3511111111111111,-0.3377777777777778,-0.6022222222222222,0.031634092692397225,0.06350069393779856,-0.8781731192867392
1589988609.878258,-2.5453298751823636,-1.0,8.935329875182363,0.34622106950523224,-0.3410378055150303,-0.6087422776967274,0.02763343675886143,0.0643590161672909,-0.9200854396217228
1589988609.888258,-2.570191770519983,-1.042268478727976,8.869616458960035,0.34444444444444444,-0.3422222222222222,-0.6111111111111112,0.028155985539590922,0.06765242743341753,-0.9517830232966414
1589988609.898258,-2.6053627906976744,-1.07,8.768548837209302,0.34444444444444444,-0.3422222222222222,-0.6111111111111112,0.03112825162721166,0.07148899057958051,-0.9966408422883921
1589988609.908258,-2.6421913884164354,-1.1086296660997224,8.833697609882732,0.34444444444444444,-0.3422222222222222,-0.6111111111111112,0.02671794265416456,0.06637637445821447,-1.0303267316528957
1589988609.918258,-2.6417035930628163,-1.1482964069371835,8.977580836998312,0.34444444444444444,-0.3422222222222222,-0.6111111111111112,0.027989933994154354,0.06859039442377086,-1.065213895005014
1589988609.928258,-2.6609838619922095,-1.2095741791875347,9.058590317195325,0.3520182773758734,-0.31399248129598717,-0.6241931861744884,0.036626928985811054,0.07267079465320056,-1.0997864971504636
1589988609.938258,-2.714521213804597,-1.2313696965488508,9.07,0.3566666666666667,-0.2966666666666667,-0.6322222222222222,0.04036073895236887,0.07873418282734193,-1.1418314202134618
1589988609.948258,-2.6504842575144987,-1.271709445491301,8.951823237774647,0.3566666666666667,-0.2966666666666667,-0.6322222222222222,0.04111903807008169,0.0803889462399541,-1.168453826817447
1589988609.958258,-2.6474127087399695,-1.3356878478999494,8.93655027831996,0.3566666666666667,-0.2966666666666667,-0.6322222222222222,0.04145156973486533,0.07773121525222089,-1.2060063631863298
1589988609.968258,-2.5865293897416697,-1.34,8.932947709971296,0.3566666666666667,-0.2966666666666667,-0.6322222222222222,0.03991299872478484,0.08052612757740935,-1.234026928672401
1589988609.978258,-2.488242195540309,-1.3803766723842195,8.909497770154374,0.4033333333333333,-0.2966666666666667,-0.6322222222222222,0.040347042757981434,0.07747637794602324,-1.277801124523748
1589988609.988258,-2.353947855917667,-1.4091540308747854,8.871127958833618,0.4033333333333333,-0.2966666666666667,-0.6322222222222222,0.039300668475299935,0.07956912651138626,-1.3112851015695561
1589988609.9982579,-2.396309778404696,-1.4377858670428174,8.786642398871546,0.4033333333333333,-0.2966666666666667,-0.6322222222222222,0.03926990816987242,0.08367193766739582,-1.3435894330681841
1589988610.0082579,-2.4264795639084027,-1.4841326065140041,8.824132606514004,0.4033333333333333,-0.2966666666666667,-0.6322222222222222,0.04408402873960035,0.09458503550562856,-1.3797840295887223
1589988610.0182579,-2.4942636349347724,-1.5285581809608635,8.894263634934772,0.4033333333333333,-0.2966666666666667,-0.6322222222222222,0.03981700949961719,0.1149203116788185,-1.4066965033662313
1589988610.0282578,-2.625403064623584,-1.6072418387741507,9.044483677548302,0.43513435487452806,-0.27122584943371086,-0.6523628691983122,0.054779908542983244,0.09526564609268018,-1.4483100559259423
1589988610.0382578,-2.584612226783535,-1.573689781426828,8.977379562853656,0.43666666666666665,-0.27,-0.6533333333333333,0.04374987866568206,0.10074290051898357,-1.4853615836627014
1589988610.0482578,-2.58,-1.6538046656047745,9.038567453676634,0.43666666666666665,-0.27,-0.6533333333333333,0.044204522498425596,0.09479877484791513,-1.5155779698046834
1589988610.0582578,-2.588344502907782,-1.6966890058155635,8.801320409858764,0.43666666666666665,-0.27,-0.6533333333333333,0.05382650271879424,0.10728452153050202,-1.5475569488022918
1589988610.0682578,-2.604595000405811,-1.7656775018261506,8.888652503855207,0.43666666666666665,-0.27,-0.6533333333333333,0.06279667397826247,0.12131838203138706,-1.5745411494909467
1589988610.0782578,-2.6365874047928664,-1.8165874047928665,8.94,0.4676853055916775,-0.25227506347142237,-0.6585031064875018,0.050223608173042285,0.11384459615719146,-1.6088975890196349
1589988610.0882578,-2.6415528732454927,-1.8215528732454929,8.931552873245492,0.4833333333333333,-0.2433333333333333,-0.6611111111111111,0.04622815487234812,0.11352087899962865,-1.6506299698233742
1589988610.0982578,-2.658730070072103,-1.8761902102163095,8.842593006330185,0.4833333333333333,-0.2433333333333333,-0.6611111111111111,0.04894885734664418,0.11726141042785662,-1.6756314202561537
1589988610.1082578,-2.6231593927893737,-1.9490338393421884,8.805613535736876,0.4833333333333333,-0.2433333333333333,-0.6611111111111111,0.05273297480564579,0.1180489690218441,-1.7045469459274096
1589988610.1182578,-2.65820347385151,-2.0013172633012943,8.871975894951941,0.4833333333333333,-0.2433333333333333,-0.6611111111111111,0.05495304643091176,0.11630738642103182,-1.7221017099249227
1589988610.1282578,-2.6646289315762495,-2.0891698079068783,8.938427671059376,0.5080978324604873,-0.2142990929773596,-0.6722124383060423,0.05730909336696791,0.11478970121479999,-1.7370979385024539
1589988610.1382577,-2.626997640487312,-2.134751769634516,8.933498820243656,0.5155555555555555,-0.20555555555555555,-0.6755555555555556,0.06141403043745769,0.12173723009241894,-1.7506750949772836
1589988610.1482577,-2.5520441907748084,-2.1230110476937023,8.811077333855915,0.5155555555555555,-0.20555555555555555,-0.6755555555555556,0.06310395820920169,0.12326387842209953,-1.7566714818994194
1589988610.1582577,-2.557225831288196,-2.197516240796882,8.858903325152783,0.5155555555555555,-0.20555555555555555,-0.6755555555555556,0.05669152192665529,0.11950578501744856,-1.7629655307087668
1589988610.1682577,-2.56,-2.258972385519802,8.890988165222772,0.5155555555555555,-0.20555555555555555,-0.6755555555555556,0.05563236990731925,0.12576891630005016,-1.7615839216274571
1589988610.1782577,-2.5447534831806635,-2.315575205911785,8.864424794088215,0.5291080149505213,-0.18240343742248907,-0.686849271718027,0.05396923292008103,0.12927241133032788,-1.7594921249577877
1589988610.1882577,-2.5363697139303483,-2.353184856965174,8.836369713930349,0.5422222222222223,-0.16,-0.6977777777777778,0.04992797954900775,0.12598730910007205,-1.7580718073827408
1589988610.1982577,-2.519268124187256,-2.3711752275682705,8.824855737971392,0.5422222222222223,-0.16,-0.6977777777777778,0.046857361473107366,0.11811448156543905,-1.754890334155216
1589988610.2082577,-2.3853991880920162,-2.4156002319737095,8.775600231973709,0.5422222222222223,-0.16,-0.6977777777777778,0.05491245954748107,0.12315485860486565,-1.746900023016718
1589988610.2182577,-2.4172075515181777,-2.4604636155870097,8.800231807793505,0.5422222222222223,-0.16,-0.6977777777777778,0.049747175580197464,0.12141211204103508,-1.7434774856132649
1589988610.2282577,-2.4448011450968337,-2.5184091607746697,8.87721603135567,0.5454229856201114,-0.13599427451583154,-0.7185827398640572,0.049524342078776665,0.12418117556489665,-1.7436279307056974
1589988610.2382576,-2.4112395833333333,-2.5842252604166664,8.911239583333332,0.5488888888888889,-0.11,-0.7411111111111112,0.053416903950889605,0.12977505872564152,-1.7500858707540983
1589988610.2482576,-2.37,-2.6358025301442973,8.849357975884562,0.5488888888888889,-0.11,-0.7411111111111112,0.05060107194414589,0.13033677001662086,-1.7590871962174746
1589988610.2582576,-2.326289116984371,-2.6849776474375022,8.83,0.5488888888888889,-0.11,-0.7411111111111112,0.050311521984744,0.13321466145447466,-1.768231821854107
1589988610.2682576,-2.2875519132173325,-2.731120216956668,8.823775956608667,0.5488888888888889,-0.11,-0.7411111111111112,0.04896518849839972,0.13526301702956053,-1.780335382333963
1589988610.2782576,-2.302202660280268,-2.801806207320625,8.894008867600894,0.5636906624090675,-0.07052860394619026,-0.7460450356178373,0.04206185458994207,0.1312264594817226,-1.7969923520806448
1589988610.2882576,-2.297724607254036,-2.826137696372982,8.877036125389125,0.5688888888888889,-0.05666666666666665,-0.7477777777777778,0.04236929539354854,0.12846982548962513,-1.8056482535977347
1589988610.2982576,-2.276165519556824,-2.83,8.78082759778412,0.5688888888888889,-0.05666666666666665,-0.7477777777777778,0.04589689286894749,0.13668184782844237,-1.8153884220863916
1589988610.3082576,-2.2362688933734196,-2.8772235492772125,8.776984885301264,0.5688888888888889,-0.05666666666666665,-0.7477777777777778,0.04249033211503431,0.1414530695307617,-1.8220944073651864
1589988610.3182576,-2.197703100345431,-2.9390195743954965,8.81229689965457,0.5688888888888889,-0.05666666666666665,-0.7477777777777778,0.040968792564804846,0.14059189449966733,-1.8244771219465103
1589988610.3282576,-2.1509521742110915,-2.97,8.834841304298152,0.5688888888888889,-0.05074951696892605,-0.7504673912767508,0.04409209161279331,0.14437927953981672,-1.8244317947409852
1589988610.3382576,-2.12,-2.9773293218286407,8.83267067817136,0.5688888888888889,-0.04444444444444445,-0.7533333333333333,0.046106218660797164,0.14704530224236315,-1.819072038414772
1589988610.3482575,-2.1041261318651316,-3.0593693406743414,8.798252263730262,0.5688888888888889,-0.04444444444444445,-0.7533333333333333,0.03888861126532958,0.1461713248545251,-1.806068876039873
1589988610.3582575,-2.0467056507642427,-3.087613478462251,8.744319129226493,0.5688888888888889,-0.04444444444444445,-0.7533333333333333,0.03874924993857895,0.15364583985617258,-1.7890247551301963
1589988610.3682575,-1.9801714735702332,-3.0962285658037207,8.742457131607441,0.5688888888888889,-0.04444444444444445,-0.7533333333333333,0.031116734598468254,0.15666823302794355,-1.771010537545195
1589988610.3782575,-1.957720142300525,-3.154040996103676,8.804040996103677,0.5826135863120447,-0.04015547649970825,-0.7310307000207051,0.016074296139915928,0.1553953589061565,-1.7434133961209413
1589988610.3882575,-1.9156907977518665,-3.1773848670413556,8.797845398875932,0.5866666666666667,-0.03888888888888889,-0.7244444444444444,0.01711778953663457,0.16053691931984468,-1.714332079666127
1589988610.3982575,-1.9092358554126254,-3.1753820722936874,8.665315951929555,0.5866666666666667,-0.03888888888888889,-0.7244444444444444,0.014514221147728372,0.15648893335990485,-1.6954808506683396
1589988610.4082575,-1.9172810284322852,-3.1971897156771467,8.60156914703144,0.5866666666666667,-0.03888888888888889,-0.7244444444444444,0.00892769567762936,0.14440172280126157,-1.6766268340498807
1589988610.4182575,-1.9051443658015952,-3.2797112683968095,8.781154926412762,0.5866666666666667,-0.03888888888888889,-0.7244444444444444,0.01872733777495208,0.13513703410130457,-1.6395559217441085
1589988610.4282575,-1.8879910475049648,-3.302008952495035,8.782031333732624,0.5893353227766744,-0.03421874069637522,-0.745793693324507,0.03294406619710942,0.1298015388742049,-1.60045325215877
1589988610.4382575,-1.8846384253316217,-3.342468977321352,8.81,0.5911111111111111,-0.031111111111111114,-0.76,0.03533367539760343,0.12174595728188622,-1.5715524867724937
1589988610.4482574,-1.8638343681961131,-3.3898121119264575,8.800187888073543,0.5911111111111111,-0.031111111111111114,-0.76,0.0363746896895008,0.11642360149771666,-1.5394081790156402
1589988610.4582574,-1.7977653157626996,-3.4467040527119015,8.743295947288098,0.5911111111111111,-0.031111111111111114,-0.76,0.03891037609393805,0.11041767526766275,-1.4889595489982757
1589988610.4682574,-1.8062871328612728,-3.47,8.752574265722545,0.5911111111111111,-0.031111111111111114,-0.76,0.03789826855812812,0.10830365550069082,-1.4523925800922888
1589988610.4782574,-1.807591564927858,-3.4865445800961896,8.788272290048095,0.5635368109507954,-0.03432811279648128,-0.7269108398076212,0.03671131876512675,0.10265230188298595,-1.416395141730438
1589988610.4882574,-1.7439915389892522,-3.484439743882918,8.769327692659502,0.5244444444444445,-0.03888888888888889,-0.68,0.03648171675177177,0.09315602587209987,-1.3685037163381761
1589988610.4982574,-1.638106799555986,-3.404983821827543,8.781262133629344,0.5244444444444445,-0.03888888888888889,-0.68,0.03681642129168142,0.08610679310649448,-1.3149188457644918
1589988610.5082574,-1.6167275708596862,-3.4203654251581166,8.67890372452565,0.5244444444444445,-0.03888888888888889,-0.68,0.03891294152589314,0.09095571414286098,-1.268714134779537
1589988610.5182574,-1.6478039519720102,-3.5456550174936385,8.70341185591603,0.5244444444444445,-0.03888888888888889,-0.68,0.03381061496637051,0.08835215409119329,-1.2230351624023061
1589988610.5282574,-1.634468868893049,-3.5767033033395736,8.758156289631016,0.5264183961726084,0.013091839952761503,-0.6589445148995847,0.028806456934931318,0.08205604767480813,-1.1665243203399553
1589988610.5382574,-1.6209263813109966,-3.6110214785214785,8.81555828786598,0.5277777777777778,0.048888888888888885,-0.6444444444444445,0.03074536695997369,0.07774176963590546,-1.1126965831891598
1589988610.5482574,-1.6354526522476422,-3.7027159134858536,8.7282310415613,0.5277777777777778,0.048888888888888885,-0.6444444444444445,0.03391450765848902,0.07407773980866013,-1.0519695180422053
1589988610.5582573,-1.6453136398971475,-3.788450038868624,8.67907731866292,0.5277777777777778,0.048888888888888885,-0.6444444444444445,0.036065841433268575,0.07018752144380758,-0.990160466770289
1589988610.5682573,-1.6074387512411388,-3.771902001985822,8.944293994042534,0.5277777777777778,0.048888888888888885,-0.6444444444444445,0.04358804344515117,0.07227422054354576,-0.9340941896125379
1589988610.5782573,-1.427700550434811,-3.518787089209524,8.680770608735303,0.5382782355687283,0.08965537207728524,-0.6370323565920087,0.07055187814184094,0.09915741699935735,-0.8583377327335593
1589988610.5882573,-1.308393588601959,-3.3611914514692787,8.372436331255566,0.5466666666666666,0.12222222222222222,-0.6311111111111111,0.003379147040203631,0.013495995451474396,-0.8252784705554959
1589988610.5982573,-1.324762743058334,-3.387144114587501,8.624292630231256,0.5466666666666666,0.12222222222222222,-0.6311111111111111,-0.00945322667395104,0.011636808561998686,-0.7902278195237922
1589988610.6082573,-1.2716834156800596,-3.345953202200056,8.604827258320126,0.5466666666666666,0.12222222222222222,-0.6311111111111111,0.027798541703844843,0.048879428751987655,-0.7406242527787293
1589988610.6182573,-1.268992915597899,-3.3969121778429217,8.519529742274338,0.5466666666666666,0.12222222222222222,-0.6311111111111111,0.03716156157227521,0.04410919566565438,-0.6976412133398028
1589988610.6282573,-1.4323607705123644,-3.6676392294876354,8.68034500833037,0.5466666666666666,0.140047091026705,-0.6255938898144855,0.006591216202337017,0.013492105906921523,-0.6687314230580453
1589988610.6382573,-1.3571290908417033,-3.587348133871984,8.695960861346874,0.5466666666666666,0.1688888888888889,-0.6166666666666667,0.03201894196479572,0.03383964814540227,-0.6200802739117713
1589988610.6482573,-1.3093285447141683,-3.5294307834810117,8.802321082158025,0.5466666666666666,0.1688888888888889,-0.6166666666666667,0.03073436080648659,0.030458864981011555,-0.5639149044730529
1589988610.6582572,-1.4166993639359338,-3.6967974557437353,8.72290826883286,0.5466666666666666,0.1688888888888889,-0.6166666666666667,0.03600811597872909,0.030946106077335084,-0.5179343803326111
1589988610.6682572,-1.4050554915398143,-3.704611559221299,8.829778033840743,0.5466666666666666,0.1688888888888889,-0.6166666666666667,0.03381575425739013,0.02344680863569403,-0.4616998676430703
1589988610.6782572,-1.3793990633173165,-3.7245492974879872,8.834549297487987,0.5506724043549662,0.18605633612445852,-0.6201001561137806,0.032130344066260266,0.02175106362674887,-0.4082421431464179
1589988610.6882572,-1.3654794174061506,-3.7154794174061507,8.82547941740615,0.5544444444444444,0.20222222222222225,-0.6233333333333333,0.028152415039190408,0.01963495408493621,-0.3525028997075577
1589988610.6982572,-1.3773771730914588,-3.745820105820106,8.796802721088435,0.5544444444444444,0.20222222222222225,-0.6233333333333333,0.0237657645311246,0.017220779836145866,-0.3078195844167153
1589988610.7082572,-1.39,-3.7925696339776422,8.732291098067073,0.5544444444444444,0.20222222222222225,-0.6233333333333333,0.0193546505006801,0.011968755052933036,-0.25645008773725964
1589988610.7182572,-1.3801190955898812,-3.793412730393254,8.733055443623611,0.5544444444444444,0.20222222222222225,-0.6233333333333333,0.01746628383349351,0.007648806791025407,-0.18931984015232306
1589988610.7282572,-1.361340049250056,-3.780893366166704,8.776873218416535,0.5544444444444444,0.20222222222222225,-0.6233333333333333,0.015417807652152617,0.0056003306096845135,-0.1510816181006264
1589988610.7382572,-1.3301774792292735,-3.76053243768782,8.809911260385364,0.5488888888888889,0.24,-0.6311111111111111,0.010888947844310035,0.0005405753960845969,-0.05044775166175823
1589988610.7482572,-1.3561517788302677,-3.832303557660535,8.732330432867055,0.5488888888888889,0.24,-0.6311111111111111,0.008726646259971648,-0.003355274857582997,0.013917794490893764
1589988610.7582572,-1.3366116110535957,-3.824407740702397,8.686101935175598,0.5488888888888889,0.24,-0.6311111111111111,0.007876220439447055,-0.00758021846379376,0.05659244346326369
1589988610.7682571,-1.3035910618944038,-3.8,8.68,0.5488888888888889,0.24,-0.6311111111111111,0.005892111218934452,-0.011822330691426556,0.09680654031723095
1589988610.7782571,-1.3330465390692188,-3.8,8.756163476730466,0.5587055147785933,0.23830747829487856,-0.6331421371572569,0.002087808361530986,-0.019208775021796104,0.15785349619255368
1589988610.7882571,-1.3278245375869677,-3.803043865603258,8.872166553538095,0.5811111111111111,0.2344444444444445,-0.6377777777777778,0.0030351862108593903,-0.02105781909721427,0.20559962114042218
1589988610.798257,-1.3291692357882718,-3.7599955957915343,8.731665932631923,0.5811111111111111,0.2344444444444445,-0.6377777777777778,-0.002727317168549495,-0.02499848567990353,0.2539832885358777
1589988610.808257,-1.3650711353763998,-3.7269664846770016,8.749573187741602,0.5811111111111111,0.2344444444444445,-0.6377777777777778,-0.006544984694978735,-0.029183603264695265,0.2889149640449581
1589988610.818257,-1.2861180665610144,-3.7031101426307447,8.785244057052298,0.5811111111111111,0.2344444444444445,-0.6377777777777778,-0.005549493560112516,-0.025375126940309196,0.34070941239891267
1589988610.828257,-1.2473911081020086,-3.6288038817422703,8.748043331076506,0.6034419117831441,0.2276932721482485,-0.6445289500739738,-0.010481428886384363,-0.028954405699060746,0.3759927042304835
1589988610.838257,-1.32192011048931,-3.7619201104893096,8.793680047352561,0.6288888888888889,0.22,-0.6522222222222223,-0.014468769168306684,-0.03460114381184899,0.40444519577470217
1589988610.848257,-1.3804429841288468,-3.8511074603221167,8.772521195763781,0.6288888888888889,0.22,-0.6522222222222223,-0.01350995540191169,-0.03274908451108885,0.4325822641701122
1589988610.858257,-1.433457285042853,-3.945514238319049,8.717943046723803,0.6288888888888889,0.22,-0.6522222222222223,-0.01560819914772507,-0.03686386780969638,0.46759877430478575
1589988610.868257,-1.4704737466097153,-3.925375895278775,8.751699283776981,0.6288888888888889,0.22,-0.6522222222222223,-0.013275332495170152,-0.039588956641799705,0.49217139385989395
1589988610.878257,-1.5181571468013577,-3.891316323713316,8.778946941029346,0.6288888888888889,0.22,-0.6522222222222223,-0.016247590823349638,-0.04033202122384457,0.5129772021571504
1589988610.888257,-1.508497868521427,-3.8434120484630916,8.820579425622615,0.8133333333333334,0.16,-0.6444444444444445,-0.014962639735991042,-0.04075165873413743,0.5522248846639118
1589988610.898257,-1.479252833118979,-3.7692528331189785,8.736120750321533,0.8133333333333334,0.16,-0.6444444444444445,-0.018381116775743805,-0.04246089725401381,0.5799301041508611
1589988610.908257,-1.4718534269426062,-3.7255602808278185,8.698224112331127,0.8133333333333334,0.16,-0.6444444444444445,-0.02112168167718918,-0.04482092172912779,0.6009339850634459
1589988610.918257,-1.44,-3.6435371496207027,8.685140420724162,0.8133333333333334,0.16,-0.6444444444444445,-0.022238522493172624,-0.0464838168041041,0.6175129852914527
1589988610.928257,-1.3876955687897445,-3.639648733218936,8.785976582214595,1.0703850251786056,0.05807341610309208,-0.6560676513800567,-0.021803843229340685,-0.04428517528523842,0.6372965514279595
1589988610.938257,-1.3904034582132565,-3.6572046109510086,8.742478386167146,1.4522222222222223,-0.09333333333333334,-0.6733333333333333,-0.02146767554371267,-0.04831091488589491,0.6434329814448836
1589988610.948257,-1.4632762679888363,-3.7565525359776726,8.654303444189782,1.4522222222222223,-0.09333333333333334,-0.6733333333333333,-0.02435566261231508,-0.05128772136765074,0.6435528124922744
1589988610.958257,-1.4698158629184401,-3.7696317258368803,8.543130330386516,1.4522222222222223,-0.09333333333333334,-0.6733333333333333,-0.025069021757742036,-0.04914764393136986,0.6478329673648362
1589988610.968257,-1.5133826666086276,-3.756706133286902,8.806765333217255,1.4522222222222223,-0.09333333333333334,-0.6733333333333333,-0.020003945771297584,-0.04908738521234052,0.6566736733522314
1589988610.978257,-1.5022316495659036,-3.741115824782952,8.769642199421206,1.3040112251161975,-0.0669847116255956,-0.6951532856850536,-0.016766644532316202,-0.05029993359694861,0.6614476369877217
1589988610.988257,-1.5285267183254503,-3.7102824460769512,8.793229009426051,1.0522222222222222,-0.022222222222222227,-0.7322222222222222,-0.017036112225714918,-0.05235987755982988,0.6621342849753488
1589988610.998257,-1.5157574735895707,-3.62808084213681,8.736565894957668,1.0522222222222222,-0.022222222222222227,-0.7322222222222222,-0.01678115703217444,-0.05235987755982988,0.6615062420332574
1589988611.008257,-1.5660711543383672,-3.6286903847794556,8.710416346728096,1.0522222222222222,-0.022222222222222227,-0.7322222222222222,-0.019492097225356643,-0.053307851482746776,0.6522259751674411
1589988611.018257,-1.612748414812979,-3.643187103703245,8.765935518516224,1.0522222222222222,-0.022222222222222227,-0.7322222222222222,-0.02072578486743266,-0.0528032437115689,0.6421995253423058
1589988611.028257,-1.627175705858771,-3.634610847030525,8.789740564687017,0.9650170220618648,0.017675581772712515,-0.7248126300517344,-0.020166219474911,-0.04852781981981886,0.6355896634915323
1589988611.038257,-1.6477866184448464,-3.6147656936192196,8.801276156032033,0.7122222222222222,0.13333333333333333,-0.7033333333333334,-0.020795388381583173,-0.04690572364734761,0.6205435082121824
1589988611.0482569,-1.7416340990754573,-3.63448786789939,8.805707537647866,0.7122222222222222,0.13333333333333333,-0.7033333333333334,-0.02357524943498462,-0.0464826958674102,0.6111765360859428
1589988611.0582569,-1.7667007008739293,-3.5764964956303538,8.76355455568054,0.7122222222222222,0.13333333333333333,-0.7033333333333334,-0.022907446432425576,-0.047642225559246874,0.6072328481457878
1589988611.0682569,-1.7690837635817216,-3.4918062726362025,8.809973799799645,0.7122222222222222,0.13333333333333333,-0.7033333333333334,-0.02211359531815444,-0.05126904677733343,0.6098743533044291
1589988611.0782568,-1.7584147491512636,-3.4499023010184837,8.75851244813278,0.6970756737499476,0.14137409363342973,-0.7033333333333334,-0.021092947563480034,-0.050901884081286056,0.6121396503285355
1589988611.0882568,-1.7979686910599775,-3.402437570728027,8.84553112033195,0.625878578314263,0.17917008256842282,-0.7033333333333334,-0.022818813859604097,-0.04917601778516199,0.6130025834765974
1589988611.0982568,-1.8517793552303232,-3.4004056788291632,8.885067613138194,0.6222222222222222,0.1811111111111111,-0.7033333333333334,-0.02036709157276338,-0.04980477180167908,0.6186804003228251
1589988611.1082568,-1.8164190328454846,-3.2731085182437445,8.86385141970729,0.6222222222222222,0.1811111111111111,-0.7033333333333334,-0.018824206447308166,-0.052890542052589494,0.6194518428855529
1589988611.1182568,-1.8783567358103488,-3.233326646911329,8.806673353088671,0.6222222222222222,0.1811111111111111,-0.7033333333333334,-0.03218716652633997,-0.05945574796226723,0.6088606408227228
1589988611.1282568,-1.8238669259019227,-3.2538669259019226,8.797733851803844,0.6245853436067306,0.1778886728595089,-0.7089188929694439,-0.013722693661074988,-0.04708034140708618,0.6225808880538359
1589988611.1382568,-1.856058748109672,-3.2892704977316063,8.83642349924387,0.6344444444444445,0.16444444444444445,-0.7322222222222222,-0.015311419131463624,-0.05200953002450215,0.637857490524834
1589988611.1482568,-1.8890176772476714,-3.3307367420642464,8.845088386238357,0.6344444444444445,0.16444444444444445,-0.7322222222222222,-0.013116758087372133,-0.051188680685089444,0.6539166239662557
1589988611.1582568,-1.8708390743308094,-3.3738927162205394,8.719463581102698,0.6344444444444445,0.16444444444444445,-0.7322222222222222,-0.017211720673624413,-0.04913314961778299,0.6817107248357359
1589988611.1682568,-1.8576438289601553,-3.383466472303207,8.896844995140913,0.6344444444444445,0.16444444444444445,-0.7322222222222222,-0.01990156627327232,-0.05036728272958745,0.7043665036783681
1589988611.1782568,-1.61403208689681,-3.2983697484237466,9.163813596354329,0.6121575420854403,0.1350089130268917,-0.724232577980315,-0.005393820803468493,-0.04180406898860107,0.7310344571328845
1589988611.1882567,-1.44,-3.23,9.4,0.5755555555555556,0.08666666666666667,-0.7111111111111111,0.00545415391248228,-0.031634092692397225,0.7384924397501007
1589988611.1982567,-1.3874339966454767,-3.064867993290953,7.832896071894477,0.5755555555555556,0.08666666666666667,-0.7111111111111111,0.04755823891135601,0.009536665987284199,0.7107077534303257
1589988611.2082567,-2.0017052066238996,-3.650009324183202,9.048484260778755,0.5755555555555556,0.08666666666666667,-0.7111111111111111,-0.1205405851173119,-0.11203066478522176,0.5919455976599184
1589988611.2182567,-15.436945126598356,-9.150346346007282,-5.448689982216953,0.5755555555555556,0.08666666666666667,-0.7111111111111111,-0.680383046144921,1.0059098508671138,-0.8573282416864241
1589988611.2282567,-3.301588240908657,0.9777713085807005,-0.5601985301135821,0.5737065317679998,0.10959456163235871,-0.6963189208106646,-0.7039290233900946,-0.4366900580180209,-3.671113379483676
1589988611.2382567,-0.8090943093775047,-0.6380977825273845,0.003509885118888556,0.57,0.15555555555555556,-0.6666666666666666,-0.3453373394922231,-1.423781305676592,-4.456607449260791
1589988611.2482567,-0.23164720329392505,-0.738983650766897,0.18096963713852302,0.57,0.15555555555555556,-0.6666666666666666,-0.440912273635347,-0.8941511898878575,-4.355420982752924
1589988611.2582567,0.04737322197886834,-0.5934116344557029,0.01760812534597704,0.57,0.15555555555555556,-0.6666666666666666,-0.4133520640014775,-0.8176822021018189,-4.188785531560096
1589988611.2682567,1.6094267368095312,-0.9710084326164321,2.472394012068699,0.57,0.15555555555555556,-0.6666666666666666,-0.3704804300091994,-0.6960368347967028,-4.012751754199387
1589988611.2782567,3.2316493834609146,-1.4597735585806402,5.441117123571779,0.5652628304234699,0.1735567999463697,-0.6693194816295235,-0.023921891500411907,-0.2616056058384292,-3.8770579649057346
1589988611.2882566,-0.5167917342282893,-0.3921795693653607,-0.11827972397149189,0.5432958759128675,0.25703122708665904,-0.6816209761554608,1.4028851422103539,1.3377294851529613,-3.8529040368864473
1589988611.2982566,5.546308830898508,3.838014107851829,22.129865474309064,0.5422222222222223,0.2611111111111111,-0.6822222222222222,2.259965370340013,2.9703669517337383,-3.6854627678042347
1589988611.3082566,-1.5246201743462018,-0.09808219178082192,5.502864259028643,0.5422222222222223,0.2611111111111111,-0.6822222222222222,-0.1419886748180287,1.917552821863446,-2.596395971875789
1589988611.3182566,0.08148816461037645,-0.8655965920507978,12.342210344411846,0.5422222222222223,0.2611111111111111,-0.6822222222222222,0.02599200358059968,0.02909251790454953,-2.1235261980853344
1589988611.3282566,3.209866654092795,-1.2738945680875142,15.708164277631083,0.5356805817511212,0.27150077538874223,-0.6764501865124272,0.24899309201969858,-0.3681252688310379,-1.9103797469127606
1589988611.3382566,0.14839155035835505,0.07885024519049422,0.2583945680875104,0.5057953811978708,0.3189655056791986,-0.650080891906618,0.5492938275452851,-0.8738040935953877,-1.707590457118184
1589988611.3482566,1.3826992306063386,-2.2535448577680524,11.94476388790852,0.5044444444444445,0.3211111111111111,-0.6488888888888888,-0.13346688449174063,0.22743748666943298,-1.3173259675412545
1589988611.3582566,-0.18,-2.394412309780481,9.814715877946282,0.5044444444444445,0.3211111111111111,-0.6488888888888888,-0.2736529722065081,0.7824463914157558,-1.0809559322706532
1589988611.3682566,-0.13975934712469157,-2.466871512620991,8.615516416777377,0.5044444444444445,0.3211111111111111,-0.6488888888888888,-0.016569034323283813,0.14093515077329927,-1.0150204653411083
1589988611.3782566,-0.1285955440131219,-1.600306178239475,5.605955440131219,0.5010278081526032,0.3274187473422028,-0.6520427070044347,0.11857573642119125,-0.07584904573882599,-0.9111881291783579
1589988611.3882565,-0.35,-2.15,7.82,0.49,0.3477777777777778,-0.6622222222222223,-0.002181661564992912,0.15817046346198613,-0.767944870877505
1589988611.3982565,-0.27150519443385435,-2.1014079775066716,7.027576248570339,0.49,0.3477777777777778,-0.6622222222222223,0.048377596635128986,0.10516478954250348,-0.6745733375885702
1589988611.4082565,-0.17726563243551918,-2.3218516227277055,6.955851813076997,0.49,0.3477777777777778,-0.6622222222222223,0.06560152714139554,0.02489906652531801,-0.4844047075242305
1589988611.4182565,-0.15735159071893556,-2.845893924861743,8.453315715364365,0.49,0.3477777777777778,-0.6622222222222223,-0.02372393893841883,0.0375361499204849,-0.409227829295103
1589988611.4282565,-0.0325929245846779,-3.0191167682562448,7.647446516075057,0.48905747446980863,0.3538099411710025,-0.6622222222222223,0.03798495200968536,0.030299529610644506,-0.36220399260753167
1589988611.4382565,-0.29,-3.696572667101706,10.172904819614057,0.4844444444444445,0.38333333333333336,-0.6622222222222223,0.08431083691748852,0.013227708766753542,-0.324765858358581
1589988611.4482565,-0.29,-3.1393919548802085,9.019442994313415,0.4844444444444445,0.38333333333333336,-0.6622222222222223,-0.04151232962976062,0.03561996722007753,-0.27571614936558564
1589988611.4582565,-0.24481634505532343,-2.9585255958808707,8.07038796813622,0.4844444444444445,0.38333333333333336,-0.6622222222222223,0.006705817234877307,0.014261498125548139,-0.18657100436771643
1589988611.4682565,-0.2973296085888226,-3.2013994397233043,8.67429049877146,0.4844444444444445,0.38333333333333336,-0.6622222222222223,-0.01978760927777911,0.010681305353567542,-0.13644830555998805
1589988611.4782565,-0.4423121821645143,-3.2075072960173356,8.838677979134264,0.48401734345358416,0.3847214115536294,-0.6636103004425183,0.005244501203852952,-0.0019294416170137674,-0.0361905601435171
1589988611.4882565,-0.38367422190378,-3.1122206105936425,8.523498942732816,0.48075967899465444,0.39530882104515086,-0.6741977099340397,0.0036453989019726296,-0.00832585082453506,0.02057757157323436
1589988611.4982564,-0.35581988373238743,-3.1690994186619372,8.53067001675042,0.48,0.3977777777777778,-0.6766666666666666,0.00445653117556479,-0.008089280357892232,0.12415823283545582
1589988611.5082564,-0.41367799783229875,-3.458389989161494,9.233232830820771,0.48,0.3977777777777778,-0.6766666666666666,-0.005461290690879931,-0.012597381206276195,0.1872716447128313
1589988611.5182564,-0.37712756200280767,-3.2878055217594757,8.426315769770707,0.48,0.3977777777777778,-0.6766666666666666,-0.009116854347651382,-0.02134661408170664,0.3043242696864432
1589988611.5282564,-0.4399341132428638,-3.4997776321946654,8.889514085166121,0.48,0.3977777777777778,-0.6766666666666666,-0.006547679868835348,-0.03162331199697077,0.37626115509329217
1589988611.5382564,-0.4370868276000073,-3.44698877590002,8.925434138000035,0.4666666666666667,0.4044444444444445,-0.6911111111111111,-0.0016308982831135731,-0.03115742597310255,0.487696073994774
1589988611.5482564,-0.49812701242473306,-3.6148492841680158,9.230635062123666,0.4666666666666667,0.4044444444444445,-0.6911111111111111,-0.007457043133520915,-0.04114510285951514,0.554280586570858
1589988611.5582564,1.504150026463937,-5.316035221094164,6.527983929172882,0.4666666666666667,0.4044444444444445,-0.6911111111111111,-0.1283555067985811,-0.06391274812474768,0.11786533415278977
1589988611.5682564,-1.530544044589846,-1.2342913687951858,7.673971889010057,0.4666666666666667,0.4044444444444445,-0.6911111111111111,-0.3670881072842989,-0.06955582759418971,-2.193702294305114
1589988611.5782564,-1.6857987692799488,-4.219619595620554,14.735528250619355,0.46981168473676266,0.40461444542120645,-0.6911111111111111,-0.18050804169132856,0.11765298242163445,-5.127555205345162
1589988611.5882564,0.6605690082314393,-3.44867018300967,11.400334052585311,0.504262322739906,0.406476642070025,-0.6911111111111111,0.6860622113198582,0.7611819466831063,-4.835956143414182
1589988611.5982563,0.39347051307914727,-1.5464938470849303,3.478942012417905,0.5077777777777778,0.4066666666666667,-0.6911111111111111,0.8757884809446408,0.5220329604215501,-4.464547791196928
1589988611.6082563,-11.336814854407287,-18.62047454160954,11.727984476307778,0.5077777777777778,0.4066666666666667,-0.6911111111111111,-0.264066199618573,0.13681876465226483,-3.3882148894450856
1589988611.6182563,1.354229720724541,0.6687217544072211,7.447151511479978,0.5077777777777778,0.4066666666666667,-0.6911111111111111,-0.4891506738666427,0.1098378112942262,-0.6696537945112722
1589988611.6282563,0.2174433656957929,-0.399546925566343,12.262297734627833,0.506655879180151,0.4074289823804387,-0.6912261776339447,0.07317391734494025,-0.37338537551413487,1.5040226560799437
1589988611.6382563,-0.4657981368350551,-2.1260520387246045,8.418553307219257,0.4211111111111111,0.4655555555555556,-0.7,0.4384536446761709,0.11958705406225537,1.6476668538941257
1589988611.6482563,0.4001704304227402,-2.8442561106281463,12.342261690556578,0.4211111111111111,0.4655555555555556,-0.7,-0.2958653607262159,-0.11153807052078776,1.633637424681282
1589988611.6582563,0.3068940420112003,-2.505069243677092,9.61180741160059,0.4211111111111111,0.4655555555555556,-0.7,-0.4845630532254732,-0.34186025401252834,1.6502872210782749
1589988611.6682563,1.2721356896578382,-4.131706943735795,8.079571254077957,0.4211111111111111,0.4655555555555556,-0.7,0.15225270182884174,-0.05401105841913359,1.6393049255274195
1589988611.6782563,-0.647422731419206,-1.7776538800500954,7.6450766114693005,0.4211111111111111,0.4655555555555556,-0.7,-0.004083401078915222,-0.17639180865914242,1.0762119937872634
1589988611.6882563,-0.3222724468622063,-1.784890359486288,11.132126633391284,0.4355555555555555,0.4655555555555556,-0.6888888888888889,-0.07773241436187549,0.0893082144569213,-1.1710854868679959
1589988611.6982563,-0.0948881162021199,-1.8476170713925186,7.054890359486288,0.4355555555555555,0.4655555555555556,-0.6888888888888889,0.24044024691740545,0.3253718018576781,-1.1650983668976869
1589988611.7082562,-2.4554564962934062,-8.072053745610614,8.858890704252829,0.4355555555555555,0.4655555555555556,-0.6888888888888889,-0.06525999962012785,-0.03301484165423499,-0.8460399278853307
1589988611.7182562,1.2694291942515745,-2.8270765380268044,9.493814387211367,0.4355555555555555,0.4655555555555556,-0.6888888888888889,-0.1767438258908419,-0.03185594016059588,0.10945178187235846
1589988611.7282562,3.7364660146590327,-6.463494998551919,6.530284269387574,0.4359360418631476,0.4653352740090549,-0.6886485817472517,0.20301127095123175,-0.09107930343226407,0.9299245299157869
1589988611.7382562,-0.07593935883440661,-3.0155107269365296,9.137296767438233,0.45566254025540676,0.4539146696766943,-0.6761897406574039,-0.017154624524379297,-0.06253927994468486,0.2225396620450738
1589988611.7482562,-0.42262849185585283,-5.615216895940586,8.911294202042367,0.4566666666666666,0.4533333333333333,-0.6755555555555556,-0.05362870828476511,0.07062514809493216,-0.3298982439776434
1589988611.7582562,0.703817596290094,-4.082855081798273,8.779048306067242,0.4566666666666666,0.4533333333333333,-0.6755555555555556,0.009453735632759185,-0.006025522729664695,-0.017627364550518672
1589988611.7682562,-0.46,-4.38,8.68,0.4566666666666666,0.4533333333333333,-0.6755555555555556,0.02836160034490785,-0.008726646259971648,0.11562806294462433
1589988611.7782562,-0.28680526126414263,-4.433290688841802,8.68,0.4566666666666666,0.4533333333333333,-0.6755555555555556,0.00850013304347276,-0.00727336816474469,0.0521682527863805
1589988611.7882562,-0.07,-4.539309806120814,8.702462746354751,0.45229891043102066,0.45707712439245846,-0.6961464063807439,-0.016975038117026147,-0.003616424773744359,-0.010118630934190808
1589988611.7982562,-0.0840658646932978,-4.562967067653351,8.65670360888016,0.4488888888888889,0.46,-0.7122222222222222,-0.012083075153485539,-0.0006473137460049814,0.0017381445285014373
1589988611.8082561,-0.09716796540503511,-4.54566406918993,8.694511688645317,0.4488888888888889,0.46,-0.7122222222222222,0.003474886387391251,-0.002345711193504592,0.0018727345136646534
1589988611.8182561,-0.09088473381797403,-4.503538935271896,8.756461064728104,0.4488888888888889,0.46,-0.7122222222222222,0.010715288848372221,0.0007047928293117799,0.0001930189765923379
1589988611.8282561,-0.08159634287676525,-4.5,8.802018285616175,0.4488888888888889,0.46,-0.7122222222222222,0.0072415206747365275,0.002924224357610472,-0.0009166967875570079
1589988611.8382561,-0.09059146392794006,-4.53881707214412,8.64828049499116,0.4488888888888889,0.4722222222222222,-0.6977777777777778,-0.008404052730305004,-0.002052624153126255,0.00012903741186665713
1589988611.848256,-0.09765316945870865,-4.5246936610825825,8.747144372421921,0.4488888888888889,0.4722222222222222,-0.6977777777777778,-0.004552489845361083,-0.0005119989991486857,0.0016696625658442262
1589988611.858256,-0.10007933010136624,-4.459960334949317,8.660674305861614,0.4488888888888889,0.4722222222222222,-0.6977777777777778,0.0044022642024328104,0.002177334779165469,0.001099484354151342
1589988611.868256,-0.11923075361377293,-4.452307739158681,8.827179429917168,0.4488888888888889,0.4722222222222222,-0.6977777777777778,0.013957035469141756,0.0010348896066684138,0.003216551171661326
1589988611.878256,-0.09368483027448432,-4.528945509176547,8.733511044339776,0.4488888888888889,0.4722222222222222,-0.6977777777777778,0.006526027590264243,-0.0008228623630509647,0.001358799201941947
1589988611.888256,-0.09,-4.6057501373878,8.691821369690942,0.4363650531959745,0.4544801216572603,-0.7113452664451015,-0.008890300850714385,-0.003140038605810265,-0.001982980952474258
1589988611.898256,-0.10940252812246318,-4.5182075843673895,8.659402528122463,0.4355555555555555,0.4533333333333333,-0.7122222222222222,-0.015384850663907164,-0.005258631697774345,-0.0018557912071463538
1589988611.908256,-0.09964935064935065,-4.4914025974025975,8.648948051948052,0.4355555555555555,0.4533333333333333,-0.7122222222222222,0.00038249910555070534,-0.0020669118333277005,0.003119492705269086
1589988611.918256,-0.09,-4.528786043352973,8.631532588146761,0.4355555555555555,0.4533333333333333,-0.7122222222222222,0.01097451888892425,0.0011570418464561458,-0.0009584086545770764
1589988611.928256,-0.09,-4.513389314097975,8.777801516069234,0.4355555555555555,0.4533333333333333,-0.7122222222222222,0.01181428019997997,0.001996803157511867,0.0007211139675343658
1589988611.938256,-0.09016744594972625,-4.5295813851256845,8.720334891899453,0.4488888888888889,0.4477777777777778,-0.6888888888888889,-5.479655890972485e-05,0.0,9.132759818287476e-06
1589988611.948256,-0.10692922511289614,-4.48767693721776,8.753858450225792,0.4488888888888889,0.4477777777777778,-0.6888888888888889,-0.005540075963087743,0.0,0.0009233459938479573
1589988611.958256,-0.11,-4.499243926414829,8.663780367925852,0.4488888888888889,0.4477777777777778,-0.6888888888888889,-0.004445797964039481,0.0031487800964088825,0.001090830782496456
1589988611.968256,-0.10204884640996514,-4.460244232049826,8.72360922872028,0.4488888888888889,0.4477777777777778,-0.6888888888888889,0.003442703653144687,0.003272492347489368,0.0019581670917331795
1589988611.978256,-0.08558384467442073,-4.500456543639527,8.76162423298837,0.4488888888888889,0.4477777777777778,-0.6888888888888889,0.0046678746127626755,0.0009136544483305557,-0.0009634556338855042
1589988611.988256,-0.08935561985030505,-4.454510661047864,8.798066859550916,0.4488888888888889,0.45921242426148395,-0.6826518089886855,0.002322243505576297,-0.002041079624409527,0.0029210374960309056
1589988611.998256,-0.09,-4.52365952732644,8.6995551900094,0.4488888888888889,0.46,-0.6822222222222222,-0.007314256960585793,-0.0007207510225961879,0.001081126533894282
1589988612.008256,-0.09,-4.534223019916628,8.581261386444341,0.4488888888888889,0.46,-0.6822222222222222,-0.009187306271986998,-0.0009372774451580055,0.0
1589988612.018256,-0.09,-4.51020264681555,8.66898676592225,0.4488888888888889,0.46,-0.6822222222222222,-8.84213537507457e-05,-0.001090830782496456,0.0
1589988612.028256,-0.10641456140004346,-4.46075631579987,8.752072807000216,0.4488888888888889,0.46,-0.6822222222222222,0.008952754428172761,-0.0028813816681310086,0.0017905508856345524
1589988612.038256,-0.11,-4.477839234287651,8.788559489525099,0.44270239238052217,0.45381350349163324,-0.6688181464540943,0.0028102028324046135,0.002801086396930591,0.0011693984409229187
1589988612.048256,-0.11,-4.509197282273008,8.74133786287832,0.44222222222222224,0.4533333333333333,-0.6677777777777778,0.002181661564992912,0.003272492347489368,0.001090830782496456
1589988612.058256,-0.10304652666689357,-4.51,8.64265137333651,0.44222222222222224,0.4533333333333333,-0.6677777777777778,0.0006646490135887668,-0.0027955578581272122,0.002607843333900601
1589988612.068256,-0.10864628663909369,-4.51,8.677816579751843,0.44222222222222224,0.4533333333333333,-0.6677777777777778,0.00471581781010561,0.0011479910216655748,0.0013861652234471236
1589988612.078256,-0.11,-4.478840464385546,8.760108955132521,0.44222222222222224,0.4533333333333333,-0.6677777777777778,0.003754664881655233,-0.0003675719812476579,0.00024108626708293265
1589988612.088256,-0.1,-4.5,8.77993487546976,0.4566666666666666,0.4533333333333333,-0.6977777777777778,-0.005482569849394724,-0.0021745575807648005,-0.0010766228140402336
1589988612.0982559,-0.1,-4.5,8.770144487757054,0.4566666666666666,0.4533333333333333,-0.6977777777777778,-0.009754432365232251,-0.0011065919518054195,0.001059308443878529
1589988612.1082559,-0.10964229880766269,-4.56749609165364,8.577154023846747,0.4566666666666666,0.4533333333333333,-0.6977777777777778,-0.006662042136439902,-0.001090830782496456,-0.0010127924881890118
1589988612.1182559,-0.09055903011642451,-4.531118060232849,8.618602424708937,0.4566666666666666,0.4533333333333333,-0.6977777777777778,0.005118759919846138,0.0031505308956216805,-3.0490362966921914e-05
1589988612.1282558,-0.07892603052191387,-4.513389045782871,8.697517786346603,0.4566666666666666,0.4533333333333333,-0.6977777777777778,0.007870119270706794,0.0038764836870454965,0.001207982679112257
1589988612.1382558,-0.08129247749056057,-4.481179204182399,8.782584954981122,0.45122954787491526,0.45124213379804434,-0.7032148965695292,0.010228083111046497,0.003952717061407431,0.001360449427836126
1589988612.1482558,-0.10513910370243074,-4.4808346222145845,8.789165377785416,0.44222222222222224,0.4477777777777778,-0.7122222222222222,0.005302415311911607,0.0027119030961840727,0.0
1589988612.1582558,-0.11,-4.497438759571793,8.678351937216656,0.44222222222222224,0.4477777777777778,-0.7122222222222222,-0.004110656317628078,0.002181661564992912,0.0006851093862713464
1589988612.1682558,-0.11,-4.518135109142307,8.639378369714104,0.44222222222222224,0.4477777777777778,-0.7122222222222222,-0.0004068560707134218,0.0011586401276153595,6.780934511890356e-05
1589988612.1782558,-0.11744850038355754,-4.482757498082212,8.744279005369805,0.44222222222222224,0.4477777777777778,-0.7122222222222222,0.0040625267509106135,0.0019033361326785787,0.0016250107003642454
1589988612.1882558,-0.09655817805383023,-4.477813940648724,8.772186059351275,0.45350902538148913,0.4668785215857679,-0.7052764972011349,0.0020446791155912174,0.0013292928657701463,0.0004769241665473808
1589988612.1982558,-0.09,-4.488767490401217,8.805069961604865,0.4566666666666666,0.4722222222222222,-0.7033333333333334,-0.0027347085834591106,0.00013444594100756437,0.0009563848414888916
1589988612.2082558,-0.09649207708031238,-4.515968308321249,8.680158458393752,0.4566666666666666,0.4722222222222222,-0.7033333333333334,-0.00610519535610715,-0.0014163515043088908,0.001090830782496456
1589988612.2182558,-0.1,-4.538506400031125,8.669544800217873,0.4566666666666666,0.4722222222222222,-0.7033333333333334,-0.002996293976385335,0.0006020513356610022,0.001090830782496456
1589988612.2282557,-0.1,-4.52307316423082,8.691284557179452,0.4566666666666666,0.4722222222222222,-0.7033333333333334,0.00028024690264483306,0.0017063078994058922,0.001090830782496456
1589988612.2382557,-0.0899867973594719,-4.504993398679736,8.720026405281056,0.4527726434175724,0.462765308617279,-0.6961015758707297,0.0054584744664917684,0.002181661564992912,-1.4401846698292465e-06
1589988612.2482557,-0.09231457292733392,-4.487685427072666,8.746157286463667,0.4488888888888889,0.4533333333333333,-0.6888888888888889,0.005368367454363318,0.0008383500427495804,0.00025248073974687554
1589988612.2582557,-0.09215061646117961,-4.4956987670776405,8.687204931689436,0.4488888888888889,0.4533333333333333,-0.6888888888888889,-0.0035773870027236325,-0.0008562349187766251,0.001090830782496456
1589988612.2682557,-0.09,-4.514496844427197,8.662751577786402,0.4488888888888889,0.4533333333333333,-0.6888888888888889,-0.00545415391248228,0.0012812098400408736,0.001090830782496456
1589988612.2782557,-0.09,-4.514762412847918,8.707138284368733,0.4488888888888889,0.4533333333333333,-0.6888888888888889,-0.003740157525032735,0.0010389973066932156,0.001662162911646304
1589988612.2882557,-0.10989960337134358,-4.500050198314328,8.75,0.44225568776510765,0.4555444003745937,-0.6927582562110945,-1.09515732997288e-05,0.0010853549958465916,0.002181661564992912
1589988612.2982557,-0.10486549859962223,-4.473243665733081,8.775134501400377,0.4355555555555555,0.4577777777777778,-0.6966666666666667,0.0012677453039851667,-0.0005600872180303237,0.0012677453039851667
1589988612.3082557,-0.1,-4.49201882409007,8.713943527729791,0.4355555555555555,0.4577777777777778,-0.6966666666666667,-0.0021116773657465495,-0.0018914578195572073,0.001090830782496456
1589988612.3182557,-0.10879227499537979,-4.517584549990759,8.698792274995379,0.4355555555555555,0.4577777777777778,-0.6966666666666667,-0.006149757611429613,-0.001222573143679497,0.001090830782496456
1589988612.3282557,-0.1029706045479756,-4.534058790904049,8.7,0.4355555555555555,0.4577777777777778,-0.6966666666666667,-0.0019442561301334501,-0.001090830782496456,0.001090830782496456
1589988612.3382556,-0.09388716955278886,-4.521661508658367,8.736676982683266,0.4559316570462593,0.4591361845438247,-0.6837618023892209,0.0033340318099997395,-0.000424024420496508,0.001090830782496456
1589988612.3482556,-0.0981692894458511,-4.51,8.776338578891702,0.4688888888888889,0.46,-0.6755555555555556,0.007236416392213838,0.0008911312398657788,0.001090830782496456
1589988612.3582556,-0.11171368067118216,-4.504143159664409,8.727288436979679,0.4688888888888889,0.46,-0.6755555555555556,0.0057191689596063034,-0.0008258157353724324,-0.00018693356274946944
1589988612.3682556,-0.10743171924958589,-4.518852421125621,8.69,0.4688888888888889,0.46,-0.6755555555555556,-0.0018061172565383941,-0.0001251814361515058,-0.00040533740621598725
1589988612.3782556,-0.1,-4.52506983773222,8.69986032453556,0.4688888888888889,0.46,-0.6755555555555556,-0.004916356636042583,-0.0005225610468226319,-0.0005377972764396959
1589988612.3882556,-0.09656732848437193,-4.513134656968743,8.713432671515628,0.45973509818054736,0.45580451259201016,-0.6828023065329926,-0.003614430378896651,-0.002181661564992912,-0.001090830782496456
1589988612.3982556,-0.1009868535608567,-4.5,8.75296056068257,0.44222222222222224,0.4477777777777778,-0.6966666666666667,0.0008145379517479089,-0.002780901468341076,0.0007068889275480363
1589988612.4082556,-0.09608120064226497,-4.5,8.703446603532457,0.44222222222222224,0.4477777777777778,-0.6966666666666667,0.0017541868680084403,-0.0047907978269702955,0.002181661564992912
1589988612.4182556,-0.09792430858806406,-4.484151382823872,8.685848617176127,0.44222222222222224,0.4477777777777778,-0.6966666666666667,-0.0006379851650758022,-0.0011321140435516346,0.0004528456174206538
1589988612.4282556,-0.1,-4.520817066710135,8.69,0.44222222222222224,0.4477777777777778,-0.6966666666666667,-0.0018329059961402308,0.0,0.0
1589988612.4382555,-0.09282124203560392,-4.5256424840712075,8.72589378982198,0.44700806086515293,0.4549565357421739,-0.7078336235001716,-0.000615499531461945,0.0,0.0
1589988612.4482555,-0.08186197313571097,-4.51186197313571,8.756276053728579,0.4488888888888889,0.4577777777777778,-0.7122222222222222,0.005326326127409744,0.0008877210212349574,0.0008877210212349574
1589988612.4582555,-0.10162025789572043,-4.4955864947361865,8.71675948420856,0.4488888888888889,0.4577777777777778,-0.7122222222222222,0.004972715172434476,0.001090830782496456,0.001090830782496456
1589988612.4682555,-0.1173736380341106,-4.4973736380341105,8.714747276068222,0.4488888888888889,0.4577777777777778,-0.7122222222222222,-0.00046271167797088276,0.001895169917155907,0.000286491647837005
1589988612.4782555,-0.10034838683093658,-4.5,8.726550537723021,0.4488888888888889,0.4577777777777778,-0.7122222222222222,-0.005039872841063192,-0.0006765497110773682,0.00142910563803514
1589988612.4882555,-0.09769677163189884,-4.5,8.745393543263798,0.44375770780095636,0.4543569903858227,-0.6840007262385931,-0.00318663452621044,-0.0005024864806087641,0.0005024864806087641
1589988612.4982555,-0.09292110786452118,-4.4858422157290425,8.714605539322605,0.44222222222222224,0.4533333333333333,-0.6755555555555556,0.0009070878139480387,0.0007721873447352377,0.0007721873447352377
1589988612.5082555,-0.09476809925592425,-4.484768099255924,8.680927602976302,0.44222222222222224,0.4533333333333333,-0.6755555555555556,0.002181661564992912,-0.00046952605021173066,0.001090830782496456
1589988612.5182555,-0.0958700337667936,-4.494129966233206,8.676519864932825,0.44222222222222224,0.4533333333333333,-0.6755555555555556,0.0008301332756371657,-0.0012806427054224145,0.0006403213527112073
1589988612.5282555,-0.09,-4.5084937960321145,8.708493796032114,0.44222222222222224,0.4533333333333333,-0.6755555555555556,-0.0015540954911003023,-0.00046326470860384624,0.0
1589988612.5382555,-0.09,-4.522802501061407,8.725605002122816,0.43879694314716894,0.4552016673742715,-0.6792922236374319,-0.002487367007569112,-0.001090830782496456,0.0
1589988612.5482554,-0.09467564529725823,-4.520648709405483,8.735324354702742,0.43,0.46,-0.6888888888888889,-0.0012323572201757365,-0.0016008645643248638,0.0
1589988612.5582554,-0.10605808150273117,-4.503941918497269,8.693651510983614,0.43,0.46,-0.6888888888888889,0.0030733333183119195,-0.00019915902917744862,0.0006608341786051544
1589988612.5682554,-0.10245900089796305,-4.492459000897963,8.715245994612221,0.43,0.46,-0.6888888888888889,0.003540727734857819,0.001090830782496456,0.0019134261776244607
1589988612.5782554,-0.09396247726620083,-4.502075045467598,8.7420750454676,0.43,0.46,-0.6888888888888889,-2.0465476535781214e-05,-0.00022635234711360368,0.002181661564992912
1589988612.5882554,-0.09450669268789377,-4.51,8.745493307312106,0.4420178471677167,0.462503718159941,-0.6888888888888889,-0.0031648693872341543,-0.0005992268713758347,0.0011984537427516693
1589988612.5982554,-0.09415239414036877,-4.51,8.74,0.4566666666666666,0.4655555555555556,-0.6888888888888889,-0.0024496985873081077,-0.0006378748475592387,0.0
1589988612.6082554,-0.09,-4.51,8.678610866889397,0.4566666666666666,0.4655555555555556,-0.6888888888888889,0.0014203625715467304,0.0005832981201990017,0.0016741289026954577
1589988612.6182554,-0.09,-4.494367541195322,8.691264917609356,0.4566666666666666,0.4655555555555556,-0.6888888888888889,0.0013290432014803877,0.001090830782496456,0.00047642483796786353
1589988612.6282554,-0.10781969587255612,-4.501879797248371,8.71187979724837,0.4566666666666666,0.4655555555555556,-0.6888888888888889,0.0004428883560794807,-0.0015009389231714452,0.0006479424264169753
1589988612.6382554,-0.10718983851910201,-4.516405080740449,8.726405080740449,0.44314482954794093,0.45416874535031293,-0.6981406721806486,-0.0006986859236056957,0.0002209372705391107,0.00039214485889076025
1589988612.6482553,-0.09259091017763646,-4.512590910177636,8.715181820355273,0.4355555555555555,0.4477777777777778,-0.7033333333333334,-0.002707243432199527,-0.00024295740956169426,0.0008082063248515353
