time,acc_x,acc_y,acc_z,mag_x,mag_y,mag_z,gyr_x,gyr_y,gyr_z
1589988646.4876904,-3.8,-0.81,9.05,0.3388888888888889,-0.33555555555555555,-0.6088888888888889,-0.00545415391248228,-0.003272492347489368,0.0
1589988646.4976904,-3.817442942978602,-0.8302282280855914,9.039543543828817,0.3533333333333333,-0.33,-0.6322222222222222,-0.010350444522656661,-0.0008367949534618479,0.0021567657428735714
1589988646.5076904,-3.81,-0.85169000470244,8.94953001724228,0.3533333333333333,-0.33,-0.6322222222222222,-0.007820166392673729,-0.003272492347489368,-0.0016951506940284025
1589988646.5176904,-3.807593117408907,-0.8275931174089068,8.872406882591093,0.3533333333333333,-0.33,-0.6322222222222222,-0.004403953264394599,-0.002222291699401687,-0.002484841861423607
1589988646.5276904,-3.800517712550607,-0.8205177125506072,8.879482287449393,0.3533333333333333,-0.33,-0.6322222222222222,-0.0013167254971713296,0.0008649360678215819,-0.00016942103600615498
1589988646.5376904,-3.819526332973353,-0.8395263329733531,8.919052665946706,0.3533333333333333,-0.33,-0.6322222222222222,0.0010391617251644541,-0.0031691542328253644,0.0031949887614913654
1589988646.5476904,-3.8199023849908267,-0.8299023849908269,8.960097615009174,0.3322222222222222,-0.3377777777777778,-0.6044444444444445,0.004363323129985824,-0.0011014789281804187,0.0011014789281804187
1589988646.5576904,-3.81,-0.82,8.953702001808717,0.3322222222222222,-0.3377777777777778,-0.6044444444444445,0.0040077559675833424,-0.00182609440259043,0.002181661564992912
1589988646.5676904,-3.8131474705869466,-0.8168525294130534,8.957769647043358,0.3322222222222222,-0.3377777777777778,-0.6044444444444445,0.0022424850065163324,-0.0007474950021721107,0.0018383257846685667
1589988646.5776904,-3.82620032166179,-0.8141335477745267,9.044133547774527,0.3322222222222222,-0.3377777777777778,-0.6044444444444445,-0.0006763501730060185,0.0,0.0008653807248277831
1589988646.5876904,-3.8490201207735373,-0.8297550301933843,9.060244969806616,0.3320861278852135,-0.3377777777777778,-0.6045533199140514,-0.0034061026504086465,-0.00010688824233542271,5.3444121167711354e-05
1589988646.5976903,-3.81,-0.82,9.069556491898702,0.32666666666666666,-0.3377777777777778,-0.6088888888888889,-0.008726646259971648,-0.004363323129985824,0.0022300407939112423
1589988646.6076903,-3.81,-0.82,9.060446765996264,0.32666666666666666,-0.3377777777777778,-0.6088888888888889,-0.008726646259971648,-0.004363323129985824,0.0032237577373595908
1589988646.6176903,-3.8172908402946604,-0.8345816805893213,8.93605571499077,0.32666666666666666,-0.3377777777777778,-0.6088888888888889,-0.007136031655235374,-0.003568015827617688,0.0016818777427530947
1589988646.6276903,-3.81,-0.8100770284149265,8.900308113659706,0.32666666666666666,-0.3377777777777778,-0.6088888888888889,-0.0021648565717671876,0.00323888236103792,0.0021480515785414636
1589988646.6376903,-3.81,-0.8172565902088326,8.92902636083533,0.32666666666666666,-0.3377777777777778,-0.6088888888888889,-0.0005985191698415165,0.00010620755718657735,-0.0009846232253098788
1589988646.6476903,-3.82,-0.8203612209046991,8.998555116381203,0.3322222222222222,-0.34444444444444444,-0.5966666666666667,0.0012090400471345766,-0.002142258476780205,0.00011820926463812056
1589988646.6576903,-3.8184964873257425,-0.8269929746514855,8.950978923954457,0.3322222222222222,-0.34444444444444444,-0.5966666666666667,0.004199315339290484,-0.0014188463638871362,0.002616461184708008
1589988646.6676903,-3.81,-0.8108281211524255,8.905796848066979,0.3322222222222222,-0.34444444444444444,-0.5966666666666667,0.0030918243385489306,-0.003272492347489368,-0.001090830782496456
1589988646.6776903,-3.81,-0.82,8.975007143923401,0.3322222222222222,-0.34444444444444444,-0.5966666666666667,0.00043539717561226986,-0.003381731281970066,-0.0007631139790543628
1589988646.6876903,-3.81,-0.82,9.019729170665132,0.3322222222222222,-0.34444444444444444,-0.5966666666666667,-0.005418702435448936,-0.004357414550480267,0.0021639358264762404
1589988646.6976902,-3.8194201785109025,-0.8294201785109027,9.067100892554514,0.33850234122949074,-0.3308375199286961,-0.6081802181799922,-0.006481735982112711,-0.0023081589907249607,0.003209243634623344
1589988646.7076902,-3.8172552545539467,-0.8354894908921064,8.999807800093414,0.3388888888888889,-0.33,-0.6088888888888889,-0.005347363565909997,-0.0004920202179620867,0.002673681782954999
1589988646.7176902,-3.817259216410439,-0.8427407835895611,8.92,0.3388888888888889,-0.33,-0.6088888888888889,-0.001917709007749237,0.001090830782496456,0.0016187358969838059
1589988646.7276902,-3.8370667908709826,-0.8214666045645086,8.922933209129017,0.3388888888888889,-0.33,-0.6088888888888889,-0.0009308490420248752,0.0009308490420248752,0.002792547126074626
1589988646.7376902,-3.8214382859804377,-0.829280857009781,8.938561714019562,0.3388888888888889,-0.33,-0.6088888888888889,-7.844633107473363e-05,7.844633107473363e-05,0.00023533899322420067
1589988646.7476902,-3.81,-0.806836475567526,8.96,0.3388888888888889,-0.3422222222222222,-0.6177777777777778,0.0019952256151718555,0.0016223537155297427,0.0016223537155297427
1589988646.7576902,-3.81,-0.8353348203462153,8.946004461038648,0.3388888888888889,-0.3422222222222222,-0.6177777777777778,0.0005819386252740149,-0.001090830782496456,-0.001090830782496456
1589988646.7676902,-3.8141238184688557,-0.8220619092344277,8.912371455406568,0.3388888888888889,-0.3422222222222222,-0.6177777777777778,-0.0006409919697709536,-0.0019905084079474607,-0.001090830782496456
1589988646.7776902,-3.829344339761954,-0.83,8.96196698071414,0.3388888888888889,-0.3422222222222222,-0.6177777777777778,0.000983548626918524,-0.00545415391248228,-0.0010193093454445013
1589988646.7876902,-3.816956791399628,-0.83,8.999129625801116,0.3388888888888889,-0.3422222222222222,-0.6177777777777778,-0.0010433592340748094,-0.00545415391248228,0.00033196256188438764
1589988646.7976902,-3.81,-0.83,9.05676717587779,0.3388888888888889,-0.33323469034098485,-0.6079731975437006,-0.001379526220333837,-0.0030477478785050542,0.001090830782496456
1589988646.8076901,-3.81,-0.8202831873956716,9.02660175125194,0.3388888888888889,-0.33,-0.6044444444444445,-0.001090830782496456,0.0,0.0020889887064688183
1589988646.8176901,-3.81,-0.8314668072712664,8.915867229085066,0.3388888888888889,-0.33,-0.6044444444444445,-0.0009308269301477491,0.0003200077046974137,-0.0007708230777990423
1589988646.8276901,-3.81,-0.8384874962338054,8.943949984935221,0.3388888888888889,-0.33,-0.6044444444444445,-0.00016498856668069317,0.0018516844316315256,0.0007608536491350696
1589988646.83769,-3.81903244400527,-0.8129026679841898,8.931935111989459,0.3388888888888889,-0.33,-0.6044444444444445,0.0029558603886372594,0.00021108797256807208,0.00010554398628403604
1589988646.84769,-3.811931534180405,-0.7938630683608107,8.946136931639188,0.3451643623041292,-0.33986145822394903,-0.6098234216575076,0.0015122261707824962,0.0,-0.0008801330883534359
1589988646.85769,-3.802656328630272,-0.8026563286302724,8.955390192533503,0.3466666666666667,-0.3422222222222222,-0.6111111111111112,-0.0006561900267473043,-0.004363323129985824,-0.000945950530580072
1589988646.86769,-3.8182912418690473,-0.8182912418690473,8.869398169720238,0.3466666666666667,-0.3422222222222222,-0.6111111111111112,0.0019020666696302807,-0.004363323129985824,-9.319829845421041e-05
1589988646.87769,-3.8114938654953043,-0.8229877309906088,8.984481596485914,0.3466666666666667,-0.3422222222222222,-0.6111111111111112,-0.0012537862292151972,0.0,0.00016295544671874124
1589988646.88769,-3.819435209027567,-0.8388704180551347,9.008305627082702,0.3466666666666667,-0.3422222222222222,-0.6111111111111112,-0.0021200524271523533,0.0,0.0010292216446558975
1589988646.89769,-3.82,-0.83,9.083985009147261,0.32,-0.3233333333333333,-0.6111111111111112,0.002485131886057227,-0.0009596040389244324,0.0
1589988646.90769,-3.82,-0.83,9.04673611481146,0.32,-0.3233333333333333,-0.6111111111111112,-0.002390736980596884,-0.00014695922781541389,0.0
1589988646.91769,-3.8091064617071333,-0.8282129234142664,8.92,0.32,-0.3233333333333333,-0.6111111111111112,-0.006155105064899373,-0.0002924097225595214,-9.746990751984047e-05
1589988646.92769,-3.800289272912395,-0.8105785458247905,8.920867818737186,0.32,-0.3233333333333333,-0.6111111111111112,-0.0021501067852546015,-0.0032409375677510577,-0.0009961664432815245
1589988646.93769,-3.8061393084787367,-0.8222786169574738,8.93841792543621,0.32,-0.3233333333333333,-0.6111111111111112,-0.0015119668978081412,-0.0026027976803045974,0.0009182532190578562
1589988646.94769,-3.8044710625266505,-0.83,8.95552893747335,0.32,-0.3337768818941048,-0.6147970694266776,-0.00048771726345366213,-0.0015785480459501182,0.0009754345269073243
1589988646.95769,-3.8101022122081116,-0.8202044244162228,8.97918230233511,0.32,-0.3422222222222222,-0.6177777777777778,0.0,-0.0010573819156099915,0.001090830782496456
1589988646.96769,-3.81869356820975,-0.8373871364195001,8.910451454321999,0.32,-0.3422222222222222,-0.6177777777777778,0.0,0.0017541327613819497,0.001090830782496456
1589988646.97769,-3.82,-0.8258969783487984,8.98461812990721,0.32,-0.3422222222222222,-0.6177777777777778,-0.0007692005071672308,0.002181661564992912,0.001090830782496456
1589988646.98769,-3.82,-0.82,9.051690029557227,0.32,-0.3422222222222222,-0.6177777777777778,-0.0019550422759775964,0.0047742960454363334,0.001090830782496456
1589988646.99769,-3.82,-0.8123397893903753,9.082980631828875,0.34042722829233263,-0.3328597425882365,-0.6237357193630414,-0.002181661564992912,0.0037829552058053608,0.006940026255865673
1589988647.00769,-3.828239790250189,-0.83,9.032959161000754,0.3466666666666667,-0.33,-0.6255555555555555,-0.002984478700677712,9.600454893721864e-05,0.01238315680320989
1589988647.01769,-3.809265845034439,-0.83,8.96036707748278,0.3466666666666667,-0.33,-0.6255555555555555,6.006291266673723e-05,0.0010307678698297188,0.01638248270833575
1589988647.02769,-3.7749755758579107,-0.83,8.977512212071044,0.3466666666666667,-0.33,-0.6255555555555555,0.0028654289995052222,-0.0017745982170087663,0.017317604737281913
1589988647.03769,-3.7896878560349205,-0.8103121439650794,8.95046821594762,0.34283847243765436,-0.33,-0.6217273613265432,0.0021986863772768678,0.0015766593307508388,0.008862844758243294
1589988647.04769,-3.804439825633651,-0.7866638953801905,8.91777593025346,0.3388888888888889,-0.33,-0.6177777777777778,0.001454743343788135,0.00545415391248228,0.0
1589988647.05769,-3.757082966871885,-0.7594165933743771,8.894165933743771,0.3388888888888889,-0.33,-0.6177777777777778,0.003917844595826468,0.006026912027830023,0.0
1589988647.06769,-3.6993006332629705,-0.7506293745139428,8.80188812354183,0.3388888888888889,-0.33,-0.6177777777777778,-0.0042336498784280845,0.017811833001002707,0.00034327054676382753
1589988647.07769,-3.5672725252749693,-0.7583957338073547,8.825187201422064,0.3388888888888889,-0.33,-0.6177777777777778,-0.01609414717768157,0.04915743300617264,0.00457916243935436
1589988647.0876899,-3.457942191780822,-0.8055876712328768,8.866470136986301,0.3388888888888889,-0.33,-0.6177777777777778,-0.0523594591589818,0.12425761032206635,0.024350959244079307
1589988647.0976899,-3.2467471945530195,-0.894882612533098,8.985110578741647,0.3466666666666667,-0.3233333333333333,-0.6255555555555555,-0.1095388587372306,0.23523752758223584,0.07460666372486882
1589988647.1076899,-2.9727220444320763,-0.9623440471221186,9.288355363851398,0.3466666666666667,-0.3233333333333333,-0.6255555555555555,-0.1614347091874474,0.31142290462885996,0.1487633444027669
1589988647.1176898,-2.193064254595894,-0.9724297184832086,9.046214859241605,0.3466666666666667,-0.3233333333333333,-0.6255555555555555,-0.1697126793584559,0.24337091766365845,0.23158249925424235
1589988647.1276898,-1.6850317463418447,-0.8904889913454588,9.005244495672729,0.3466666666666667,-0.3233333333333333,-0.6255555555555555,-0.08211688120649573,-0.0033274526418621275,0.29415092650564256
1589988647.1376898,-1.6719172896754044,-0.9146115264502698,8.671190498722437,0.3466666666666667,-0.3233333333333333,-0.6255555555555555,0.03197924199884909,0.005680382327343733,0.33802767930860556
1589988647.1476898,-1.810400015944831,-0.7996631654475514,8.657242142188029,0.32666666666666666,-0.33,-0.6044444444444445,0.0354347703792119,0.02514880985556401,0.32588052725523936
1589988647.1576898,-1.9692338508759692,-0.8749002451517749,9.025067865186456,0.32666666666666666,-0.33,-0.6044444444444445,-0.028398169363626262,-0.04233172644400778,0.30673064533238786
1589988647.1676898,-2.061065166135008,-0.8593342711656199,9.05866854233124,0.32666666666666666,-0.33,-0.6044444444444445,-0.04722678507418648,-0.042193825714799855,0.28786313497821037
1589988647.1776898,-2.127547700659785,-0.8177826870876346,8.97556537417527,0.32666666666666666,-0.33,-0.6044444444444445,0.0008185067179949518,-0.020437467167396944,0.2806110154624094
1589988647.1876898,-2.229969526825991,-0.8018209521067281,9.164476197331798,0.32666666666666666,-0.33,-0.6044444444444445,0.012494064206516239,-0.002979525917206162,0.26140876589210515
1589988647.1976898,-2.2521745454545457,-0.8392751515151515,9.313476363636363,0.32,-0.3377777777777778,-0.6044444444444445,-0.008805714963963512,-0.023365727582987116,0.21922472513500832
1589988647.2076898,-2.27011807486631,-0.8332939750445633,9.25964577540107,0.32,-0.3377777777777778,-0.6044444444444445,-0.00945816010492963,-0.018146166455258194,0.20095626118795712
1589988647.2176898,-2.287448810182623,-0.8448976203652463,9.006535694521306,0.32,-0.3377777777777778,-0.6044444444444445,0.0023706101177994356,-0.004708622082718515,0.16733175176036252
1589988647.2276897,-2.327462525862433,-0.812537474137567,8.8176124224127,0.32,-0.3377777777777778,-0.6044444444444445,0.004910373638946277,0.0054476134416333805,0.12902098970788206
1589988647.2376897,-2.34,-0.7911186600892093,8.717830620624465,0.32,-0.3377777777777778,-0.6044444444444445,-0.005324715834519077,-0.00011461569412872866,0.07821079164119311
1589988647.2476897,-2.362221246915923,-0.7985191687227178,8.748144572025053,0.32666666666666666,-0.3422222222222222,-0.6044444444444445,-0.009655943408373807,-0.0031917255304422187,0.02270696564688752
1589988647.2576897,-2.39157592813075,-0.7805253093769168,8.848949381246166,0.32666666666666666,-0.3422222222222222,-0.6044444444444445,-0.007234698930402858,-0.001952452109523007,-0.023247088877601615
1589988647.2676897,-2.4142748132914815,-0.788091604430494,8.833816791139013,0.32666666666666666,-0.3422222222222222,-0.6044444444444445,-0.0014572156426779607,0.0013489669120340772,-0.05956269811472954
1589988647.2776897,-2.3726985722903677,-0.7821164287150614,8.908835712849386,0.32666666666666666,-0.3422222222222222,-0.6044444444444445,0.008599642233616239,0.007341446905162656,-0.10914065779527304
1589988647.2876897,-2.4053442445556605,-0.7724426259073899,9.01313111501871,0.32666666666666666,-0.3422222222222222,-0.6044444444444445,0.013381452713482662,0.008726646259971648,-0.15791294103188777
1589988647.2976897,-2.459789140433666,-0.8004217191326684,9.197891404336659,0.3388888888888889,-0.3555555555555556,-0.5966666666666667,0.012045141028609244,0.009978485516486906,-0.22704403734776854
1589988647.3076897,-2.4514377874678934,-0.8171244250642136,9.114377874678931,0.3388888888888889,-0.3555555555555556,-0.5966666666666667,0.013867123606720818,0.01635542453987742,-0.27623756695678114
1589988647.3176897,-2.497115175857577,-0.8105769648284846,8.968077507598785,0.3388888888888889,-0.3555555555555556,-0.5966666666666667,0.01829237490430824,0.02464854830068834,-0.3381573057456811
1589988647.3276896,-2.4842043042745217,-0.8178978478627392,8.833634434196172,0.3388888888888889,-0.3555555555555556,-0.5966666666666667,0.015098037076779815,0.031119758892323372,-0.3879521989677998
1589988647.3376896,-2.48,-0.8308661362730313,8.783700795590454,0.3388888888888889,-0.3555555555555556,-0.5966666666666667,0.011810176985769135,0.03687351405159207,-0.42996768700975924
1589988647.3476896,-2.4737404672071928,-0.865038131171229,8.782519065585614,0.34375741439440566,-0.3444274972572316,-0.6043172067467645,0.006403431515248021,0.04036073895236887,-0.49243093710044306
1589988647.3576896,-2.47,-0.8411333717213033,8.809433314139348,0.3466666666666667,-0.3377777777777778,-0.6088888888888889,0.005776553614594142,0.03824089322545639,-0.5509095066958393
1589988647.3676896,-2.5591402169546003,-0.8605182804339092,8.844310968260345,0.3466666666666667,-0.3377777777777778,-0.6088888888888889,0.01361675870315986,0.03797221835590214,-0.6129351432947332
1589988647.3776896,-2.6048746121805313,-0.87,8.912186530451327,0.3466666666666667,-0.3377777777777778,-0.6088888888888889,0.01798503022186884,0.040892476654294414,-0.6547468181917682
1589988647.3876896,-2.62,-0.8761103257529195,8.992772280270437,0.3466666666666667,-0.3377777777777778,-0.6088888888888889,0.025633752365065078,0.048541198797490644,-0.7034608818412175
1589988647.3976896,-2.6021725764723787,-0.9245685588190534,9.073482270582865,0.3704365647034952,-0.3417394274505825,-0.6237450751619067,0.0333417715987105,0.05138754244200334,-0.7726914041396343
1589988647.4076896,-2.563509806252229,-0.9664901937477712,9.043509806252228,0.37333333333333335,-0.3422222222222222,-0.6255555555555555,0.036801101252339784,0.0562446251022495,-0.8236333836267143
1589988647.4176896,-2.577740880736498,-0.97,8.96903647705401,0.37333333333333335,-0.3422222222222222,-0.6255555555555555,0.029347327078491366,0.05382035586742014,-0.885997460362721
1589988647.4276896,-2.588792334693103,-0.9963770040793094,8.951207665306896,0.37333333333333335,-0.3422222222222222,-0.6255555555555555,0.022607030744958803,0.062082562742249915,-0.9480588220641133
1589988647.4376895,-2.619339384168309,-1.0,8.861981847495073,0.37333333333333335,-0.3422222222222222,-0.6255555555555555,0.025817153573714165,0.07126926123236454,-0.9955731447047459
1589988647.4476895,-2.655550782997763,-1.008516927665921,8.855550782997762,0.38942086336896187,-0.33843692103736844,-0.6312335073328362,0.022625506127270264,0.07789270395787191,-1.0574909916301578
1589988647.4576895,-2.6514699367818744,-1.0270601264362513,8.842939873563749,0.3922222222222223,-0.3377777777777778,-0.6322222222222222,0.019955644542934685,0.07481787412575595,-1.1094744955134068
1589988647.4676895,-2.666398672321593,-1.0791960169647796,8.782604646874423,0.3922222222222223,-0.3377777777777778,-0.6322222222222222,0.027684633537146133,0.07596531086580566,-1.1518926655692805
1589988647.4776895,-2.683370286945451,-1.1301108608363528,8.850221721672707,0.3922222222222223,-0.3377777777777778,-0.6322222222222222,0.03674479141285854,0.08073357094602446,-1.1887225629355496
1589988647.4876895,-2.709233548585486,-1.1564111828618286,8.934878280032802,0.3922222222222223,-0.3377777777777778,-0.6322222222222222,0.045256199884896334,0.08220378790794101,-1.227663657756228
1589988647.4976895,-2.7387557902745767,-1.1787557902745764,9.010015440732204,0.40819937690056524,-0.3162433519069677,-0.6502833535977404,0.05004249376799963,0.08317626824600458,-1.2652347227594485
1589988647.5076895,-2.7636775244299674,-1.2310325732899023,9.008085776330075,0.4177777777777778,-0.3033333333333333,-0.6611111111111111,0.05276103324498901,0.08797260083264198,-1.2924750572546913
1589988647.5176895,-2.775542837842909,-1.2889143243141818,8.938799864900364,0.4177777777777778,-0.3033333333333333,-0.6611111111111111,0.05356913718811619,0.09223441554384545,-1.31957493145373
1589988647.5276895,-2.792685757221573,-1.3226857572215729,8.91701431791618,0.4177777777777778,-0.3033333333333333,-0.6611111111111111,0.04741061309952329,0.09348575990231728,-1.350171156489162
1589988647.5376894,-2.774272957034541,-1.34,8.92404549283909,0.4177777777777778,-0.3033333333333333,-0.6611111111111111,0.039086479505856996,0.09620135001833488,-1.374788830778934
1589988647.5476894,-2.7233185840707965,-1.393362831858407,8.875530973451326,0.4365535889872173,-0.27961651917404134,-0.6611111111111111,0.034057088501305274,0.09708393964218458,-1.3977258871135891
1589988647.5576894,-2.7290795087570423,-1.4,8.82460245621479,0.4388888888888889,-0.2766666666666667,-0.6611111111111111,0.03480617502160291,0.09510309811375903,-1.412411363877719
1589988647.5676894,-2.755522578336427,-1.4,8.760447317215004,0.4388888888888889,-0.2766666666666667,-0.6611111111111111,0.03490658503988659,0.09675833235039513,-1.4276371011644329
1589988647.5776894,-2.7763230359828763,-1.5060997338886961,8.831615179914381,0.4388888888888889,-0.2766666666666667,-0.6611111111111111,0.03757743555697441,0.09619365613648864,-1.440762557921205
1589988647.5876894,-2.739091948260303,-1.53,8.856818008623282,0.4388888888888889,-0.2766666666666667,-0.6611111111111111,0.05007874727794113,0.09748056759600877,-1.4506064189244146
1589988647.5976894,-2.7119597927972374,-1.5541206216082881,8.900201036013813,0.48176999397028997,-0.2570128268376912,-0.6825516636518116,0.06264877431885787,0.10606822538766202,-1.4637249891336415
1589988647.6076894,-2.7319758753422123,-1.6405782095881105,8.983252917807373,0.4922222222222222,-0.25222222222222224,-0.6877777777777778,0.05317210089601572,0.10239878983151154,-1.48125881382911
1589988647.6176894,-2.703645610950647,-1.691812633429612,8.871853321612457,0.4922222222222222,-0.25222222222222224,-0.6877777777777778,0.049880514945418244,0.10352895092198487,-1.5010786917380685
1589988647.6276894,-2.714542062348226,-1.7429486091093958,8.844542062348227,0.4922222222222222,-0.25222222222222224,-0.6877777777777778,0.05486318248303062,0.10940472160785342,-1.5178150863846473
1589988647.6376894,-2.735205967231428,-1.775205967231428,8.891235803388568,0.4922222222222222,-0.25222222222222224,-0.6877777777777778,0.05213520216360261,0.111787687666264,-1.5386106242709483
1589988647.6476893,-2.6872514041788365,-1.8135672882498315,8.891228038643002,0.49488629271824064,-0.22717995955964954,-0.702163758456277,0.04219792247919575,0.10969547275858789,-1.566330954251783
1589988647.6576893,-2.6364891484655795,-1.8694674453967375,8.821065109206526,0.4977777777777778,-0.2,-0.7177777777777777,0.039211815474412534,0.11011581633668217,-1.5983683037789331
1589988647.6676893,-2.620621481556752,-1.8929190122954984,8.741864444670258,0.4977777777777778,-0.2,-0.7177777777777777,0.04176998458150686,0.11901559077489744,-1.6230000673523668
1589988647.6776893,-2.593109825395185,-1.9126676309536108,8.731112718256018,0.4977777777777778,-0.2,-0.7177777777777777,0.04484544081494573,0.12096083812451558,-1.6447798762811685
1589988647.6876893,-2.5600525567059194,-1.9631581443136015,8.793158144313601,0.4977777777777778,-0.2,-0.7177777777777777,0.04944335141015351,0.12106501771531353,-1.6725536913867651
1589988647.6976893,-2.54,-2.0588756850302854,8.898500913373713,0.5079377410291745,-0.18128427822111123,-0.724729331581365,0.05708465047433602,0.1334019240031484,-1.7223679614580933
1589988647.7076893,-2.524056674123788,-2.1006288839174743,8.908113348247577,0.5188888888888888,-0.16111111111111112,-0.7322222222222222,0.062177354602297986,0.13962634015954636,-1.7540558982543013
1589988647.7176893,-2.503041583966694,-2.1587089122331413,8.824332671733554,0.5188888888888888,-0.16111111111111112,-0.7322222222222222,0.06369544548360738,0.14190347648151044,-1.7737910797113232
1589988647.7276893,-2.5073239261050584,-2.2385914088404677,8.887887113260701,0.5188888888888888,-0.16111111111111112,-0.7322222222222222,0.05477201931433833,0.14289883250703572,-1.8279557336507335
1589988647.7376893,-2.4652109644087257,-2.279195300967689,8.888007831720518,0.5188888888888888,-0.16111111111111112,-0.7322222222222222,0.05266496845565603,0.14289883250703572,-1.8620438741805396
1589988647.7476892,-2.44,-2.281866261803864,8.804930094430912,0.5342526165927014,-0.12947990701502665,-0.7566234368106303,0.039254657140546566,0.1473350985075919,-1.894046952766699
1589988647.7576892,-2.410691629174528,-2.3444784158160386,8.795861674165094,0.5377777777777778,-0.12222222222222222,-0.7622222222222222,0.03663682528400796,0.1451559391113934,-1.913203400482078
1589988647.7676892,-2.3790014862856372,-2.411997027428726,8.739508174571004,0.5377777777777778,-0.12222222222222222,-0.7622222222222222,0.043087005265547755,0.1524968463641049,-1.9303331799340535
1589988647.7776892,-2.37,-2.43,8.69,0.5377777777777778,-0.12222222222222222,-0.7622222222222222,0.05033490104156878,0.15957267615640408,-1.9455780253781076
1589988647.7876892,-2.345253969219539,-2.498051584646268,8.727119046170692,0.5377777777777778,-0.12222222222222222,-0.7622222222222222,0.04991936017133684,0.16331035406247232,-1.959437257866141
1589988647.7976892,-2.3195005786117857,-2.560998842776429,8.755249710694107,0.551777006295397,-0.1327216436104367,-0.7773880531163098,0.05195065822450702,0.17038751575892772,-1.9691129976732133
1589988647.8076892,-2.3152596264583645,-2.58,8.754740373541635,0.5644444444444444,-0.14222222222222222,-0.7911111111111111,0.049951649168649234,0.17510666144395465,-1.9733695272426353
1589988647.8176892,-2.2911493128698965,-2.6377013742602067,8.726919450295918,0.5644444444444444,-0.14222222222222222,-0.7911111111111111,0.042038346750728234,0.17562375598192942,-1.9813273841944772
1589988647.8276892,-2.238317582250973,-2.6863364835498054,8.76702835194825,0.5644444444444444,-0.14222222222222222,-0.7911111111111111,0.037196298777199356,0.1749325528510384,-1.9877852611878284
1589988647.8376892,-2.208533288767261,-2.7301334893145874,8.81146671123274,0.5644444444444444,-0.14222222222222222,-0.7911111111111111,0.030994119187715052,0.17140586480276546,-1.9885845164910392
1589988647.8476892,-2.2077428756476682,-2.7522571243523317,8.758056994818654,0.5893937104202648,-0.1310380685089234,-0.7893904720782959,0.01966921917104442,0.16401107102603935,-1.9911183666214947
1589988647.8576891,-2.1702128229152726,-2.829574354169455,8.970765627091419,0.5966666666666667,-0.12777777777777774,-0.7888888888888889,0.018321314070196465,0.15558961418994657,-1.9901209657380226
1589988647.8676891,-2.135077344076622,-2.887383983885067,8.668621489111018,0.5966666666666667,-0.12777777777777774,-0.7888888888888889,0.038933923499531065,0.15244782031886087,-1.9801601071815595
1589988647.8776891,-2.1328624621829184,-2.9614498487316734,8.700818012566907,0.5966666666666667,-0.12777777777777774,-0.7888888888888889,0.035133661636335994,0.14811778634505143,-1.9722991008654116
1589988647.887689,-2.128244498583794,-2.9958777507081034,8.76358924079466,0.5966666666666667,-0.12777777777777774,-0.7888888888888889,0.04349134357136072,0.14553016171410119,-1.9570256348817696
1589988647.897689,-2.099036013095671,-3.0628919607129865,8.772891960712988,0.5399862576290368,-0.15262398447920456,-0.7803480053352734,0.04724737708631794,0.1427936778481192,-1.93493659356199
1589988647.907689,-2.085005501760563,-3.0908324163732392,8.8,0.5155555555555555,-0.16333333333333333,-0.7766666666666666,0.044087244001750056,0.14198960680529601,-1.9278636034286631
1589988647.917689,-2.009192691564713,-3.106935769478429,8.747981728911784,0.5155555555555555,-0.16333333333333333,-0.7766666666666666,0.04908738521234052,0.14285480066242673,-1.900297287738932
1589988647.927689,-1.9799289465554526,-3.134893419833179,8.70460920605499,0.5155555555555555,-0.16333333333333333,-0.7766666666666666,0.04692122510425055,0.13746793077990788,-1.8746740823689
1589988647.937689,-1.9701920483492332,-3.19753908396184,8.787731132311073,0.5155555555555555,-0.16333333333333333,-0.7766666666666666,0.04472406208235469,0.13157933143920114,-1.8510389874005864
1589988647.947689,-1.9347284705323757,-3.2647284705323756,8.83,0.5126269280735422,-0.11940392110313175,-0.7186798425228005,0.042998958098118205,0.12590209756784884,-1.8199449520429785
1589988647.957689,-1.8803372556507627,-3.26,8.817584313912691,0.51,-0.08,-0.6666666666666666,0.04822327601979034,0.12300036794761096,-1.786927977267364
1589988647.967689,-1.802248151994624,-3.2334711955525686,8.672050216873359,0.51,-0.08,-0.6666666666666666,0.048308496447857736,0.11464905414594052,-1.7569065591610669
1589988647.977689,-1.76,-3.2618513435621552,8.627777015343232,0.51,-0.08,-0.6666666666666666,0.04302723083221274,0.11251713080086101,-1.7194323429782807
1589988647.987689,-1.7445168045009412,-3.304838934833647,8.68451680450094,0.51,-0.08,-0.6666666666666666,0.046518433613400495,0.11559292397633518,-1.6770301030820556
1589988647.997689,-1.7978799158439878,-3.417247127366888,9.064937692183202,0.5161709014403625,-0.017605329880778987,-0.6447256837675999,0.052615328626713254,0.12800005065592618,-1.6273537579257602
1589988648.007689,-1.6075922634360822,-3.10265377239347,8.612776790308247,0.52,0.021111111111111112,-0.6311111111111111,0.1325789018357434,0.24851614150175488,-1.5467483782311389
1589988648.017689,-1.29275651126147,-2.8856891278153673,7.335615441653536,0.52,0.021111111111111112,-0.6311111111111111,0.1250760487372423,-0.0006047139595987683,-1.538391302161028
1589988648.027689,-1.6034578436509719,-3.4766828854455176,9.764204905556802,0.52,0.021111111111111112,-0.6311111111111111,-0.11663797350064772,0.02057714532596966,-1.5192786401693188
1589988648.037689,-1.5787634377190933,-3.429395740827296,9.923821862584715,0.52,0.021111111111111112,-0.6311111111111111,-0.06893639794945655,0.08610767795406059,-1.4664883736792742
1589988648.047689,-1.3214718503261242,-3.041774802608994,8.438442327497425,0.5258874013044971,0.033049452645230196,-0.6281674104588625,0.10586731809012334,0.08935834500916406,-1.403601794364735
1589988648.057689,-1.3755814113597247,-3.24294578313253,8.332403270223752,0.56,0.10222222222222224,-0.6111111111111112,0.03077156659690863,0.09496145705527134,-1.335878726937646
1589988648.067689,-1.4866334973573903,-3.49663349735739,9.199731729542554,0.56,0.10222222222222224,-0.6111111111111112,0.0005253561920585265,0.042832692317726524,-1.305481827751418
1589988648.077689,-1.5922973758672818,-3.681447730532191,9.391062056668863,0.56,0.10222222222222224,-0.6111111111111112,0.04335945598621568,0.07790385425596139,-1.2235310511808135
1589988648.087689,-1.4729396202925615,-3.6393837535014004,8.935108932461874,0.56,0.10222222222222224,-0.6111111111111112,0.047614271373170855,0.07197802612850915,-1.1663683527703383
1589988648.097689,-1.3770863551698174,-3.522327903935323,8.619509372646931,0.5545632042695412,0.12850006825277305,-0.6170009731524415,0.048367081542624035,0.0645602533286479,-1.1038576788427144
1589988648.107689,-1.4132679485191504,-3.6345751279268104,8.84372538378043,0.5466666666666666,0.16666666666666666,-0.6255555555555555,0.056427319817388674,0.06377795298763965,-1.0377044563425515
1589988648.117689,-1.3411425132617127,-3.572571657825525,8.563427539785136,0.5466666666666666,0.16666666666666666,-0.6255555555555555,0.05235987755982988,0.05818791806289814,-0.9700907479696852
1589988648.127689,-1.3364044488358542,-3.6120222441792706,8.677302323224646,0.5466666666666666,0.16666666666666666,-0.6255555555555555,0.040483388670205234,0.05524015611833013,-0.9099002291355061
1589988648.1376889,-1.3576213607645173,-3.6696480617201637,8.861322824395975,0.5466666666666666,0.16666666666666666,-0.6255555555555555,0.035737946532531206,0.052268533425822376,-0.8605450170313549
1589988648.1476889,-1.3850413844996237,-3.750248306997743,9.058058690744922,0.552268204999582,0.1784298971657888,-0.620234094139286,0.03652928816779893,0.04717165982005554,-0.8106358345036944
1589988648.1576889,-1.2959886360816812,-3.6538744014093245,8.78921172121182,0.5688888888888889,0.21333333333333332,-0.6044444444444445,0.029245486429417364,0.04114115268788491,-0.7365027825910088
1589988648.1676888,-1.2660426876450863,-3.622274954862007,8.639455119938097,0.5688888888888889,0.21333333333333332,-0.6044444444444445,0.028382280268176747,0.03817907738737596,-0.6823017119145214
1589988648.1776888,-1.2946385845778403,-3.6842048860712486,8.7431929228892,0.5688888888888889,0.21333333333333332,-0.6044444444444445,0.027239230116990535,0.03541257612435875,-0.6229761248221877
1589988648.1876888,-1.2836619306554407,-3.657323861310881,8.712218031924223,0.5688888888888889,0.21333333333333332,-0.6044444444444445,0.025834250722782812,0.03309749483757585,-0.5729205207305531
1589988648.1976888,-1.3081856984154827,-3.7063713968309653,8.877753464304508,0.5688888888888889,0.21333333333333332,-0.6044444444444445,0.027171814761555217,0.03376627685696204,-0.536137509664312
1589988648.2076888,-1.2640679691049523,-3.614407814629714,8.690679691049523,0.59,0.23777777777777775,-0.6177777777777778,0.025292445595529636,0.024645361405225833,-0.4666902179286314
1589988648.2176888,-1.2793130395274874,-3.705878237164925,8.843130395274875,0.59,0.23777777777777775,-0.6177777777777778,0.021966487175884106,0.02298238219540307,-0.4251157376830622
1589988648.2276888,-1.2229923700524559,-3.61,8.654577968526466,0.59,0.23777777777777775,-0.6177777777777778,0.02075647586226685,0.01969633607460458,-0.34784393265538277
1589988648.2376888,-1.17,-3.619826410591511,8.708734587192453,0.59,0.23777777777777775,-0.6177777777777778,0.01733419306266919,0.01308996938995747,-0.29622408955484275
1589988648.2476888,-1.1677701962766405,-3.704459607446719,8.759931766489764,0.5942118514774567,0.24174187328597233,-0.6222373852244967,0.013930123197081142,0.012117033973811192,-0.2262437809568222
1589988648.2576888,-1.167406537770114,-3.716296731114943,8.697406537770114,0.6088888888888889,0.25555555555555554,-0.6377777777777778,0.005656135897266357,0.007312772366483102,-0.17267558739205646
1589988648.2676888,-1.1894592429044548,-3.703513585698515,8.67378262882376,0.6088888888888889,0.25555555555555554,-0.6377777777777778,0.003478802745475147,-5.898744856738976e-05,-0.11365242043361702
1589988648.2776887,-1.1680808186279628,-3.7138383627440743,8.610302808812781,0.6088888888888889,0.25555555555555554,-0.6377777777777778,-0.002181661564992912,-0.0023910117767741053,-0.07469440148667364
1589988648.2876887,-1.140250585331899,-3.6944510535974184,8.720751755995696,0.6088888888888889,0.25555555555555554,-0.6377777777777778,-0.0008890653976178164,-0.003272492347489368,-0.030074638852103607
1589988648.2976887,-1.1446133766459772,-3.632308138523116,8.65307558443065,0.6862348292953317,0.2692299759589045,-0.6458969648922662,-0.0010067990359244217,-0.007048226020646949,0.0028523336146291985
1589988648.3076887,-1.1465499859326644,-3.658872737503517,8.68028181562412,0.81,0.2911111111111111,-0.6588888888888889,-0.0017130994631895367,-0.012029879923238956,0.0334161171522769
1589988648.3176887,-1.1428913231478812,-3.7096166042087058,8.713274718939175,0.81,0.2911111111111111,-0.6588888888888889,-0.004154213164474108,-0.011957316614358672,0.058486642323785185
1589988648.3276887,-1.1760886780617845,-3.7080443390308924,8.740073898384821,0.81,0.2911111111111111,-0.6588888888888889,-0.006774436340089476,-0.012220529189277863,0.07937701228724887
1589988648.3376887,-1.1379549500454131,-3.681819800181653,8.720225249772934,0.81,0.2911111111111111,-0.6588888888888889,-0.0035201436303166286,-0.011800629201847037,0.10005769693287256
1589988648.3476887,-1.1303358764759308,-3.6513435059037236,8.758320617620345,0.81,0.2911111111111111,-0.6588888888888889,-0.008506815620534488,-0.01512507719532561,0.12332883288722253
1589988648.3576887,-1.1258853001102243,-3.601983700190387,8.789573800060122,1.5233333333333334,0.3111111111111111,-1.1588888888888889,-0.010529200497001848,-0.016695077864017874,0.16049877634798335
1589988648.3676887,-1.20491156431891,-3.7545578215945494,8.76614966385417,1.5233333333333334,0.3111111111111111,-1.1588888888888889,-0.01039183294267757,-0.01749187986522495,0.1950078923225349
1589988648.3776886,-1.21,-3.798006036684467,8.681993963315533,1.5233333333333334,0.3111111111111111,-1.1588888888888889,-0.007744569305662788,-0.017726823340722533,0.2222065106453347
1589988648.3876886,-1.1986361184865582,-3.7896963159641555,8.71681940756721,1.5233333333333334,0.3111111111111111,-1.1588888888888889,-0.006958187087095558,-0.02237859443589995,0.25061038473984887
1589988648.3976886,-1.1821226598718901,-3.7569812789751214,8.79938670064055,1.3943227833417875,0.22431790746049163,-1.0853033466633637,-0.007404269204572416,-0.02532065427032126,0.27833170675579805
1589988648.4076886,-1.1895443606893867,-3.8163548855150933,8.762278196553066,0.9432483003228306,-0.07914719263270059,-0.8280177183234831,-0.00659468723355198,-0.026130236241341698,0.3018095839153907
1589988648.4176886,-1.191357876132817,-3.7535184070996124,8.717592035498063,0.9155555555555556,-0.09777777777777777,-0.8122222222222222,-0.009494243613893965,-0.03125029401543607,0.338831000242725
1589988648.4276886,-1.1605368159024496,-3.7308052238536744,8.60125257043905,0.9155555555555556,-0.09777777777777777,-0.8122222222222222,-0.004382842307016678,-0.033835273434420984,0.3612601807766354
1589988648.4376886,-1.2170808455704374,-3.799565918993061,8.737080845570437,0.9155555555555556,-0.09777777777777777,-0.8122222222222222,-0.0068634150460415225,-0.035997415822383035,0.3898870723796373
1589988648.4476886,-1.2027703583635787,-3.7451802389090525,8.754098805454738,0.8550407774136588,-0.02815900646409121,-0.7825003621613791,-0.009213078606160472,-0.035997415822383035,0.41056016250477706
1589988648.4576886,-1.1893403222852956,-3.7113193554294086,8.769287905145578,0.6644444444444444,0.19111111111111112,-0.6888888888888889,-0.013161929065730103,-0.03650685137574495,0.43234022389336674
1589988648.4676886,-1.213161991205587,-3.7250986432148987,8.717549321607448,0.6644444444444444,0.19111111111111112,-0.6888888888888889,-0.01582780665172821,-0.039481164132546494,0.4497111305424584
1589988648.4776886,-1.2433700737891369,-3.7532874077635787,8.689862223290737,0.6644444444444444,0.19111111111111112,-0.6888888888888889,-0.01671505065273678,-0.04144856391335382,0.4610688320807109
1589988648.4876885,-1.2754599733615029,-3.72955495338263,8.625489826849767,0.6644444444444444,0.19111111111111112,-0.6888888888888889,-0.010811213714989906,-0.03926990816987242,0.46920613414883444
1589988648.4976885,-1.3134978915419946,-3.7771743976793535,8.832510542290027,0.6565418005903085,0.1961636211162144,-0.6925163319694758,-0.022853594884569527,-0.03926990816987242,0.4701480672559725
1589988648.5076885,-1.3371464144996061,-3.688560756501182,8.739950197005516,0.5966666666666667,0.2344444444444445,-0.72,-0.01449207806288546,-0.04020374184116702,0.46952551147510946
1589988648.5176885,-1.2904397183503378,-3.7416482253197296,8.705495042391147,0.5966666666666667,0.2344444444444445,-0.72,-0.012250880845812691,-0.039953186138100893,0.46537719131171873
1589988648.5276885,-1.2497837153482974,-3.8097837153482974,8.589026719067338,0.5966666666666667,0.2344444444444445,-0.72,-0.00943420595198106,-0.03707645010708656,0.4517101124336692
1589988648.5376885,-1.3000307437147307,-3.80318986266459,8.746594931332295,0.5966666666666667,0.2344444444444445,-0.72,-0.01308996938995747,-0.03854045190218168,0.42248605838861697
1589988648.5476885,-1.3180639146090536,-3.717744341563786,8.696127829218106,0.5977422696616369,0.23207811785550989,-0.7251628943758573,-0.011822804464765793,-0.035821081679687825,0.40001708890231225
1589988648.5576885,-1.307128995813119,-3.741386987439357,8.700097029308168,0.6022222222222222,0.2222222222222222,-0.7466666666666667,-0.006858162669351347,-0.029916905961155545,0.38067877458003235
1589988648.5676885,-1.2772104980067076,-3.674652597608049,8.776515693222805,0.6022222222222222,0.2222222222222222,-0.7466666666666667,-0.00705250436392167,-0.026737986078598265,0.34503320023373163
1589988648.5776885,-1.2440340441688287,-3.6348408530025944,8.663715750174019,0.6022222222222222,0.2222222222222222,-0.7466666666666667,-0.0027097167118699536,-0.028185581962615502,0.3204240702054386
1589988648.5876884,-1.19344854781744,-3.7048703837053805,8.61866457497514,0.6022222222222222,0.2222222222222222,-0.7466666666666667,-0.0012647809437967257,-0.020899735028732932,0.26151232608258157
1589988648.5976884,-1.2509776086136544,-3.640150190309639,8.784060624764257,0.6022222222222222,0.2222222222222222,-0.7466666666666667,0.0026573734564920696,-0.016977580628444136,0.20895545711871166
1589988648.6076884,-1.215900936943448,-3.372950468471724,8.796554216245514,0.5188888888888888,0.15555555555555556,-0.6444444444444445,-0.001144861298244093,-0.012124430840434953,0.09637132246992156
1589988648.6176884,-0.1535494134022668,-4.26007108769139,5.674288128852654,0.5188888888888888,0.15555555555555556,-0.6444444444444445,-0.6202375113866209,0.5951466410109747,-2.086137899466097
1589988648.6276884,1.4975187045558327,-5.444102708208929,-0.05211739084618355,0.5188888888888888,0.15555555555555556,-0.6444444444444445,-1.5654351668867388,0.7254064552700937,-7.953913136624247
1589988648.6376884,0.8983833949009872,-4.5746829770483854,-0.4112384182159511,0.5188888888888888,0.15555555555555556,-0.6444444444444445,-1.1971918372964832,-1.5488919518828985,-13.266825540966241
1589988648.6476884,-0.03866534938027655,-5.076716364289563,1.4496658882701636,0.520169251342235,0.18756461688920822,-0.646236951879129,-1.403042541631754,-0.6472357349993588,-12.922353550702518
1589988648.6576884,-1.1559188213295506,-5.112803211038751,4.703678831646141,0.5244444444444445,0.29444444444444445,-0.6522222222222223,-1.1982638640134566,0.27136439613997526,-12.392110941954247
1589988648.6676884,-0.4834701398938736,-3.927823058369513,1.4681744331886153,0.5244444444444445,0.29444444444444445,-0.6522222222222223,-0.20397289570313756,1.8254598605941714,-11.420754910657084
1589988648.6776884,-0.9875557487868503,-4.313344927211018,3.5769041541611735,0.5244444444444445,0.29444444444444445,-0.6522222222222223,0.40558022328327537,2.667450544197747,-10.715876505694233
1589988648.6876884,0.4755664273460829,-2.4457487769235655,6.46636762183112,0.5244444444444445,0.29444444444444445,-0.6522222222222223,1.449718614925455,3.3987747062621434,-9.858530301985866
1589988648.6976883,3.0953329184816427,0.16355631611698818,10.43499377722464,0.47453847749429584,0.3592100532393003,-0.6401662863859504,2.8197626145795374,2.6194098537303168,-9.06823207937629
1589988648.7076883,0.955724572218089,-1.2427853650759912,-0.23422760123286215,0.32666666666666666,0.5511111111111111,-0.6044444444444445,2.7219598828366935,0.10650065897316427,-8.030513188631577
1589988648.7176883,-0.0293410897362055,-1.5701797027992166,1.1555707867757172,0.32666666666666666,0.5511111111111111,-0.6044444444444445,0.09235447635161376,0.008733406621231676,-7.254919358250116
1589988648.7276883,0.057699542238868085,-1.2716554307116104,6.044362879733667,0.32666666666666666,0.5511111111111111,-0.6044444444444445,-0.36021956110398756,0.7523666452032463,-6.780189328696662
1589988648.7376883,-0.7408652706440142,-0.5380012550259139,9.877703767401863,0.32666666666666666,0.5511111111111111,-0.6044444444444445,-0.1490984943561645,1.5001083016556866,-6.3752180160418845
1589988648.7476883,-1.1901790965573662,-0.9554076104981537,8.796691578039667,0.2858186481526522,0.5605706522406724,-0.6057343818712028,0.18585945677942192,0.8885270763928923,-5.995831024926442
1589988648.7576883,1.3627126944254142,-2.068551165918145,10.009648575270862,0.11555555555555555,0.6,-0.6111111111111112,0.2339932915978742,-0.46020617610659725,-5.562793805263672
1589988648.7676883,3.192070920310609,-4.278291357878886,8.892099560069681,0.11555555555555555,0.6,-0.6111111111111112,0.2113408712256102,-0.1361669485522375,-5.120444044091521
1589988648.7776883,9.179528694158076,-11.753514776632302,5.488458762886598,0.11555555555555555,0.6,-0.6111111111111112,0.1940103085904096,0.5034729664040363,-4.72830483875641
1589988648.7876883,12.127069415807561,-15.15507766323024,9.163876288659793,0.11555555555555555,0.6,-0.6111111111111112,-0.08821004996937287,0.5875887835792359,-4.385552536995783
1589988648.7976882,-1.666503588723625,1.6007413092355587,11.144042070217917,0.09209635266535993,0.6017249413889849,-0.6121460759445021,-0.15110067445548725,0.6945739312975301,-3.529199171405178
1589988648.8076882,0.8970420185590658,0.1700646439370243,7.909326451881973,-0.03555555555555556,0.6111111111111112,-0.6177777777777778,0.2612733641969133,0.19163591443399525,-3.1026600829343494
1589988648.8176882,1.0838637615386308,-0.3350635588552797,8.635917692934724,-0.03555555555555556,0.6111111111111112,-0.6177777777777778,0.11861051460752976,0.014056579416913753,-2.64236426473994
1589988648.8276882,3.7858391087838186,-2.3713316905385287,10.96427280661225,-0.03555555555555556,0.6111111111111112,-0.6177777777777778,-0.05315133048087421,0.20518208376777108,-2.299239224059608
1589988648.8376882,6.557181732390662,-4.093669611225421,9.692886337969338,-0.03555555555555556,0.6111111111111112,-0.6177777777777778,-0.055738248283058095,0.3105737787120274,-2.0541797141660796
1589988648.8476882,1.9176846795278397,-0.6026914092111575,10.023815498383328,-0.03555555555555556,0.6111111111111112,-0.6177777777777778,-0.00902219104707945,0.15697704507252178,-2.004632380733981
1589988648.8576882,1.100864018287409,-0.1669436550105029,8.42765074755962,-0.10666666666666667,0.6022222222222222,-0.6177777777777778,0.14755103776658854,0.10132507840242704,-1.8278492595600384
1589988648.8676882,3.7223160990066915,-1.7536740836787146,9.458770288730927,-0.10666666666666667,0.6022222222222222,-0.6177777777777778,0.06330213098602798,0.05511308303130621,-1.5359942558159507
1589988648.8776882,2.9810622443296397,-1.4814571049952947,9.736124181374715,-0.10666666666666667,0.6022222222222222,-0.6177777777777778,0.0011339033993858286,0.06751563563344995,-1.4453534893212179
1589988648.8876882,1.985501828123456,-0.8736374715899733,8.277379360321486,-0.10666666666666667,0.6022222222222222,-0.6177777777777778,0.04492815045300524,0.17975313203774168,-1.423657199077084
1589988648.8976882,3.3532534009684114,-1.7025778187687342,8.705665206363847,-0.10666666666666667,0.6022222222222222,-0.6177777777777778,0.023075837303737856,0.12022441690697883,-1.3460438109952033
1589988648.9076881,2.931402706247401,-1.3700594990563322,8.488984677393557,-0.16,0.5822222222222222,-0.6322222222222222,0.01646990129406072,0.05765770499825233,-1.2657121273038103
1589988648.9176881,3.680354822499013,-1.8588231810187015,9.22187461861517,-0.16,0.5822222222222222,-0.6322222222222222,0.04966473184674629,0.11250909899004816,-1.2375149454346794
1589988648.9276881,3.883603503356187,-1.821184536415521,8.386296708424567,-0.16,0.5822222222222222,-0.6322222222222222,0.03324177498890901,0.06159793273075262,-1.184140335646708
1589988648.937688,3.4462449648392166,-1.5888775858537585,8.757530552331534,-0.16,0.5822222222222222,-0.6322222222222222,0.052894158984942846,0.0912580080778813,-1.1643082562671139
1589988648.947688,3.66,-1.6339782594286472,8.815432491549016,-0.16420671218046443,0.5799786423926412,-0.6303993136106877,0.042256587957992225,0.0830303199129209,-1.1308952249984587
1589988648.957688,3.653497662381032,-1.731725455000835,9.006455585239607,-0.19333333333333333,0.5644444444444444,-0.6177777777777778,0.02917844845841612,0.07387562226321762,-1.1201218839585412
1589988648.967688,3.6021864614308203,-1.5921007521427324,8.796216547140109,-0.19333333333333333,0.5644444444444444,-0.6177777777777778,0.022962398201772954,0.06940980882838302,-1.1363522176486116
1589988648.977688,3.4925990983625703,-1.5891336338791433,8.948267267758286,-0.19333333333333333,0.5644444444444444,-0.6177777777777778,0.028307939145030776,0.07288383414415411,-1.1482948186024282
1589988648.987688,3.660872911763571,-1.508548169296655,8.816680234576951,-0.19333333333333333,0.5644444444444444,-0.6177777777777778,0.03563528559097016,0.07864391641847106,-1.1555065389881836
1589988648.997688,3.3291349974921873,-1.4114541456074694,8.873318415062311,-0.19333333333333333,0.5644444444444444,-0.6177777777777778,0.04181355266477203,0.07952652600044274,-1.176689168955504
1589988649.007688,3.5319678740836564,-1.39,8.794417636912462,-0.20555555555555555,0.5644444444444444,-0.6466666666666666,0.03515629074100269,0.08950069007240408,-1.1882914797562518
1589988649.017688,3.525327172526653,-1.3832279257815319,8.70693018554617,-0.20555555555555555,0.5644444444444444,-0.6466666666666666,0.028994446533477682,0.07721999326028506,-1.2077417850885517
1589988649.027688,3.452029174831265,-1.3410603091661224,8.849954278249509,-0.20555555555555555,0.5644444444444444,-0.6466666666666666,0.0423011020033151,0.08435591802329712,-1.2448742338732164
1589988649.037688,3.788543346438329,-1.4273294684702693,8.926843917283046,-0.20555555555555555,0.5644444444444444,-0.6466666666666666,0.040281290825143666,0.08753128969046715,-1.2561288502530723
1589988649.047688,3.732645432131672,-1.3248499589080651,8.805731769618623,-0.20555555555555555,0.5644444444444444,-0.6466666666666666,0.03723253254499115,0.09769381729097555,-1.2784864109741907
1589988649.057688,3.7806599049128367,-1.286226730058109,8.943536397253038,-0.24026697188472151,0.5306711745025533,-0.6166459822738746,0.035246200480970644,0.10370090879640761,-1.3034911074791582
1589988649.067688,3.5284627855563744,-1.1435261606484892,8.972242446573324,-0.2466666666666667,0.5244444444444445,-0.6111111111111112,0.03582973173894254,0.09281137170405127,-1.3428619695441961
1589988649.077688,3.65396234973917,-1.1814674529371738,8.874654116579723,-0.2466666666666667,0.5244444444444445,-0.6111111111111112,0.048250397111368526,0.08030756093963985,-1.3738727946968632
1589988649.087688,3.796657972329326,-1.0942645724654116,8.922219324109776,-0.2466666666666667,0.5244444444444445,-0.6111111111111112,0.05084467673884918,0.08722563994625494,-1.390303232337574
1589988649.097688,3.7111116858931252,-1.0074077905954166,8.920925973824428,-0.2466666666666667,0.5244444444444445,-0.6111111111111112,0.04631993324058667,0.09726569774835711,-1.426644881297852
1589988649.107688,3.435214855328833,-0.93456445659865,9.001521485532884,-0.27555555555555555,0.52,-0.6322222222222222,0.04977533184838053,0.11017390903214204,-1.4905005338636268
1589988649.117688,3.5154255990514622,-0.9586276797154386,9.009542559905146,-0.27555555555555555,0.52,-0.6322222222222222,0.04190066049781849,0.11017390903214204,-1.5272490001662498
1589988649.127688,3.527280307771601,-0.9163181533703936,8.87167415233958,-0.27555555555555555,0.52,-0.6322222222222222,0.04701067841118277,0.10620311712048673,-1.5666702010295912
1589988649.137688,3.6076319943869497,-0.8495983160848973,8.847230310471847,-0.27555555555555555,0.52,-0.6322222222222222,0.05646029918215913,0.11183435974789441,-1.6677625921814707
1589988649.147688,3.76294919020055,-0.84142372683155,8.994372917032099,-0.27555555555555555,0.52,-0.6322222222222222,0.051110043027069514,0.12342658141725527,-1.7319656660425462
1589988649.157688,3.597653617443013,-0.9166295011562604,9.071899405351834,-0.30666666666666664,0.4988888888888889,-0.6255555555555555,0.055029061564234864,0.1335688779039797,-1.843367929837243
1589988649.167688,3.493731417244797,-1.5055219689461512,8.801701684836472,-0.30666666666666664,0.4988888888888889,-0.6255555555555555,0.05729629226345433,0.13583610860319914,-1.8985372101849167
1589988649.177688,4.484932632638229,0.42718566556717164,10.096463353273327,-0.30666666666666664,0.4988888888888889,-0.6255555555555555,0.0484558291334266,-0.10288509568763521,-1.4153905372689364
1589988649.1876879,4.5630955442500145,-0.9484815788002461,8.9787337172248,-0.30666666666666664,0.4988888888888889,-0.6255555555555555,0.08511870844877109,-0.3330938727839843,0.020430131731996815
1589988649.1976879,3.6702620358488223,-0.34104814339528916,9.057337003767024,-0.30689958742117535,0.4985006876313744,-0.6256817209642478,0.26662912609461137,0.10776845488702526,0.017386371494167756
1589988649.2076879,3.6963060396572422,-0.44522415862896886,9.786569110402782,-0.3300498130286597,0.45991697828556705,-0.6382214265016352,-0.12068843493721754,0.1939442447498527,-0.20610249012811002
1589988649.2176878,3.8949347071340576,-0.8229181319296673,9.162918131929667,-0.3333333333333333,0.4544444444444444,-0.64,-0.11271593935536188,0.1407404560072398,-0.012177062893677596
1589988649.2276878,3.372160671276513,-0.6102198741356538,8.942613109574497,-0.3333333333333333,0.4544444444444444,-0.64,-0.032939400135622264,0.0552075693873804,-0.022244184704213524
1589988649.2376878,3.8069735549748893,-0.5355788439799114,8.827894219899557,-0.3333333333333333,0.4544444444444444,-0.64,0.0006344126766940248,-0.009843332244758887,0.001090830782496456
1589988649.2476878,3.8458377346602175,-0.566670187728174,8.98335093864087,-0.3333333333333333,0.4544444444444444,-0.64,-0.0019092419355397473,-0.003908138149546753,0.001090830782496456
1589988649.2576878,3.8070000789920613,-0.5635384493858367,8.940692167937122,-0.35,0.4744444444444445,-0.6177777777777778,-0.0014768157337340937,0.0035326088943246443,-0.001090830782496456
1589988649.2676878,3.7007915902356427,-0.5798603076054748,9.12827712713419,-0.35,0.4744444444444445,-0.6177777777777778,-0.003272492347489368,0.009781921530861406,-0.0010705133472926275
1589988649.2776878,3.826555488923381,-0.5576666784252857,8.854555700578524,-0.35,0.4744444444444445,-0.6177777777777778,-0.003272492347489368,0.004133039624346977,0.002157419170715617
1589988649.2876878,3.734343345215826,-0.5403102389439877,9.031313309568347,-0.35,0.4744444444444445,-0.6177777777777778,0.0020124524699774915,-0.009445217033434178,0.00010152545700925237
1589988649.2976878,3.854240590584533,-0.54,8.866063173181653,-0.35,0.4744444444444445,-0.6177777777777778,0.00037465542305759915,-0.008913973971500448,-0.0009035030709676564
1589988649.3076878,3.761211840352198,-0.5404039467840661,9.037374345903569,-0.3422222222222222,0.4622222222222222,-0.6533333333333333,-0.0011128626618239442,-0.003140301071524438,0.0021375978063379354
1589988649.3176877,3.809804784799861,-0.5566015949332871,8.932089632933634,-0.3422222222222222,0.4622222222222222,-0.6533333333333333,-0.001996307322084788,0.0021603668900406266,0.00037070848581624723
1589988649.3276877,3.7614407080904306,-0.5790395279397127,8.988079055879426,-0.3422222222222222,0.4622222222222222,-0.6533333333333333,-0.001090830782496456,0.0031677210985804594,-0.0031677210985804594
1589988649.3376877,3.783804741930897,-0.5641301720460685,8.958260344092137,-0.3422222222222222,0.4622222222222222,-0.6533333333333333,-0.001090830782496456,0.0015413626629822484,-0.0015413626629822484
1589988649.3476877,3.79,-0.552134668257509,8.95,-0.3422222222222222,0.4622222222222222,-0.6533333333333333,-0.0036647545762731742,-0.00405701680505698,-0.00023285618457088324
1589988649.3576877,3.830855988689154,-0.55,8.990855988689153,-0.34751836890414955,0.4622222222222222,-0.6487937790345384,-0.0028777574596039607,-0.0047113710772913485,0.0007427828351909316
1589988649.3676877,3.779626580741983,-0.5403734192580169,8.999502107655978,-0.35,0.4622222222222222,-0.6466666666666666,-1.3577907380724352e-05,0.004336167315224375,-1.3577907380724352e-05
1589988649.3776877,3.751856502835956,-0.568143497164044,8.96247533711461,-0.35,0.4622222222222222,-0.6466666666666666,-0.0010233264344546987,0.0023166702610764264,-0.0010233264344546987
1589988649.3876877,3.798213134878011,-0.5695532837195028,8.896254027926961,-0.35,0.4622222222222222,-0.6466666666666666,0.0021329323780120493,-0.0045582398779092734,0.001986744817069462
1589988649.3976877,3.7660334509743745,-0.5615083627435937,9.008882921589688,-0.35,0.4622222222222222,-0.6466666666666666,0.0012553676336847352,-0.00806849885521853,-0.0015235141602397946
1589988649.4076877,3.7706124016902205,-0.56,8.99,-0.33555555555555555,0.4666666666666667,-0.6533333333333333,-6.68026614945465e-05,-0.0071013941855188195,-0.0019812535805092723
1589988649.4176877,3.779092416247144,-0.56,8.99,-0.33555555555555555,0.4666666666666667,-0.6533333333333333,-0.0009918287529655813,0.00029881454624945854,0.0007938246939038318
1589988649.4276876,3.7897726487855414,-0.5601818809715667,8.860727523886267,-0.33555555555555555,0.4666666666666667,-0.6533333333333333,-0.0010809107143696895,0.007630855443411809,-0.0010858707484330727
1589988649.4376876,3.749537239553356,-0.5923702083573155,8.989480833429262,-0.33555555555555555,0.4666666666666667,-0.6533333333333333,0.0006746902031027349,0.006753054984675596,-0.00020807028969686055
1589988649.4476876,3.767859418801038,-0.5888562324795849,8.992140581198962,-0.33555555555555555,0.4666666666666667,-0.6533333333333333,0.001090830782496456,0.00289819530170284,0.0
1589988649.4576876,3.7965157853196527,-0.5734842146803473,8.976515785319654,-0.33555555555555555,0.46377076208015433,-0.6446456195737964,-0.0010414549771482543,0.0,0.0
1589988649.4676876,3.8,-0.5505733617537204,8.967048907835814,-0.33555555555555555,0.4622222222222222,-0.64,-0.002181661564992912,-0.0007063724999821586,0.0014127449999643171
1589988649.4776876,3.7820884346100563,-0.5489557826949718,8.924176869220114,-0.33555555555555555,0.4622222222222222,-0.64,-0.0012047372204904885,0.0018399422510108146,0.0031585859094953356
1589988649.4876876,3.7942910849530063,-0.5571455424765034,8.955727712382517,-0.33555555555555555,0.4622222222222222,-0.64,-0.001090830782496456,0.0006227460267917535,0.0009341190401876303
1589988649.4976876,3.778425657570952,-0.5528085525236507,8.984382894952699,-0.33555555555555555,0.4622222222222222,-0.64,-0.0026597612380781146,-0.0023533956833724874,0.0
1589988649.5076876,3.790801059614248,-0.5430663134619174,8.976132626923835,-0.33555555555555555,0.4622222222222222,-0.64,-0.0017597966051050057,-0.003272492347489368,0.0015126957423843622
1589988649.5176876,3.79036522278935,-0.578539108842599,8.931460891157402,-0.33555555555555555,0.4622222222222222,-0.64,-3.9839626109247845e-05,-0.00222150119110216,-0.0020223030605559206
1589988649.5276875,3.79,-0.5549270207285661,8.904927020728566,-0.33555555555555555,0.4622222222222222,-0.64,-0.0009116792532725195,0.001465055448097166,0.001465055448097166
1589988649.5376875,3.76,-0.5601822738254066,8.951822738254064,-0.33555555555555555,0.4622222222222222,-0.64,0.0010510648025770849,0.005354738962683852,3.976597991937103e-05
1589988649.5476875,3.76,-0.567744203656294,9.02744203656294,-0.33555555555555555,0.4622222222222222,-0.64,-0.0005986923643449521,0.00123034604537876,0.001689523146841408
1589988649.5576875,3.7887852508721025,-0.5795950836240341,8.992429498255795,-0.33555555555555555,0.4547593794035289,-0.6602562876507387,-0.002137492040268868,0.0,8.833904944808776e-05
1589988649.5676875,3.79,-0.5533748364587876,8.99,-0.33555555555555555,0.4544444444444444,-0.6611111111111111,-0.0031497798309848063,-0.003872473063967576,-0.001936236531983788
1589988649.5776875,3.8297578901859057,-0.55,8.870726329442283,-0.33555555555555555,0.4544444444444444,-0.6611111111111111,-1.9807562846887745e-05,-0.0011106383453433435,-0.0010974333034454186
1589988649.5876875,3.779364000485496,-0.5584393332524175,8.988150665533842,-0.33555555555555555,0.4544444444444444,-0.6611111111111111,0.0,0.0007503461166001029,-0.00017024233294817654
1589988649.5976875,3.775506789368685,-0.5544932106313148,8.982466053156575,-0.33555555555555555,0.4544444444444444,-0.6611111111111111,0.0,-0.0013119593599379795,0.0024027901424344355
1589988649.6076875,3.7852506368949497,-0.5552506368949498,8.98625318447475,-0.33205513095892236,0.4544444444444444,-0.6459426045257006,-0.0005727556352722851,-0.004418003618033938,0.0026450562241689688
1589988649.6176875,3.801116555561886,-0.5655582777809431,8.982208611095285,-0.3288888888888889,0.4544444444444444,-0.6322222222222222,-0.001090830782496456,-0.00545415391248228,0.001090830782496456
1589988649.6276875,3.7735169674806337,-0.5481101804883803,8.908923754472887,-0.3288888888888889,0.4544444444444444,-0.6322222222222222,-0.0002948944842775799,-0.003066345017825652,0.001090830782496456
1589988649.6376874,3.7824316760750323,-0.5512158380375163,8.91803959509379,-0.3288888888888889,0.4544444444444444,-0.6322222222222222,-0.0012234581382817302,0.002100441918993144,-0.00013262735578527425
1589988649.6476874,3.7851385752412234,-0.569907616505851,8.979630466023403,-0.3288888888888889,0.4544444444444444,-0.6322222222222222,-0.0005605316051300819,0.00383302395261945,0.0005302991773663741
1589988649.6576874,3.77587631539143,-0.5564947384342791,8.99649473843428,-0.3210538017003152,0.4590149119711124,-0.6446277769374639,-0.0008321889324924886,-0.0023053844366479584,0.0002586418500039674
1589988649.6676874,3.78,-0.54,8.948580853549585,-0.31555555555555553,0.4622222222222222,-0.6533333333333333,-0.002181661564992912,-0.0028836810043914455,-0.00023400647979951114
1589988649.6776874,3.78,-0.5661385268706984,8.887722946258604,-0.31555555555555553,0.4622222222222222,-0.6533333333333333,-0.0012312379076706227,-0.0012312379076706227,0.0028512709719668676
1589988649.6876874,3.789210308190792,-0.57,8.916841232763169,-0.31555555555555553,0.4622222222222222,-0.6533333333333333,-0.002095519551575966,-0.003100208320655477,0.0012631148093303472
1589988649.6976874,3.775137045337011,-0.5551370453370109,8.994314773314946,-0.31555555555555553,0.4622222222222222,-0.6533333333333333,-0.0013710131417310222,-2.9898654441809763e-05,0.001090830782496456
1589988649.7076874,3.803945630836952,-0.566972815418476,9.011513592290761,-0.3221560948849629,0.46599395898188356,-0.6354175837249421,0.0007606161699139525,-0.002612063122324361,0.001090830782496456
1589988649.7176874,3.79479118520964,-0.5547911852096402,9.01,-0.3233333333333333,0.4666666666666667,-0.6322222222222222,0.0002613186155658603,-0.0041020045144199635,-0.0005681935513647354
1589988649.7276874,3.8062017946800557,-0.55,8.89658743723961,-0.3233333333333333,0.4666666666666667,-0.6322222222222222,-0.0035346832737383825,-0.0008286398562474414,0.0006765108543727353
1589988649.7376873,3.792765394225774,-0.55,8.921703817322678,-0.3233333333333333,0.4666666666666667,-0.6322222222222222,-0.000603315429442388,0.004700009625679295,0.000150828857360597
1589988649.7476873,3.7829054291401585,-0.5712837125795246,8.972567425159049,-0.3233333333333333,0.4666666666666667,-0.6322222222222222,0.0,0.00468025628423053,0.0007738976282517498
1589988649.7576873,3.7679407176287047,-0.5739703588143525,9.020148205928237,-0.34678193794418444,0.4666666666666667,-0.6322222222222222,0.0006577318212712639,0.0030478594874432958,-0.0002246328600460719
1589988649.7676873,3.7804643667437077,-0.5546517249422191,8.978606899768875,-0.3622222222222222,0.4666666666666667,-0.6322222222222222,0.0005327517527881272,-5.065455384040303e-05,-0.0005327517527881272
1589988649.7776873,3.8,-0.5550671287996495,8.882332178000876,-0.3622222222222222,0.4666666666666667,-0.6322222222222222,-0.000821784394924823,-0.001359877170068089,0.000821784394924823
1589988649.7876873,3.7890178009184594,-0.56,8.89745549770385,-0.3622222222222222,0.4666666666666667,-0.6322222222222222,-0.0016898168233788731,-0.0004918447416140389,0.0016898168233788731
1589988649.7976873,3.784218111133454,-0.5557818888665461,8.94109055566727,-0.3622222222222222,0.4666666666666667,-0.6322222222222222,-0.0017215370181566498,-0.0013803736405087871,0.0008012879244841248
1589988649.8076873,3.79,-0.566879272627837,9.003758545255675,-0.35190711117187734,0.4666666666666667,-0.6322222222222222,-0.00017020927406673236,0.0004099936862295263,-0.00017020927406673236
1589988649.8176873,3.7817940724478594,-0.5617940724478595,8.99358814489572,-0.35,0.4666666666666667,-0.6322222222222222,-0.001790255674562131,-0.004279936241189937,0.001790255674562131
1589988649.8276873,3.78,-0.5659531448314765,8.924515406853759,-0.35,0.4666666666666667,-0.6322222222222222,-0.002181661564992912,-0.004804766548998854,0.0015322742015094854
1589988649.8376873,3.7947155479770576,-0.57,8.902073321965586,-0.35,0.4666666666666667,-0.6322222222222222,-0.0013790529292590059,-0.0011528885870501996,0.001893439418230362
1589988649.8476872,3.7796270517951394,-0.5632090172650465,8.950745896409721,-0.35,0.4666666666666667,-0.6322222222222222,-0.0003500494814275308,0.0014815626021378503,0.0014408802639239867
1589988649.8576872,3.785734906099643,-0.5521325469501785,9.009337265249107,-0.3386359011502578,0.45705089071688476,-0.6549504199217066,0.002574617989977279,0.001323455568333819,0.002807242775814642
1589988649.8676872,3.76517717278475,-0.566548551476833,9.028274275738417,-0.33555555555555555,0.4544444444444444,-0.6611111111111111,-0.001240424991674806,-0.0016169196210020483,0.0005647419439908639
1589988649.8776872,3.7831274767353844,-0.5622908410882052,8.922071775234873,-0.33555555555555555,0.4544444444444444,-0.6611111111111111,-0.00302260034980718,-0.00302260034980718,0.0
1589988649.8876872,3.79,-0.5680842314961434,8.922336925984574,-0.33555555555555555,0.4544444444444444,-0.6611111111111111,-0.0015087866337252405,-0.003272492347489368,0.0008818528568820636
1589988649.8976872,3.803228606544784,-0.563385696727608,8.95645721308957,-0.33555555555555555,0.4544444444444444,-0.6611111111111111,-0.0003693222210672246,-0.0003864581017724426,-0.0003521863403620068
1589988649.9076872,3.78458819348635,-0.5701647226054601,8.99032944521092,-0.33555555555555555,0.45839739212434555,-0.6503816816942366,-0.001108799231357345,-0.0011267676802182338,-0.0016452303981751284
1589988649.9176872,3.7633408307636493,-0.5699775077090513,8.996636676945402,-0.33555555555555555,0.4622222222222222,-0.64,-0.0018172334613829042,-0.0029080642438793604,-0.002181661564992912
1589988649.9276872,3.7739984712402066,-0.55,8.958004586279381,-0.33555555555555555,0.4622222222222222,-0.64,-0.0008727480069092608,-0.0028359098917544972,-0.0017454960138185217
1589988649.9376872,3.79,-0.556387073237467,8.903612926762534,-0.33555555555555555,0.4622222222222222,-0.64,-0.0013934432194976465,-0.0026672674734869867,0.0006967216097488232
1589988649.9476871,3.7961232430230187,-0.5538767569769811,8.936739458138113,-0.33555555555555555,0.4622222222222222,-0.64,-0.00017783497152819554,0.0002450536131466882,-0.0002450536131466882
1589988649.9576871,3.784889035449299,-0.5575554822753505,8.990221929101402,-0.33555555555555555,0.4513087478244939,-0.64,0.000266655518240601,0.001915006046752311,-0.000266655518240601
1589988649.9676871,3.78,-0.5536866932387465,9.006313306761253,-0.33555555555555555,0.4477777777777778,-0.64,-0.0006886749354518344,0.002181661564992912,-0.0013773498709036688
1589988649.9776871,3.77437191513554,-0.5556280848644598,8.96497532108432,-0.33555555555555555,0.4477777777777778,-0.64,0.00013702686083456785,-0.0002740537216691357,-0.0009538039216618881
1589988649.987687,3.7848011237616443,-0.5748011237616443,8.937400561880821,-0.33555555555555555,0.4477777777777778,-0.64,0.001090830782496456,-0.002181661564992912,0.0016145521414741276
1589988649.997687,3.784472196748645,-0.5689443934972905,8.95105560650271,-0.33555555555555555,0.4477777777777778,-0.64,0.0004878409878802825,-0.0033876411542252587,0.000975681975760565
1589988650.007687,3.786075374663506,-0.56,8.966075374663507,-0.3396058053312262,0.4565533189583975,-0.656876040731961,0.0,-0.003037881990355553,0.0006627205698151356
1589988650.017687,3.79,-0.5655931231095505,8.96440687689045,-0.3422222222222222,0.4622222222222222,-0.6677777777777778,0.0012202301716379889,0.0008689138641020605,-0.0001293993891415329
1589988650.027687,3.7844340825226435,-0.5588681650452868,8.915472660181148,-0.3422222222222222,0.4622222222222222,-0.6677777777777778,0.002788808976706471,-0.0003703921227919864,0.0013377588643577805
1589988650.037687,3.7873862175366417,-0.55,8.909544870146567,-0.3422222222222222,0.4622222222222222,-0.6677777777777778,0.0008553583109341583,-0.004078203693007771,0.0016610696564525614
1589988650.047687,3.784348869880675,-0.5443488698806751,8.936953390357974,-0.3422222222222222,0.4622222222222222,-0.6677777777777778,0.0,-0.001897552453964813,-0.00014205455551404944
1589988650.057687,3.783613969828477,-0.5472279396569539,8.975297788799338,-0.3422222222222222,0.45941135680007344,-0.6549281072765264,0.00039422295359161025,0.0007884459071832205,-0.0006966078289048457
1589988650.067687,3.79,-0.56,9.02,-0.3422222222222222,0.4544444444444444,-0.6322222222222222,0.001090830782496456,0.0030336307702094343,-0.00042598460260826127
1589988650.077687,3.770130528008577,-0.56,8.947145269364782,-0.3422222222222222,0.4544444444444444,-0.6322222222222222,0.0003683563931566027,0.0036408487406459707,0.0003541179961832506
1589988650.087687,3.787296744186046,-0.56,8.930472558139535,-0.3422222222222222,0.4544444444444444,-0.6322222222222222,-0.0007444032205017676,0.0017836859064858327,-0.0003979756585070792
1589988650.097687,3.788661616161616,-0.5486616161616162,8.945669191919192,-0.3422222222222222,0.4544444444444444,-0.6322222222222222,-0.0004724178767629854,-0.0013828208404374263,0.0001459950289704852
1589988650.107687,3.7863147107232695,-0.5526294214465389,8.968944132169808,-0.3506418365199149,0.4670738658909834,-0.6455532781935689,0.0,-0.0012060080956385307,0.0004020026985461769
1589988650.117687,3.782893194706994,-0.5457863894139887,9.001320415879016,-0.3555555555555556,0.4744444444444445,-0.6533333333333333,-0.0007752321978819331,0.0,0.0015504643957638662
1589988650.127687,3.7854651013009954,-0.5618604052039821,8.944418784388054,-0.3555555555555556,0.4744444444444445,-0.6533333333333333,0.00010146936322101433,-0.0005961500728587351,0.0015855114921341767
1589988650.137687,3.79,-0.5683657273522094,8.924902817943371,-0.3555555555555556,0.4744444444444445,-0.6533333333333333,0.0004562796456881235,-0.001090830782496456,0.0004562796456881235
1589988650.147687,3.79,-0.565461377561409,8.966384132684228,-0.3555555555555556,0.4744444444444445,-0.6533333333333333,0.0011914877517640798,0.0006964008451496636,-0.0005957438758820399
1589988650.157687,3.7846070754278993,-0.5592141508557987,8.985392924572102,-0.3447697064113543,0.46785309218965476,-0.657527830222745,0.002181661564992912,0.002181661564992912,-0.001090830782496456
1589988650.167687,3.78,-0.5643655541004495,8.980422963933034,-0.33555555555555555,0.4622222222222222,-0.6611111111111111,0.0016593152776466283,0.0027040078523391958,-0.001090830782496456
1589988650.177687,3.775386404755751,-0.5661592142672525,8.933091238046007,-0.33555555555555555,0.4622222222222222,-0.6611111111111111,0.000587565611455832,0.00226596200540812,0.0009222299016660399
1589988650.187687,3.7748392803439064,-0.5645178410317193,8.909357121375626,-0.33555555555555555,0.4622222222222222,-0.6611111111111111,-0.0010557671928526386,0.002674481571775414,0.0022167251546367293
1589988650.197687,3.7834528347797876,-0.5696414956606375,8.94381133911915,-0.33555555555555555,0.4622222222222222,-0.6611111111111111,-0.0014283698720595982,0.004363323129985824,0.00033753908956314215
1589988650.207687,3.798503789695865,-0.5542518948479325,8.98700757939173,-0.33839015212084383,0.4622222222222222,-0.6488278593281951,0.0004638097784062812,0.0015804644595481367,-0.00016321122568389358
1589988650.217687,3.792646718146718,-0.5542155727155728,8.998431145431146,-0.3422222222222222,0.4622222222222222,-0.6322222222222222,0.001090830782496456,-0.0015506784308963455,0.00045984764839988954
