time,acc_x,acc_y,acc_z,mag_x,mag_y,mag_z,gyr_x,gyr_y,gyr_z
1589988656.519608,-3.78,-1.09,8.97,0.3711111111111111,-0.2966666666666667,-0.6022222222222222,0.002181661564992912,-0.002181661564992912,0.001090830782496456
1589988656.529608,-3.787095633638409,-1.1041912672768184,9.019669435468863,0.3711111111111111,-0.2966666666666667,-0.6022222222222222,-0.001688406232054072,-0.0014076480055835153,0.0003168172230870593
1589988656.539608,-3.7972351609841573,-1.0991472585237645,9.029147258523764,0.37633650515522454,-0.29907838699471906,-0.6042319891622658,-0.003272492347489368,0.00048763648107073084,0.0007892336317835934
1589988656.549608,-3.8094839745929767,-1.0807740381105353,9.010774038110535,0.3851828705393719,-0.30316132486432545,-0.6076344373869379,-0.003272492347489368,0.0031599130677830833,0.0021253719251397695
1589988656.559608,-3.81,-1.08,8.921154356479434,0.3855555555555555,-0.3033333333333333,-0.6077777777777778,-0.003272492347489368,0.006503011108920712,0.0011048219778491306
1589988656.569608,-3.81,-1.0704131370642966,8.92,0.3855555555555555,-0.3033333333333333,-0.6077777777777778,-0.00222672782770541,0.00027039757627498554,0.0031823598220643732
1589988656.579608,-3.7960404970887285,-1.0769797514556358,8.913020248544365,0.3855555555555555,-0.3033333333333333,-0.6077777777777778,-0.002181661564992912,0.0015227455483963735,0.0017497467990929942
1589988656.589608,-3.79,-1.0714905261699401,8.91850947383006,0.3732640933565801,-0.2910418711343579,-0.6153417545156088,0.000603057234010303,0.0012534219653251738,0.0020190703821641944
1589988656.599608,-3.7806797078123062,-1.088640584375387,8.938640584375387,0.3711111111111111,-0.2888888888888889,-0.6166666666666667,0.0031242031065359067,-0.0039926000276021695,0.002181661564992912
1589988656.609608,-3.793045344870621,-1.0965226724353108,8.900863965388135,0.3711111111111111,-0.2888888888888889,-0.6166666666666667,0.003272492347489368,-0.002940296754670204,0.002893174752650722
1589988656.619608,-3.8,-1.057594197058231,8.964811605883538,0.3711111111111111,-0.2888888888888889,-0.6166666666666667,0.003272492347489368,0.0005937917473287178,0.003272492347489368
1589988656.629608,-3.80535534917651,-1.0607106983530203,9.017487444235572,0.3711111111111111,-0.2888888888888889,-0.6166666666666667,0.0021041364009384937,0.0016750087557718932,0.005025026267315679
1589988656.639608,-3.81,-1.07,9.072126220886553,0.3764377939171327,-0.2962642958510727,-0.6133887080168072,0.0006885647351070166,0.002583927612382351,0.004533654458031539
1589988656.649608,-3.7946973126153027,-1.0597982084102018,9.079394625230606,0.3855555555555555,-0.3088888888888889,-0.6077777777777778,-0.0005564214151382672,0.0038289137626276353,0.00442935927332606
1589988656.659608,-3.7858940927962705,-1.0794704639813535,8.938012236870858,0.3855555555555555,-0.3088888888888889,-0.6077777777777778,-0.0017337765682027217,0.004363323129985824,0.005706978120356395
1589988656.6696079,-3.7983783636115285,-1.0916216363884717,8.868378363611528,0.3855555555555555,-0.3088888888888889,-0.6077777777777778,-0.002181661564992912,0.002535447743105135,0.004363323129985824
1589988656.6796079,-3.8,-1.071112237939536,8.876295920686822,0.3855555555555555,-0.3088888888888889,-0.6077777777777778,-0.0014948831560588158,0.0035552183828611045,0.0029897663121176317
1589988656.6896079,-3.8,-1.06,8.915536091298145,0.38094902520209223,-0.3055985100649865,-0.6077777777777778,0.00020129796009092952,0.003071194387398438,0.003473790307580297
1589988656.6996078,-3.8,-1.0449647935187452,8.924964793518745,0.37777777777777777,-0.3033333333333333,-0.6077777777777778,0.001090830782496456,0.0062818780777286875,0.006823453037627289
1589988656.7096078,-3.806950369632909,-1.053900739265818,8.892198521468364,0.37777777777777777,-0.3033333333333333,-0.6077777777777778,0.0018489984970270267,0.006877647762944621,0.008393983192005763
1589988656.7196078,-3.81,-1.06,8.914854015753013,0.37777777777777777,-0.3033333333333333,-0.6077777777777778,0.002181661564992912,0.00749548052690381,0.012528629587671945
1589988656.7296078,-3.7965899555665703,-1.093525111083574,9.000460266600577,0.37777777777777777,-0.3033333333333333,-0.6077777777777778,0.0007188526387298954,0.007635815477475192,0.017478396168746524
1589988656.7396078,-3.79,-1.1018933944890372,9.04,0.37237337410380256,-0.29792892965935813,-0.603274108049465,-0.002652880449874108,0.009404402444057932,0.012560606218605252
1589988656.7496078,-3.780946887946218,-1.1,9.067159336161346,0.3711111111111111,-0.2966666666666667,-0.6022222222222222,-0.003272492347489368,0.010805018373033598,0.00893322516383357
1589988656.7596078,-3.78,-1.0717443907138755,8.928721953569378,0.3711111111111111,-0.2966666666666667,-0.6022222222222222,-0.004043044557176802,0.01090830782496456,0.007956094050284215
1589988656.7696078,-3.79225221841401,-1.0661261092070051,8.888378327621014,0.3711111111111111,-0.2966666666666667,-0.6022222222222222,-0.005699832829973031,0.017590856324900594,0.005631050927494382
1589988656.7796078,-3.7894769714392074,-1.0436924285980187,8.889476971439208,0.3711111111111111,-0.2966666666666667,-0.6022222222222222,-0.008266811216859012,0.02526026869368967,0.00321543878206564
1589988656.7896078,-3.78,-1.0378773171342686,8.891918211422846,0.36382775968603875,-0.30395001809173905,-0.605532836506346,-0.010467514637085153,0.03681208907492948,0.0015316239703758636
1589988656.7996078,-3.78,-1.065998457342773,8.87600231398584,0.3588888888888889,-0.3088888888888889,-0.6077777777777778,-0.01876153220884348,0.04865046392704538,0.0028359917566917726
1589988656.8096077,-3.794694915254237,-1.0846949152542373,8.840610169491525,0.3588888888888889,-0.3088888888888889,-0.6077777777777778,-0.023931718048532415,0.058193048947586354,0.001669525756939491
1589988656.8196077,-3.7945527085570405,-1.0845527085570408,8.879025622986633,0.3588888888888889,-0.3088888888888889,-0.6077777777777778,-0.026871729953581322,0.06524597505084816,0.0004966234637755091
1589988656.8296077,-3.7493259539002475,-1.0935580153665843,8.969712723010808,0.3588888888888889,-0.3088888888888889,-0.6077777777777778,-0.03131950044719385,0.07020128934841971,-0.0024649167519050007
1589988656.8396077,-3.67901114718977,-1.1239925685401533,9.120951695510996,0.362775713483376,-0.2948963203487356,-0.6085551426966752,-0.03795928993784474,0.08573200368557775,-0.017664973504314868
1589988656.8496077,-3.6375380298331117,-1.0650760596662237,9.111307044749667,0.3644444444444445,-0.2888888888888889,-0.6088888888888889,-0.03926990816987242,0.1305813536800779,-0.036186390051871804
1589988656.8596077,-3.6117822606354717,-1.0682177393645285,8.936040345719245,0.3644444444444445,-0.2888888888888889,-0.6088888888888889,-0.03993232386608325,0.1654605523117688,-0.03860749247366159
1589988656.8696077,-3.0283951807228915,-1.08,8.814122088353415,0.3644444444444445,-0.2888888888888889,-0.6088888888888889,-0.05854685947751702,0.13627043649439138,-0.06502525530545177
1589988656.8796077,-2.7595473467977967,-1.0063900452653203,8.74308185933211,0.3644444444444445,-0.2888888888888889,-0.6088888888888889,-0.07713749525690744,0.07252728810354214,-0.09900348771151245
1589988656.8896077,-2.648190843303393,-0.8491119677079166,8.925871486235865,0.3759575903770238,-0.29560489068289353,-0.6031323159225992,-0.1000065600851822,0.047847640696344965,-0.12648432633209533
1589988656.8996077,-1.989335517693316,-1.155332241153342,9.318699650502403,0.37777777777777777,-0.2966666666666667,-0.6022222222222222,-0.10162813862341397,0.03434723046105076,-0.15055695068465108
1589988656.9096076,-1.7958610871239526,-0.9554269843863048,8.33170793754522,0.37777777777777777,-0.2966666666666667,-0.6022222222222222,0.042854932052496714,0.00977012377956887,-0.117291944584432
1589988656.9196076,-1.8953202574318113,-0.9092200429053019,8.358300643579527,0.37777777777777777,-0.2966666666666667,-0.6022222222222222,0.09531246789334955,0.06306760356760233,-0.06116859521333598
1589988656.9296076,-2.001850690911478,-0.942827649588079,8.767299537204188,0.37777777777777777,-0.2966666666666667,-0.6022222222222222,0.05740765968049364,0.052831197230975166,-0.023701088751663036
1589988656.9396076,-2.0951058053182146,-0.9816737203545476,9.190084644254572,0.37777777777777777,-0.29536488416868517,-0.5983168747282778,-0.02529476570543367,-0.02274795500363447,0.0009359559816277596
1589988656.9496076,-2.2403601081289826,-0.9628531891613568,9.12033243225848,0.37777777777777777,-0.2888888888888889,-0.5788888888888889,-0.009772157400960643,-0.01577323618926498,0.06900033018890928
1589988656.9596076,-2.2696729182911315,-0.9696729182911314,8.974423605696227,0.37777777777777777,-0.2888888888888889,-0.5788888888888889,0.020922892756599646,0.0057226199609343355,0.11478873162189171
1589988656.9696076,-2.313313603872773,-0.9990363450701562,9.03994081161832,0.37777777777777777,-0.2888888888888889,-0.5788888888888889,0.006452779150601454,-0.0058091555721540775,0.1417489860506101
1589988656.9796076,-2.35,-1.0235575336300444,9.068176726508977,0.37777777777777777,-0.2888888888888889,-0.5788888888888889,-0.016823897832317948,-0.02104048221124534,0.16615190597541157
1589988656.9896076,-2.353662274744182,-1.0190131757674545,8.843092230372182,0.37533626128165654,-0.2864473723927677,-0.5841788412971516,-0.011245617832619162,-0.012843586642584316,0.19731835327415875
1589988656.9996076,-2.345700714212487,-1.0142992857875133,8.676634999829137,0.3711111111111111,-0.2822222222222222,-0.5933333333333334,0.0006728088300337809,-0.0005708940790053386,0.2263832290041206
1589988657.0096076,-2.3504826830253265,-1.0197586584873368,8.634879329243669,0.3711111111111111,-0.2822222222222222,-0.5933333333333334,-0.007767446853028839,-0.008937256460857485,0.24673836704508487
1589988657.0196075,-2.37,-1.0030278549187917,8.734582176218126,0.3711111111111111,-0.2822222222222222,-0.5933333333333334,-0.012329426342496128,-0.018974378614865985,0.26362037662624543
1589988657.0296075,-2.4207746543189583,-1.0,8.906936635797395,0.3711111111111111,-0.2822222222222222,-0.5933333333333334,-0.00992214276114591,-0.023096613828794715,0.27348452925057704
1589988657.0396075,-2.5186630681373696,-1.0,9.10874325275757,0.3882768781454536,-0.3003416429806948,-0.6133600615400663,-0.004981656842726912,-0.024152860643107302,0.27519852404547746
1589988657.0496075,-2.53,-1.0,9.13,0.3911111111111111,-0.3033333333333333,-0.6166666666666667,-0.004363323129985824,-0.02399827721492203,0.2748893571891069
1589988657.0596075,-2.562572864321608,-0.983713567839196,9.032281407035176,0.3911111111111111,-0.3033333333333333,-0.6166666666666667,-0.0016984618992790293,-0.019556841830410704,0.25623532857415937
1589988657.0696075,-2.57,-0.9647320047722151,9.032901992841676,0.3911111111111111,-0.3033333333333333,-0.6166666666666667,-0.0002580908234226183,-0.01188220362984905,0.2361598515342784
1589988657.0796075,-2.57,-0.9554896750902526,9.02195870036101,0.3911111111111111,-0.3033333333333333,-0.6166666666666667,-0.0009840002501225792,-0.010801477292590683,0.21846412263765513
1589988657.0896075,-2.5641190565331335,-0.9470595282665668,8.97794646199925,0.38817063937767793,-0.3023531760888556,-0.6132361163109946,-0.0034646843977487584,-0.01103687148289413,0.19327185429867194
1589988657.0996075,-2.4999096976835493,-0.93,8.782296819787986,0.3711111111111111,-0.2966666666666667,-0.5933333333333334,-0.01090830782496456,-0.00545415391248228,0.13744467859455345
1589988657.1096075,-2.481608261504404,-0.9635669539823842,8.634123922566058,0.3711111111111111,-0.2966666666666667,-0.5933333333333334,-0.01090830782496456,-0.0027079639115852746,0.09991341524896105
1589988657.1196074,-2.496990871478295,-0.9756636238260984,8.660972614434884,0.3711111111111111,-0.2966666666666667,-0.5933333333333334,-0.00812818298046975,-0.0027994670859917588,0.06522827082775008
1589988657.1296074,-2.5458690658499235,-0.9929345329249617,8.828148928024502,0.3711111111111111,-0.2966666666666667,-0.5933333333333334,0.0021102480643011463,-0.004043215245306064,-0.020688825248653592
1589988657.1396074,-2.568029771441319,-1.0,8.972193514368573,0.3711111111111111,-0.3042503396945791,-0.599578711121026,0.01156930141538845,-0.001520667974569022,-0.08364532207172974
1589988657.1496074,-2.58,-1.0042260751317356,9.092260751317356,0.3711111111111111,-0.31555555555555553,-0.6088888888888889,0.01694675987815784,0.0061617569096203,-0.14563816578058486
1589988657.1596074,-2.620242748884788,-1.0189428330855086,9.096343001486948,0.3711111111111111,-0.31555555555555553,-0.6088888888888889,0.021213540748052685,0.015528748793057583,-0.2133851170365896
1589988657.1696074,-2.6001555791878372,-1.0125388947969594,8.981981960691638,0.3711111111111111,-0.31555555555555553,-0.6088888888888889,0.02181661564992912,0.01854412330243975,-0.2829334662159958
1589988657.1796074,-2.554092214422463,-0.9948991349358293,8.964092214422463,0.3711111111111111,-0.31555555555555553,-0.6088888888888889,0.014334837576080225,0.026025901376288643,-0.362432452866438
1589988657.1896074,-2.5289560291340707,-1.0304474160853982,8.923732321091371,0.38126024980624384,-0.3093533041307522,-0.6156549813523108,0.007098534340202572,0.03270865496694246,-0.4429094143345811
1589988657.1996074,-2.484965328310932,-1.0350346716890677,8.827517335844535,0.3911111111111111,-0.3033333333333333,-0.6222222222222222,0.0055933443312230526,0.03708068241573626,-0.529394858875571
1589988657.2096074,-2.517607847857487,-1.043477130476649,8.737830043331728,0.3911111111111111,-0.3033333333333333,-0.6222222222222222,0.00884499903649335,0.04420217544366104,-0.6058830773641222
1589988657.2196074,-2.541596481377503,-1.0542017593112485,8.691596481377502,0.3911111111111111,-0.3033333333333333,-0.6222222222222222,0.015794078264029256,0.046273233704586234,-0.6872960741927876
1589988657.2296073,-2.5536920211210146,-1.0647680844840592,8.77014840129928,0.3911111111111111,-0.3033333333333333,-0.6222222222222222,0.021363282504340757,0.04823131503790916,-0.7543489403200938
1589988657.2396073,-2.562182844243792,-1.0910914221218961,8.893638073739654,0.39135364936042133,-0.30280783379316106,-0.6227881448039462,0.026537105834093522,0.05243924801631401,-0.8124522031870092
1589988657.2496073,-2.6318664389783093,-1.1259332194891545,9.043398975402392,0.3977777777777778,-0.2888888888888889,-0.6377777777777778,0.04182234043465293,0.061013677582900445,-0.9458147323750263
1589988657.2596073,-2.66501321836743,-1.1800264367348599,8.998707040305852,0.3977777777777778,-0.2888888888888889,-0.6377777777777778,0.047861282007188526,0.07090688466268702,-1.036318081375807
1589988657.2696073,-2.702623668325999,-1.21,8.972623668325998,0.3977777777777778,-0.2888888888888889,-0.6377777777777778,0.04538559613889211,0.07726131743763268,-1.1165204599557814
1589988657.2796073,-2.7003973238106966,-1.2247020071419776,8.994900669047325,0.3977777777777778,-0.2888888888888889,-0.6377777777777778,0.03986950019153646,0.0806998072525714,-1.1931016419861338
1589988657.2896073,-2.6603377484713144,-1.256385209607238,8.977060706549867,0.40178305123732483,-0.29143769927223706,-0.6377777777777778,0.03601583714384558,0.08324218796861275,-1.2573410444677002
1589988657.2996073,-2.6060033955857387,-1.3016638370118847,8.904339558573854,0.41,-0.2966666666666667,-0.6377777777777778,0.032543427011931615,0.08668456271540344,-1.3177928502324001
1589988657.3096073,-2.576870251620548,-1.3534962012964382,8.796381647731232,0.41,-0.2966666666666667,-0.6377777777777778,0.02872965214043094,0.09056560415535145,-1.3837680022702668
1589988657.3196073,-2.6083948543569995,-1.389630873858003,8.746789708714,0.41,-0.2966666666666667,-0.6377777777777778,0.031203373405179362,0.09595284344385668,-1.4295819382984245
1589988657.3296072,-2.626152774391306,-1.4474722212546587,8.752416663763976,0.41,-0.2966666666666667,-0.6377777777777778,0.04321356408774101,0.10226235566799101,-1.4917762394219998
1589988657.3396072,-2.6814730497543,-1.4691784398034398,8.819829929361179,0.42070817977067976,-0.2905477067977068,-0.644406650969151,0.04949837313077649,0.10312831810351918,-1.5351542434045422
1589988657.3496072,-2.7440567542299865,-1.5240567542299865,8.952075672306648,0.4566666666666666,-0.27,-0.6666666666666666,0.05847781633097598,0.10407144757627253,-1.5891604613185193
1589988657.3596072,-2.78,-1.5670261660978384,8.95432992036405,0.4566666666666666,-0.27,-0.6666666666666666,0.06550866990665918,0.10990833703276294,-1.627901008010923
1589988657.3696072,-2.8238119597812665,-1.6511944346445582,8.930241444699242,0.4566666666666666,-0.27,-0.6666666666666666,0.06524193679623516,0.12001772360563048,-1.6774912283733021
1589988657.3796072,-2.7868403644666366,-1.7191449544416704,8.915985318908307,0.4566666666666666,-0.27,-0.6666666666666666,0.06276940549431936,0.1279394394394679,-1.712701603167667
1589988657.3896072,-2.6912240503973845,-1.747551899205231,8.848775949602615,0.4766563296504021,-0.2495227842605637,-0.6827559076047952,0.05021100963708475,0.12802777110792352,-1.7556933187361903
1589988657.3996072,-2.6747279169830422,-1.8016324981017464,8.917992913186534,0.5022222222222222,-0.22333333333333333,-0.7033333333333334,0.03145601477422202,0.1191788538060991,-1.8098439828063504
1589988657.4096072,-2.640108192845395,-1.8957619757401316,8.826519325657895,0.5022222222222222,-0.22333333333333333,-0.7033333333333334,0.03879580942928904,0.1256235793142829,-1.855633992319181
1589988657.4196072,-2.6313784970898157,-1.9513784970898154,8.741378497089816,0.5022222222222222,-0.22333333333333333,-0.7033333333333334,0.048297295841674553,0.135563758441391,-1.890483645090094
1589988657.4296072,-2.630640142820709,-1.9646799285896455,8.754679928589645,0.5022222222222222,-0.22333333333333333,-0.7033333333333334,0.05119921802793108,0.13744467859455345,-1.9209265787683178
1589988657.4396071,-2.593085370511841,-2.039978036669213,8.797680481283422,0.5165766912825737,-0.2059883498854087,-0.7111086707410237,0.05764455270196058,0.13861905084836026,-1.9606358318472215
1589988657.4496071,-2.5814685782357,-2.1286714455892497,8.8414685782357,0.5288888888888889,-0.19111111111111112,-0.7177777777777777,0.06405389632794352,0.14400493751938595,-2.0000345123392207
1589988657.4596071,-2.566688770400844,-2.190794651798522,8.820860963001056,0.5288888888888889,-0.19111111111111112,-0.7177777777777777,0.06926413797347755,0.15234787700194183,-2.034291026001287
1589988657.469607,-2.55,-2.2425813453640058,8.805645336341001,0.5288888888888889,-0.19111111111111112,-0.7177777777777777,0.07014739964727298,0.1584520445603173,-2.069658562715765
1589988657.479607,-2.5036369522987263,-2.32954457155191,8.842454133390891,0.5288888888888889,-0.19111111111111112,-0.7177777777777777,0.06821659690124772,0.16136360981903702,-2.1054717555687934
1589988657.489607,-2.453479845276873,-2.423919381107492,8.88,0.5381684762938834,-0.17100533840028956,-0.7278306641331885,0.06459477063770994,0.16291337882660573,-2.140405754080272
1589988657.499607,-2.437204121298251,-2.45621705782775,8.87792764739075,0.5555555555555556,-0.13333333333333333,-0.7466666666666667,0.05800062784746596,0.16294644156896138,-2.1727590371160423
1589988657.509607,-2.348584289496911,-2.4941571050308915,8.844517210944394,0.5555555555555556,-0.13333333333333333,-0.7466666666666667,0.05407824894606084,0.1605065550865663,-2.2071648613421666
1589988657.519607,-2.3272825322391557,-2.573641266119578,8.696358733880421,0.5555555555555556,-0.13333333333333333,-0.7466666666666667,0.052309492175503555,0.16387066173853912,-2.254192988192585
1589988657.529607,-2.3013026045777427,-2.5756312549329126,8.716513022888714,0.5555555555555556,-0.13333333333333333,-0.7466666666666667,0.0545415391248228,0.1699313239894442,-2.2831503602646466
1589988657.539607,-2.282432328907048,-2.6432431052093976,8.764594611848825,0.5555555555555556,-0.12108103506979911,-0.7497297412325502,0.05604512233631929,0.17913211680875454,-2.3275970910074513
1589988657.549607,-2.2325502372313704,-2.6814322262536052,8.77,0.5555555555555556,-0.10666666666666667,-0.7533333333333333,0.06288996170572064,0.1864320278552849,-2.361782955625958
1589988657.559607,-2.2243111143103946,-2.7701778001727613,8.739822199827238,0.5555555555555556,-0.10666666666666667,-0.7533333333333333,0.06795148659127559,0.19106507347020651,-2.3835234447252307
1589988657.569607,-2.2231750016515823,-2.8304749950452535,8.7,0.5555555555555556,-0.10666666666666667,-0.7533333333333333,0.06906867825087902,0.19640135477105164,-2.4047446392625496
1589988657.579607,-2.1963280440817003,-2.8791146372788665,8.736458549115465,0.5555555555555556,-0.10666666666666667,-0.7533333333333333,0.06266024505724163,0.2017071166708556,-2.4314902859662206
1589988657.589607,-2.1492299276216125,-2.9383529708803233,8.788791449250969,0.5604396940283155,-0.10422459743028671,-0.7464955394714694,0.05048971143710346,0.20097652885119854,-2.4498262744806993
1589988657.599607,-2.1153154264972778,-3.031892558983666,8.8,0.5666666666666667,-0.10111111111111112,-0.7377777777777778,0.03790381584109954,0.2066487255978139,-2.462928976111879
1589988657.609607,-2.081063028004236,-3.0655624245708233,8.711001206866827,0.5666666666666667,-0.10111111111111112,-0.7377777777777778,0.03442252065210701,0.20894870221157033,-2.4709771263683473
1589988657.619607,-2.028677004656551,-3.112645990686897,8.645330748835862,0.5666666666666667,-0.10111111111111112,-0.7377777777777778,0.036651068517061264,0.20449469261694217,-2.4694244169651163
1589988657.629607,-2.00131589836961,-3.15868410163039,8.655789401086928,0.5666666666666667,-0.10111111111111112,-0.7377777777777778,0.04007365446272733,0.20051196502202642,-2.4644738221491354
1589988657.639607,-1.9839596954398742,-3.176040304560126,8.667360203040085,0.5666666666666667,-0.10111111111111112,-0.7377777777777778,0.043860190547329564,0.19356998220025565,-2.4606872860645335
1589988657.649607,-1.96,-3.2356874665821733,8.71454997326574,0.5877777777777777,-0.06,-0.73,0.05079862235706241,0.18603573871711362,-2.4403589209809335
1589988657.659607,-1.96,-3.277217656494445,8.747774125195557,0.5877777777777777,-0.06,-0.73,0.05532886331298542,0.1824115459523752,-2.417707716201319
1589988657.669607,-1.89,-3.3541388954470337,8.664833372682201,0.5877777777777777,-0.06,-0.73,0.06240309633025591,0.1794977177987062,-2.381094208903297
1589988657.679607,-1.89,-3.3693734449630424,8.756240669778254,0.5877777777777777,-0.06,-0.73,0.06323401210873236,0.17368130734937104,-2.360321314441386
1589988657.689607,-1.82722708444682,-3.4364143506146445,8.785490045430251,0.5715936219490468,-0.06525985064433755,-0.7138158441712691,0.06187487643803078,0.1661026718304563,-2.307486068105938
1589988657.699607,-1.760351479414552,-3.52412130146362,8.820351479414553,0.5433333333333333,-0.07444444444444444,-0.6855555555555556,0.054579879581303496,0.15945299652688613,-2.2647669279727682
1589988657.709607,-1.7458118895453998,-3.5793167731822018,8.776495116363199,0.5433333333333333,-0.07444444444444444,-0.6855555555555556,0.05482126428363829,0.1515228804298137,-2.2253877135560955
1589988657.7196069,-1.7020483977691654,-3.60313262123074,8.683614708384535,0.5433333333333333,-0.07444444444444444,-0.6855555555555556,0.05856314628796929,0.14743301362044123,-2.1782971991009283
1589988657.7296069,-1.6354934196869682,-3.590879935234774,8.652639805704322,0.5433333333333333,-0.07444444444444444,-0.6855555555555556,0.05871289016666969,0.14221526876597204,-2.1277659107279705
1589988657.7396069,-1.532992600712524,-3.532992600712524,8.706149630035627,0.5343491367497945,-0.030379099296610944,-0.6615976979994519,0.05622157995727829,0.13778307827824376,-2.072554571571274
1589988657.7496068,-1.425458865602397,-3.452511880406592,8.75024131320779,0.52,0.04,-0.6233333333333333,0.05637541128557308,0.14054327623992152,-2.0191225945956526
1589988657.7596068,-1.4657317661018205,-3.5242904816641327,8.807117431124624,0.52,0.04,-0.6233333333333333,0.054231953348218995,0.1388475220084481,-1.9810949999100858
1589988657.7696068,-1.5159488163188921,-3.6028614204173293,8.72286142041733,0.52,0.04,-0.6233333333333333,0.06641089469308252,0.12245726381943475,-1.9022897935523184
1589988657.7796068,-1.4268939642393315,-3.6629058494798565,8.714329061118471,0.52,0.04,-0.6233333333333333,0.06530995318586963,0.11680624147005796,-1.8484139558184447
1589988657.7896068,-1.3498626506972413,-3.646399139435123,8.53825748730798,0.52,0.04,-0.6233333333333333,0.05990814495550795,0.15761990365501277,-1.8039990881465822
1589988657.7996068,-1.36,-3.724586212311558,8.922078360552764,0.5466666666666666,0.14,-0.6088888888888889,0.03272560867010882,0.09849312925151359,-1.7367369896459264
1589988657.8096068,-1.3393238860826668,-3.83,8.698647772165334,0.5466666666666666,0.14,-0.6088888888888889,0.05555861731996911,0.10731419533705158,-1.6401741207725422
1589988657.8196068,-1.277053862168366,-3.7994051495578214,8.636827167743197,0.5466666666666666,0.14,-0.6088888888888889,0.051602784823815466,0.10833834977649083,-1.5818560725772102
1589988657.8296068,-1.1651043612875673,-3.650139148383423,8.718923468389118,0.5466666666666666,0.14,-0.6088888888888889,0.05323102431242731,0.09938303258912563,-1.524053570731489
1589988657.8396068,-1.1437453820008865,-3.722494458401064,8.658734298803015,0.5476396072443065,0.15084133786512982,-0.6087498973777975,0.048405918220615414,0.08781228098741162,-1.438252729789086
1589988657.8496068,-1.1050068346386879,-3.6760082015664253,8.527023237771537,0.5536656035006485,0.21798815329294124,-0.6078890407697486,0.050941350216528423,0.09119285698196229,-1.3740217858926231
1589988657.8596067,-1.071690350877193,-3.745071052631579,8.610852631578949,0.5544444444444444,0.22666666666666666,-0.6077777777777778,0.049225270050724496,0.0841318550906111,-1.2693721280739203
1589988657.8696067,-1.0292378070237174,-3.754136814694912,8.929035822366107,0.5544444444444444,0.22666666666666666,-0.6077777777777778,0.04004521255951501,0.07079882539798502,-1.1795697015961573
1589988657.8796067,-0.9251882980442864,-3.6888702117342818,8.868828188136415,0.5544444444444444,0.22666666666666666,-0.6077777777777778,0.05373368610310002,0.07753114607844497,-1.0946554781752496
1589988657.8896067,-0.9433319678588309,-3.6266557428706476,8.629979517882465,0.5509273672601228,0.23407103968629098,-0.6042607005934562,0.05417807781415264,0.0776333973154993,-1.0182956742410303
1589988657.8996067,-0.9626723349947398,-3.7493106600210404,8.87465533001052,0.5333333333333333,0.27111111111111114,-0.5866666666666667,0.049444812286425166,0.04814694508357493,-0.9325387498069981
1589988657.9096067,-0.9699060069330666,-3.7203759722677336,8.860187986133866,0.5333333333333333,0.27111111111111114,-0.5866666666666667,0.041554100265617545,0.05445951470022103,-0.8702021248426179
1589988657.9196067,-0.9229119389958198,-3.7696839542468648,8.685191786485369,0.5333333333333333,0.27111111111111114,-0.5866666666666667,0.03729509806659779,0.047043624621826464,-0.7557512578216601
1589988657.9296067,-0.938460042236301,-3.7969239746582195,8.7684600422363,0.5333333333333333,0.27111111111111114,-0.5866666666666667,0.026012379800098327,0.03817907738737596,-0.6787459634154099
1589988657.9396067,-0.8999100314889789,-3.820179937022042,8.73,0.5336532213725196,0.2714709851551957,-0.5868566001899336,0.032607154969361,0.038100565050354175,-0.6134016773859254
1589988657.9496067,-0.8909253903990746,-3.8381492192018505,8.73,0.5655986119144014,0.3074095495148127,-0.6058241758241758,0.020846287284700928,0.030259986593914125,-0.5398962543568
1589988657.9596066,-0.87,-3.803486904989486,8.661907857006309,0.5688888888888889,0.3111111111111111,-0.6077777777777778,0.024206392130030317,0.025505337827635064,-0.4334831405685979
1589988657.9696066,-0.8681773785506133,-3.8254190284049057,8.638177378550614,0.5688888888888889,0.3111111111111111,-0.6077777777777778,0.022015432808112054,0.019930516234700914,-0.3646010804534646
1589988657.9796066,-0.8614615557049988,-3.771692445639991,8.631461555705,0.5688888888888889,0.3111111111111111,-0.6077777777777778,0.022748015437090967,0.017000185718785272,-0.3133202964249409
1589988657.9896066,-0.8691691394658754,-3.78986646884273,8.75986646884273,0.5668513023409166,0.31705407187603035,-0.6079475766567755,0.016529161397086503,0.008983978744269774,-0.21228473355627617
1589988657.9996066,-0.9098397027371514,-3.866132342457171,8.815811747931473,0.5555555555555556,0.35,-0.6088888888888889,0.01597553718479266,0.0028855677948351885,-0.12173590466794006
1589988658.0096066,-0.8852728410513142,-3.8118178973717147,8.695818523153942,0.5555555555555556,0.35,-0.6088888888888889,0.011800836766212441,-0.0020626121979920474,-0.047005386534859805
1589988658.0196066,-0.87,-3.864491414909802,8.654347424472942,0.5555555555555556,0.35,-0.6088888888888889,0.007319661848164385,-0.01014933759187028,0.03307148333064552
1589988658.0296066,-0.87,-3.932862989032575,8.69071063185464,0.5555555555555556,0.35,-0.6088888888888889,0.0042858052197793615,-0.018310453563899168,0.13385318654286865
1589988658.0396066,-0.8688752263845201,-3.87224954723096,8.72775045276904,0.5594297757866531,0.3490002012306845,-0.6087639140427245,-0.0008588563781737419,-0.01892561773966971,0.2244906043446202
1589988658.0496066,-0.8732375868096566,-3.909856380214485,8.696762413190344,0.59,0.3411111111111111,-0.6077777777777778,-0.007876481597107566,-0.031987258627695005,0.33957304071264705
1589988658.0596066,-0.9128681438087589,-3.9693022157131383,8.657131856191242,0.59,0.3411111111111111,-0.6077777777777778,-0.008596985455475919,-0.03631028177790513,0.4058593956825356
1589988658.0696065,-0.9363002283562357,-3.9726004567124713,8.628900685068707,0.59,0.3411111111111111,-0.6077777777777778,-0.016160670497585558,-0.04444039625930335,0.5354167937306965
1589988658.0796065,-0.9203080621029653,-3.9396919378970345,8.587085428368203,0.59,0.3411111111111111,-0.6077777777777778,-0.015439652767367978,-0.048164576242261656,0.6189405323842121
1589988658.0896065,-0.9322014688548372,-3.924863239338713,8.80706470819355,0.6041057078476608,0.3398880728584237,-0.6089192801469526,-0.020485641868076294,-0.05401104200749119,0.7077279587949389
1589988658.0996065,-0.9652126111560226,-3.8730315278900567,8.754362166531932,0.7822222222222223,0.3244444444444444,-0.6233333333333333,-0.018306204025869383,-0.06165513149041893,0.8100398279518282
1589988658.1096065,-0.9764023617198536,-3.9046035425797805,8.699207085159562,0.7822222222222223,0.3244444444444444,-0.6233333333333333,-0.022491771428554717,-0.06444550975887582,0.8874909078106106
1589988658.1196065,-0.9612094758575723,-3.8818142137863583,8.653628427572718,0.7822222222222223,0.3244444444444444,-0.6233333333333333,-0.02994956183664397,-0.06941737003093532,0.9454959443179715
1589988658.1296065,-1.0165009940357852,-3.8083747514910535,8.662753479125248,0.7822222222222223,0.3244444444444444,-0.6233333333333333,-0.032697815354056296,-0.07924896478085088,1.0244007058971887
1589988658.1396065,-1.0485724116837438,-3.8003568970790638,8.775003440893101,0.7822222222222223,0.3244444444444444,-0.6233333333333333,-0.03794548879536026,-0.08274741374172019,1.073378991349359
1589988658.1496065,-1.09,-3.8076575993091537,8.760630397236614,1.4411111111111108,0.25555555555555554,-0.8044444444444444,-0.03618416642914464,-0.08450500280793033,1.1473773590310745
1589988658.1596065,-1.0908340221759827,-3.8,8.716655645184277,1.4411111111111108,0.25555555555555554,-0.8044444444444444,-0.03999682812723024,-0.08699443117378194,1.18600869877126
1589988658.1696064,-1.109383000143823,-3.8117287501797783,8.593457500359557,1.4411111111111108,0.25555555555555554,-0.8044444444444444,-0.038044468900193154,-0.09343429251242548,1.2342147075936656
1589988658.1796064,-1.1415380006452505,-3.8423099967737477,8.677690003226253,1.4411111111111108,0.25555555555555554,-0.8044444444444444,-0.0432141334797499,-0.08676249948206222,1.2681315833422713
1589988658.1896064,-1.1479817486288426,-3.8100912568557863,8.709908743144213,1.4411111111111108,0.25555555555555554,-0.8044444444444444,-0.03688799869011325,-0.09379153813721405,1.2842983722491206
1589988658.1996064,-1.2477767217677607,-3.819555344353552,8.827554393944537,1.0793372405703963,0.06108852003967577,-0.7479512274230716,-0.038106320777362535,-0.09705968743884677,1.304294085019032
1589988658.2096064,-1.2426400228172128,-3.761120182537702,8.793200114086064,1.0711111111111111,0.05666666666666665,-0.7466666666666667,-0.04058762428821273,-0.10029533550996693,1.309450709667435
1589988658.2196064,-1.2316168960923624,-3.660359310242747,8.681077930728241,1.0711111111111111,0.05666666666666665,-0.7466666666666667,-0.03492618237354934,-0.09932439320816572,1.3177235852557188
1589988658.2296064,-1.301459813499112,-3.6758799585553583,8.727639875666075,1.0711111111111111,0.05666666666666665,-0.7466666666666667,-0.035772702420734215,-0.1018639533497204,1.3177235852557188
1589988658.2396064,-1.3217624385365447,-3.739038669889158,8.692723768647387,1.0651651063514553,0.0592302136289135,-0.7459545702882648,-0.035028927362208834,-0.09937046605488226,1.3153321939953162
1589988658.2496064,-1.4178898241520126,-3.686605550462539,8.841284273689473,0.7408565528608866,0.19905186543323056,-0.7071152225648434,-0.041701754443043526,-0.10509003212416915,1.3038930618567426
1589988658.2596064,-1.4180708068603327,-3.682106210290499,8.749822982849167,0.7,0.21666666666666667,-0.7022222222222222,-0.039910889936369286,-0.10317907532116373,1.2946056964970802
1589988658.2696064,-1.4488784017040655,-3.7283176025560985,8.672803995739836,0.7,0.21666666666666667,-0.7022222222222222,-0.03402986219808029,-0.09729804758287473,1.2979662837761023
1589988658.2796063,-1.4757619886641051,-3.63,8.724702485830132,0.7,0.21666666666666667,-0.7022222222222222,-0.046262946971682914,-0.10035643198967394,1.3032103048069772
1589988658.2896063,-1.4401468996115228,-3.63,8.680183624514402,0.7,0.21666666666666667,-0.7022222222222222,-0.03169418367421688,-0.10035643198967394,1.318750318990941
1589988658.2996063,-1.4548005505218489,-3.6855983484344534,8.795199449478151,0.6222222222222222,0.23555555555555555,-0.6822222222222222,-0.03874624934165621,-0.09896025866700535,1.3299845532772878
1589988658.3096063,-1.459923154331717,-3.631938523465374,8.759846308663434,0.6222222222222222,0.23555555555555555,-0.6822222222222222,-0.037527931942696664,-0.10078773476544466,1.325757173260779
1589988658.3196063,-1.4115830679723227,-3.6,8.68336677281107,0.6222222222222222,0.23555555555555555,-0.6822222222222222,-0.038535392285874756,-0.0978075124826822,1.2959921111852888
1589988658.3296063,-1.3625353449912825,-3.6037323275043587,8.701244109168119,0.6222222222222222,0.23555555555555555,-0.6822222222222222,-0.034092317493464044,-0.09545026382873975,1.2371892258147155
1589988658.3396063,-1.3190928550466952,-3.6254535724766526,8.708484524158886,0.6222222222222222,0.23555555555555555,-0.6822222222222222,-0.029353476963479175,-0.09229103680874985,1.1747944921699147
1589988658.3496063,-1.2424747176152098,-3.5301011295391604,8.717323023306468,0.6144444444444445,0.19333333333333333,-0.7244444444444444,-0.024729174910397528,-0.08173335693691255,1.0328681479446473
1589988658.3596063,-1.2620516849737062,-3.4517932601051746,8.854361794815944,0.6144444444444445,0.19333333333333333,-0.7244444444444444,-0.021881820427387365,-0.0724794548671295,0.9367699341430543
1589988658.3696063,-1.3754337706305544,-3.4487546647174243,8.53618935867349,0.6144444444444445,0.19333333333333333,-0.7244444444444444,-0.014452490184606506,-0.054084651704015684,0.7451035633791468
1589988658.3796062,-1.4151029103528845,-3.5131852386351925,8.653391059340962,0.6144444444444445,0.19333333333333333,-0.7244444444444444,-0.020307413799356334,-0.054216535045689136,0.6251500876524062
1589988658.3896062,-1.3538918751691869,-3.3592432035268187,8.814648671642368,0.6144444444444445,0.19333333333333333,-0.7244444444444444,-0.007340992926762954,-0.03171074064985095,0.43487587525557325
1589988658.3996062,-1.4412168600414774,-3.4564196700483905,8.789594379986173,0.5891064277662563,0.14181269942101735,-0.7083970338815919,-0.0007406920973837177,-0.023909784655506458,0.31815329204110465
1589988658.4096062,-1.4483060527445455,-3.3995765131861364,8.824494671419773,0.5811111111111111,0.12555555555555556,-0.7033333333333334,-0.0037165896964244955,-0.01490206899291534,0.13612598655825045
1589988658.4196062,-1.416993038317251,-3.391748259579313,8.722727374531067,0.5811111111111111,0.12555555555555556,-0.7033333333333334,0.008238430314092385,-0.008070628986905692,0.03109259646585215
1589988658.4296062,-19.544660966394908,-12.337313581228873,-7.817725193875522,0.5811111111111111,0.12555555555555556,-0.7033333333333334,-0.568790708429877,1.2967297019895654,-0.8652847620653937
1589988658.4396062,-7.406423359897211,-2.540755005583005,-3.3909894917172707,0.5811111111111111,0.12555555555555556,-0.7033333333333334,-0.8578200537001215,0.5535113855803652,-3.8983433150950297
1589988658.4496062,-0.11820931323981854,-1.3469990092298065,0.14,0.5688888888888889,0.21666666666666667,-0.6733333333333333,-0.361047127981886,-1.619034232583667,-6.675902249902751
1589988658.4596062,-0.4823184920881167,-1.266490329920364,0.09887449581135589,0.5688888888888889,0.21666666666666667,-0.6733333333333333,-0.5525093732847439,-0.6457212810731942,-6.4500465973986545
1589988658.4696062,-0.04023438333084519,-1.0214062999850713,-0.15343748000597154,0.5688888888888889,0.21666666666666667,-0.6733333333333333,-0.5748422551204132,-0.5984655846989708,-6.181976710896307
1589988658.4796062,-0.03036637318943482,-0.7763192274921897,-0.27760579380857714,0.5688888888888889,0.21666666666666667,-0.6733333333333333,-0.5493186508417165,-0.43449453730935517,-5.9240426711995
1589988658.4896061,-0.328053778658364,-0.7423787149731107,-0.532808378148882,0.5683122307135894,0.2178800515771928,-0.6732612510614209,-0.23268590771420894,0.040989549020761816,-5.625844070294053
1589988658.4996061,1.0164157092223889,-0.3277061775969933,5.206483503413497,0.5155555555555555,0.3288888888888889,-0.6666666666666666,1.7921365027279643,2.5586185772846135,-5.109725993604922
1589988658.5096061,5.634457572722255,2.3280645556941066,23.191725096588236,0.5155555555555555,0.3288888888888889,-0.6666666666666666,1.90314552268563,2.794622391720485,-4.7420071801508055
1589988658.519606,-1.8163216746049597,-0.7842862691387804,5.6322361454649545,0.5155555555555555,0.3288888888888889,-0.6666666666666666,0.7536926033271836,2.2502923680698617,-4.2257354051419656
1589988658.529606,-0.23461371417392152,0.24773745475887704,8.186027389220385,0.5155555555555555,0.3288888888888889,-0.6666666666666666,0.022373928491265228,0.39149217875294884,-3.6071736152029747
1589988658.539606,3.072249046268219,-1.0651609116697645,18.574335713587008,0.5155555555555555,0.3288888888888889,-0.6666666666666666,0.2864265759631113,-0.6253342874437197,-3.310897593802361
1589988658.549606,0.21015706806282722,-0.7402215062424486,1.690596053161498,0.4488888888888889,0.4133333333333333,-0.6466666666666666,-0.009274038589810789,-0.9868635820004032,-3.043231172298193
1589988658.559606,1.3499184435491796,-1.3183364449248305,7.270891225311978,0.4488888888888889,0.4133333333333333,-0.6466666666666666,0.17259093128007846,-0.0411948595330299,-2.7895905529741927
1589988658.569606,0.7866669942026137,-1.620568929940061,9.214795617569028,0.4488888888888889,0.4133333333333333,-0.6466666666666666,0.17408949718064667,0.8129877037908655,-2.539330047579297
1589988658.579606,-0.22082906353166126,-2.230533438895777,9.548881884588381,0.4488888888888889,0.4133333333333333,-0.6466666666666666,-0.3614463715924723,0.8005828935477879,-2.243238826602261
1589988658.589606,0.09871039541102133,-1.7982153473850888,6.579044560297566,0.4488888888888889,0.4133333333333333,-0.6466666666666666,-0.090797082763789,0.16633405508057053,-2.1530223969927
1589988658.599606,0.16226857478925702,-1.7103085669476572,5.894428543422858,0.402737938094927,0.45857936352349216,-0.623138730967784,0.14442770637419514,0.07184740589658867,-1.9173666745669404
1589988658.609606,0.22508678931504003,-2.93121505041056,9.584028687246647,0.3922222222222223,0.4688888888888889,-0.6177777777777778,0.020923973434920834,0.30130047817102895,-1.6951669092257218
1589988658.619606,0.2125375192856141,-3.0118226658562817,9.839942727570246,0.3922222222222223,0.4688888888888889,-0.6177777777777778,-0.03896661345466803,-0.09996740692029793,-1.515615456486317
1589988658.629606,0.25564754685837154,-3.380537758182568,10.292059162087615,0.3922222222222223,0.4688888888888889,-0.6177777777777778,0.06824756031065055,0.2468203239951894,-1.2542608447292989
1589988658.639606,0.11900462611037507,-2.1416419434007343,6.9033147275373015,0.3922222222222223,0.4688888888888889,-0.6177777777777778,0.05334212989443673,0.016283000224415672,-1.111168712733646
1589988658.649606,0.1735713126723998,-2.949998377413597,9.397673616745092,0.3595536309877945,0.5130356338002777,-0.6407340851316998,0.01335300863977696,0.07737093000393326,-0.9179733967425046
1589988658.659606,0.17,-3.021973584391838,8.962828298546947,0.3511111111111111,0.5244444444444445,-0.6466666666666666,0.06463193074498098,0.03279668502844273,-0.649181048716991
1589988658.669606,0.17,-3.070925713396487,9.281017137077166,0.3511111111111111,0.5244444444444445,-0.6466666666666666,-0.03682519871033557,0.034576634668009684,-0.46317631138224397
1589988658.679606,0.18,-2.6427141539407604,7.555083529773496,0.3511111111111111,0.5244444444444445,-0.6466666666666666,0.01800811027552564,0.009345167549413424,-0.198115307107305
1589988658.689606,0.18,-3.2273454955416625,9.790438659424002,0.3511111111111111,0.5244444444444445,-0.6466666666666666,-0.011065051163804365,0.0009045722928337427,-0.015235743214745245
1589988658.699606,0.20808319168083192,-2.934279572042796,8.494785521447856,0.34175004721750046,0.550447399704474,-0.6466666666666666,0.015432076118539252,-0.013274737647686597,0.19020965019759817
1589988658.709606,0.1799102611501361,-3.188564178402178,9.37048768191443,0.3411111111111111,0.5522222222222222,-0.6466666666666666,-0.007684760427383866,-0.03065094079969985,0.393184278303287
1589988658.719606,0.17286172822908616,-3.075787651665378,8.623343192283132,0.3411111111111111,0.5522222222222222,-0.6466666666666666,-0.011529138768244355,-0.03910857314959292,0.5169732608789948
1589988658.729606,0.16798676976983026,-3.286175013592702,9.123613242312572,0.3411111111111111,0.5522222222222222,-0.6466666666666666,-0.03588505754991542,-0.05242116389026676,0.7348849813621697
1589988658.739606,-0.104403280372138,-13.592654352685312,6.906484927203528,0.3411111111111111,0.5522222222222222,-0.6466666666666666,-0.020682983285046898,-0.060713204398376866,0.8371534809621943
1589988658.749606,0.9030031545741324,-13.274952681388012,5.64,0.3411111111111111,0.5482825096389765,-0.6616375744830003,-0.14041022423605326,-0.14048524035926596,1.2877673761265558
1589988658.759606,1.1409377161222083,-3.6987563565355357,9.007965705219478,0.3411111111111111,0.5466666666666666,-0.6677777777777778,-0.541290372552643,-0.44584274564968757,3.7963787525460595
1589988658.7696059,-1.492653663679494,-4.068747496046389,12.537532946758038,0.3411111111111111,0.5466666666666666,-0.6677777777777778,0.3538002975072509,-0.2491517310280092,5.594913980617982
1589988658.7796059,-1.301032156035846,-2.9927190300474433,8.299749604638905,0.3411111111111111,0.5466666666666666,-0.6677777777777778,0.5057465851796641,-0.08996990584738587,5.567579727809188
1589988658.7896059,-0.4864218181818182,-4.2610981818181815,11.973854545454547,0.3411111111111111,0.5466666666666666,-0.6677777777777778,-0.27260852918934153,-0.48807735866282337,5.379350687404759
1589988658.7996058,14.51539291901737,-25.905583492514772,8.933639998223091,0.4,0.5344444444444445,-0.6755555555555556,-0.6988810018678638,-0.5485418806128352,4.740377068949957
1589988658.8096058,-2.8498400781839983,-0.9477191150992859,15.454918484296567,0.4,0.5344444444444445,-0.6755555555555556,-0.49461873414186275,-0.39305866189602834,0.5311516315315679
1589988658.8196058,-2.6086310107006323,0.613314314256623,12.206119724127332,0.4,0.5344444444444445,-0.6755555555555556,0.13198260325514505,0.20712192704722976,-0.9755046139335704
1589988658.8296058,-0.4033534290173515,0.008797013189705272,0.9889919515255379,0.4,0.5344444444444445,-0.6755555555555556,1.0845675103507777,0.4975100370417147,-1.0492910503202229
1589988658.8396058,-0.931341053900465,-1.4056797830204926,6.664018426037541,0.4,0.5344444444444445,-0.6755555555555556,0.19558218356565316,-0.075877265020457,-0.9106791958836329
1589988658.8496058,-0.8950593875779339,-2.8966518033304394,10.355293189172125,0.46,0.4566666666666666,-0.6611111111111111,-0.5719682450500101,0.05750103423314703,-0.6778573869531945
1589988658.8596058,-0.6881745718569963,-2.0194601846736644,7.243745560729225,0.46,0.4566666666666666,-0.6611111111111111,-0.10888042528918501,0.007852242640855836,-0.39711603813132973
1589988658.8696058,-0.622002153104449,-2.6053874417842686,8.08580753118491,0.46,0.4566666666666666,-0.6611111111111111,0.18248729216428183,0.08467814879539229,-0.11203459385000003
1589988658.8796058,1.6258732944838399,-12.980952280652483,8.429369280816307,0.46,0.4566666666666666,-0.6611111111111111,-0.18585585032736565,-0.0684412389264263,-0.028514927819917185
1589988658.8896058,-0.329761381475667,-6.83989638932496,9.338182103610674,0.46,0.4566666666666666,-0.6611111111111111,-0.14938182650448484,-0.043303755879838896,-0.4689503795804968
1589988658.8996058,-4.686775276752767,-7.4251387453874536,7.82070848708487,0.4628165231652317,0.46567954079540796,-0.672940508405084,0.04984754533512452,0.1126288418215766,-1.2850518347499644
1589988658.9096057,-0.5511060600996087,-1.0527235351138167,10.354914931309958,0.4655555555555556,0.4744444444444445,-0.6844444444444444,0.0827347948588811,0.10380131621935881,-0.5259203414890075
1589988658.9196057,3.136102747264157,-5.88615362252632,8.84135411259007,0.4655555555555556,0.4744444444444445,-0.6844444444444444,0.04968296246516314,-0.1623093097131269,0.5339040538098816
1589988658.9296057,1.4995046642510212,-4.725568961529566,8.897854059054815,0.4655555555555556,0.4744444444444445,-0.6844444444444444,-0.05651186326352527,-0.09844770938887751,0.5738793384486055
1589988658.9396057,-1.128478221633979,-3.747689808687282,8.258815726146072,0.4655555555555556,0.4744444444444445,-0.6844444444444444,-0.02615021032699287,0.049216569449817615,-0.1302622384305711
1589988658.9496057,0.2245756457564574,-4.087564575645756,8.614642066420664,0.45747355473554735,0.4707708077080771,-0.6785666256662567,0.013370928757552497,0.07243518916360416,-0.3480458632391441
1589988658.9596057,-0.32954227910356004,-4.489978203766836,8.65010898116582,0.4533333333333333,0.4688888888888889,-0.6755555555555556,-0.024996381589316035,-0.040258502143435404,0.1676431884743297
1589988658.9696057,-0.16545520594645952,-4.482164533616499,8.68917733191751,0.4533333333333333,0.4688888888888889,-0.6755555555555556,0.00824484691530784,-0.0036079168691065047,0.044054005572522995
1589988658.9796057,-0.07,-4.492673544262415,8.599665806967199,0.4533333333333333,0.4688888888888889,-0.6755555555555556,-0.005563518326725086,-0.002181661564992912,-0.012688966537733846
1589988658.9896057,-0.07,-4.553617276326783,8.592047840459152,0.4533333333333333,0.4688888888888889,-0.6755555555555556,-0.00805649203682619,-0.002181661564992912,-0.003548062934029801
1589988658.9996057,-0.09980061613822928,-4.499302156483802,8.739601232276458,0.4533333333333333,0.4688888888888889,-0.6755555555555556,-0.010788686095290668,-0.003294241752884621,-0.0010799560797988296
1589988659.0096056,-0.08374925852930484,-4.443122404852566,8.707498517058609,0.4533333333333333,0.4688888888888889,-0.6755555555555556,-0.0011585628559202532,-0.005045173250951969,-0.00020449033076515527
1589988659.0196056,-0.09711532318176978,-4.421442338409115,8.7,0.4533333333333333,0.4688888888888889,-0.6755555555555556,0.001090830782496456,-0.0017201696366723478,0.0
1589988659.0296056,-0.08341958327658995,-4.53606291706387,8.61709791638295,0.4533333333333333,0.4688888888888889,-0.6755555555555556,0.00651675946705087,-0.0028994736773479274,0.001808642894851471
1589988659.0396056,-0.06981274517060174,-4.5141573532677075,8.650936274146991,0.4533333333333333,0.4688888888888889,-0.6755555555555556,0.0031907870146578666,-0.0010499781160807054,0.0005147758914364148
1589988659.0496056,-0.07039952718676122,-4.483866036249014,8.689600472813238,0.44640031520882584,0.4646520444794676,-0.6801775676385605,0.0015561315725400582,0.0014689682617873867,-0.0018471057410783176
1589988659.0596056,-0.08205133830627469,-4.4702566915313735,8.701794646774902,0.43333333333333335,0.4566666666666666,-0.6888888888888889,0.007412049180495335,-0.0012865963770734858,0.0019298945656102285
1589988659.0696056,-0.09411628648907322,-4.474116286489074,8.64647671079917,0.43333333333333335,0.4566666666666666,-0.6888888888888889,0.001476423542747238,-0.0037215095486749002,0.001732644363807379
1589988659.0796056,-0.07881266559301782,-4.451750220790691,8.676499558418618,0.43333333333333335,0.4566666666666666,-0.6888888888888889,-0.00032043756349037407,0.0010294294030567495,0.001861224001502538
1589988659.0896056,-0.0764517080156691,-4.485161956109684,8.69354829198433,0.43333333333333335,0.4566666666666666,-0.6888888888888889,-0.0070377217031709766,0.0004574036662209776,0.0007741172243587167
1589988659.0996056,-0.0695262938230384,-4.51,8.700473706176961,0.4362426961602671,0.46597662771285475,-0.6865613986273419,-0.008052047548801313,-0.001090830782496456,-0.001142504110465299
1589988659.1096056,-0.07545638289271567,-4.525456382892716,8.663630851321853,0.4388888888888889,0.4744444444444445,-0.6844444444444444,-0.0012390793511258148,-0.002776860607039042,0.00034738317182096733
1589988659.1196055,-0.08,-4.501199651125912,8.644239930225183,0.4388888888888889,0.4744444444444445,-0.6844444444444444,0.004398282993788953,-0.002015840063549667,-0.00016582150144324502
1589988659.1296055,-0.0635105729260799,-4.48,8.65648942707392,0.4388888888888889,0.4744444444444445,-0.6844444444444444,0.005237525525746856,-0.002289975758360625,0.0007078866812997968
1589988659.1396055,-0.06239761163905475,-4.4614035825414184,8.700994029097638,0.4388888888888889,0.4744444444444445,-0.6844444444444444,0.001920122706957642,-0.0005677530664259158,-0.0005230777160705404
1589988659.1496055,-0.07,-4.506323833126808,8.691838083436597,0.4435825416494561,0.46192803708293173,-0.6727103125430263,0.00032283364546002095,0.001858827919532891,0.001658324120189264
1589988659.1596055,-0.07750764597939115,-4.484954124123653,8.702522937938173,0.4455555555555555,0.4566666666666666,-0.6677777777777778,0.00573269993688393,0.0013627044311523505,0.003272492347489368
1589988659.1696055,-0.08,-4.485963438231999,8.630182808840004,0.4455555555555555,0.4566666666666666,-0.6677777777777778,0.0050238040047833644,0.0002201602915991803,-0.00021018961609973455
1589988659.1796055,-0.08,-4.448988208627716,8.675618866195654,0.4455555555555555,0.4566666666666666,-0.6677777777777778,-0.0001103693174351987,-0.001789476978968409,-0.00019609229301225143
1589988659.1896055,-0.08,-4.463197998224231,8.680720800710308,0.4455555555555555,0.4566666666666666,-0.6677777777777778,-0.0021030344047080355,-0.002181661564992912,-0.002024407244423159
1589988659.1996055,-0.0781895881895882,-4.49,8.673620823620823,0.44686307519640844,0.45777302943969606,-0.6692864542864543,-0.0034699776406686023,-0.002082918918403295,-0.004067095190216973
1589988659.2096055,-0.06,-4.503445843666463,8.676385390833843,0.46,0.4688888888888889,-0.6844444444444444,-0.004720796904081654,-0.0032909018076983324,-0.001090830782496456
1589988659.2196054,-0.06632501095050372,-4.503674989049496,8.615724923346473,0.46,0.4688888888888889,-0.6844444444444444,-0.00022361314332384596,-0.00022361314332384596,-0.00040087911805279316
1589988659.2296054,-0.07643248425089016,-4.48713503149822,8.60286496850178,0.46,0.4688888888888889,-0.6844444444444444,0.002181661564992912,0.002883336747872377,-0.0007016751828794651
1589988659.2396054,-0.08,-4.485946412781971,8.669464127819703,0.46,0.4688888888888889,-0.6844444444444444,0.002181661564992912,0.0013265333150882755,-0.001090830782496456
1589988659.2496054,-0.07558078047034969,-4.503257658588951,8.71441921952965,0.45361668290161616,0.47429015720290596,-0.6844444444444444,0.0012175374254824963,0.0,-0.001090830782496456
1589988659.2596054,-0.0755756552500402,-4.50884868949992,8.72557565525004,0.4455555555555555,0.4811111111111111,-0.6844444444444444,0.0012164192758663647,0.0,-0.002307250058362821
1589988659.2696054,-0.08,-4.4949460082008725,8.66429810661134,0.4455555555555555,0.4811111111111111,-0.6844444444444444,0.0016303565820956047,-0.0011026099657946143,-0.0016185773987974468
1589988659.2796054,-0.07541517664164735,-4.480830353283294,8.645848233583527,0.4455555555555555,0.4811111111111111,-0.6844444444444444,0.0015909574276564416,-0.0026817882101528977,0.0
1589988659.2896054,-0.07478840431862621,-4.479576808637252,8.704788404318625,0.4455555555555555,0.4811111111111111,-0.6844444444444444,0.0006146599160539836,-0.003272492347489368,0.0015670016489389284
1589988659.2996054,-0.0840618030074106,-4.485938196992589,8.71406180300741,0.4487147356724304,0.47840324243950405,-0.6898601817876586,-0.003749274634248557,-0.003272492347489368,0.0015001964463213007
1589988659.3096054,-0.09,-4.49017460349207,8.674214284285686,0.4533333333333333,0.4744444444444445,-0.6977777777777778,-0.005970999874148334,-0.0010527382097202244,-0.001090830782496456
1589988659.3196054,-0.08372495216088385,-4.506275047839116,8.611174856482652,0.4533333333333333,0.4744444444444445,-0.6977777777777778,-0.0023098185266220944,-0.0002781722864126971,-0.00040632924804187944
1589988659.3296053,-0.08,-4.51,8.621825584872674,0.4533333333333333,0.4744444444444445,-0.6977777777777778,0.0028771725216871283,0.0012899712000136946,0.0
1589988659.3396053,-0.08,-4.492424867642479,8.665150264715042,0.4533333333333333,0.4744444444444445,-0.6977777777777778,0.005002372976053605,-0.0003745378192782133,-0.0006390498460677813
1589988659.3496053,-0.07383925111051487,-4.4738392511105145,8.702321497778971,0.4485416397526226,0.4710218061725083,-0.6977777777777778,0.004110087006106031,-0.0015096281118047873,0.0009252695770679178
1589988659.3596053,-0.07,-4.49002733244522,8.70332422251826,0.4455555555555555,0.4688888888888889,-0.6977777777777778,0.002544277990071492,-0.0018190451399143323,0.0007252328501571594
1589988659.3696053,-0.0831168676137042,-4.519675301420556,8.627857228124627,0.4455555555555555,0.4688888888888889,-0.6977777777777778,0.001466247416844944,-0.0007508332686969757,0.0
1589988659.3796053,-0.07843677146997668,-4.501091928674942,8.642034528385105,0.4455555555555555,0.4688888888888889,-0.6977777777777778,0.0017215070637759899,-0.0006306762812795338,-0.0006306762812795338
1589988659.3896053,-0.074836482718945,-4.48,8.694509448156836,0.4455555555555555,0.4688888888888889,-0.6977777777777778,0.000598926296341706,-0.0005632523596127207,-3.567393672898535e-05
1589988659.3996053,-0.08364478658596305,-4.476355213414037,8.713644786585963,0.4483903895668601,0.4680789363142305,-0.6929180623298271,-0.0026811689439359227,-0.0007951690807197335,0.00029566170177672247
1589988659.4096053,-0.08674357216318135,-4.479769283510456,8.716743572163182,0.4533333333333333,0.4666666666666667,-0.6844444444444444,-0.00545415391248228,-0.0014712192199168863,-0.0014460519550344689
1589988659.4196053,-0.08,-4.5,8.661547498187092,0.4533333333333333,0.4666666666666667,-0.6844444444444444,-0.0036923712302661038,-0.00220222835277022,2.0566787777308304e-05
1589988659.4296052,-0.08353310702719575,-4.507066214054391,8.611198642163174,0.4533333333333333,0.4666666666666667,-0.6844444444444444,-0.0007054285921844886,-0.00391254515123441,0.001730883586241499
1589988659.4396052,-0.09865201302798288,-4.498369967430042,8.662978019541974,0.4533333333333333,0.4666666666666667,-0.6844444444444444,0.002359470535371024,-0.001090830782496456,-0.001090830782496456
1589988659.4496052,-0.11,-4.480316144387148,8.700632288774296,0.45065877738110977,0.47163369914936754,-0.6813878090704747,0.005079048317342978,-0.0003406195922178541,-0.000715725187357155
1589988659.4596052,-0.09105459427207638,-4.487369729514718,8.714739459029435,0.4455555555555555,0.4811111111111111,-0.6755555555555556,0.0029855743463255728,-0.0009757923929939211,0.0
1589988659.4696052,-0.07364505471331162,-4.486354945286688,8.630095601846428,0.4455555555555555,0.4811111111111111,-0.6755555555555556,0.002181661564992912,-0.00010201058305277667,0.000693216993980045
1589988659.4796052,-0.08529799404784912,-4.484900668650718,8.610397325397132,0.4455555555555555,0.4811111111111111,-0.6755555555555556,0.002181661564992912,-0.0005779214992876812,0.001090830782496456
1589988659.4896052,-0.08706631658304521,-4.484311227805652,8.668801050250865,0.4455555555555555,0.4811111111111111,-0.6755555555555556,0.001711379564916971,-0.001711379564916971,0.001090830782496456
1589988659.4996052,-0.0742500900442806,-4.49,8.728500180088561,0.4516945745084053,0.4782777177482574,-0.6722499299655595,0.0006272178776281557,-0.0020180565922330567,0.001090830782496456
1589988659.5096052,-0.08,-4.495152622602764,8.729694754794473,0.46,0.4744444444444445,-0.6677777777777778,0.0,-0.0021483644783530666,0.0005287668479283053
1589988659.5196052,-0.07349161362263626,-4.506508386377363,8.648407749848998,0.46,0.4744444444444445,-0.6677777777777778,-0.002129864461442692,0.0010390336789462362,0.0
1589988659.5296052,-0.08372412034676185,-4.496275879653238,8.637448240693523,0.46,0.4744444444444445,-0.6677777777777778,-0.001026888406949303,0.0006845922712995353,0.0
1589988659.5396051,-0.07348294567882886,-4.506517054321171,8.677528423868619,0.46,0.4744444444444445,-0.6677777777777778,0.0006005770429899861,0.0006005770429899861,0.0018017311289699582
1589988659.5496051,-0.07102546583850931,-4.50897453416149,8.716538198757764,0.4452993788819876,0.47138181504485854,-0.672065458937198,0.001692176658896909,-0.00011186097030445015,0.002671146471088915
1589988659.5596051,-0.08,-4.506429089208464,8.704283643166141,0.43333333333333335,0.4688888888888889,-0.6755555555555556,0.0035842712473947618,-0.00038952594129553094,0.0007790518825910619
1589988659.569605,-0.08,-4.503813036418465,8.652878218510788,0.43333333333333335,0.4688888888888889,-0.6755555555555556,0.0009888579675240432,0.0,0.0
1589988659.579605,-0.06974405372258077,-4.489744053722581,8.63512797313871,0.43333333333333335,0.4688888888888889,-0.6755555555555556,-0.0005314556873445145,-0.0016781252854558245,0.0
1589988659.589605,-0.06631216921788406,-4.48,8.658936507653653,0.43333333333333335,0.4688888888888889,-0.6755555555555556,0.0,-0.002239666074410191,-0.00034427542435972575
1589988659.599605,-0.08,-4.481457054582904,8.702914109165809,0.4351141778235496,0.46969836365716905,-0.6744222908799634,0.00031787999816189203,-0.00015893999908094602,-0.00093189078341551
1589988659.609605,-0.08,-4.48189767495176,8.71189767495176,0.4455555555555555,0.4744444444444445,-0.6677777777777778,0.0012978350077517394,-0.0015327440611170424,-0.0008838265572411726
1589988659.619605,-0.08,-4.481215098778673,8.66261633740442,0.4455555555555555,0.4744444444444445,-0.6677777777777778,-0.002038962496085909,-0.002589454064210094,-0.0009582840673413662
1589988659.629605,-0.08,-4.5,8.62528006502456,0.4455555555555555,0.4744444444444445,-0.6677777777777778,-0.0036157357049954085,-0.0028128877956176503,0.00017162167875302043
1589988659.639605,-0.08,-4.5,8.670905316846069,0.4455555555555555,0.4744444444444445,-0.6677777777777778,-0.000793434399782213,-0.001586868799564426,-0.001090830782496456
1589988659.649605,-0.07063838937720077,-4.5,8.7,0.4424350186812891,0.4718439970492225,-0.6714184041310887,0.001531789956164284,-0.0005105966520547613,-0.0005802341304416947
1589988659.659605,-0.07099099546052143,-4.5,8.727477488651303,0.4388888888888889,0.4688888888888889,-0.6755555555555556,0.003272492347489368,0.00010810083536510161,0.0
1589988659.669605,-0.08549842796375069,-4.494501572036249,8.66752358054374,0.4388888888888889,0.4688888888888889,-0.6755555555555556,0.004472063243129081,-0.0007085255609631134,0.0005997854478198564
1589988659.679605,-0.08438056416925077,-4.49,8.633716614984495,0.4388888888888889,0.4688888888888889,-0.6755555555555556,0.0017762417618154007,-0.0015686762065484322,0.002316801499385416
1589988659.689605,-0.08930177649993336,-4.49,8.678603552999867,0.4388888888888889,0.4688888888888889,-0.6755555555555556,-0.0015981639893979285,-0.0005834975755949834,0.001243159519883478
1589988659.699605,-0.0956858958385248,-4.485685895838525,8.704314104161476,0.4451203726776864,0.4636160949137525,-0.6851424536921672,-0.0017110658031695904,-0.0004705957618233216,0.0003209565029735086
1589988659.709605,-0.08447112916024833,-4.485528870839752,8.698942258320496,0.4533333333333333,0.4566666666666666,-0.6977777777777778,-0.002297043283386086,-0.00048772453205164084,0.002181661564992912
1589988659.719605,-0.06883996571568507,-4.478839965715685,8.650939880004897,0.4533333333333333,0.4566666666666666,-0.6977777777777778,-0.001446436007832389,0.0018260563396569791,0.0015729761184405857
1589988659.729605,-0.06936872647427854,-4.484053089711417,8.638737452948556,0.4533333333333333,0.4566666666666666,-0.6977777777777778,-0.0015329542846398792,0.0027615075859427417,0.0005798460209498296
1589988659.739605,-0.08456248846224848,-4.5,8.671406221155621,0.4533333333333333,0.4566666666666666,-0.6977777777777778,-0.003272492347489368,0.0011862809931118003,0.0
1589988659.749605,-0.09746723278567473,-4.5,8.703668081964187,0.4533333333333333,0.4566666666666666,-0.6977777777777778,-0.003272492347489368,-0.0016290974765361507,0.0
1589988659.759605,-0.07,-4.51676811335888,8.703231886641118,0.4388888888888889,0.4622222222222222,-0.6977777777777778,0.0005288162150508063,-0.001090830782496456,-0.0007382866391292518
1589988659.769605,-0.07327672024013071,-4.498361639879935,8.708531479159543,0.4388888888888889,0.4622222222222222,-0.6977777777777778,0.0034512097126675554,-0.0012695481476746435,0.001090830782496456
1589988659.779605,-0.09,-4.486761743876292,8.656476512247417,0.4388888888888889,0.4622222222222222,-0.6977777777777778,0.0029503673454462,-0.001828422618858006,0.00038435289022664416
1589988659.789605,-0.08988713722680043,-4.479887137226801,8.670338588319598,0.4388888888888889,0.4622222222222222,-0.6977777777777778,-2.4622837440801406e-05,-0.001090830782496456,-0.0010662079450556546
1589988659.799605,-0.07728771266540643,-4.475424574669187,8.702712287334593,0.4388888888888889,0.4640304137786179,-0.691750472589792,-0.002181661564992912,-0.001090830782496456,-9.262782372351742e-05
1589988659.809605,-0.07265046115366579,-4.49,8.70469907769267,0.4388888888888889,0.4688888888888889,-0.6755555555555556,-0.002181661564992912,-0.0013799512439194262,-0.002405130963220457
1589988659.8196049,-0.0827424423412662,-4.486371221170633,8.637340990535698,0.4388888888888889,0.4688888888888889,-0.6755555555555556,-0.0013899848350039377,-0.0016891388875114196,0.002084977252505907
1589988659.8296049,-0.0726942736499,-4.4853885472998005,8.5961656418994,0.4388888888888889,0.4688888888888889,-0.6755555555555556,-0.0005877993267559983,0.0013847304458744552,0.00029389966337799915
1589988659.8396049,-0.07100918544895399,-4.5,8.666972443653139,0.4388888888888889,0.4688888888888889,-0.6755555555555556,-0.002181661564992912,-0.00027020275300659825,0.001090830782496456
1589988659.8496048,-0.06863749597022362,-4.495681252014888,8.712956243955336,0.4417680542122967,0.46600972356548104,-0.6784347208789634,-0.0012394569161920108,-0.003743594671889819,0.0006197284580960054
1589988659.8596048,-0.07489753449445827,-4.49,8.724897534494458,0.4455555555555555,0.4622222222222222,-0.6822222222222222,0.0022263705760285054,-0.003250137841971571,0.0005565926440071263
