time,acc_x,acc_y,acc_z,mag_x,mag_y,mag_z,gyr_x,gyr_y,gyr_z
1589988676.9486766,-3.83,-0.81,8.93,0.33,-0.3411111111111111,-0.6222222222222222,-0.015271630954950384,-0.002181661564992912,0.001090830782496456
1589988676.9586766,-3.86,-0.792343816073535,8.85531236785293,0.33,-0.3411111111111111,-0.6222222222222222,-0.005386005818594596,0.0015084108376685874,-0.00041758005517213154
1589988676.9686766,-3.86,-0.7843132018209409,8.940384825493172,0.33,-0.3411111111111111,-0.6222222222222222,0.003293481322181409,0.0026521588967331135,-0.0006203334507562546
1589988676.9786766,-3.86,-0.7752250779973259,9.02,0.33,-0.33509169844335496,-0.6287888542234108,0.010321972099058725,0.004346954996122781,0.001074462648633413
1589988676.9886765,-3.86,-0.7671520368093293,9.027152036809328,0.33,-0.3288888888888889,-0.6355555555555555,0.011529637008124653,0.003893821530649461,0.0014014953740765024
1589988676.9986765,-3.854203654917131,-0.7873890352486078,8.931462133591221,0.33,-0.3288888888888889,-0.6355555555555555,0.0077468920037816885,0.0020079260190162193,0.0029876802752061785
1589988677.0086765,-3.85,-0.7939595667870036,8.872080866425993,0.33,-0.3288888888888889,-0.6355555555555555,0.0021596086683070633,0.0004319217336614126,0.0017276869346456503
1589988677.0186765,-3.8561367013372956,-0.7838632986627043,8.910683506686478,0.33,-0.3288888888888889,-0.6355555555555555,-0.0026776410886837224,-0.0006694102721709306,0.0006694102721709306
1589988677.0286765,-3.8668261451426487,-0.78,8.943652290285296,0.326207697142973,-0.3288888888888889,-0.6310047921271232,-0.0065971739042027435,0.0003984030669814903,0.0003462138577574828
1589988677.0386765,-3.877744948625928,-0.7645101027481441,8.934510102748144,0.3244444444444444,-0.3288888888888889,-0.6288888888888889,-0.007635815477475192,0.004470202130502782,0.0025345285110047445
1589988677.0486765,-3.8642316483410726,-0.7678841758294637,8.86692659336429,0.3244444444444444,-0.3288888888888889,-0.6288888888888889,-0.005915755139596484,0.0020140332367248642,0.00155243200961066
1589988677.0586765,-3.867952070239409,-0.7859041404788178,8.889760351197046,0.3244444444444444,-0.3288888888888889,-0.6288888888888889,-0.0002495361114495569,-0.0006440418178477853,-0.0006440418178477853
1589988677.0686765,-3.863843687227024,-0.8023126255459522,8.961563127729761,0.3244444444444444,-0.3288888888888889,-0.6288888888888889,0.004448578522215657,-0.0004192812345526157,0.0009238178613350651
1589988677.0786765,-3.8658049774253938,-0.8041950225746064,8.98258506772382,0.32766943190299647,-0.33598386129770336,-0.6288888888888889,0.00717820950171038,-0.0012664496134632897,0.002181661564992912
1589988677.0886765,-3.856553373615307,-0.7798300604229608,8.97,0.33,-0.3411111111111111,-0.6288888888888889,0.007635815477475192,1.853753217988729e-05,0.002181661564992912
1589988677.0986764,-3.8559989216540167,-0.7640010783459832,8.904011861805815,0.33,-0.3411111111111111,-0.6288888888888889,0.0030551495960849063,0.003708354143290905,0.002181661564992912
1589988677.1086764,-3.86,-0.76,8.881870413286984,0.33,-0.3411111111111111,-0.6288888888888889,-0.003976153339893497,0.009430307252375775,0.000591200229035513
1589988677.1186764,-3.872334296068728,-0.7723342960687283,8.927002888206184,0.33,-0.3411111111111111,-0.6288888888888889,-0.010163274353750116,0.01090830782496456,0.000672731491609691
1589988677.1286764,-3.88,-0.788341599320279,8.95834159932028,0.32212182286418095,-0.341574533295571,-0.62008386738415,-0.013999896721338657,0.008178525830821005,0.002000758113877641
1589988677.1386764,-3.869829150658056,-0.805085424670972,8.939487451974168,0.3111111111111111,-0.3422222222222222,-0.6077777777777778,-0.013052695845685133,0.0038085893526695115,0.0010535572382241176
1589988677.1486764,-3.849608571825507,-0.81,8.889217143651013,0.3111111111111111,-0.3422222222222222,-0.6077777777777778,-0.009208014365938886,0.0038392568338312593,0.0006094626765292179
1589988677.1586764,-3.867879095559808,-0.7932725426641153,8.881151638223923,0.3111111111111111,-0.3422222222222222,-0.6077777777777778,-0.006419360452483244,0.006188005667473745,0.002181661564992912
1589988677.1686764,-3.8563156736535182,-0.7463156736535181,8.884385945608921,0.3111111111111111,-0.3422222222222222,-0.6077777777777778,-0.006066552246922259,0.01008540881523511,0.00340645823387287
1589988677.1786764,-3.8755070686670514,-0.7980121177149452,8.97751514714368,0.32339079630698214,-0.3414998877989357,-0.6077777777777778,-0.022146288253698607,0.02050894054858094,0.005072473291745818
1589988677.1886764,-3.931553913532823,-0.8478884783832057,9.022111521616793,0.33,-0.3411111111111111,-0.6077777777777778,-0.03656675844312182,0.034554602549623,-0.0005693426207387733
1589988677.1986763,-3.8953833790932832,-0.8276916895466416,8.908458447733208,0.33,-0.3411111111111111,-0.6077777777777778,-0.018711403988967368,0.013564807915135788,-0.0005593554484588626
1589988677.2086763,-3.866361112355022,-0.8131805561775111,8.883638887644977,0.33,-0.3411111111111111,-0.6077777777777778,-0.008279708986922912,-0.0004969334803786871,0.0007438859241076208
1589988677.2186763,-3.8657672155688623,-0.81,8.953439371257485,0.33,-0.3411111111111111,-0.6077777777777778,-0.01157782971242496,-0.00264338672030859,0.001719936409677234
1589988677.2286763,-3.87,-0.7976278909809991,9.018558163528501,0.3348113757296115,-0.33355037782172164,-0.6119018141174447,-0.020669981899881687,-0.0015068676968764988,0.0015068676968764988
1589988677.2386763,-3.87,-0.7826257371687569,9.022625737168756,0.3377777777777778,-0.3288888888888889,-0.6144444444444445,-0.021585055346560203,0.0021267983753193113,0.003504052650858282
1589988677.2486763,-3.87,-0.7286637155620237,8.9109103955693,0.3377777777777778,-0.3288888888888889,-0.6144444444444445,-0.01652584491813729,0.005372462322137054,0.00646329310463351
1589988677.2586763,-3.876780624387512,-0.727122497550049,8.890683746325074,0.3377777777777778,-0.3288888888888889,-0.6144444444444445,-0.013441148791809472,0.002846727791756466,0.007635815477475192
1589988677.2686763,-3.88,-0.74,8.91547729562464,0.3377777777777778,-0.3288888888888889,-0.6144444444444445,-0.0071151667177668035,-0.0007016100191607443,0.009428256279132392
1589988677.2786763,-3.8745178128670235,-0.7345178128670233,8.90355343860107,0.3304681949338089,-0.3288888888888889,-0.618708367770093,-0.0015836477169872208,-0.0015836477169872208,0.015692418609010092
1589988677.2886763,-3.8566728333570515,-0.7699814999288459,8.896663583321475,0.3244444444444444,-0.3288888888888889,-0.6222222222222222,-0.001090830782496456,-0.0032714833251347034,0.02690379589373037
1589988677.2986763,-3.876857216263087,-0.7676189864474275,8.8686665810264,0.3244444444444444,-0.3288888888888889,-0.6222222222222222,0.00037400312910052555,-0.005828157041582805,0.032496373792030075
1589988677.3086762,-3.897481536801925,-0.7274815368019252,8.861296157995188,0.3244444444444444,-0.3288888888888889,-0.6222222222222222,-0.00020805531105867617,-0.007294427352324965,0.041051571292590676
1589988677.3186762,-3.762480024644294,-0.7586472592849304,9.04729451856986,0.3244444444444444,-0.3288888888888889,-0.6222222222222222,-0.008119747068192828,-0.008144340588405066,0.06893574216565976
1589988677.3286762,-3.807064620582852,-0.8579121497958608,8.985855272420103,0.3244444444444444,-0.3288888888888889,-0.6222222222222222,0.000907617897304527,0.0019984486798009828,0.09403750711615583
1589988677.3386762,-3.9772008361472904,-0.8806997909631774,8.778848850297475,0.3244444444444444,-0.3288888888888889,-0.6222222222222222,0.031198216427000262,0.02112959747837708,0.07565396465696955
1589988677.3486762,-3.992125838723934,-0.9187797822331151,8.866339346699347,0.3244444444444444,-0.3288888888888889,-0.6222222222222222,0.027936295113145007,0.022512294745536267,0.029521065504253093
1589988677.3586762,-3.9169628913245935,-0.8809921914177233,9.084710939179024,0.3244444444444444,-0.3288888888888889,-0.6222222222222222,-0.006236271534562356,0.005956745658139272,0.006116748239066379
1589988677.3686762,-3.8767580572963296,-0.6737217435094002,8.99020562891674,0.3244444444444444,-0.3288888888888889,-0.6222222222222222,0.007304605023065108,0.005100512822856918,0.02463826748852692
1589988677.3786762,-3.8088062553218003,-0.5412755706008183,8.937489771759672,0.3219478538578869,-0.3359625622174687,-0.6089070724272485,-0.00013914316766200537,0.000956150526594368,0.06774387421188277
1589988677.3886762,-3.74,-0.45064257028112453,8.963697868396663,0.31777777777777777,-0.3477777777777778,-0.5866666666666667,-0.0002139875028993668,-0.002086967882607523,0.12298350424507232
1589988677.3986762,-3.632311180705251,-0.31765384146093467,8.940325171838778,0.31777777777777777,-0.3477777777777778,-0.5866666666666667,-0.004363323129985824,-0.007600344732341344,0.20141351656537199
1589988677.4086761,-3.296133077338453,-0.5795938081238375,9.009070018599628,0.31777777777777777,-0.3477777777777778,-0.5866666666666667,-0.00909132551359079,-0.008206592177190292,0.3134491487219068
1589988677.4186761,-3.1458021066830653,-0.6191452262403048,8.92494733292337,0.31777777777777777,-0.3477777777777778,-0.5866666666666667,-0.001872552090315522,-0.0021146030937275826,0.4144045607534875
1589988677.4286761,-2.7980573480888835,-0.49179606972873535,8.941359535141764,0.32519419381421893,-0.34036136174133663,-0.6035221576585784,-0.010431772089369337,-0.016780835969586613,0.4921765933563338
1589988677.438676,-2.4680651478143685,-0.42603449001937166,8.966034490019371,0.33,-0.33555555555555555,-0.6144444444444445,-0.014839060919433752,-0.025091198151575126,0.5353680431859834
1589988677.448676,-2.243873798895362,-0.47095432649870117,8.860610577286828,0.33,-0.33555555555555555,-0.6144444444444445,-0.010277540172671334,-0.01786130521407976,0.5488585881178073
1589988677.458676,-1.8751116492820503,-1.0349674872714099,8.906184283289793,0.33,-0.33555555555555555,-0.6144444444444445,0.005920639508261641,-0.006836345782113379,0.5455818832980192
1589988677.468676,-1.6434013699817915,-1.4038414983091998,8.905326107690973,0.33,-0.33555555555555555,-0.6144444444444445,0.029034258834369255,0.010002557912596346,0.5340897812978516
1589988677.478676,-1.7670519379172809,-0.9019656637475072,8.607110032081852,0.33,-0.33555555555555555,-0.6144444444444445,0.046489556523183526,0.03539208182359891,0.5142542157423808
1589988677.488676,-2.0471516417910447,-1.0441140298507463,8.987657910447762,0.31777777777777777,-0.3477777777777778,-0.5911111111111111,-0.01107398385545238,-0.035521032110504745,0.38868104721403957
1589988677.498676,-2.168526770367824,-0.9219388105878309,8.98542733757305,0.31777777777777777,-0.3477777777777778,-0.5911111111111111,-0.0042450622987620975,-0.024970847166194764,0.341962935194947
1589988677.508676,-2.2190751077830724,-0.8356936691626957,8.952456546403448,0.31777777777777777,-0.3477777777777778,-0.5911111111111111,0.0034238274825967724,-0.012100028697532617,0.3038405556560721
1589988677.518676,-2.2623734394617774,-0.82,9.054746878923554,0.31777777777777777,-0.3477777777777778,-0.5911111111111111,-0.004393014565540948,-0.013234266148999953,0.2527799876023597
1589988677.528676,-2.3109933476152893,-0.8060044349231406,9.10300221746157,0.31777777777777777,-0.34583394929488065,-0.59188864250427,-0.009435807212361338,-0.014399933879089158,0.20159181768122864
1589988677.538676,-2.342115597839694,-0.7668593297328231,9.032181050824422,0.31777777777777777,-0.3422222222222222,-0.5933333333333334,-0.0049997418761527895,-0.0049997418761527895,0.14952114566908797
1589988677.548676,-2.32,-0.7540713157300835,8.825869254494846,0.31777777777777777,-0.3422222222222222,-0.5933333333333334,0.00545415391248228,0.00545415391248228,0.0823941999893242
1589988677.558676,-2.307536008389106,-0.7868840020972766,8.766231995805446,0.31777777777777777,-0.3422222222222222,-0.5933333333333334,0.00545415391248228,0.005114251269433774,0.02610053956803783
1589988677.568676,-2.2725318262259515,-0.776265913112976,8.787468173774048,0.31777777777777777,-0.3422222222222222,-0.5933333333333334,0.006676130988746934,0.006807277282515133,-0.04270748542941283
1589988677.578676,-2.2845277518656717,-0.7664960354477612,8.824527751865672,0.32011375414593696,-0.3461155161691542,-0.5909973569651742,0.009108869499407498,0.01243720078270796,-0.10992931159805382
1589988677.588676,-2.3407370840071495,-0.7707370840071496,8.907579794025024,0.3244444444444444,-0.3533333333333333,-0.5866666666666667,0.008646242867543192,0.014686013867487926,-0.19288267840712792
1589988677.598676,-2.3397412039861707,-0.7492236119585113,8.893835417937767,0.3244444444444444,-0.3533333333333333,-0.5866666666666667,0.009873937574122638,0.016418922269101372,-0.25940203369230536
1589988677.608676,-2.3348182375705795,-0.7344547127117389,8.931910038699854,0.3244444444444444,-0.3533333333333333,-0.5866666666666667,0.009896785863713325,0.02064647604618744,-0.32650588179495016
1589988677.618676,-2.3654758461515986,-0.75,9.03019033846064,0.3244444444444444,-0.3533333333333333,-0.5866666666666667,0.00819161222132135,0.023741141548194813,-0.37992055288670457
1589988677.628676,-2.426744963991995,-0.75,9.054697985596798,0.3244444444444444,-0.3533333333333333,-0.5866666666666667,0.009528297016455488,0.025746168740896018,-0.42002109674072874
1589988677.638676,-2.4870642106718277,-0.7176147359690351,9.04302737074924,0.2911111111111111,-0.36,-0.6144444444444445,0.016422514731520545,0.04395347623686775,-0.5127205508174465
1589988677.648676,-2.500475170213779,-0.7753563776603343,8.873693281912107,0.2911111111111111,-0.36,-0.6144444444444445,0.017908000109371304,0.04472406208235469,-0.5892418278288027
1589988677.658676,-2.5234030698899983,-0.7865969301100018,8.809790790330005,0.2911111111111111,-0.36,-0.6144444444444445,0.016779321546151773,0.04620893143875346,-0.6392664034302707
1589988677.668676,-2.53,-0.78,8.789379576232747,0.2911111111111111,-0.36,-0.6144444444444445,0.021857222290539772,0.04918213404043204,-0.6780962288206803
1589988677.678676,-2.543483542665529,-0.800225313998294,8.780450627996588,0.3001001395547973,-0.35588002862997714,-0.6193135015181078,0.023985988242668708,0.0567232006898157,-0.751423615083448
1589988677.6886759,-2.5985221566273915,-0.8447536927712319,8.874261078313696,0.31777777777777777,-0.3477777777777778,-0.6288888888888889,0.024409352852624442,0.05931593789251102,-0.8114330072272381
1589988677.6986759,-2.637319212665811,-0.8573192126658109,8.886340393667096,0.31777777777777777,-0.3477777777777778,-0.6288888888888889,0.028468372934337065,0.061778153478322766,-0.8549236892882127
1589988677.7086759,-2.65,-0.8741947146989218,8.888389429397844,0.31777777777777777,-0.3477777777777778,-0.6288888888888889,0.031000834301638205,0.06177288240740769,-0.8931288538517683
1589988677.7186759,-2.6720683419976576,-0.9010341709988288,8.960458626995706,0.31777777777777777,-0.3477777777777778,-0.6288888888888889,0.03232370969539861,0.06395780238779583,-0.9402706271778073
1589988677.7286758,-2.7171975527290293,-0.9128024472709709,9.03,0.3273745147498166,-0.3477777777777778,-0.63408712141541,0.03241922389994386,0.0644458821961144,-0.9821786974427926
1589988677.7386758,-2.7249331741147294,-0.9101336517705415,9.024933174114729,0.34444444444444444,-0.3477777777777778,-0.6433333333333333,0.03436845922191045,0.06875149759036508,-1.0294539783499295
1589988677.7486758,-2.734362964176241,-0.9583012378033087,8.905096286590073,0.34444444444444444,-0.3477777777777778,-0.6433333333333333,0.03438433292484201,0.07508201778262624,-1.0655227017755653
1589988677.7586758,-2.734126394802155,-0.984126394802155,8.795873605197844,0.34444444444444444,-0.3477777777777778,-0.6433333333333333,0.03294998339843988,0.08049641798119155,-1.1003025586920567
1589988677.7686758,-2.7153671318289785,-0.974312351543943,8.823578087885986,0.34444444444444444,-0.3477777777777778,-0.6433333333333333,0.032024401533248315,0.08200746310765974,-1.1305011693666123
1589988677.7786758,-2.7340472090261283,-1.024125890736342,8.836031472684086,0.34444444444444444,-0.3477777777777778,-0.6433333333333333,0.033382855081652375,0.08268668988186179,-1.1508779725926734
1589988677.7886758,-2.710993947858473,-1.0236444754810676,8.81231921166977,0.3711111111111111,-0.3288888888888889,-0.6433333333333333,0.035997415822383035,0.08603106796119087,-1.1956523586458598
1589988677.7986758,-2.736556474943859,-1.1265564749438588,8.855895324607014,0.3711111111111111,-0.3288888888888889,-0.6433333333333333,0.03674867644869036,0.08143667837408054,-1.241726032050612
1589988677.8086758,-2.7351709177678556,-1.130341835535711,8.827236392559518,0.3711111111111111,-0.3288888888888889,-0.6433333333333333,0.038931156890700584,0.08222563691138698,-1.2676945231508439
1589988677.8186758,-2.7579169905457435,-1.1758339810914875,8.90305663515248,0.3711111111111111,-0.3288888888888889,-0.6433333333333333,0.042239439072970605,0.08884220127592704,-1.287544216244464
1589988677.8286757,-2.774794880585076,-1.245205119414924,8.97347007960995,0.3722678043144276,-0.3242621160756231,-0.6444900265366498,0.04946591217796512,0.0903944415787709,-1.3189486663813472
1589988677.8386757,-2.750830190835333,-1.2691698091646668,8.989446539443112,0.37759329092548155,-0.3029601696314072,-0.6498155131477038,0.05120867359609824,0.0947513451241037,-1.3346335191445453
1589988677.8486757,-2.7313978512261134,-1.3286021487738868,8.924121873205939,0.37777777777777777,-0.3022222222222222,-0.65,0.04596737477953064,0.0966186747715661,-1.3615327558499966
1589988677.8586757,-2.7107583039448864,-1.3492416960551137,8.81404428770606,0.37777777777777777,-0.3022222222222222,-0.65,0.04371594942841529,0.098119625005643,-1.3750413079566886
1589988677.8686757,-2.7172845447505254,-1.424856363167017,8.824856363167017,0.37777777777777777,-0.3022222222222222,-0.65,0.04336835777818003,0.09953047472885569,-1.3934266462039797
1589988677.8786757,-2.74,-1.4410318486308613,8.839312100912759,0.380223641199079,-0.30130502343923427,-0.6507261157031988,0.04276751496724587,0.10039395106465462,-1.405515314905165
1589988677.8886757,-2.728408070245995,-1.4893198829233416,8.816136023415332,0.4488888888888889,-0.27555555555555555,-0.6711111111111111,0.04866589075220035,0.10060427385189005,-1.4265840957124882
1589988677.8986757,-2.7281713224405792,-1.545439851416811,8.81,0.4488888888888889,-0.27555555555555555,-0.6711111111111111,0.04720368091476996,0.09767985417702928,-1.4421742551533514
1589988677.9086757,-2.7563455222729174,-1.5973089554541648,8.820963433181248,0.4488888888888889,-0.27555555555555555,-0.6711111111111111,0.04820674294404063,0.09609820311678641,-1.4582740383806219
1589988677.9186757,-2.755220359162615,-1.6178305387439231,8.858271257069154,0.4488888888888889,-0.27555555555555555,-0.6711111111111111,0.053214056830370116,0.0998831289657615,-1.474758866069481
1589988677.9286757,-2.7653195301612583,-1.6462406264516556,8.916240626451655,0.45096909770610744,-0.2738220482078734,-0.6747514765412436,0.055121809849654674,0.10506012849143614,-1.4934785826079227
1589988677.9386756,-2.727651239339684,-1.68,8.933534985786245,0.4622222222222222,-0.2644444444444444,-0.6944444444444444,0.053706918385225295,0.10779944390158296,-1.5222187775347862
1589988677.9486756,-2.695227647840264,-1.7132377923594058,8.865682943520792,0.4622222222222222,-0.2644444444444444,-0.6944444444444444,0.054423809672390404,0.10948593166128855,-1.5462462010052942
1589988677.9586756,-2.656445290540195,-1.7835547094598048,8.798132825675882,0.4622222222222222,-0.2644444444444444,-0.6944444444444444,0.051768441786767844,0.11046962691867306,-1.5676883203790144
1589988677.9686756,-2.6117278369158687,-1.8393017138629733,8.81448522461058,0.4622222222222222,-0.2644444444444444,-0.6944444444444444,0.04927586298183684,0.11186630848997191,-1.5900142895063585
1589988677.9786756,-2.5858046468905913,-1.89,8.8,0.4696806277500597,-0.25605373822562727,-0.6984844141053564,0.04721081833502662,0.11375149606731041,-1.6124839930905812
1589988677.9886756,-2.5608416536957597,-1.8911222049276792,8.800280551231921,0.5155555555555555,-0.20444444444444448,-0.7233333333333334,0.04908738521234052,0.11565866633660887,-1.63479899358732
1589988677.9986756,-2.587554474708171,-1.9593463035019454,8.792881322957198,0.5155555555555555,-0.20444444444444448,-0.7233333333333334,0.04935415063911056,0.11751919000743091,-1.666646821202087
1589988678.0086756,-2.581277461837773,-2.0346704579467225,8.748942232864412,0.5155555555555555,-0.20444444444444448,-0.7233333333333334,0.050038866525226225,0.11957333766577793,-1.683080002468863
1589988678.0186756,-2.6,-2.0788924589844697,8.852964152994822,0.5155555555555555,-0.20444444444444448,-0.7233333333333334,0.05207739411002903,0.12799139596844097,-1.7102218944711969
1589988678.0286756,-2.6,-2.1197307823377636,8.866576927445921,0.5155555555555555,-0.20444444444444448,-0.7233333333333334,0.05578970246163871,0.1346735510013384,-1.7243286662073138
1589988678.0386755,-2.5452116747741487,-2.174364975677554,8.862019457956913,0.5077777777777778,-0.16,-0.7288888888888889,0.059821584618872985,0.13709646175768925,-1.748289095107675
1589988678.0486755,-2.5117845700521504,-2.252738476649283,8.800830663455018,0.5077777777777778,-0.16,-0.7288888888888889,0.058307419329571446,0.1364579028800349,-1.769250361623904
1589988678.0586755,-2.49,-2.2714710993312384,8.75573554966562,0.5077777777777778,-0.16,-0.7288888888888889,0.055888998805843054,0.13983489063053953,-1.7878878892725618
1589988678.0686755,-2.49,-2.315644099629636,8.777822049814818,0.5077777777777778,-0.16,-0.7288888888888889,0.052676647573795254,0.14063797843855147,-1.8047527332408126
1589988678.0786755,-2.4874890945411554,-2.367532716376534,8.771673936972563,0.5106606692305253,-0.1583260630274369,-0.7324227558309665,0.05090385038180728,0.13999153655507252,-1.8254211530150606
1589988678.0886755,-2.4618400668596356,-2.4444797994210936,8.788773288760241,0.540109552864863,-0.14122671123975702,-0.7685213873827351,0.04717335052365988,0.14372203641321987,-1.8412757774121868
1589988678.0986755,-2.4431454505526684,-2.469139399263109,8.759436351658003,0.5422222222222223,-0.14,-0.7711111111111111,0.04799655442984406,0.1468251632307305,-1.8663790763701074
1589988678.1086755,-2.4109173686409924,-2.5068119735192558,8.701353289198758,0.5422222222222223,-0.14,-0.7711111111111111,0.04898731581709138,0.15544090336443397,-1.8800443704913308
1589988678.1186755,-2.3784156939493486,-2.5410901423545584,8.744752918151955,0.5422222222222223,-0.14,-0.7711111111111111,0.052878340502513596,0.16333288030980828,-1.8910471250928074
1589988678.1286755,-2.3599063800277396,-2.6,8.771682269995376,0.5442783299943494,-0.14112151333025122,-0.7711111111111111,0.054164312390977506,0.15855790255059124,-1.9029798309519672
1589988678.1386755,-2.314966592427617,-2.624832962138085,8.78,0.5544444444444444,-0.14666666666666667,-0.7711111111111111,0.04690572364734761,0.1712604328519436,-1.916589684846273
1589988678.1486754,-2.3259360409338026,-2.700677326511033,8.76848544931244,0.5544444444444444,-0.14666666666666667,-0.7711111111111111,0.046462414482526214,0.17111266313033646,-1.91673745456788
1589988678.1586754,-2.2608347664087134,-2.7283304671825737,8.640550778637623,0.5544444444444444,-0.14666666666666667,-0.7711111111111111,0.03602839408263881,0.1684122566916076,-1.9174383172205796
1589988678.1686754,-2.24,-2.779114221756255,8.715468533053754,0.5544444444444444,-0.14666666666666667,-0.7711111111111111,0.02637878025291938,0.16590290235693556,-1.9120219256052267
1589988678.1786754,-2.24,-2.8088264713383015,8.733295882802981,0.5544444444444444,-0.14666666666666667,-0.7711111111111111,0.027027000982145655,0.1626617987108042,-1.9042432768545117
1589988678.1886754,-2.249456187895212,-2.9051056910569106,8.721087624209575,0.5575965070761819,-0.14036254140319182,-0.773212486198936,0.031396809898878573,0.15937993564124187,-1.8848138925454543
1589988678.1986754,-2.265959743463246,-2.9578792303897385,8.791818845584608,0.5577777777777778,-0.14,-0.7733333333333333,0.03337503063744277,0.15229754246430036,-1.8708077267835377
1589988678.2086754,-2.21155825484305,-2.9532451661659262,8.599606842017954,0.5577777777777778,-0.14,-0.7733333333333333,0.05593022564270537,0.15183834488490483,-1.833587521514198
1589988678.2186754,-2.2270202569443165,-3.0846721840266897,8.893384881942012,0.5577777777777778,-0.14,-0.7733333333333333,0.02641397690330459,0.12147877475294974,-1.8217810220184376
1589988678.2286754,-2.211814275739836,-3.119092862130082,8.804514205918684,0.5577777777777778,-0.14,-0.7733333333333333,0.04155521008366151,0.12852246903086123,-1.78875754607537
1589988678.2386754,-2.2015144780848446,-3.1115144780848443,8.662717171272664,0.4898936024565316,-0.17299925189227247,-0.7657906471865282,0.04826136555515834,0.13906513162767845,-1.7551443048617177
1589988678.2486753,-2.1539188273993806,-3.18,8.766351102941176,0.4777777777777778,-0.17888888888888888,-0.7644444444444445,0.03329983646711983,0.11444879212771106,-1.7120588603596707
1589988678.2586753,-2.084727960242005,-3.173454840103717,8.646180639585133,0.4777777777777778,-0.17888888888888888,-0.7644444444444445,0.04254240051736178,0.1161438034016642,-1.6728786190169809
1589988678.2686753,-2.0264327738898866,-3.15,8.741189075370038,0.4777777777777778,-0.17888888888888888,-0.7644444444444445,0.04215327651245811,0.10952536902396925,-1.6390827931616805
1589988678.2786753,-2.000457050845358,-3.15,8.749847649718214,0.4777777777777778,-0.17888888888888888,-0.7644444444444445,0.039319764683000705,0.10480284930820691,-1.604136147265039
1589988678.2886753,-1.9764061010486178,-3.2190314585319353,8.739124880838894,0.4933333333333334,-0.08444444444444445,-0.6411111111111111,0.042044715472077894,0.1046242944277311,-1.5413846588387734
1589988678.2986753,-1.9374113128650319,-3.2674113128650317,8.68411312865032,0.4933333333333334,-0.08444444444444445,-0.6411111111111111,0.04250370345462795,0.09975297100432495,-1.49429488629138
1589988678.3086753,-1.9518460637986537,-3.298230611647644,8.855768217734855,0.4933333333333334,-0.08444444444444445,-0.6411111111111111,0.05972429953153209,0.08775317041680576,-1.448807925489679
1589988678.3186753,-2.0500048583410044,-3.469975708294978,9.959596757696636,0.4933333333333334,-0.08444444444444445,-0.6411111111111111,0.15157778211573222,0.05568907592605749,-1.4005943969951409
1589988678.3286753,-2.011078178228134,-3.3605506975936814,9.09717903096318,0.49608561585214445,-0.07825180877711961,-0.6406982687332894,0.04243986663687975,0.17295922421940338,-1.3323972675904898
1589988678.3386753,-1.2921125263089375,-2.4868709180463036,8.61483498600473,0.5365337537941526,0.012756501592398911,-0.6346310480419882,-0.11937783961804163,0.18189394419666893,-1.307578600986974
1589988678.3486753,-1.8654956604533635,-3.3457997949243783,9.58256783974805,0.5377777777777778,0.015555555555555557,-0.6344444444444445,0.1062479648246872,-0.010270814763021857,-1.271900083827729
1589988678.3586752,-1.4226566455147542,-2.9038642116578246,7.065260931377648,0.5377777777777778,0.015555555555555557,-0.6344444444444445,-0.03949135374066632,0.09438606346835916,-1.1965730188988382
1589988678.3686752,-1.5026478033218904,-3.0202149866500227,8.126961753181456,0.5377777777777778,0.015555555555555557,-0.6344444444444445,-0.01331430856159957,0.04599819207675093,-1.161670291993416
1589988678.3786752,-1.80420761304607,-3.4948936955349286,9.402501348320985,0.5387330513686641,0.021287197100873335,-0.6312601991414901,0.05827301085546085,0.08905404532713714,-1.059886815452822
1589988678.3886752,-1.5471484031147726,-3.1525949667080466,8.226125268028438,0.5511111111111111,0.09555555555555556,-0.59,0.017267650626251314,0.062307377790704804,-1.00228324310462
1589988678.3986752,-1.8088201830324018,-3.5431511254019292,9.33733118971061,0.5511111111111111,0.09555555555555556,-0.59,0.004792586492575945,0.03675314597864636,-0.954863838305992
1589988678.4086752,-1.6214954654821396,-3.3225235980011103,8.118411993337034,0.5511111111111111,0.09555555555555556,-0.59,0.0338565367519421,0.054470169759356854,-0.8972133659417696
1589988678.4186752,-1.7251617145931728,-3.5018670413104562,8.837651103007115,0.5511111111111111,0.09555555555555556,-0.59,0.0362563145015551,0.044128399478939706,-0.8294713268105797
1589988678.4286752,-1.5093252253364613,-3.158159649339425,8.153558464007903,0.5511111111111111,0.09784596177854606,-0.5911452031114952,0.02921821026917967,0.0330996903167626,-0.7835443975652604
1589988678.4386752,-1.6829621788998073,-3.5082405447249516,8.650467471326108,0.5511111111111111,0.14222222222222222,-0.6133333333333333,0.04370369809295799,0.039401104965144707,-0.7170888880678429
1589988678.4486752,-1.6564570760529558,-3.501614269013239,8.802871812695503,0.5511111111111111,0.14222222222222222,-0.6133333333333333,0.0357527380213485,0.035787032205322214,-0.6816709750215824
1589988678.4586751,-1.6554557468962754,-3.4963672406888264,8.68910172206648,0.5511111111111111,0.14222222222222222,-0.6133333333333333,0.03599717555128558,0.03133652785959888,-0.612054055902624
1589988678.4686751,-1.705847817380857,-3.647543452142571,9.142630356427713,0.5511111111111111,0.14222222222222222,-0.6133333333333333,0.025919484910261602,0.028588066775683246,-0.5625817563921426
1589988678.4786751,-1.4966180172391874,-3.3317653639807774,8.40647206895675,0.5519281502764429,0.14357033684501966,-0.6138235568325323,0.02699002534871593,0.029332112178677684,-0.49291100891134276
1589988678.488675,-1.6625694224913896,-3.6244633379365423,9.059469577225762,0.5733333333333334,0.17888888888888888,-0.6266666666666667,0.01941389492098754,0.025664134064034713,-0.4278425521415548
1589988678.498675,-1.5858057002146315,-3.463957373176048,8.64075836480708,0.5733333333333334,0.17888888888888888,-0.6266666666666667,0.01713017952357399,0.0203354648034031,-0.3852131980565018
1589988678.508675,-1.5890199364634665,-3.5114700953048,8.6185299046952,0.5733333333333334,0.17888888888888888,-0.6266666666666667,0.016576278432337457,0.015057814260059766,-0.29879251380699107
1589988678.518675,-1.5739608056833778,-3.545545127956729,8.609011867280213,0.5733333333333334,0.17888888888888888,-0.6266666666666667,0.02029372799114113,0.010476250948673025,-0.22894439594080965
1589988678.528675,-1.6162864293210626,-3.6048010010494873,8.8121748607411,0.5733333333333334,0.17888888888888888,-0.6266666666666667,0.015676718675906524,0.005859241633438419,-0.1809274990623697
1589988678.538675,-1.5658889610992481,-3.572740692600501,8.66137034630025,0.5755555555555556,0.19111111111111112,-0.6266666666666667,0.009773017408867143,0.00034342281899967344,-0.11425052322653717
1589988678.548675,-1.5425245566799741,-3.5883169622133506,8.669158481106676,0.5755555555555556,0.19111111111111112,-0.6266666666666667,0.01571989343842321,-0.003904345773540374,-0.06922417614561266
1589988678.558675,-1.5542412303241402,-3.59,8.79105045775519,0.5755555555555556,0.19111111111111112,-0.6266666666666667,0.010148552770169211,-0.009800493476353749,-0.027075562363625127
1589988678.568675,-1.499633053504602,-3.667614847779913,8.60183473247699,0.5755555555555556,0.19111111111111112,-0.6266666666666667,0.00640488790853047,-0.009817477042468105,0.03021295653955204
1589988678.578675,-1.4826641043794881,-3.5573166784666737,8.686679478102558,0.5755555555555556,0.19111111111111112,-0.6266666666666667,-7.370030977117779e-05,-0.009817477042468105,0.06538243543890385
1589988678.588675,-1.5130614695927502,-3.591530734796375,8.868979510135748,0.6466666666666666,0.19666666666666666,-0.6266666666666667,-0.005287176648909834,-0.015215971867092903,0.1058329368768094
1589988678.598675,-1.5588557702805983,-3.6144278851402993,8.8537147432398,0.6466666666666666,0.19666666666666666,-0.6266666666666667,-0.0027894850062496718,-0.014383407986206178,0.12248421449454383
1589988678.608675,-1.4871974894176032,-3.5248620639322725,8.565605021164794,0.6466666666666666,0.19666666666666666,-0.6266666666666667,-0.005352251752097265,-0.015424484195527905,0.1413795349845454
1589988678.618675,-1.4343466950455244,-3.427063379448977,8.685976705687596,0.6466666666666666,0.19666666666666666,-0.6266666666666667,-0.0033910300664339397,-0.018307047864550605,0.1559648105849979
1589988678.628675,-1.5004741634149226,-3.534520515549249,8.776901974695518,0.6466666666666666,0.19666666666666666,-0.6266666666666667,-0.005194377018081444,-0.014700353961255595,0.17219493314982542
1589988678.638675,-1.5172244134100696,-3.5716732402302087,8.659960558618746,0.7622572812277807,0.19185039105995358,-0.6579724581103018,-0.00545415391248228,-0.02048529019900124,0.17689710895938818
1589988678.648675,-1.5560758682557991,-3.507848263488402,8.709208637703448,0.8066666666666666,0.19,-0.67,-0.00545415391248228,-0.02093981305248996,0.18370831768672916
1589988678.658675,-1.539684828397968,-3.5,8.73930662247553,0.8066666666666666,0.19,-0.67,-0.009817477042468105,-0.019641830062641513,0.1963976726932992
1589988678.668675,-1.507205117085863,-3.5,8.667851257588898,0.8066666666666666,0.19,-0.67,-0.009817477042468105,-0.02035042744075836,0.20135785434011716
1589988678.678675,-1.5179183326846184,-3.5,8.685836665369237,0.8066666666666666,0.19,-0.67,-0.009817477042468105,-0.019964430450223697,0.21540567258497176
1589988678.688675,-1.5911330211955783,-3.621888368659297,8.723021389854877,1.512222222222222,0.12444444444444445,-1.0911111111111111,-0.013213562829693241,-0.01854412330243975,0.24759889998857573
1589988678.698675,-1.6155786528859792,-3.662631088143298,8.788209741029279,1.512222222222222,0.12444444444444445,-1.0911111111111111,-0.015880167584239248,-0.01854412330243975,0.27070947452797445
1589988678.708675,-1.6282416580708614,-3.72769160649603,8.610441864370188,1.512222222222222,0.12444444444444445,-1.0911111111111111,-0.01276636000844444,-0.02124119959919155,0.30455719645337664
1589988678.718675,-1.6497292521659825,-3.74,8.717969391244871,1.512222222222222,0.12444444444444445,-1.0911111111111111,-0.0087709472707177,-0.028272998323415746,0.34639687771566635
1589988678.728675,-1.6747649002667515,-3.74,8.670470199466497,1.512222222222222,0.12444444444444445,-1.0911111111111111,-0.008726646259971648,-0.03106303189855059,0.3784008902930382
1589988678.7386749,-1.6602893298479087,-3.7892766753802283,8.788119355988592,0.919807080428813,-0.23253769275454156,-0.8491078831326573,-0.009801696547248412,-0.03378419326695074,0.4269902274250426
1589988678.7486749,-1.6873808658895015,-3.7147026188038703,8.769464350582874,0.9111111111111112,-0.23777777777777775,-0.8455555555555555,-0.010564174326559995,-0.03605584610966581,0.45448676896591883
1589988678.7586749,-1.6674083059797344,-3.7370354645354644,8.702964535464535,0.9111111111111112,-0.23777777777777775,-0.8455555555555555,-0.0073531055158634374,-0.03886584775943007,0.4988723956903933
1589988678.7686749,-1.6325054238048926,-3.649186553951273,8.625845988878082,0.9111111111111112,-0.23777777777777775,-0.8455555555555555,-0.012543370708042213,-0.045268294182935896,0.5281395651262549
1589988678.7786748,-1.6788779128672746,-3.648146318811212,8.725902144545762,0.9111111111111112,-0.23777777777777775,-0.8455555555555555,-0.012201343857627426,-0.04759214392951124,0.5416958922135682
1589988678.7886748,-1.6612443635102323,-3.6787556364897673,8.757188909122442,0.7210044032065364,0.004248829344432881,-0.744910827841369,-0.015135891952792697,-0.046428177757178224,0.5474613138110632
1589988678.7986748,-1.6286842989272836,-3.7405262804290866,8.775263476138221,0.6466666666666666,0.09888888888888887,-0.7055555555555556,-0.015357743388791336,-0.04570007628639655,0.5316078182429292
1589988678.8086748,-1.5817188094864847,-3.7593124762054058,8.606187714151345,0.6466666666666666,0.09888888888888887,-0.7055555555555556,-0.018431627484613487,-0.04160156415863368,0.5059921174444113
1589988678.8186748,-1.614750601995184,-3.707874097007224,8.660813553491572,0.6466666666666666,0.09888888888888887,-0.7055555555555556,-0.012858069347445324,-0.038608542757368115,0.4680953015883953
1589988678.8286748,-1.6419002322076017,-3.5831987615594576,8.721100541817737,0.6466666666666666,0.09888888888888887,-0.7055555555555556,-0.013591768436519167,-0.03180855807114335,0.42986334028280515
1589988678.8386748,-1.687315296566077,-3.5213423517169615,8.795972944849115,0.624899410336455,0.16522719389524804,-0.7273228118857672,-0.014180800172453925,-0.0325052816888239,0.36385449644439666
1589988678.8486748,-1.69,-3.4968055447848005,8.7768055447848,0.6233333333333333,0.17,-0.7288888888888889,-0.00912055502605887,-0.025134555755301095,0.32033557124373585
1589988678.8586748,-1.7078077432651257,-3.4187690269394966,8.689865155306933,0.6233333333333333,0.17,-0.7288888888888889,-0.006664553751455529,-0.024849969884464897,0.2640270720495926
1589988678.8686748,-1.71,-3.3549134017151507,8.68918109971414,0.6233333333333333,0.17,-0.7288888888888889,-0.006544984694978735,-0.020081594904740964,0.22046979594731086
1589988678.8786747,-1.7245859908776047,-3.4375159452656283,8.78480894070443,0.6233333333333333,0.17,-0.7288888888888889,-0.008136069479229107,-0.01963495408493621,0.19320905395303917
1589988678.8886747,-1.7747205772902308,-3.4163353072517233,8.721614729961493,0.6104140554494889,0.16403725636130256,-0.7477709104114307,-0.0018970847352842617,-0.01768365079216838,0.16581302096060674
1589988678.8986747,-1.7617697655237423,-3.5467267585719338,8.78292093790503,0.6088888888888889,0.16333333333333333,-0.75,-0.009045271158028525,-0.014470377379118767,0.15467587195199484
1589988678.9086747,-1.7692819989305333,-3.4022060181809346,8.530104029945068,0.6088888888888889,0.16333333333333333,-0.75,0.010432703270581658,-0.010130764109843978,0.1588696854102627
1589988678.9186747,-1.863322961189947,-3.283345187211489,8.756639254573432,0.6088888888888889,0.16333333333333333,-0.75,-0.006179354031774033,-0.017816013803731524,0.16144271336119076
1589988678.9286747,-1.8780459050005696,-3.37698883699738,8.796919353001481,0.6088888888888889,0.16333333333333333,-0.75,0.0021566242711470243,-0.01623957397757795,0.18623621369946441
1589988678.9386747,-1.8536072949656002,-3.4663927050344,8.903424920825598,0.5747944620387561,0.12213590088942278,-0.7088025675560895,0.0008417635115514303,-0.02006332882490096,0.21566075989722147
1589988678.9486747,-1.5074487356321837,-3.3882347126436785,8.323241494252873,0.5555555555555556,0.09888888888888887,-0.6855555555555556,-0.02617215250501919,-0.03164601660129555,0.0759585470980974
1589988678.9586747,0.7873636781609195,-1.9515664367816092,4.133762528735632,0.5555555555555556,0.09888888888888887,-0.6855555555555556,-0.47265554869124077,-0.2320113569392819,-2.501444426645921
1589988678.9686747,3.0821760919540226,-0.51489816091954,-0.055716436781608536,0.5555555555555556,0.09888888888888887,-0.6855555555555556,-0.9191389448774623,-0.4323766972772683,-5.0788474003899395
1589988678.9786747,3.09,-0.51,-0.07,0.5555555555555556,0.09888888888888887,-0.6855555555555556,-0.9206611804270088,-0.43305982065109305,-5.08763476956347
1589988678.9886746,-0.2,-1.29,0.25,0.5244444444444445,0.22333333333333333,-0.6622222222222223,-0.5257804371632917,-0.6664976081053345,-6.307183584394507
1589988678.9986746,-0.20459376703997317,-1.2865546747200203,0.24138668680005032,0.5244444444444445,0.22333333333333333,-0.6622222222222223,-0.5259683505068474,-0.6685020171032626,-6.2936538236584925
1589988679.0086746,-0.15419396523874138,-0.9783879304774827,-0.025806034761258645,0.5244444444444445,0.22333333333333333,-0.6622222222222223,-0.5276805985573672,-0.6204366668937952,-5.901395097151937
1589988679.0186746,1.8976163240068016,-3.910776450323521,7.151259854691606,0.5244444444444445,0.22333333333333333,-0.6622222222222223,-0.3742498698041645,-0.3481566039292122,-5.618332677579305
1589988679.0286746,1.3970535714285712,-3.1399107142857146,5.20426948051948,0.5244444444444445,0.22333333333333333,-0.6622222222222223,0.6340055486692369,0.9417198811826057,-5.330318056231047
1589988679.0386746,-0.10034552238805972,-0.641501119402985,1.1550761194029848,0.5125089966832505,0.26901728855721396,-0.657283416252073,1.8917597712676213,2.4974948078739705,-5.005570348717027
1589988679.0486746,-0.7047765563000064,-0.5178429714434398,1.2645859624016134,0.4922222222222222,0.3466666666666667,-0.6488888888888888,0.8382014548361449,2.9801344419019435,-4.371911976637416
1589988679.0586746,-1.3535373409077414,-0.6856081629421429,3.705227133271312,0.4922222222222222,0.3466666666666667,-0.6488888888888888,0.05367869437253908,1.323108861865769,-3.7649381998889044
1589988679.0686746,-0.4600172775933329,0.23246121010908594,7.759070397723423,0.4922222222222222,0.3466666666666667,-0.6488888888888888,0.37929178173320943,-0.17132421677804244,-3.2806444949572575
1589988679.0786746,-0.4897612534195474,-0.5134379124978479,3.051698582442179,0.4922222222222222,0.3466666666666667,-0.6488888888888888,0.2141957144196002,-1.0210443860071396,-3.0514726229048
1589988679.0886745,-0.2454720024579461,-0.9258606651816577,3.297238651202089,0.462354592860008,0.38606651816575777,-0.6374502223246367,0.12136525137460205,-0.8952483171378194,-2.8187133611913517
1589988679.0986745,1.3224948303126138,-1.8547484085472163,9.27506994282934,0.44,0.4155555555555556,-0.6288888888888889,0.1648778586760958,0.6621868295550678,-2.3201729693228685
1589988679.1086745,0.4284067238540852,-2.1431995494324583,11.717993241486873,0.44,0.4155555555555556,-0.6288888888888889,-0.10196932279678184,1.0989896031772812,-2.072404781794642
1589988679.1186745,0.1238194312616272,-1.8926261437412202,7.694166824860473,0.44,0.4155555555555556,-0.6288888888888889,-0.11363454991392968,0.14979153789185995,-1.932046523867563
1589988679.1286745,0.3407572573230001,-2.2426504006305006,8.743819946144752,0.44,0.4155555555555556,-0.6288888888888889,-0.05110383885769355,-0.11091514165945086,-1.8397359063126013
1589988679.1386745,0.42,-2.438266310695812,8.436440847655598,0.3888132450822256,0.46013756790329463,-0.6239353319613623,0.15584682825935803,0.3679439757847165,-1.6209037379884002
1589988679.1486745,0.2978690887026432,-2.538915961924988,8.834187492889377,0.3711111111111111,0.4755555555555556,-0.6222222222222222,0.0497275124651127,0.10815103824262845,-1.5416966192697128
1589988679.1586745,0.16746823195510546,-2.6564135973682514,9.044050183835386,0.3711111111111111,0.4755555555555556,-0.6222222222222222,-0.10899575831149955,0.06421660234391653,-1.3776821972234001
1589988679.1686745,0.37038875761156054,-3.118940061801327,9.477915341270563,0.3711111111111111,0.4755555555555556,-0.6222222222222222,0.12880676209467762,0.0767166180485692,-1.186592574358665
1589988679.1786745,0.2728095993739539,-2.8299454383409777,8.456633915179445,0.3711111111111111,0.4755555555555556,-0.6222222222222222,0.05407021239692067,0.10863555853662568,-0.9761043035357473
1589988679.1886744,0.29196449596956797,-3.166764785798388,9.183440811520697,0.33612837001479334,0.5125373104288058,-0.6412128531030804,0.015376357033154008,0.011290261615846842,-0.7148101191371552
1589988679.1986744,0.2824238496435515,-3.114543097861309,9.05807517822424,0.3322222222222222,0.5166666666666667,-0.6433333333333333,0.009012962829583485,0.019359948787210268,-0.6198216446681694
1589988679.2086744,0.24,-2.963832981894859,8.734703337453647,0.3322222222222222,0.5166666666666667,-0.6433333333333333,-0.013111067404073959,0.04424265457603881,-0.36979833745499346
1589988679.2186744,0.265085740550861,-3.2787048757203974,9.550857405508609,0.3322222222222222,0.5166666666666667,-0.6433333333333333,0.0018991092787231031,-0.0034511798634992,-0.030067250400599377
1589988679.2286744,0.2629129072086618,-3.3070870927913383,9.24564536043309,0.3322222222222222,0.5166666666666667,-0.6433333333333333,0.01350272177265914,-0.00791098373260964,0.15993294928892404
1589988679.2386744,0.25502272769786194,-3.140772741727305,8.662000037411849,0.33664646426856715,0.5382348466425985,-0.6433333333333333,0.0011602485853370072,-0.022305009274558328,0.3224297374859988
1589988679.2486744,0.21837119624444631,-3.1850758655377653,8.877879118115517,0.3411111111111111,0.56,-0.6433333333333333,-0.014870833627455877,-0.04180691958990609,0.5474483655089759
1589988679.2586744,0.2,-3.3673718613820296,9.328846233658435,0.3411111111111111,0.56,-0.6433333333333333,-0.027788229443877863,-0.05269902203376126,0.7328671007827807
1589988679.2686744,-0.17284946826005926,-18.766342506304134,7.402001973467822,0.3411111111111111,0.56,-0.6433333333333333,-0.035709549393979474,-0.06884360915951239,0.9528339313634981
1589988679.2786744,0.5912886867629894,-12.695641727371514,6.198690787620236,0.3411111111111111,0.56,-0.6433333333333333,-0.39870942892160394,-0.31243879336899044,2.6060728408836935
1589988679.2886744,0.5634527356668085,-2.5782561147310172,10.213728758062931,0.34198865641451015,0.5652652718203944,-0.6714147830421037,-0.24460443583943003,-0.4950275883036615,5.2498431749161725
1589988679.2986743,-0.23753823581717942,-1.7014691890449938,3.7169613640405474,0.3422222222222222,0.5666666666666667,-0.6788888888888889,0.512117602167659,-0.08451436035965143,5.765741829928349
1589988679.3086743,-1.0718174409127954,-2.7978168296658517,7.242721067644662,0.3422222222222222,0.5666666666666667,-0.6788888888888889,0.03767405696245185,-0.3271893368483901,5.640963795864993
1589988679.3186743,12.849091736601395,-22.59689933839528,10.304729807735002,0.3422222222222222,0.5666666666666667,-0.6788888888888889,-0.652522056165234,-0.6083479866913445,5.092889899290292
1589988679.3286743,4.136806469813804,-9.71161912523771,10.25709109146762,0.3422222222222222,0.5666666666666667,-0.6788888888888889,-0.6994063085172748,-0.543711818705894,1.6865163693898535
1589988679.3386743,-2.165839504877793,-0.66,13.964263295919437,0.3903826007902374,0.5148485378276629,-0.6794985139340537,-0.14363201085128918,-0.01102312368640973,-0.5973767431131792
1589988679.3486743,-1.3145961401000714,0.9025518227305217,4.603552537526806,0.43,0.4722222222222222,-0.68,0.991051344630476,0.5056616657084205,-0.9616437475059258
1589988679.3586743,-0.8161848059061682,-0.37657219973009437,4.318882075097246,0.43,0.4722222222222222,-0.68,0.5273134843543391,0.08546685592178987,-0.8022597124743346
1589988679.3686743,-0.7877914013576804,-1.895424932905331,8.524267747197811,0.43,0.4722222222222222,-0.68,-0.4260491247453373,-0.005383433314469582,-0.7204387683871257
1589988679.3786743,-0.8036463559826517,-2.447792116676588,9.77143847265924,0.43,0.4722222222222222,-0.68,-0.37508027214300654,-0.012391421171580576,-0.5849675851627332
1589988679.3886743,-0.6392247688573494,-2.4935348613144095,8.729450445609679,0.43,0.4640558612752939,-0.6891871560652943,0.05434178961817268,0.05304460019327035,-0.418429376921577
1589988679.3986742,1.473381693090039,-9.018769069697877,8.399530361950344,0.43,0.4544444444444444,-0.7,0.13851348392750804,0.10268786661155165,-0.262543684842187
1589988679.4086742,-0.42310262649156716,-12.734275548296779,8.98679671355243,0.43,0.4544444444444444,-0.7,-0.14788692367751982,-0.0547956312161326,-0.5233231046765974
1589988679.4186742,-4.917408020140263,-8.595897860097105,8.59353101960079,0.43,0.4544444444444444,-0.7,-0.13251018461895117,-0.01882776676791173,-1.1233768889705722
1589988679.4286742,-2.558707196632397,-4.8719566097304305,8.90263660649235,0.43,0.4544444444444444,-0.7,0.1447985364351379,0.13004490219111803,-0.8541743687011464
1589988679.4386742,1.1152822080819766,-0.43695314436823396,8.95370961077597,0.4321301269867504,0.4554126839838764,-0.6947715064870672,0.25126887286811456,0.004693700356483593,0.3565198457219493
1589988679.4486742,1.369600256931806,-4.853613531741783,9.927521464511294,0.44222222222222224,0.46,-0.67,-0.07991100966828751,-0.06865937216764155,0.39925130667938047
1589988679.4586742,-0.7250861632887059,-3.929534279836779,8.538082150204026,0.44222222222222224,0.46,-0.67,-0.05617158676935119,0.0235446625931649,-0.2370064848892655
1589988679.4686742,-0.042979290697249484,-4.0230523393842,8.262328061653092,0.44222222222222224,0.46,-0.67,0.04094715163625703,0.09557018732288255,-0.3264853862606055
1589988679.4786742,0.46683416495450536,-4.179558555914294,8.681697094217787,0.44222222222222224,0.46,-0.67,-0.0025983992657552836,-0.0069144007668438465,-0.02428303943915222
1589988679.4886742,-0.24899147200593252,-4.59857131705794,8.729831781901918,0.4363678724682179,0.46585434975400436,-0.6774509905960056,-0.015051604278762742,-0.030534044461101507,0.07673385628481731
1589988679.4986742,-0.08218416370106761,-4.442184163701068,8.714806292461986,0.43,0.4722222222222222,-0.6855555555555556,0.002509951870854228,0.003092422335593925,-0.013148154677975622
1589988679.5086741,-0.07683135576736044,-4.43683135576736,8.574796732153278,0.43,0.4722222222222222,-0.6855555555555556,0.0017218618556620775,-0.0022387386862711745,-0.0037893691780984647
1589988679.5186741,-0.06610674135747996,-4.4748770287380575,8.550941948355907,0.43,0.4722222222222222,-0.6855555555555556,-0.0041755259569412175,-0.0011444871176520583,-0.002208489732570713
1589988679.5286741,-0.03619336202990485,-4.51238672405981,8.639033189850476,0.43,0.4722222222222222,-0.6855555555555556,-0.007877487793450797,-0.0012643982540808112,0.0006755909949364945
1589988679.538674,-0.06092514849021986,-4.51268712877445,8.60277544547066,0.43364171616340663,0.4655457425893101,-0.6855555555555556,-0.005555071957633474,-0.003272492347489368,0.002777535978816737
1589988679.548674,-0.06354098283231398,-4.502918034335372,8.59770491416157,0.43666666666666665,0.46,-0.6855555555555556,0.00120527953132475,-0.00045421444701537316,0.0025679228723708694
1589988679.558674,-0.05564779224135147,-4.492591168965405,8.601761038793244,0.43666666666666665,0.46,-0.6855555555555556,0.004504649473491534,-0.0008081780954850356,0.002656413784488285
1589988679.568674,-0.05539538842463634,-4.475395388424636,8.632697694212318,0.43666666666666665,0.46,-0.6855555555555556,0.005038129080624881,-0.0020954011920656934,0.0026839467697775303
1589988679.578674,-0.059510254194897916,-4.49,8.66447607354524,0.43666666666666665,0.46,-0.6855555555555556,0.006384715755037577,0.0007094128616708418,0.001090830782496456
1589988679.588674,-0.040437451684780135,-4.49,8.70897927940218,0.43666666666666665,0.46,-0.6855555555555556,0.00014315572908393283,1.5906192120436957e-05,0.001090830782496456
1589988679.598674,-0.07265677207361873,-4.502656772073618,8.692656772073619,0.4222222222222222,0.4666666666666667,-0.6644444444444444,0.0021132568434972694,0.0005796177519960494,0.0013806396584944806
1589988679.608674,-0.07915679551122194,-4.504940773067331,8.69578397755611,0.4222222222222222,0.4666666666666667,-0.6644444444444444,-0.00044697539388765324,0.001997702882533254,0.001997702882533254
1589988679.618674,-0.06642916610195745,-4.474995837286298,8.660712501694128,0.4222222222222222,0.4666666666666667,-0.6644444444444444,0.0018707740527787774,-0.0003895175535166632,0.0011685526605499897
1589988679.628674,-0.057587130626898644,-4.515174261253797,8.677587130626899,0.4222222222222222,0.4666666666666667,-0.6644444444444444,-0.006018578257714359,-0.001090830782496456,0.0027460859102249914
1589988679.638674,-0.05,-4.512064365516092,8.663967817241954,0.4245680710725733,0.4666666666666667,-0.6688010208808107,-0.004692327661891854,-0.001090830782496456,0.0007618262505904255
1589988679.648674,-0.05302531554790591,-4.527898737808377,8.63487342226047,0.43,0.4666666666666667,-0.6788888888888889,-0.004134110981913921,-0.0007608200498543662,0.00033001073264208973
1589988679.658674,-0.0487102522273811,-4.5,8.628224369431548,0.43,0.4666666666666667,-0.6788888888888889,0.0007564498770525681,-0.0012315204396993493,0.001090830782496456
1589988679.668674,-0.05246546523711758,-4.5062327326185585,8.643767267381442,0.43,0.4666666666666667,-0.6788888888888889,0.005581089864689748,0.0005378810747645566,0.001770716442435823
1589988679.678674,-0.06491880698950123,-4.490324772041995,8.664594034947505,0.43,0.4666666666666667,-0.6788888888888889,0.004416463831091202,0.001645102957262247,0.001108544349531582
1589988679.688674,-0.06580837784312549,-4.486766488627498,8.669041889215627,0.4379175085185407,0.4666666666666667,-0.6816833036601385,0.0006335957347651653,0.0020053008779590377,-0.00045723504773129066
1589988679.698674,-0.06532638430336761,-4.494020847089898,8.698590227337045,0.4488888888888889,0.4666666666666667,-0.6855555555555556,0.0011620367915038655,0.0021104555559855022,7.120600900740949e-05
1589988679.708674,-0.06612793139656983,-4.491616205810291,8.684174833741688,0.4488888888888889,0.4666666666666667,-0.6855555555555556,0.0026040387274488814,0.0006684536200404867,0.0006684536200404867
1589988679.718674,-0.062384033035099797,-4.51,8.615760495526498,0.4488888888888889,0.4666666666666667,-0.6855555555555556,0.0022322616990192445,0.00026005766211753084,0.0
1589988679.728674,-0.07,-4.51,8.704595175122225,0.4488888888888889,0.4666666666666667,-0.6855555555555556,-0.0017836399075116774,0.0007444262199888454,-0.00034640456250761067
1589988679.738674,-0.07,-4.51,8.650809168870722,0.4488888888888889,0.4666666666666667,-0.6855555555555556,-0.0032504256896788283,1.103332890526991e-05,-0.001079797453591186
1589988679.748674,-0.057218094050008134,-4.486691435699951,8.694436188100015,0.4155555555555556,0.48,-0.6855555555555556,-0.006241525830552618,-0.002181661564992912,0.0003034588644261172
1589988679.758674,-0.049213233574935705,-4.526852934299743,8.67291910217442,0.4155555555555556,0.48,-0.6855555555555556,-0.005025039394934866,-0.001924192854464464,0.001090830782496456
1589988679.768674,-0.05171699925301462,-4.501716999253015,8.609528332088358,0.4155555555555556,0.48,-0.6855555555555556,0.0025562526927352656,0.001090830782496456,0.00023874655158470073
1589988679.778674,-0.07,-4.498614882595897,8.661385117404103,0.4155555555555556,0.48,-0.6855555555555556,0.005878483427787418,0.0004243295153051385,-0.0004243295153051385
1589988679.7886739,-0.07,-4.459583411404659,8.71479170570233,0.419016231896127,0.47680552953178024,-0.679965232236171,0.004101976125947575,-0.000568136774419958,0.000568136774419958
1589988679.7986739,-0.06811842333738496,-4.49,8.720592116686925,0.43,0.4666666666666667,-0.6622222222222223,0.002861995998847882,0.001296078956817199,-0.001090830782496456
1589988679.8086739,-0.06330879863128441,-4.4933087986312845,8.646912013687155,0.43,0.4666666666666667,-0.6622222222222223,0.0007298968424877375,0.0010988597449667565,0.00035290497753841786
1589988679.8186738,-0.07,-4.501716091774622,8.590296550647729,0.43,0.4666666666666667,-0.6622222222222223,0.0001871965733346111,-0.0009036342091618449,0.0027109026274855347
1589988679.8286738,-0.07,-4.51,8.659356496710526,0.43,0.4666666666666667,-0.6622222222222223,0.000668537533433786,0.0,0.00126687974718801
1589988679.8386738,-0.07,-4.507121197823283,8.695757604353433,0.42776093164033147,0.46474746521552224,-0.6663804920330352,-0.0018841716186482145,-0.0009420858093241074,0.0029584637443813323
1589988679.8486738,-0.07,-4.504576576576577,8.691693693693693,0.4222222222222222,0.46,-0.6766666666666666,-0.006045757634160537,-0.002274038225852972,0.0011832074433565161
1589988679.8586738,-0.06505933872305142,-4.519881322553897,8.620593387230514,0.4222222222222222,0.46,-0.6766666666666666,-0.0022204986684120176,-0.001629773323174833,0.001077885081356754
1589988679.8686738,-0.06523210493150046,-4.509071580273998,8.617088944383504,0.4222222222222222,0.46,-0.6766666666666666,0.0022322990058028977,0.00010127488161997119,0.0016109274533396912
1589988679.8786738,-0.07,-4.495740817333991,8.671481634667982,0.4222222222222222,0.46,-0.6766666666666666,0.0035856053607197288,0.0015554355385321908,0.0020301698221875377
1589988679.8886738,-0.07,-4.506932929513949,8.693865859027898,0.4222222222222222,0.46,-0.6766666666666666,0.00419604038507229,0.00033456548982706735,0.0038614748952452227
1589988679.8986738,-0.07,-4.492265132234149,8.681878942126811,0.44222222222222224,0.4722222222222222,-0.67,0.002181661564992912,0.004218715928765202,0.0015850059759832868
1589988679.9086738,-0.06587948682685318,-4.495879486826853,8.603517947307413,0.44222222222222224,0.4722222222222222,-0.67,0.001282705043202772,-0.00044947826089507004,0.001924057564804158
1589988679.9186738,-0.06280175328157422,-4.492801753281574,8.59961227297102,0.44222222222222224,0.4722222222222222,-0.67,0.0,-0.00017395916514596895,0.0003056238724501623
1589988679.9286737,-0.06494693113601607,-4.5,8.655053068863984,0.44222222222222224,0.4722222222222222,-0.67,0.0,0.001079252952411298,0.0008152286293510525
1589988679.9386737,-0.05,-4.5,8.675295742762312,0.4375148953223892,0.4722222222222222,-0.6711768317249583,-0.00019255864071043285,-0.0017965442835720462,0.0
1589988679.9486737,-0.05,-4.5,8.69943652514245,0.41605642209559873,0.4722222222222222,-0.6765414500316559,-0.0010703422585038992,-4.097704798511348e-05,0.0
1589988679.9586737,-0.06240658551407893,-4.517593414485921,8.640747315887369,0.4155555555555556,0.4722222222222222,-0.6766666666666666,-0.0027066970768863828,-0.0016566260530994409,0.001615866294389927
1589988679.9686737,-0.0694119352300493,-4.509705967615025,8.582352259079803,0.4155555555555556,0.4722222222222222,-0.6766666666666666,-0.004235027299353036,0.0,0.003240418389831171
1589988679.9786737,-0.05,-4.503514843022924,8.670544529068774,0.4155555555555556,0.4722222222222222,-0.6766666666666666,0.0011502296895146956,-0.0007668197930097971,0.0025650714614978104
1589988679.9886737,-0.0526540961846091,-4.51,8.692654096184608,0.4193892500444354,0.46897832688547775,-0.677256465818802,0.0035620093292771686,-0.0007340766560539097,0.0021144244203381663
1589988679.9986737,-0.06451071183286439,-4.496467864501407,8.713532135498593,0.43,0.46,-0.6788888888888889,0.004363323129985824,0.003272492347489368,-0.001090830782496456
1589988680.0086737,-0.057177112123702106,-4.492822887876298,8.674434152536042,0.43,0.46,-0.6788888888888889,0.002498309687856976,0.0014074789053605205,-0.000624577421964244
1589988680.0186737,-0.04659278718185139,-4.506703606409074,8.613185574363703,0.43,0.46,-0.6788888888888889,0.00035958076002057807,-0.001450411542517034,0.0010787422800617342
1589988680.0286736,-0.06,-4.500906312292359,8.643625249169435,0.43,0.46,-0.6788888888888889,0.0006953774436724916,-0.0016873448914629563,0.0027781756739594125
1589988680.0386736,-0.06162281346464795,-4.506754373070704,8.688114067323239,0.4319834386790142,0.46108187564309866,-0.6761841997811423,-0.0030954708593405973,0.0030954708593405973,-0.001473575612397829
1589988680.0486736,-0.06929415005336916,-4.492117549839893,8.725764900320215,0.44222222222222224,0.4666666666666667,-0.6622222222222223,-0.00210466528003207,0.001950672710110386,0.002027668995071228
1589988680.0586736,-0.06,-4.52,8.643336371923427,0.44222222222222224,0.4666666666666667,-0.6622222222222223,-0.001090830782496456,-0.0014140030744849228,0.0009695168759654008
1589988680.0686736,-0.057923541377417585,-4.517923541377417,8.582076458622582,0.44222222222222224,0.4666666666666667,-0.6622222222222223,-0.000411311287268529,-0.001728648568174294,0.00281947935067075
1589988680.0786736,-0.05647782471943571,-4.51,8.61915021123746,0.44222222222222224,0.4666666666666667,-0.6622222222222223,0.0028882826257506057,0.0007066210607576938,0.0021507623736329966
1589988680.0886736,-0.07,-4.51,8.683559805579037,0.4407719310603926,0.46824880247957174,-0.6622222222222223,0.00449276131349634,0.002181661564992912,0.0037161322124332455
1589988680.0986736,-0.07,-4.509707221060401,8.709804814040268,0.43,0.48,-0.6622222222222223,0.005411570941844783,0.0021603700796741635,-0.0010695392971777078
1589988680.1086736,-0.07,-4.48,8.668852990611365,0.43,0.48,-0.6622222222222223,0.00010221040540225011,-0.00032954012569806856,0.0014203709081945246
1589988680.1186736,-0.07,-4.480634872417983,8.620952308626974,0.43,0.48,-0.6622222222222223,-0.002181661564992912,-0.001125457701321146,0.002112407727343532
1589988680.1286736,-0.06681331033547162,-4.5,8.659560068993585,0.43,0.48,-0.6622222222222223,-0.0014864337289267392,-0.0014864337289267392,0.0
1589988680.1386735,-0.0619535432617581,-4.501953543261758,8.685860629785275,0.42848057746307705,0.47739527565098916,-0.6667804898329912,-0.00021309851248642696,-0.00021309851248642696,0.0006392955374592811
1589988680.1486735,-0.07,-4.51,8.687662881476225,0.4222222222222222,0.4666666666666667,-0.6855555555555556,-0.0005493637496518702,-0.001090830782496456,0.0019188247653779036
1589988680.1586735,-0.07,-4.51,8.620685060326473,0.4222222222222222,0.4666666666666667,-0.6855555555555556,0.0010742244515634903,-0.001090830782496456,-0.0021401457376604973
1589988680.1686735,-0.050281463891604976,-4.513427154630535,8.590281463891605,0.4222222222222222,0.4666666666666667,-0.6855555555555556,0.00037384457673628364,-0.0003124386813114935,0.0
1589988680.1786735,-0.06743215148620554,-4.517432151486205,8.620271394055177,0.4222222222222222,0.4666666666666667,-0.6855555555555556,0.001090830782496456,0.002992383527125891,-0.0002801088203634772
1589988680.1886735,-0.05948614266242617,-4.508972285324852,8.65411085870059,0.42296446059871773,0.4666666666666667,-0.6847562219193296,0.0011468839226601766,0.002181661564992912,-0.0010347776423327354
1589988680.1986735,-0.05013119636905184,-4.489934401815474,8.729803205446423,0.43666666666666665,0.4666666666666667,-0.67,0.0021959728687842633,0.0021745059130972365,7.155651895675638e-06
1589988680.2086735,-0.07,-4.483436312490747,8.672509500074026,0.43666666666666665,0.4666666666666667,-0.67,0.002863948952712405,0.001090830782496456,0.0014656743268148106
1589988680.2186735,-0.06633984589327035,-4.497320308213459,8.630980462320188,0.43666666666666665,0.4666666666666667,-0.67,-0.0003992608768301516,0.001090830782496456,0.0013831398113326088
1589988680.2286735,-0.06294144670099344,-4.507058553299006,8.661765786803974,0.43666666666666665,0.4666666666666667,-0.67,-0.0007699687218448272,0.0004491066611931985,-0.00032086206065162873
1589988680.2386734,-0.06910440638421975,-4.50089559361578,8.69,0.4360696042561465,0.4671642186754335,-0.6720897184368206,-9.769410847004157e-05,-0.001090830782496456,-0.0008954425655563728
1589988680.2486734,-0.061690969828728986,-4.5083090301712705,8.69,0.43112731321915265,0.471282794539595,-0.6893877370662991,-0.0009063745883514219,-0.001090830782496456,0.0007219183942063878
1589988680.2586734,-0.07910845281027355,-4.490891547189727,8.700192980913009,0.43,0.4722222222222222,-0.6933333333333334,-0.0011880834943566378,-0.0027862287881884585,0.001090830782496456
1589988680.2686734,-0.07172996745536107,-4.498270032544639,8.619029642008972,0.43,0.4722222222222222,-0.6933333333333334,-0.0019929513896904203,0.001238110688480453,0.001090830782496456
1589988680.2786734,-0.06,-4.5,8.651620228557965,0.43,0.4722222222222222,-0.6933333333333334,0.0001767395185707176,0.0020049220464221943,0.0018281825278514767
1589988680.2886734,-0.06,-4.5,8.66397384542884,0.43,0.4722222222222222,-0.6933333333333334,0.0015243100743626843,0.0006573514906302277,-0.0008669585837324566
1589988680.2986734,-0.06,-4.508648898908974,8.687297797817948,0.4405708764443013,0.46741727838390346,-0.6683476253740757,0.004068558597914637,0.0,0.0006486839843896758
1589988680.3086734,-0.06789051796413309,-4.51,8.682109482035866,0.44222222222222224,0.4666666666666667,-0.6644444444444444,0.003502601141474061,-0.0017214439770235261,-0.0014913351830388329
