time,acc_x,acc_y,acc_z,mag_x,mag_y,mag_z,gyr_x,gyr_y,gyr_z
1589988691.969409,-3.89,-0.76,8.85,0.3388888888888889,-0.3477777777777778,-0.6022222222222222,-0.00545415391248228,-0.004363323129985824,0.001090830782496456
1589988691.979409,-3.89,-0.76,8.859896885323264,0.3388888888888889,-0.3477777777777778,-0.6022222222222222,-0.004374571196336719,-0.008681653994568064,-0.002147917365940226
1589988691.989409,-3.8776040437827586,-0.7723959562172413,8.897187868651724,0.3388888888888889,-0.3477777777777778,-0.6022222222222222,-0.005039417660998082,-0.006698362666934873,-0.0028577560960051703
1589988691.999409,-3.891233306136471,-0.78,8.92,0.32551977021037015,-0.33440865909925904,-0.6069407346969936,-0.0031379595176989346,-0.00545415391248228,-0.003272492347489368
1589988692.009409,-3.89,-0.77,8.910050659964774,0.32,-0.3288888888888889,-0.6088888888888889,0.005018926828464043,-0.005671767454491398,0.0017491975534255403
1589988692.019409,-3.88929356581067,-0.77070643418933,8.833178953851986,0.32,-0.3288888888888889,-0.6088888888888889,0.003118372315583539,-0.006583514702955193,-0.004363323129985824
1589988692.029409,-3.87,-0.7897271651521579,8.92136417423921,0.32,-0.3288888888888889,-0.6088888888888889,-0.0011205924475528465,-0.00751676881724963,-0.004214514804703872
1589988692.039409,-3.87,-0.7803625890285562,8.96818705485722,0.32,-0.3288888888888889,-0.6088888888888889,-0.002142109237618462,-0.003430701656987168,0.0008930691456242061
1589988692.049409,-3.8782676810138,-0.7882676810138004,8.9948030430414,0.32367452489502235,-0.33899383235020036,-0.5905162644137771,-0.002181661564992912,-0.0014687641575463896,0.0019926948774679452
1589988692.059409,-3.87,-0.7721761584467673,8.938031128542779,0.3244444444444444,-0.3411111111111111,-0.5866666666666667,-0.002062970533926737,0.0005934551553308758,0.00011869103106617515
1589988692.069409,-3.87,-0.7870635526292439,8.856150460539158,0.3244444444444444,-0.3411111111111111,-0.5866666666666667,-0.0012509891416565386,0.004653362116681866,0.0009306724233363732
1589988692.079409,-3.87,-0.769075687254552,8.844621563727241,0.3244444444444444,-0.3411111111111111,-0.5866666666666667,0.0012924845415741657,0.002080834685454057,0.0009900039029576012
1589988692.0894089,-3.87,-0.7615885398072118,8.882057300963941,0.3244444444444444,-0.3411111111111111,-0.5866666666666667,0.0029259267233038644,0.0012641135945892078,0.00017328281209275185
1589988692.0994089,-3.87,-0.76,8.880884665250614,0.3244444444444444,-0.3411111111111111,-0.600846076276823,0.0042668211212283785,0.00407381710371349,0.001988657547478022
1589988692.1094089,-3.8771995536364074,-0.7585997768182039,8.851598660909223,0.3244444444444444,-0.3411111111111111,-0.6022222222222222,0.0015706989453655729,0.0004798681628691168,-0.0013963120923101255
1589988692.1194088,-3.8615429399743357,-0.7577146998716792,8.818515279692031,0.3244444444444444,-0.3411111111111111,-0.6022222222222222,-0.003191513416722795,-0.004450652841174231,-0.003104183705534388
1589988692.1294088,-3.87,-0.7991862609497464,8.926509912402029,0.3244444444444444,-0.3411111111111111,-0.6022222222222222,-0.008637881099478046,-0.010642012343483751,-0.002181661564992912
1589988692.1394088,-3.87,-0.7938147379744891,8.969482096204088,0.3244444444444444,-0.3411111111111111,-0.6022222222222222,-0.00805193883844827,-0.00888418556039443,-0.002181661564992912
1589988692.1494088,-3.8654494066559355,-0.7854494066559353,9.00910118668813,0.322421958513749,-0.3355492748016987,-0.6022222222222222,-0.006146637287976417,-0.006146637287976417,-0.0011888761053270623
1589988692.1594088,-3.8772798687572956,-0.78,9.02,0.32,-0.3288888888888889,-0.6022222222222222,-0.004363323129985824,-0.005305793767883667,-0.0018849412757956869
1589988692.1694088,-3.856303759209118,-0.772101253069706,8.877822555254706,0.32,-0.3288888888888889,-0.6022222222222222,-0.0026400838710429935,-0.0002844361356537893,0.00040319732342133366
1589988692.1794088,-3.84,-0.71063935960079,8.85063935960079,0.32,-0.3288888888888889,-0.6022222222222222,-0.00016273439784618093,-9.299108448353195e-05,-0.002228157107234678
1589988692.1894088,-3.84,-0.7368019544651211,8.876801954465122,0.32,-0.3288888888888889,-0.6022222222222222,-0.006821825957711905,-0.0038981862615496596,-0.0041307546957677415
1589988692.1994088,-3.84,-0.7332192651257021,8.886780734874298,0.328287564846364,-0.3334093788050874,-0.591674412417759,-0.0061564886117089325,-0.007321976861518342,-0.0065823134286352135
1589988692.2094088,-3.8601722933246987,-0.7701722933246988,8.929655413350602,0.3322222222222222,-0.33555555555555555,-0.5866666666666667,-0.0021566025166995665,-0.0065199256466853895,-0.008726646259971648
1589988692.2194088,-3.8816159102915866,-0.7916159102915865,8.886768179416826,0.3322222222222222,-0.33555555555555555,-0.5866666666666667,0.0009622451467063437,-0.00340107798327948,-0.008726646259971648
1589988692.2294087,-3.9167504450727826,-0.8178336300485216,8.923500890145565,0.3322222222222222,-0.33555555555555555,-0.5866666666666667,0.0041270088270510315,0.0007363593280942673,-0.0058086253668844685
1589988692.2394087,-3.905311525007091,-0.8420327124893637,9.003442374964544,0.3322222222222222,-0.33555555555555555,-0.5866666666666667,0.005965587197005294,0.004295358916535397,-0.0022496257784433388
1589988692.2494087,-3.899137971087007,-0.7887069566305106,9.018275942174014,0.31222222222222223,-0.3422222222222222,-0.6233333333333333,0.013992734637714985,0.007541782710105722,0.003319508731174103
1589988692.2594087,-3.8841478887082075,-0.7662218330623113,8.988295777416415,0.31222222222222223,-0.3422222222222222,-0.6233333333333333,0.010722405979524546,0.0059066183810105,0.004137090895721713
1589988692.2694087,-3.86,-0.751183260422706,8.858422319436391,0.31222222222222223,-0.3422222222222222,-0.6233333333333333,0.0043202985668925765,-0.002181661564992912,0.0032294677843961207
1589988692.2794087,-3.86,-0.7732899383334212,8.828946748888772,0.31222222222222223,-0.3422222222222222,-0.6233333333333333,0.003516477074767823,-0.002181661564992912,0.002425646292271367
1589988692.2894087,-3.8526953564552024,-0.7726953564552025,8.82,0.31222222222222223,-0.3422222222222222,-0.6233333333333333,8.524033395767606e-05,-0.006165726581907527,0.001384848561609989
1589988692.2994087,-3.8335537495382344,-0.7617768747691172,8.861115626154414,0.32227270861552354,-0.3312580552477117,-0.5931818741534294,-0.0037818422215475577,-0.0031507964123900214,0.00198783459551349
1589988692.3094087,-3.85,-0.7521971047042453,8.851098552352122,0.3244444444444444,-0.3288888888888889,-0.5866666666666667,-0.007995315894038972,0.0044232398660797876,-0.0013304977268723099
1589988692.3194087,-3.8486180635776326,-0.7879270953664484,8.879673554956574,0.3244444444444444,-0.3288888888888889,-0.5866666666666667,-0.01440691899079968,0.005228035094136525,-0.005831018609725205
1589988692.3294086,-3.830672998759252,-0.7610094981388782,9.005289008685235,0.3244444444444444,-0.3288888888888889,-0.5866666666666667,-0.017343173355467173,0.0022917807294690336,-0.010724775884171023
1589988692.3394086,-3.8220945443152,-0.76,9.0416218227392,0.3244444444444444,-0.3288888888888889,-0.5866666666666667,-0.014003886755686692,-0.00040539275819954056,-0.01177065926602871
1589988692.3494086,-3.8027297849997237,-0.7715134766668509,9.078783691667127,0.31740843092581333,-0.33592490240752,-0.603936881666943,-0.010578118437606341,0.001421020169854675,-0.013883026821724364
1589988692.3594086,-3.775652833624156,-0.78,9.02826416812078,0.31222222222222223,-0.3411111111111111,-0.6166666666666667,-0.003249030506442577,0.004055008883707806,-0.02309679631713477
1589988692.3694086,-3.7208564711749097,-0.78,8.9324276478655,0.31222222222222223,-0.3411111111111111,-0.6166666666666667,-0.002431012632569218,0.005703504980058586,-0.03154066618020599
1589988692.3794086,-3.650207924676344,-0.7561247548058062,8.842249509611612,0.31222222222222223,-0.3411111111111111,-0.6166666666666667,-0.006745006000486324,0.009149369934726453,-0.05053289647837289
1589988692.3894086,-3.5464054008152175,-0.7188018002717391,8.811281080163043,0.31222222222222223,-0.3411111111111111,-0.6166666666666667,-0.016484124199210668,0.01594322923443882,-0.07223815656829376
1589988692.3994086,-3.207010330325426,-0.6595729043322037,8.832341676534238,0.3221044011632391,-0.34650139053348394,-0.6166666666666667,-0.03857428140244643,0.02669081334915402,-0.11289054134265639
1589988692.4094086,-2.9972807723250203,-0.635728077232502,8.90422365245374,0.3244444444444444,-0.3477777777777778,-0.6166666666666667,-0.051883352125481064,0.02446953717485815,-0.14490059036292827
1589988692.4194086,-2.686140858241264,-0.5022359990302359,8.865993142382155,0.3244444444444444,-0.3477777777777778,-0.6166666666666667,-0.05401036690903265,0.007867352084358077,-0.14587168924561786
1589988692.4294086,-1.879907872406747,-1.2140453018390884,9.214634433553838,0.3244444444444444,-0.3477777777777778,-0.6166666666666667,-0.023110288896707895,0.021336616858961172,-0.1284408760078962
1589988692.4394085,-1.6554029705381057,-1.1139171604036469,8.489761383004627,0.3244444444444444,-0.3477777777777778,-0.6166666666666667,0.10849223002043364,0.08008397211344676,-0.08570855450221387
1589988692.4494085,-1.8166507875198488,-0.9253396849920604,8.292985708767864,0.3244444444444444,-0.3432227515271161,-0.5961690485386894,0.11430547568005633,0.0891767155787464,-0.05112602767770136
1589988692.4594085,-2.1137531137558816,-0.9295829873604576,9.037506227511763,0.3244444444444444,-0.3411111111111111,-0.5866666666666667,-0.04058818406432034,-0.02972536526174608,-0.04054178928705945
1589988692.4694085,-2.2,-0.9193874861085984,9.207141601840126,0.3244444444444444,-0.3411111111111111,-0.5866666666666667,-0.04512447222382207,-0.035507439883588204,-0.019334287031584838
1589988692.4794085,-2.204768178505354,-0.8586376632841846,8.925912989852554,0.3244444444444444,-0.3411111111111111,-0.5866666666666667,0.022336743238936932,0.01274217802032932,0.01063482039662324
1589988692.4894085,-2.259635588944329,-0.8429612603016202,8.87888378090486,0.3244444444444444,-0.3411111111111111,-0.5866666666666667,0.028321849265207085,0.021292329486429534,0.020039987009333474
1589988692.4994085,-2.4004877844291297,-0.8597561077854352,9.11926874255915,0.32,-0.3288888888888889,-0.6088888888888889,-0.009418409339580361,-0.003964255427098079,0.01966155859846206
1589988692.5094085,-2.4075208343813403,-0.8562395828093298,8.964541643610511,0.32,-0.3288888888888889,-0.6088888888888889,-0.00366450880255022,0.0017896451099320585,0.020045151967597402
1589988692.5194085,-2.4145538843335514,-0.8527230578332243,8.80981454466187,0.32,-0.3288888888888889,-0.6088888888888889,0.002089391734479919,0.007543545646962197,0.02042874533673274
1589988692.5294085,-2.413221115965905,-0.856778884034095,8.666273905880667,0.32,-0.3288888888888889,-0.6088888888888889,0.006175253926210508,0.013847792451302155,0.018507400254823295
1589988692.5394084,-2.439891290500658,-0.87,8.709755403626481,0.32,-0.3288888888888889,-0.6088888888888889,0.001102689149319637,0.00983822918440867,0.007109669932314632
1589988692.5494084,-2.451687840290381,-0.87,8.835390199637024,0.323145795523291,-0.33360758217382536,-0.6088888888888889,-0.0017283035809789581,0.0037258503315033215,-0.007720943832552047
1589988692.5594084,-2.482156972669937,-0.87,8.922269096005607,0.3244444444444444,-0.33555555555555555,-0.6088888888888889,0.003507781566026445,0.004363323129985824,-0.01879164327957525
1589988692.5694084,-2.557062133072407,-0.8621563111545988,8.977843688845402,0.3244444444444444,-0.33555555555555555,-0.6088888888888889,0.006544984694978735,0.0035077094058970555,-0.03854371052443109
1589988692.5794084,-2.5826971040598585,-0.8346057918802826,8.99269710405986,0.3244444444444444,-0.33555555555555555,-0.6088888888888889,0.007930023890684191,0.005350051141047552,-0.05431523368085816
1589988692.5894084,-2.59,-0.82,9.0,0.3244444444444444,-0.33555555555555555,-0.6088888888888889,0.008726646259971648,0.009830264767981156,-0.07816998019941412
1589988692.5994084,-2.5779081446507135,-0.8260459276746431,9.0,0.3331774510855957,-0.3389144042636906,-0.6048582704391268,0.006088612653472439,0.01002061340258661,-0.10659534260695425
1589988692.6094084,-2.540856257744734,-0.83,8.89313961173069,0.3388888888888889,-0.3411111111111111,-0.6022222222222222,0.001184234013067094,0.014025128121502861,-0.14960061567880456
1589988692.6194084,-2.5546073900957844,-0.8446073900957844,8.816963049521078,0.3388888888888889,-0.3411111111111111,-0.6022222222222222,-0.0005025882943450945,0.017367638326137025,-0.17682606275239654
1589988692.6294084,-2.542792360462495,-0.8327923604624947,8.781396180231246,0.3388888888888889,-0.3411111111111111,-0.6022222222222222,0.001724762652745612,0.023236779027843196,-0.22219624731996018
1589988692.6394083,-2.554231708009309,-0.83,8.76576829199069,0.3388888888888889,-0.3411111111111111,-0.6022222222222222,0.0037341000833984945,0.025550715733327612,-0.2605848424282765
1589988692.6494083,-2.5502455063568608,-0.8690179745725559,8.838035949145112,0.346475717277997,-0.3291889522139413,-0.6087252179843149,0.008619523903426622,0.02724398897327514,-0.31529648394765825
1589988692.6594083,-2.5760335583170377,-0.8960335583170378,8.918100674951113,0.3466666666666667,-0.3288888888888889,-0.6088888888888889,0.014406287617999938,0.02821737645541611,-0.3551518095371655
1589988692.6694083,-2.5978905642389423,-0.9178905642389423,8.903164153641587,0.3466666666666667,-0.3288888888888889,-0.6088888888888889,0.019174746592564088,0.03128893707311813,-0.406926597748288
1589988692.6794083,-2.6,-0.951423634963259,8.954991361185703,0.3466666666666667,-0.3288888888888889,-0.6088888888888889,0.02477663433231443,0.03591882623187907,-0.4500396909311007
1589988692.6894083,-2.6,-0.9644064893468876,8.992032446734438,0.3466666666666667,-0.3288888888888889,-0.6088888888888889,0.026660612202147715,0.0404529605605089,-0.48532560816960857
1589988692.6994083,-2.6007465949218096,-0.97,9.017760215234572,0.3475791715711003,-0.3302991237411954,-0.6110457186630047,0.027107887817858372,0.044805502954631204,-0.5212072753894224
1589988692.7094083,-2.6140886618663712,-0.97,8.977734014400887,0.3588888888888889,-0.3477777777777778,-0.6377777777777778,0.02375109653050133,0.04626089668715687,-0.5981083786820653
1589988692.7194083,-2.6056498925044638,-0.9747833691651787,8.878682724191961,0.3588888888888889,-0.3477777777777778,-0.6377777777777778,0.020251261751102718,0.04794929291323188,-0.6651270241235812
1589988692.7294083,-2.5949978291544555,-0.98,8.79999565830891,0.3588888888888889,-0.3477777777777778,-0.6377777777777778,0.016363408947504363,0.049632563801074364,-0.7281165231780934
1589988692.7394083,-2.6041283688148127,-0.9758716311851873,8.818256737629625,0.3588888888888889,-0.3477777777777778,-0.6377777777777778,0.01508147052939314,0.052429891887185005,-0.7851475045432134
1589988692.7494082,-2.6191349363985967,-0.9882698727971939,8.83,0.36751632882089713,-0.33915033784576953,-0.6377777777777778,0.019850096174354747,0.058621770853240315,-0.8509800827891008
1589988692.7594082,-2.6515854793670495,-1.0171951597890165,8.83,0.37777777777777777,-0.3288888888888889,-0.6377777777777778,0.02870749828462594,0.06767144585028588,-0.9298802743408844
1589988692.7694082,-2.6680937663341138,-1.0361875326682273,8.821906233665887,0.37777777777777777,-0.3288888888888889,-0.6377777777777778,0.0340748336953346,0.07069606302613164,-0.9964910620391356
1589988692.7794082,-2.6368264953040037,-1.0814668808699952,8.886347009391992,0.37777777777777777,-0.3288888888888889,-0.6377777777777778,0.03942992005059699,0.07361800186869588,-1.0558749941402557
1589988692.7894082,-2.595143255073617,-1.152742140867489,8.98365618782332,0.37777777777777777,-0.3288888888888889,-0.6377777777777778,0.04112119515923538,0.07265558079602596,-1.1075667658766954
1589988692.7994082,-2.6215412598718983,-1.204924755923139,9.00338349605124,0.3943942817265372,-0.3122723849401295,-0.6553174208348016,0.04235785943510436,0.08105772864715644,-1.1728644319487722
1589988692.8094082,-2.6455304529112684,-1.21,8.94564341481056,0.3977777777777778,-0.3088888888888889,-0.6588888888888889,0.04338945532244795,0.08883252310533384,-1.2222721440652082
1589988692.8194082,-2.6746811294585613,-1.2922704315285374,8.814821395860047,0.3977777777777778,-0.3088888888888889,-0.6588888888888889,0.04183836891584633,0.09233381733121776,-1.2750114498357656
1589988692.8294082,-2.6555817344411783,-1.326278843705881,8.822557687411761,0.3977777777777778,-0.3088888888888889,-0.6588888888888889,0.0370122037804094,0.09449636289398113,-1.3203106318248672
1589988692.8394082,-2.6694746113195986,-1.3624576855326644,8.817016925786934,0.3977777777777778,-0.3088888888888889,-0.6588888888888889,0.03670553267253544,0.09631851177749648,-1.357664683936932
1589988692.8494081,-2.655550533107898,-1.38,8.834449466892101,0.4195106372374238,-0.29711692334824735,-0.6588888888888889,0.03886626201164834,0.10063997045572223,-1.4053602324848768
1589988692.8594081,-2.6844681051540564,-1.4489362103081127,8.84,0.4244444444444445,-0.29444444444444445,-0.6588888888888889,0.040209879922781654,0.1014472627721704,-1.4370651289085503
1589988692.8694081,-2.721957758208268,-1.472783103283307,8.788867586866772,0.4244444444444445,-0.29444444444444445,-0.6588888888888889,0.047332840231000296,0.10214447290003355,-1.45911492700226
1589988692.8794081,-2.7521593598557423,-1.4962124798076561,8.788371839663398,0.4244444444444445,-0.29444444444444445,-0.6588888888888889,0.053037553980812786,0.10430660075814623,-1.4786337268409928
1589988692.889408,-2.7626850435710475,-1.534629912857905,8.85925982571581,0.4244444444444445,-0.29444444444444445,-0.6588888888888889,0.05643030787185142,0.1061034787201205,-1.5006348590827394
1589988692.899408,-2.75,-1.6485723350253807,8.96636421319797,0.44591652566271855,-0.27297236322617036,-0.6651515792442187,0.054300670398738544,0.10471975511965977,-1.5380008038658057
1589988692.909408,-2.735502649751084,-1.662751324875542,8.907513248755421,0.4511111111111111,-0.2677777777777778,-0.6666666666666666,0.05266000054651882,0.10946400189450484,-1.5625025443318654
1589988692.919408,-2.701313336550428,-1.695858329311965,8.815455007238462,0.4511111111111111,-0.2677777777777778,-0.6666666666666666,0.05235987755982988,0.11439396936842941,-1.5869162585582504
1589988692.929408,-2.6823569107102987,-1.7711447143176124,8.828215446448507,0.4511111111111111,-0.2677777777777778,-0.6666666666666666,0.04735748731748464,0.11479433123756679,-1.617881992731991
1589988692.939408,-2.6697937868659065,-1.7951031065670469,8.819587573731813,0.4511111111111111,-0.2677777777777778,-0.6666666666666666,0.04692821801079004,0.11899053274588345,-1.6386977676709862
1589988692.949408,-2.6505979040744445,-1.8282062877766665,8.790597904074444,0.4605132070366666,-0.24949592458919762,-0.6875602131679012,0.04850935921262308,0.12326387842209953,-1.6669019481830052
1589988692.959408,-2.6548111094519933,-1.8797481459359913,8.794811109451993,0.4711111111111111,-0.2288888888888889,-0.7111111111111111,0.046394649526814075,0.12434097269631011,-1.7020147836990025
1589988692.969408,-2.6415155795596177,-1.937979227253843,8.767273369339428,0.4711111111111111,-0.2288888888888889,-0.7111111111111111,0.04881184507284827,0.12596340136439146,-1.735258123938582
1589988692.979408,-2.6045583537627217,-2.0072082311863904,8.74720823118639,0.4711111111111111,-0.2288888888888889,-0.7111111111111111,0.059290271303285944,0.12950432838112835,-1.7673076162693133
1589988692.989408,-2.6266381897238045,-2.0513105517790433,8.817948741502848,0.4711111111111111,-0.2288888888888889,-0.7111111111111111,0.06210587509116619,0.1325716798288853,-1.798251646585454
1589988692.999408,-2.603202385128025,-2.171394832222612,8.898998012393312,0.5127089909973109,-0.1872910090026891,-0.7215105810826611,0.058534109877313334,0.1364845740545519,-1.8387249260689924
1589988693.009408,-2.59,-2.218658306553025,8.89507335475758,0.5244444444444445,-0.17555555555555555,-0.7244444444444444,0.05577872595858266,0.13744467859455345,-1.8546410282444132
1589988693.019408,-2.5497484065749747,-2.2557502276321464,8.800997268414243,0.5244444444444445,-0.17555555555555555,-0.7244444444444444,0.0548688876828327,0.14058094124830697,-1.880974506752438
1589988693.029408,-2.533465539300217,-2.3205949268509762,8.756732769650108,0.5244444444444445,-0.17555555555555555,-0.7244444444444444,0.0567232006898157,0.1458365574613542,-1.9069452650097727
1589988693.039408,-2.509589300461257,-2.4047392591697383,8.778246419723246,0.5244444444444445,-0.17555555555555555,-0.7244444444444444,0.05473282505936897,0.14792561418050382,-1.929431483476904
1589988693.049408,-2.4746570483304344,-2.49370033084348,8.79,0.5184777410173911,-0.14146010740096487,-0.7346730788908217,0.052613880143550444,0.1491898146182939,-1.9551428644717197
1589988693.059408,-2.462745077784435,-2.49549015556887,8.811764766646695,0.5166666666666667,-0.13111111111111112,-0.7377777777777778,0.05473404530303664,0.15102659569748564,-1.973676533357636
1589988693.069408,-2.4045618107951245,-2.5246488682530472,8.71605339524086,0.5166666666666667,-0.13111111111111112,-0.7377777777777778,0.058656054072846284,0.15616100501529792,-1.991617697152061
1589988693.079408,-2.3547063910749806,-2.590587217850039,8.720587217850039,0.5166666666666667,-0.13111111111111112,-0.7377777777777778,0.05861614067651316,0.15886023964238205,-2.0083475816373464
1589988693.089408,-2.350885915708143,-2.65265774712443,8.766328873562214,0.5166666666666667,-0.13111111111111112,-0.7377777777777778,0.056032827679796504,0.15985502884198777,-2.0248579434285428
1589988693.099408,-2.3341180807274067,-2.6670590403637036,8.792940959636297,0.5339212795150622,-0.12320274688892985,-0.7464050842019755,0.0573648185500861,0.16670450373382145,-2.043895876418131
1589988693.109408,-2.310231439157003,-2.703958523793485,8.785347158735505,0.5433333333333333,-0.11888888888888888,-0.7511111111111111,0.05890486225480863,0.17123518675627017,-2.0565973407751903
1589988693.119408,-2.2921048288868806,-2.757895171113119,8.742366901104083,0.5433333333333333,-0.11888888888888888,-0.7511111111111111,0.055459943981501676,0.17235126363444006,-2.0694498326774187
1589988693.129408,-2.2660109990512,-2.7979780018976,8.7,0.5433333333333333,-0.11888888888888888,-0.7511111111111111,0.047634943852949786,0.17133395477768518,-2.083119184939523
1589988693.1394079,-2.242743013079891,-2.8336284934600546,8.7,0.5433333333333333,-0.11888888888888888,-0.7511111111111111,0.042745025902197385,0.17214863824960444,-2.0917115991329336
1589988693.1494079,-2.199356405585914,-2.84,8.70437765634487,0.5428469270727923,-0.12180732645213518,-0.7511111111111111,0.03735979525140261,0.17944398181886903,-2.0984868768766582
1589988693.1594079,-2.1303537538375665,-2.879528328216578,8.690235835891711,0.5422222222222223,-0.12555555555555556,-0.7511111111111111,0.03490658503988659,0.18381141827691022,-2.09824516726322
1589988693.1694078,-2.0802395468292447,-2.913413182276415,8.637065911382074,0.5422222222222223,-0.12555555555555556,-0.7511111111111111,0.032751053980412656,0.1868521232251945,-2.0918933814099017
1589988693.1794078,-2.056128790153107,-2.972420444311018,8.689356049234464,0.5422222222222223,-0.12555555555555556,-0.7511111111111111,0.031634092692397225,0.1826612682953034,-2.078683422244616
1589988693.1894078,-2.044269448250574,-3.0515749657448326,8.737191655248278,0.5422222222222223,-0.12555555555555556,-0.7511111111111111,0.032259198917293494,0.1718606981882638,-2.064917830377215
1589988693.1994078,-2.021413522553218,-3.108586477446782,8.76239098496452,0.5484177147044829,-0.1138529586446188,-0.746980782789604,0.036779863822318855,0.15904804502708603,-2.043529571963586
1589988693.2094078,-2.016668159827988,-3.1466726393119515,8.763331840172011,0.5522222222222222,-0.10666666666666667,-0.7444444444444445,0.04436159197195519,0.15489797111449674,-2.016214824348452
1589988693.2194078,-2.02,-3.2131611509378377,8.713483992929392,0.5522222222222222,-0.10666666666666667,-0.7444444444444445,0.04400623265355093,0.1490989891269034,-1.9846575845915548
1589988693.2294078,-2.0064074216496826,-3.2467962891751587,8.717185156700635,0.5522222222222222,-0.10666666666666667,-0.7444444444444445,0.041059680229559685,0.14024044370331673,-1.9481066406434528
1589988693.2394078,-1.985962551103843,-3.2733957481602616,8.725320850367948,0.5522222222222222,-0.10666666666666667,-0.7444444444444445,0.04240240313418873,0.1394863427763733,-1.9158079971130104
1589988693.2494078,-1.9501839887640449,-3.323118679775281,8.726605337078652,0.541213327091136,-0.10006132958801499,-0.7257293227215981,0.04436379683164676,0.14108747122312343,-1.8785410628537418
1589988693.2594078,-1.9212380219168208,-3.399968058444856,8.751238021916821,0.5188888888888888,-0.08666666666666667,-0.6877777777777778,0.04363323129985824,0.13594870608717494,-1.8324780887682144
1589988693.2694077,-1.9345854167416094,-3.441878125112414,8.732097917191265,0.5188888888888888,-0.08666666666666667,-0.6877777777777778,0.0445191904137546,0.12862758429854979,-1.796646249964735
1589988693.2794077,-1.8713151431012387,-3.380438381033746,8.560118539085861,0.5188888888888888,-0.08666666666666667,-0.6877777777777778,0.0487875348883181,0.1228205682402552,-1.7395015665884603
1589988693.2894077,-1.8038124493653795,-3.3661875506346206,8.705049959492305,0.5188888888888888,-0.08666666666666667,-0.6877777777777778,0.04567990145084116,0.12451149955943902,-1.6994447645379673
1589988693.2994077,-1.7634757555990432,-3.4378060447923464,8.711709067188519,0.5219784494213717,-0.053453890942475414,-0.6673094392500786,0.04586150044231593,0.11169049351209037,-1.6336513294827766
1589988693.3094077,-1.7949738504665078,-3.445047069160286,9.519236433622023,0.5277777777777778,0.008888888888888889,-0.6288888888888889,0.043092950357504656,0.11126816278056828,-1.5740939208925377
1589988693.3194077,-1.7216355791787654,-3.3655724527125677,9.202418918253851,0.5277777777777778,0.008888888888888889,-0.6288888888888889,0.10899637655597308,0.01035021376499251,-1.5259282808472605
1589988693.3294077,-1.4641960691451574,-3.061671007972216,8.327738574473123,0.5277777777777778,0.008888888888888889,-0.6288888888888889,0.12032374117923059,0.002464593915713839,-1.4608547219265542
1589988693.3394077,-1.4597311796377874,-3.2012307391091532,10.235636417033774,0.5277777777777778,0.008888888888888889,-0.6288888888888889,-0.12972881546611797,0.2173923340634339,-1.3711652594047805
1589988693.3494077,-1.4210222783498478,-3.2199569328411375,9.187946052716793,0.5364022551792127,0.05665522526606653,-0.5983715073145809,-0.008714389337443118,0.1058714466442792,-1.3063232697249907
1589988693.3594077,-1.28,-2.95,7.54,0.5422222222222223,0.08888888888888889,-0.5777777777777777,0.17016960206944715,-0.022907446432425576,-1.2839078309983287
1589988693.3694077,-1.3317021708257253,-3.2932846419151955,8.540452424426862,0.5422222222222223,0.08888888888888889,-0.5777777777777777,0.18147147060480726,0.22718869254546648,-1.1517838571456658
1589988693.3794076,-1.5253033279635377,-3.556625869317512,9.878982751168913,0.5422222222222223,0.08888888888888889,-0.5777777777777777,-0.07631006581408394,-0.017134756730563167,-1.1692639416360024
1589988693.3894076,-1.2041665768774916,-3.00484107316022,7.609444025428294,0.5422222222222223,0.08888888888888889,-0.5777777777777777,-0.0563596687848204,0.0018656132971195186,-1.12526558704276
1589988693.3994076,-1.3623397263225945,-3.35131559099235,8.347585389505442,0.5422222222222223,0.08888888888888889,-0.5777777777777777,0.08167244351848398,0.09635188064759571,-1.0422819957175589
1589988693.4094076,-1.4472983844159297,-3.559876338009441,8.95683332225251,0.5344444444444445,0.17333333333333334,-0.6,0.00545415391248228,0.0370882466048795,-0.9348419805994628
1589988693.4194076,-1.3798450832072617,-3.492084114977307,8.581619364599092,0.5344444444444445,0.17333333333333334,-0.6,0.020355199450613592,0.042226538169752366,-0.872668652664501
1589988693.4294076,-1.2,-3.2203582838886353,8.061834778639891,0.5344444444444445,0.17333333333333334,-0.6,0.04100149623994209,0.045550773407929936,-0.7783936456982503
1589988693.4394076,-1.2927219408157824,-3.42762729938683,8.664716075713145,0.5344444444444445,0.17333333333333334,-0.6,0.04075769550211765,0.04153096104481508,-0.7210010510338078
1589988693.4494076,-1.3893451068616423,-3.5886902137232846,8.80120922384702,0.5447047119110112,0.1879344831896013,-0.6051301337332833,0.03490658503988659,0.03881104756309808,-0.6665471065460161
1589988693.4594076,-1.3655230421737519,-3.5589539156524963,8.631046084347503,0.5633333333333334,0.21444444444444444,-0.6144444444444445,0.03051134197195764,0.035997415822383035,-0.5962327782584905
1589988693.4694076,-1.343872036344707,-3.561936018172353,8.519200227154418,0.5633333333333334,0.21444444444444444,-0.6144444444444445,0.02552892997777293,0.03555759384202859,-0.5320985934801393
1589988693.4794075,-1.3369107965766953,-3.58551267281106,8.47484693877551,0.5633333333333334,0.21444444444444444,-0.6144444444444445,0.0252575979067952,0.033430839642895005,-0.47779258999035207
1589988693.4894075,-1.3727401129943502,-3.6697765793528503,8.7150333846944,0.5633333333333334,0.21444444444444444,-0.6144444444444445,0.02119444431764236,0.02430530097907614,-0.38607285896396015
1589988693.4994075,-1.2402057483901365,-3.4761002041777918,8.407477618972829,0.56607036280823,0.2217431897108354,-0.6176376454984905,0.022264461050501717,0.023160151851646913,-0.3107238422632327
1589988693.5094075,-1.2674917491749176,-3.575095422585737,8.68400918352705,0.57,0.23222222222222225,-0.6222222222222222,0.016860841018759613,0.014809878794186347,-0.22395496333371023
1589988693.5194075,-1.3590851616830966,-3.7509148383169038,8.829085161683096,0.57,0.23222222222222225,-0.6222222222222222,0.011403826526358504,0.004163736370568695,-0.1438657325297815
1589988693.5294075,-1.3395523010613153,-3.7495523010613154,8.68940376326644,0.57,0.23222222222222225,-0.6222222222222222,0.012617808566250483,0.0010419944041356285,-0.05628390078322522
1589988693.5394075,-1.3341889052528229,-3.7148665684830635,8.628644673539519,0.57,0.23222222222222225,-0.6222222222222222,0.010068352057187759,-0.005026325474214205,0.02455595575046048
1589988693.5494075,-1.325505035093073,-3.7379798596277083,8.738989929813854,0.5741874343064456,0.23544332553487268,-0.6180347879157766,0.005312016364686739,-0.013264062920395569,0.10404435211151657
1589988693.5594075,-1.3060480948720765,-3.822226858460525,8.81,0.5844444444444444,0.2433333333333333,-0.6077777777777778,0.005185009653311363,-0.018813267561610666,0.20429271020713657
1589988693.5694075,-1.3082618764602205,-3.6788412509734805,8.690100422183056,0.5844444444444444,0.2433333333333333,-0.6077777777777778,-0.0023080614757244556,-0.026306338690646486,0.29571963324556666
1589988693.5794075,-1.2642311392057166,-3.6940783289817234,8.578156657963447,0.5844444444444444,0.2433333333333333,-0.6077777777777778,-0.006855459989290493,-0.02992231132127725,0.36753496315801015
1589988693.5894074,-1.2864809072760481,-3.7928224950091325,8.7655056704753,0.5844444444444444,0.2433333333333333,-0.6077777777777778,-0.007635815477475192,-0.029098952469643384,0.43181307747072456
1589988693.5994074,-1.2641097353911899,-3.7261646030867848,8.630823015433924,0.5979152437822335,0.23899527930929954,-0.6107459200047483,-0.00987732841378771,-0.03256062355258203,0.4692667162730947
1589988693.6094074,-1.2802050396962374,-3.7492823610631687,8.748462202278219,0.65,0.2222222222222222,-0.6222222222222222,-0.01847702421875288,-0.04030482304929648,0.49993599380181114
1589988693.6194074,-1.3254829665476053,-3.6876448899642815,8.678997196297576,0.65,0.2222222222222222,-0.6222222222222222,-0.014500922998011995,-0.03713039338704302,0.5381629187695561
1589988693.6294074,-1.3880030575195872,-3.702801834511752,8.860812535830307,0.65,0.2222222222222222,-0.6222222222222222,-0.0210314176007207,-0.04389496398292771,0.5573267297552519
1589988693.6394074,-1.3442662226622266,-3.6295694356943566,8.578317163171631,0.65,0.2222222222222222,-0.6222222222222222,-0.01564306909575653,-0.04581489286485115,0.5782577329227315
1589988693.6494074,-1.4225726286314315,-3.5862863143157155,8.739284214210711,0.7028168630653755,0.21458853498230465,-0.6300622253334889,-0.016970112136586883,-0.04662509339703788,0.5918843244107398
1589988693.6594074,-1.3766433066361556,-3.578904462242563,8.757738844393593,0.9344444444444444,0.1811111111111111,-0.6644444444444444,-0.01963495408493621,-0.04969255291904872,0.6101482104124957
1589988693.6694074,-1.3775563653461855,-3.5504981779710825,8.650996355942166,0.9344444444444444,0.1811111111111111,-0.6644444444444444,-0.01867740289751755,-0.04765105843121253,0.6265069591734713
1589988693.6794074,-1.4102347745673467,-3.5204695491346936,8.594350689791836,0.9344444444444444,0.1811111111111111,-0.6644444444444444,-0.0193140270449389,-0.046931333579848515,0.6478118272904039
1589988693.6894073,-1.4406789826648108,-3.5742386435530813,8.68355966088827,0.9344444444444444,0.1811111111111111,-0.6644444444444444,-0.023295745199642965,-0.04869908644512313,0.6713513426955519
1589988693.6994073,-1.4843919860110844,-3.6315879790166266,8.7,1.109539103431697,0.08920199295943938,-0.7476299852800253,-0.02478323828302949,-0.0472115933617366,0.7050855571001386
1589988693.7094073,-1.482534654870606,-3.614178218290202,8.716712873160807,1.5588888888888892,-0.14666666666666667,-0.9611111111111112,-0.02399827721492203,-0.050731191906009304,0.7505369414771064
1589988693.7194073,-1.5,-3.6164280856501043,8.700708942151145,1.5588888888888892,-0.14666666666666667,-0.9611111111111112,-0.02282937097732984,-0.055710445362414984,0.7901533475288087
1589988693.7294073,-1.5085067777836383,-3.6014932222163614,8.652684740756369,1.5588888888888892,-0.14666666666666667,-0.9611111111111112,-0.021035100036307652,-0.059669922485562105,0.8363891372188345
1589988693.7394073,-1.5389682587849731,-3.571031741215027,8.730925937164937,1.5588888888888892,-0.14666666666666667,-0.9611111111111112,-0.023447091107936253,-0.06631558671689945,0.8930066086156205
1589988693.7494073,-1.5624611696380335,-3.5327718125337655,8.797228187466233,1.370746143225884,-0.10974912209616425,-0.902589966384537,-0.02619688172156636,-0.07063552890205838,0.9439022554800398
1589988693.7594073,-1.5521205423265354,-3.4844698644183665,8.769542440469408,0.7944444444444444,0.0033333333333333327,-0.7233333333333334,-0.02339503300253952,-0.07225110293034291,1.0045236593988573
1589988693.7694073,-1.5575673820813576,-3.4734595707511855,8.645189356126778,0.7944444444444444,0.0033333333333333327,-0.7233333333333334,-0.025501844663281335,-0.07647017795094291,1.0361712651359545
1589988693.7794073,-1.622988832043923,-3.4342067007736463,8.586310051160469,0.7944444444444444,0.0033333333333333327,-0.7233333333333334,-0.029070031236017244,-0.07932472720913163,1.054012197999634
1589988693.7894073,-1.6954857111311483,-3.3846040888430893,8.783273466683841,0.7944444444444444,0.0033333333333333327,-0.7233333333333334,-0.03394131130327489,-0.08023884103643189,1.0677977790181457
1589988693.7994072,-1.7495130927626372,-3.2611129308282574,8.829582650939404,0.7944444444444444,0.0033333333333333327,-0.7233333333333334,-0.030573612390057084,-0.07855499157982299,1.0711654779313633
1589988693.8094072,-1.7262122453031543,-3.2259102077283894,8.763787754696846,0.6411111111111111,0.13444444444444445,-0.7088888888888889,-0.03201432544598129,-0.07963064712224129,1.0529660434858594
1589988693.8194072,-1.7495133625847628,-3.1489190267251694,8.757351416035101,0.6411111111111111,0.13444444444444445,-0.7088888888888889,-0.02957034701972842,-0.07687115417346087,1.0341606657138858
1589988693.8294072,-1.7566398202327185,-3.1700402696509222,8.756680089883641,0.6411111111111111,0.13444444444444445,-0.7088888888888889,-0.030905407924905374,-0.075814935752245,1.0301991375641515
1589988693.8394072,-1.6465314156233197,-3.318580152085414,8.773955372916506,0.6411111111111111,0.13444444444444445,-0.7088888888888889,-0.022097618318090838,-0.07567444794740949,1.0291866731363042
1589988693.8494072,-1.4987863962072177,-3.483009546901046,8.72601909380209,0.6393581278548698,0.13768072122519767,-0.7123948554013716,-0.010945406414779077,-0.06773213046971321,1.0237923318967626
1589988693.8594072,-1.49,-3.3724341879035644,8.491398005578269,0.6266666666666667,0.16111111111111112,-0.7377777777777778,-0.03501961499755787,-0.07630163979591627,1.0109346066646558
1589988693.8694072,-1.4468877047976674,-3.492219261994168,8.638924248463361,0.6266666666666667,0.16111111111111112,-0.7377777777777778,-0.024547388282005145,-0.07017260029858775,0.9720025617635624
1589988693.8794072,-1.4183947996816133,-3.3151233749005042,8.60259219952242,0.6266666666666667,0.16111111111111112,-0.7377777777777778,-0.009440360430742744,-0.06273622810747195,0.920445850604197
1589988693.8894072,-1.53,-3.3529613863821255,8.749270295325122,0.6266666666666667,0.16111111111111112,-0.7377777777777778,-0.025210827352568497,-0.06395638059269329,0.8237175337953888
1589988693.8994071,-1.5066803013993542,-3.4066393972012916,8.708744886975241,0.6227800502332257,0.1525281664872623,-0.7366441813180241,-0.020681634988614722,-0.05479328736999743,0.7141675003998821
1589988693.9094071,-1.3933399232742594,-3.589974581656429,8.749997175739603,0.6,0.10222222222222224,-0.73,-0.004726111846770343,-0.03199626525114602,0.4963067485836549
1589988693.9194071,-1.461130569680255,-3.3348690855813152,8.718260794622081,0.6,0.10222222222222224,-0.73,0.001090830782496456,-0.01848718913697566,0.2938030825029494
1589988693.9294071,-1.5261977074894424,-3.10351926225976,8.682112384728088,0.6,0.10222222222222224,-0.73,0.001090830782496456,-0.008234921591802256,0.13370998160524167
1589988693.939407,-1.6359802116889095,-3.597435956435036,8.535475533057216,0.6,0.10222222222222224,-0.73,0.019490819345670537,0.0071594241233154405,-0.11037918233516819
1589988693.949407,-3.8284383181888186,-4.954635761589404,6.238130294162945,0.5958177182264661,0.10278522169173641,-0.7237265773396991,-0.05632201419534452,0.21693386883725338,-0.3624593976763901
1589988693.959407,-15.165090527130497,-7.954082704480748,-6.967627774552893,0.5422222222222223,0.11,-0.6433333333333333,-0.9764328101394243,1.6401036718534747,-2.127969982567439
1589988693.969407,-6.318997982143351,-2.818015866434475,-1.205494098460349,0.5422222222222223,0.11,-0.6433333333333333,-0.3257494441880453,-0.7267649761115504,-3.2782061756340655
1589988693.979407,-0.1586717939854822,-0.4625741012789492,0.05953897338403042,0.5422222222222223,0.11,-0.6433333333333333,-0.23514348312496203,-0.9478409374487616,-3.5032048490161327
1589988693.989407,-0.33989802972692706,-0.7253521431040442,0.2588878326996198,0.5422222222222223,0.11,-0.6433333333333333,-0.24799314830023936,-0.5583972390595886,-3.30947143560426
1589988693.999407,-0.008961888675325684,-0.24232259692857283,-0.06975362572077581,0.5435913996587304,0.12157577287229568,-0.6440801573896104,-0.17813618026191308,-0.3706706830324096,-3.042007768307113
1589988694.009407,-0.07410720872891063,-0.33189741200225215,0.15011182946007337,0.553544156889139,0.2057218112748429,-0.6495089340607426,-0.14882289057627401,-0.28983706602049575,-2.8652397486876535
1589988694.019407,1.7058103087212049,-1.1419675065865027,3.181078835371208,0.5544444444444444,0.21333333333333332,-0.65,0.07899135086786395,0.03880842551261482,-2.560537131734945
1589988694.029407,7.11762750793758,-4.010797304600419,12.134661217320813,0.5544444444444444,0.21333333333333332,-0.65,0.6391939912943049,0.6422818905788912,-2.4531327634324964
1589988694.039407,2.3383617424242424,2.2070878623188404,13.814091732542819,0.5544444444444444,0.21333333333333332,-0.65,1.5547501377176252,2.112409709270832,-2.2583122338028416
1589988694.049407,1.4319617804294533,-1.0521381102873852,13.033166553445373,0.5409817106588822,0.22268879240465617,-0.651597273499982,-0.45407412457388363,0.11239403980451602,-1.844320735934842
1589988694.059407,1.3873888082497454,-0.4148382763924695,9.280464914751187,0.4888888888888889,0.2588888888888889,-0.6577777777777778,0.25135379508329214,0.1824616596645171,-1.6442160752026214
1589988694.069407,1.7521265576528735,-0.44787344234712656,11.9631999579368,0.4888888888888889,0.2588888888888889,-0.6577777777777778,0.6876750619570545,0.3522747649598051,-1.5429077027393758
1589988694.079407,1.0374460839954598,-1.211312902005297,8.31044835414302,0.4888888888888889,0.2588888888888889,-0.6577777777777778,0.14629720581883132,0.030869933330387345,-1.384944639281966
1589988694.089407,0.3021704286146317,-1.8737258405960466,8.551441178896434,0.4888888888888889,0.2588888888888889,-0.6577777777777778,-0.38882462758106817,-0.06535110446631417,-1.2253231133178786
1589988694.099407,-0.24556896599125722,-1.9429139746515272,9.197197096747587,0.4888888888888889,0.2588888888888889,-0.6577777777777778,-0.48568106214212065,0.07490204428118387,-1.0894725297777013
1589988694.109407,-0.1722547914317925,-2.9675167230364523,11.186062758361517,0.5187291327404067,0.2663489498517683,-0.6439233788467159,0.28621505843862527,0.15073428518521584,-0.8354051915175124
1589988694.119407,-0.5796492615420398,-3.170171415280847,10.773439702290965,0.52,0.26666666666666666,-0.6433333333333333,0.06597723616890017,0.06846017963974593,-0.640763744143837
1589988694.129407,-0.6509823794171162,-2.7472222044881414,9.756334631468063,0.52,0.26666666666666666,-0.6433333333333333,-0.19484632749090539,-0.011583796264637965,-0.5390958189154446
1589988694.139407,-0.8183420052989434,-3.2961617773805343,11.516957895744884,0.52,0.26666666666666666,-0.6433333333333333,-0.05025799041698717,0.022007433560615765,-0.42882895579341596
1589988694.149407,-0.5114103033220991,-2.0980614347616755,6.5824082811747715,0.5186380356283101,0.2692203498635853,-0.644525052158562,0.1988091568117206,0.08478598587728053,-0.2266731240400993
1589988694.159407,-0.842592392874338,-3.1319957631198845,10.298109773712085,0.5042778366233349,0.29614572299791364,-0.6570902262879152,-0.0857960836275741,-0.010376137860935664,-0.14384683115683708
1589988694.169407,-0.5307293666026871,-2.358598848368522,7.557562380038387,0.5022222222222222,0.3,-0.6588888888888889,0.001840384372004576,-0.018370344118280046,0.01869905896060623
1589988694.179407,-0.7113008771772472,-3.043265825963729,9.017182090516082,0.5022222222222222,0.3,-0.6588888888888889,0.07488452451249909,0.0021476727751172896,0.12457202613053647
1589988694.1894069,-0.7754294740999145,-3.1693249084007986,9.405397880602909,0.5022222222222222,0.3,-0.6588888888888889,-0.07581603013653893,-0.017650713769308424,0.27954724459805813
1589988694.1994069,-0.790521325623037,-2.912918073208677,8.488754219626031,0.5025231325199037,0.3045136544652205,-0.6576852476981634,-0.021339515269525877,-0.02002121327210428,0.39526626598721065
1589988694.2094069,-0.7807100361903081,-2.839215288198429,8.355837231882779,0.5044444444444445,0.3333333333333333,-0.65,-0.0091734160393682,-0.03281949616397198,0.517604107282019
1589988694.2194068,-0.9510143878541795,-3.172419454497308,9.651631211933974,0.5044444444444445,0.3333333333333333,-0.65,-0.025327609881807548,-0.04412743185367951,0.592721108649362
1589988694.2294068,-0.9280232208486469,-3.044185766789175,8.778023220848647,0.5044444444444445,0.3333333333333333,-0.65,-0.0033868054363400254,-0.05081245045113511,0.7188451486715167
1589988694.2394068,-0.9210163715335784,-2.988130972268627,8.771016371533578,0.5044444444444445,0.3333333333333333,-0.65,-0.034724281813222804,-0.056927079988087846,0.7883990596543541
1589988694.2494068,-0.8477565934065935,-2.9208917582417584,8.861946153846153,0.5044444444444445,0.3333333333333333,-0.65,-0.02637449024804591,-0.05781403147231216,0.8679801071439153
1589988694.2594068,-0.9035074356184258,-2.936753717809213,8.825843307943417,0.534574618143715,0.34060613388143307,-0.6635066295893282,-0.03289505667637118,-0.06903411828044945,0.9940594131546603
1589988694.2694068,-0.949160553715097,-3.038321107430194,8.90642214860388,0.5366666666666666,0.3411111111111111,-0.6644444444444444,-0.015904614813534605,-0.07400135627508701,1.1003379948440446
1589988694.2794068,-0.9408897302413629,-3.021779460482726,8.575589209654519,0.5366666666666666,0.3411111111111111,-0.6644444444444444,-0.011393580392662936,-0.08302342511683035,1.1725145455779913
1589988694.2894068,-0.810811762269621,-3.5367529509215156,8.987852557465313,0.5366666666666666,0.3411111111111111,-0.6644444444444444,-0.03439539223375914,-0.08587293700493068,1.2451032596294385
1589988694.2994068,-1.1956809084985571,-1.3174085450991344,9.195291507648392,0.5370185926408583,0.34053523224425203,-0.6647003906074929,-0.6680662802414966,0.12717048025825037,-1.2015162099007433
1589988694.3094068,-0.6110030153279169,-1.5932310076220788,8.880918418628026,0.5488888888888889,0.3211111111111111,-0.6733333333333333,0.08105254628068007,0.12933480536391775,-3.8790824317260975
1589988694.3194067,0.7952360865782606,-2.4767965516332286,12.682093801903457,0.5488888888888889,0.3211111111111111,-0.6733333333333333,0.9453314238981279,0.4472406208235469,-3.4927886306939793
1589988694.3294067,-0.24596820516969378,-0.5026768739128675,4.108759556652239,0.5488888888888889,0.3211111111111111,-0.6733333333333333,0.6919394567392676,0.3528327709215048,-3.17032073971861
1589988694.3394067,-1.0990584218158006,-3.4692417793161514,13.046740259132795,0.5488888888888889,0.3211111111111111,-0.6733333333333333,-0.2241918243083422,-0.06935487726493698,-2.9513687865522744
1589988694.3494067,-1.0608578816444096,-2.52,9.831883673736579,0.5484289080911233,0.3217819164411859,-0.6732950016001862,-0.3981289211387372,0.2813214456110346,-2.6290497150385477
1589988694.3594067,-0.591319812255092,-2.5798731142976075,8.401066040850306,0.5222222222222223,0.36,-0.6711111111111111,0.2546059859430872,0.25454950994038206,-2.2347080479507526
1589988694.3694067,-0.7719295525987168,-2.7905844780318363,9.00309850866239,0.5222222222222223,0.36,-0.6711111111111111,0.14099419614743847,0.18296751521364385,-2.129633560278476
1589988694.3794067,-0.5953303607620591,-2.9478319532109563,9.055824309456252,0.5222222222222223,0.36,-0.6711111111111111,-0.06897424926082968,0.06825073453602137,-1.9072242307975824
1589988694.3894067,-0.3686420753952169,-2.8425838207192076,8.367663443164052,0.5222222222222223,0.36,-0.6711111111111111,0.13061487393326068,0.151265679581351,-1.7173496224492222
1589988694.3994067,-0.4636120914531226,-3.223731778425656,9.246510664416142,0.5217063065827835,0.3606373075546008,-0.6711414590899016,0.020666196750420425,0.10455588779787611,-1.5337296725133165
1589988694.4094067,0.72,-5.66,7.55,0.4844444444444445,0.4066666666666667,-0.6733333333333333,0.016362461737446838,0.09272061651219876,-1.377719278293024
1589988694.4194067,2.9528827267475446,-19.067264586943963,8.148093587521664,0.4844444444444445,0.4066666666666667,-0.6733333333333333,0.004401448642603405,0.07858487376374743,-1.5125525168167135
1589988694.4294066,-0.026071715919716354,-4.343511209689696,8.495947332941919,0.4844444444444445,0.4066666666666667,-0.6733333333333333,-0.012519018970606574,0.07357442160427648,-2.964863715973531
1589988694.4394066,-4.411192979551288,-10.834080635814223,6.761309711068797,0.4844444444444445,0.4066666666666667,-0.6733333333333333,0.2620925276882118,0.47587115850352185,-2.6018167283465785
1589988694.4494066,0.797392168225846,2.5433022187267156,12.976887987416177,0.4844444444444445,0.4066666666666667,-0.6733333333333333,-0.00968140540727258,-0.05536639016047373,0.19167840277425352
1589988694.4594066,1.0049788777222661,-1.8266445477517794,7.191663741054378,0.4455555555555555,0.44,-0.68,0.11035665753903777,-0.2997976735721042,1.3526302965467327
1589988694.4694066,6.320569047664976,-7.393046430431511,7.927917478443703,0.4455555555555555,0.44,-0.68,-0.12705158057860927,-0.044738265334185956,1.3208581903302448
1589988694.4794066,-0.08109754910549163,-1.8294383772314042,9.711774805816738,0.4455555555555555,0.44,-0.68,-0.14212132704128158,-0.04006983800258557,-0.05761412333731983
1589988694.4894066,-0.39136911366777627,-1.968244077167163,7.2377673304911525,0.4455555555555555,0.44,-0.68,0.09390564662407971,0.2369278556197819,-0.4717746620331425
1589988694.4994066,-0.05690272333402108,-3.276112285950072,8.528330926346193,0.4455555555555555,0.44,-0.68,0.004536416842712776,0.010702187618049142,-0.48395446401177067
1589988694.5094066,-3.4168101046969555,-9.360215157045433,8.492021899913553,0.4388888888888889,0.4655555555555556,-0.68,-0.08039583175432001,0.00013914352887861667,-0.5160369325089172
1589988694.5194066,-0.08640188262414839,-4.364602823936221,8.982182787436365,0.4388888888888889,0.4655555555555556,-0.68,-0.015940944857417705,0.03749368025321971,-0.43253855630156657
1589988694.5294065,0.6191952281097464,-3.531271564256639,7.538044194611359,0.4388888888888889,0.4655555555555556,-0.68,0.05938904588060472,-0.007098521392428038,0.17283106463819156
1589988694.5394065,-0.23076600468730724,-4.506879240162822,8.594952510176391,0.4388888888888889,0.4655555555555556,-0.68,-0.00027193400905703435,-0.000648685728680821,0.008360255212637502
1589988694.5494065,-0.10669025500342921,-4.426239167030364,8.574434815138101,0.4388888888888889,0.4655555555555556,-0.68,-0.023653834762278267,-0.012450290549333342,-0.0318309169510508
1589988694.5594065,-0.08105174163003043,-4.396777984443693,8.694474129184984,0.4266666666666667,0.46,-0.6644444444444444,0.019857122782521087,0.010176230148987482,0.008841373474498669
1589988694.5694065,-0.010130199526547173,-4.529755875887724,8.729934900236726,0.4266666666666667,0.46,-0.6644444444444444,-0.004318940113915783,0.004373975053842634,0.0011050333476388674
1589988694.5794065,-0.026185413565809057,-4.538092706782905,8.665258345736763,0.4266666666666667,0.46,-0.6644444444444444,-0.0017149910282327862,0.0017149910282327862,0.0019736081497474683
1589988694.5894065,-0.060459333683821094,-4.517243997897073,8.603674669470568,0.4266666666666667,0.46,-0.6644444444444444,0.0016920971685959103,0.006344562566278918,0.003272492347489368
1589988694.5994065,-0.0686262826878517,-4.46824230387289,8.669010261502814,0.4266666666666667,0.46,-0.6644444444444444,0.012382608415806342,0.0027810588172087736,0.003272492347489368
1589988694.6094065,-0.0504375782679896,-4.453500626143917,8.715624217320105,0.4455555555555555,0.46,-0.6855555555555556,0.006210858003846561,0.0019429996427556442,0.0021339291805454585
1589988694.6194065,-0.060524119825605925,-4.530524119825606,8.615282921569547,0.4455555555555555,0.46,-0.6855555555555556,-0.0018340746338303593,-0.0031581471395918446,0.0011480033864452177
1589988694.6294065,-0.06970431155465462,-4.5417741306720725,8.531478442226726,0.4455555555555555,0.46,-0.6855555555555556,-0.015013594108381365,-0.0010263215708542011,0.0021494069591717845
1589988694.6394064,-0.06152892561983471,-4.590826446280992,8.572355371900827,0.4455555555555555,0.46,-0.6855555555555556,-0.007879223999189278,0.0007572709564438206,0.0012576106955227736
1589988694.6494064,-0.06,-4.57350505050505,8.58,0.4455555555555555,0.46,-0.6855555555555556,-0.0024987737864095583,-6.522947709473761e-05,0.0016688609122920528
1589988694.6594064,-0.06,-4.535868417871963,8.631815801136135,0.4492192990702317,0.46,-0.6829385959022155,0.006743057872397515,-6.315312978717258e-05,0.003209339217702195
1589988694.6694064,-0.06628454273811861,-4.488577286309407,8.708853628214356,0.4533333333333333,0.46,-0.68,0.008976745786364867,0.0031474425842927586,0.002992248595454956
1589988694.6794064,-0.05077715608720818,-4.4988342658691876,8.595051514566853,0.4533333333333333,0.46,-0.68,0.0002543237348193554,0.0022664361432660303,0.0011332180716330151
1589988694.6894064,-0.05691404732548516,-4.5,8.617656189301941,0.4533333333333333,0.46,-0.68,-0.0007542055654276509,0.001427455999565261,-0.0011717859137864966
1589988694.6994064,-0.07404283087144806,-4.521064246307172,8.658085661742897,0.4533333333333333,0.46,-0.68,0.004270592483292022,0.00185674839189481,0.003179761700795566
1589988694.7094064,-0.06751110850118425,-4.505022217002368,8.694977782997633,0.4443135783619664,0.4558370361670614,-0.6744493815560819,0.005863821330670409,0.002862824929301238,0.003410663819557302
1589988694.7194064,-0.06,-4.471744013477197,8.77389595282981,0.4388888888888889,0.4533333333333333,-0.6711111111111111,0.002467025102895198,-0.0007103460652934076,0.0001902423586015241
1589988694.7294064,-0.06,-4.507248226286089,8.584446811998033,0.4388888888888889,0.4533333333333333,-0.6711111111111111,-0.006960428595915464,-0.001090830782496456,0.005078938978282431
1589988694.7394063,-0.030853363887712655,-4.54886218148305,8.550568909258477,0.4388888888888889,0.4533333333333333,-0.6711111111111111,-0.010815220265225777,-0.001090830782496456,0.0022747491247316937
1589988694.7494063,-0.03788135756920165,-4.55,8.573644072707605,0.4388888888888889,0.4533333333333333,-0.6711111111111111,-0.006609694102791261,-0.0019505535269311158,-0.0012572294127457273
1589988694.7594063,-0.05716494416890637,-4.52425258374664,8.665824720844531,0.4388888888888889,0.45905498138963546,-0.6835080152330991,0.004844073301119586,0.0015631483308623118,0.0015631483308623118
1589988694.7694063,-0.06,-4.487098186366479,8.704676360225141,0.4388888888888889,0.46,-0.6855555555555556,0.011928531361689669,0.0039761771205632235,0.0030789193427780675
1589988694.7794063,-0.06,-4.470175975958621,8.651055855751727,0.4388888888888889,0.46,-0.6855555555555556,0.007731795473796795,0.004363323129985824,0.0011292227810250966
1589988694.7894063,-0.06839712335446124,-4.5203827401267676,8.591220136518771,0.4388888888888889,0.46,-0.6855555555555556,-0.0015240251619910265,0.0016153709381459581,0.0001748467185498342
1589988694.7994063,-0.06292316964192939,-4.515846339283859,8.615384151790353,0.4388888888888889,0.46,-0.6855555555555556,-0.0009566050283627142,0.0026347556619142256,0.0
1589988694.8094063,-0.06,-4.51,8.674764865112865,0.4388888888888889,0.4557366795130605,-0.6869766623845355,0.001395168366840416,0.0018773239806489522,0.000697584183420208
1589988694.8194063,-0.07076859911315486,-4.493847101330267,8.694615700443421,0.4388888888888889,0.4533333333333333,-0.6877777777777778,0.0033563335046922485,0.0005034948126467876,0.001090830782496456
1589988694.8294063,-0.06468398268398268,-4.48,8.62873593073593,0.4388888888888889,0.4533333333333333,-0.6877777777777778,0.0018572456569517582,0.0033414366307120877,0.001090830782496456
1589988694.8394063,-0.053869319343190024,-4.5045227226272395,8.58547727737276,0.4388888888888889,0.4533333333333333,-0.6877777777777778,-0.002921690324365891,0.0016883090587442593,0.001090830782496456
1589988694.8494062,-0.05591090752582391,-4.531821815051647,8.59955453762912,0.4388888888888889,0.4533333333333333,-0.6877777777777778,-0.007388493876979884,0.0019343399644976044,0.001090830782496456
1589988694.8594062,-0.06529564027659654,-4.54,8.625295640276597,0.4424193157399532,0.45686376018439767,-0.6754212837990525,-0.0029499988332321054,0.003272492347489368,0.0005131660398225018
1589988694.8694062,-0.057077850877192984,-4.507694627192983,8.675227521929825,0.4455555555555555,0.46,-0.6644444444444444,0.006410424976743153,0.003977286249447742,0.0007047939019583735
1589988694.8794062,-0.05,-4.4990530428084075,8.61852261472433,0.4455555555555555,0.46,-0.6644444444444444,0.009714180037038568,0.005350856907052743,0.002078364559563375
1589988694.8894062,-0.05,-4.48081042689461,8.657973932763475,0.4455555555555555,0.46,-0.6644444444444444,0.003537703928570322,0.00545415391248228,8.840386036031806e-05
1589988694.8994062,-0.0648014758521945,-4.509602951704389,8.652599262073903,0.4455555555555555,0.46,-0.6644444444444444,-0.0007639840239985641,0.003839563363887107,0.001614590548595173
1589988694.9094062,-0.0435500761614623,-4.511183358720487,8.68526656511805,0.4455555555555555,0.46,-0.6908943682829821,-0.002181661564992912,0.00038725323571299356,-0.0007035775467834626
1589988694.9194062,-0.05261958621600647,-4.516309793108003,8.702619586216008,0.4455555555555555,0.46,-0.6944444444444444,0.0019480883670434375,0.0006882916553393915,0.0009740441835217187
1589988694.9294062,-0.0767262793973281,-4.4949105809040075,8.618005463314695,0.4455555555555555,0.46,-0.6944444444444444,0.003451046107823736,0.001090830782496456,0.003093938587155
1589988694.9394062,-0.04455399497721142,-4.516584503767091,8.653169007534183,0.4455555555555555,0.46,-0.6944444444444444,0.00037257284283573507,0.002057470617381,0.0023058525126048238
1589988694.9494061,-0.047142003392967306,-4.534284006785935,8.667142003392968,0.4455555555555555,0.46,-0.6944444444444444,-0.003116286859897147,0.002960733279967199,0.002181661564992912
1589988694.9594061,-0.05583559285560577,-4.5283288142887885,8.658328814288788,0.45009434999880443,0.4528676087320374,-0.6808280611146976,-0.00499988756208694,0.001362799051186018,0.002181661564992912
1589988694.9694061,-0.06,-4.52,8.664787589186359,0.4533333333333333,0.4477777777777778,-0.6711111111111111,-0.0016903104996908924,0.0010753838322261106,0.0027193534811059674
1589988694.979406,-0.06709037834559102,-4.5129096216544085,8.630367351580862,0.4533333333333333,0.4477777777777778,-0.6711111111111111,0.005275422748559704,0.002181661564992912,0.0009521714598142734
1589988694.989406,-0.06449324270034872,-4.498986485400698,8.648547301097558,0.4533333333333333,0.4477777777777778,-0.6711111111111111,0.008347066807237742,0.004584437714671586,0.0006006940374196685
1589988694.999406,-0.05509833479404032,-4.49,8.68490166520596,0.4533333333333333,0.4477777777777778,-0.6711111111111111,0.006609344667176512,0.004940918507332939,0.001090830782496456
1589988695.009406,-0.05,-4.519293847222965,8.660706152777035,0.4533333333333333,0.4518463676698562,-0.6776208549384366,-0.0007218364385804046,0.0016747608330614588,0.0002919650252825015
1589988695.019406,-0.05,-4.5165692171791525,8.656715391410424,0.4533333333333333,0.4533333333333333,-0.68,-0.0014491259982926776,0.001090830782496456,0.0
1589988695.029406,-0.05528422320353272,-4.499431553592935,8.628294660778803,0.4533333333333333,0.4533333333333333,-0.68,0.001791265883501306,0.0005144114492969036,0.0017292579995986574
1589988695.039406,-0.052714240581312695,-4.49,8.636428797093437,0.4533333333333333,0.4533333333333333,-0.68,0.001979063935655544,0.0,0.001682986217935848
1589988695.049406,-0.05656397394624541,-4.509691921838736,8.663127947892491,0.4533333333333333,0.4533333333333333,-0.68,-0.00034120618471739105,0.0007160184836069235,0.002522867749710303
1589988695.059406,-0.0674894414277095,-4.52748944142771,8.67748944142771,0.433361489526108,0.46248709507831165,-0.694978882855419,-0.0035417447584113766,0.0019078021078014294,0.0008215783715744478
1589988695.069406,-0.06410624924243737,-4.524106249242437,8.668212498484875,0.4266666666666667,0.4655555555555556,-0.7,-0.005006231605056937,0.002181661564992912,0.0019287254252133403
1589988695.079406,-0.06729539360467443,-4.512704606395325,8.616227638371953,0.4266666666666667,0.4655555555555556,-0.7,0.003299689993365033,0.0037732695478742417,0.0008850803731673732
1589988695.089406,-0.07,-4.5027270660217456,8.650910537847782,0.4266666666666667,0.4655555555555556,-0.7,0.008925046773742088,0.0019832610512224725,0.003173416105017802
1589988695.099406,-0.057452811661247744,-4.493726405830624,8.688820782508127,0.4266666666666667,0.4655555555555556,-0.7,0.007080105187729796,0.00040648781881187895,0.0029946372026166696
1589988695.109406,-0.05,-4.5051909096462825,8.689872726902477,0.43285555578181883,0.47286969723709904,-0.685371716636913,0.0037970827268535377,0.0011047141237524945,0.0010769474412404174
1589988695.119406,-0.06320010439580925,-4.52,8.640399686812572,0.4388888888888889,0.48,-0.6711111111111111,-0.0006981544764301912,0.0029016155753486877,0.0021598620310673273
1589988695.129406,-0.06240202773083956,-4.52,8.582010138654198,0.4388888888888889,0.48,-0.6711111111111111,-0.0013528513614174467,0.0007860617367629725,0.0049301127546402986
1589988695.139406,-0.0676432843410252,-4.512356715658974,8.608216421705125,0.4388888888888889,0.48,-0.6711111111111111,0.0014104281690725748,0.0008337529838563434,0.002119141977056906
1589988695.149406,-0.051097417840375595,-4.4910974178403755,8.657805164319248,0.4388888888888889,0.48,-0.6711111111111111,0.002181661564992912,0.0024654653483888993,0.0017781480654426775
1589988695.159406,-0.0466725571424433,-4.526707899997103,8.68,0.43073354127034713,0.4584995380965716,-0.6807492492057514,0.0007259354192041656,0.002544629274594995,0.002181661564992912
1589988695.169406,-0.05,-4.5369783449838605,8.66697834498386,0.4266666666666667,0.4477777777777778,-0.6855555555555556,-0.0014204422130654592,0.0014714404584601822,0.0028918826715256417
1589988695.179406,-0.05473918833931412,-4.53,8.598390551588917,0.4266666666666667,0.4477777777777778,-0.6855555555555556,-0.0016646963125357015,0.0016077960349536661,0.0022385618425749473
1589988695.189406,-0.06,-4.50367415379816,8.598447200124784,0.4266666666666667,0.4477777777777778,-0.6855555555555556,0.0012065326904823535,0.003904684169727019,0.0028138533872305634
1589988695.199406,-0.05395050952052292,-4.48,8.696296942876863,0.4266666666666667,0.4477777777777778,-0.6855555555555556,0.007231874607549076,0.004134359825795711,0.0017237349566126855
1589988695.209406,-0.05708228326612903,-4.48,8.691670866935484,0.42981434811827957,0.4517123795922939,-0.6706040686603942,0.004409576224530942,0.003272492347489368,0.0015451145194106176
1589988695.219406,-0.06,-4.490952628315767,8.68,0.4311111111111111,0.4533333333333333,-0.6644444444444444,-0.00020783125822317972,0.003272492347489368,0.002181661564992912
1589988695.2294059,-0.06,-4.517097266176078,8.60591184657033,0.4311111111111111,0.4533333333333333,-0.6644444444444444,-0.0034250098477530085,0.00265081820610932,0.002181661564992912
