time,acc_x,acc_y,acc_z,mag_x,mag_y,mag_z,gyr_x,gyr_y,gyr_z
1589988701.0118394,-3.82,-0.82,8.76,0.3422222222222222,-0.35,-0.6311111111111111,0.004363323129985824,-0.004363323129985824,0.006544984694978735
1589988701.0218394,-3.8130629831453553,-0.7830629831453555,8.829188949436066,0.3422222222222222,-0.35,-0.6311111111111111,0.005788273542604435,0.0014249504126186122,0.006879104325100892
1589988701.0318394,-3.822913078277573,-0.79,8.85873923483272,0.3383381178521246,-0.34643957099407713,-0.6226955516425662,0.006544984694978735,-0.0016315489834054565,0.006046977748975871
1589988701.0418394,-3.8488087268238256,-0.79,8.875297818294044,0.3288888888888889,-0.3377777777777778,-0.6022222222222222,0.006544984694978735,-0.01090830782496456,0.002181661564992912
1589988701.0518394,-3.8482781442294924,-0.8030331134623047,8.852622515383594,0.3288888888888889,-0.3377777777777778,-0.6022222222222222,0.007492779452075462,-0.01754287112464164,0.00028607205079945997
1589988701.0618393,-3.8071827351630305,-0.815727578387677,8.842817264836969,0.3288888888888889,-0.3377777777777778,-0.6022222222222222,0.009658744062076681,-0.029442281087282557,-0.002181661564992912
1589988701.0718393,-3.7863711040436163,-0.8136288959563834,8.892660063607451,0.3288888888888889,-0.3377777777777778,-0.6022222222222222,0.008533200975544561,-0.028273838275410138,-0.0009941081402829127
1589988701.0818393,-3.782261709255731,-0.8177382907442685,8.959046837022925,0.32436547037742597,-0.3377777777777778,-0.6007144160517346,0.0031297520913813118,-0.01558355280978892,0.0008441165747755535
1589988701.0918393,-3.8006592833120725,-0.8135530944373575,8.986446905562643,0.3088888888888889,-0.3377777777777778,-0.5955555555555555,-0.001090830782496456,-0.001965911605634486,-0.00038758247853864375
1589988701.1018393,-3.8226768070317614,-0.8146463859364772,8.950555122650625,0.3088888888888889,-0.3377777777777778,-0.5955555555555555,-0.00021484772978197497,0.00377933442817617,-0.001090830782496456
1589988701.1118393,-3.83,-0.8070952481683045,8.873547624084152,0.3088888888888889,-0.3377777777777778,-0.5955555555555555,0.00527754760956815,-0.0016881959907261352,-0.00031685927135264647
1589988701.1218393,-3.824410889550118,-0.82,8.88,0.3088888888888889,-0.3377777777777778,-0.5955555555555555,0.011111533615814701,-0.009742775214222354,0.0006843792007961732
1589988701.1318393,-3.7988107634992594,-0.8188107634992594,8.876432290497778,0.3112673618903701,-0.3368528160549795,-0.5980661659460079,0.012258589763996259,-0.014180800172453925,-0.0008313796259612112
1589988701.1418393,-3.79,-0.809456129685917,8.847280648429585,0.3288888888888889,-0.33,-0.6166666666666667,0.01364685674019487,-0.01394349198033879,0.001031503734467672
1589988701.1518393,-3.79,-0.8009570415400203,8.804785207700101,0.3288888888888889,-0.33,-0.6166666666666667,0.005302896464769549,-0.010235065191260872,0.00010439703719819157
1589988701.1618392,-3.814959975201036,-0.79,8.836533250670119,0.3288888888888889,-0.33,-0.6166666666666667,0.002181661564992912,-0.009637127254811145,0.002362011352649872
1589988701.1718392,-3.837904305173137,-0.79,8.913014350577123,0.3288888888888889,-0.33,-0.6166666666666667,0.002181661564992912,-0.008802847874233678,0.003196290733227339
1589988701.1818392,-3.8290529282038714,-0.7987576574369027,8.982189414359226,0.3335109858694764,-0.33316248740777044,-0.6120445696860791,0.006409466143955531,-0.017556602026788402,-0.0024204896228612245
1589988701.1918392,-3.7861116628830875,-0.8261116628830873,8.966669977298524,0.35,-0.34444444444444444,-0.5955555555555555,0.009817477042468105,-0.02139246386794394,-0.0028483405655041895
1589988701.2018392,-3.78,-0.8125295837393847,8.873971878045385,0.35,-0.34444444444444444,-0.5955555555555555,0.009002581040953977,-0.016243856859104955,-0.002589109565749976
1589988701.2118392,-3.78,-0.7966065629612809,8.796967185193596,0.35,-0.34444444444444444,-0.5955555555555555,0.004674483013236374,-0.003544314447553717,-0.0014216595573401068
1589988701.2218392,-3.7880459554219885,-0.7926819851406629,8.843409925703314,0.35,-0.34444444444444444,-0.5955555555555555,-0.0013833899774597657,0.008592899059721904,0.002181661564992912
1589988701.2318392,-3.81,-0.7979006806458505,8.8841986387083,0.34556810358568435,-0.3400125480301288,-0.5999874519698711,-0.002639661999752282,0.01395179995507424,0.0017236611302335416
1589988701.2418392,-3.806172565844357,-0.7861725658443571,8.907654868311287,0.3288888888888889,-0.3233333333333333,-0.6166666666666667,-0.003945814830490457,0.010584919592985274,0.00041750829949536625
1589988701.2518392,-3.8071485532265608,-0.7907228298398414,8.887831510480476,0.3288888888888889,-0.3233333333333333,-0.6166666666666667,-0.003272492347489368,0.003815733026532276,0.0014807238779888073
1589988701.2618392,-3.8136266303289856,-0.81,8.85230679384855,0.3288888888888889,-0.3233333333333333,-0.6166666666666667,-0.0029248789562207876,-0.002133670956302198,0.0018340481737243314
1589988701.2718391,-3.794486317621006,-0.81,8.911027364757988,0.3288888888888889,-0.3233333333333333,-0.6166666666666667,-0.001279487395405672,-0.004363323129985824,0.0007901060593007093
1589988701.2818391,-3.78,-0.81,8.94,0.3282554882791066,-0.324093414065072,-0.6157799058129715,0.0009664628635919989,-0.0028709081031323396,0.0
1589988701.2918391,-3.780132498146197,-0.8097350037076065,8.939602505561409,0.3233333333333333,-0.33,-0.6088888888888889,-5.781322259806374e-05,0.008842272705167775,2.890661129903187e-05
1589988701.301839,-3.788317136947274,-0.7933657261054522,8.915048589158179,0.3233333333333333,-0.33,-0.6088888888888889,-0.003629035601730004,0.015984717463431657,0.001814517800865002
1589988701.311839,-3.8347070312500002,-0.787060546875,8.817060546875,0.3233333333333333,-0.33,-0.6088888888888889,-0.005197425183398641,0.022650717703341938,0.002181661564992912
1589988701.321839,-3.85260787956924,-0.8126078795692401,8.860863036553921,0.3233333333333333,-0.33,-0.6088888888888889,-0.002940945474400473,0.016696056089821856,0.002466137096109982
1589988701.331839,-3.857525755925957,-0.8187628779629784,8.920618561018511,0.3240893523559576,-0.33,-0.6088888888888889,0.0016306271023715764,0.0008996453052895013,0.003070068727536198
1589988701.341839,-3.82239467292068,-0.8011973364603401,8.92940133176983,0.3348238499409033,-0.33,-0.6088888888888889,0.009295040455290391,-0.017303336407892677,0.00019591372019164312
1589988701.351839,-3.8132019830754764,-0.8,8.861871954867938,0.33555555555555555,-0.33,-0.6088888888888889,0.013439251560333718,-0.03247774060418695,-0.003025309476782632
1589988701.361839,-3.791690913753312,-0.8,8.804509103342166,0.33555555555555555,-0.33,-0.6088888888888889,0.011092757902230521,-0.03169557605148588,-0.0022431449240815663
1589988701.371839,-3.761871862418609,-0.7737437248372185,8.867487449674437,0.33555555555555555,-0.33,-0.6088888888888889,0.0037507575859406445,-0.015072918552850402,-0.0026599268034441887
1589988701.381839,-3.768821014960982,-0.7876420299219643,8.89528405984393,0.33555555555555555,-0.33,-0.6088888888888889,0.0014766527342954905,-0.002186324393527863,-0.0003858219517990347
1589988701.391839,-3.794687782124586,-0.8115625940415288,8.926874811916942,0.3233333333333333,-0.3377777777777778,-0.6088888888888889,-0.004022417993776805,0.013942232230480018,0.0009203782143919466
1589988701.401839,-3.822252565285846,-0.82,8.896484608284924,0.3233333333333333,-0.3377777777777778,-0.6088888888888889,-0.0019359448096545225,0.015841238993717466,0.0002457167553383895
1589988701.411839,-3.8268718200065353,-0.816871820006535,8.85625635998693,0.3233333333333333,-0.3377777777777778,-0.6088888888888889,0.0009565582355402335,0.0024502066589053564,0.000749599279490341
1589988701.421839,-3.82,-0.8005558808529929,8.87,0.3233333333333333,-0.3377777777777778,-0.6088888888888889,0.0062267991034162485,-0.00834782347382466,-0.0002575483969779895
1589988701.431839,-3.818759843740311,-0.7703100390649222,8.871240156259688,0.3228854991284457,-0.3375366362828383,-0.6093367230937765,0.008726646259971648,-0.014383720265930043,-0.001090830782496456
1589988701.441839,-3.784082594406895,-0.7789793513982762,8.905917405593105,0.31036315909137885,-0.33079383780134075,-0.6218590631308434,0.008726646259971648,-0.020057771919709276,-0.001090830782496456
1589988701.451839,-3.78,-0.7874837705017493,8.895032458996502,0.3088888888888889,-0.33,-0.6233333333333333,0.007093940813482221,-0.01582766852796438,-0.001090830782496456
1589988701.461839,-3.788646842006622,-0.790676578996689,8.804736052976823,0.3088888888888889,-0.33,-0.6233333333333333,0.0030510823885757064,-0.006528765682906883,-0.0009432241432206814
1589988701.471839,-3.7724731622533483,-0.7950536754933034,8.879892649013392,0.3088888888888889,-0.33,-0.6233333333333333,-0.0018884610612424587,0.012503568382456566,0.0013606109341025214
1589988701.481839,-3.78,-0.781491804231574,8.917459021157871,0.3098834250432716,-0.33,-0.6201839688444547,-0.008286737868378972,0.026113774985359314,0.002181661564992912
1589988701.491839,-3.7950770036419033,-0.7960308014567614,8.969046202185142,0.31555555555555553,-0.33,-0.6022222222222222,-0.012328067801069001,0.038836935774591935,0.002839519952208884
1589988701.501839,-3.8362303242076115,-0.8120767747358706,8.958848378961942,0.31555555555555553,-0.33,-0.6022222222222222,-0.011504182522818518,0.03696262423707111,0.003910241167946123
1589988701.511839,-3.8569698867663296,-0.8189899622554433,8.855150566168351,0.31555555555555553,-0.33,-0.6022222222222222,-0.006225400096754303,0.025650947609790656,0.0024020176176420614
1589988701.521839,-3.81,-0.8136751366274156,8.86,0.31555555555555553,-0.33,-0.6022222222222222,0.001090830782496456,0.003154368691849152,-0.001090830782496456
1589988701.531839,-3.81,-0.7900439461378106,8.86,0.31555555555555553,-0.33,-0.6022222222222222,0.001090830782496456,-0.005438174645850409,-0.001090830782496456
1589988701.541839,-3.774528347174883,-0.7954716528251164,8.85,0.3288888888888889,-0.3377777777777778,-0.5866666666666667,-0.0036738233981855823,0.006061282331293855,-0.00019553368258085383
1589988701.5518389,-3.765566464896811,-0.8072167675515943,8.836083837757972,0.3288888888888889,-0.3377777777777778,-0.5866666666666667,-0.008850229729300758,0.023041740122487456,0.0027888686909056954
1589988701.5618389,-3.785163404481445,-0.8051634044814454,8.815490213444336,0.3288888888888889,-0.3377777777777778,-0.5866666666666667,-0.013688858772713253,0.04289531920024722,0.0038000830749017446
1589988701.5718389,-3.821575479861548,-0.8233193045940843,8.888214089049717,0.3288888888888889,-0.3377777777777778,-0.5866666666666667,-0.018363083321054297,0.049997176013451515,0.0023627015463783666
1589988701.5818388,-3.9288086060415357,-0.8398167086217747,9.028442023285084,0.3288888888888889,-0.3377777777777778,-0.5866666666666667,-0.017463289513820014,0.04909738220621723,0.0032624953536126503
1589988701.5918388,-3.866697045677532,-0.812870162433228,9.002870162433227,0.3238648448950422,-0.3438066305703938,-0.6137965042334388,-0.006602136474556606,0.016533917076180446,0.0022860236160905777
1589988701.6018388,-3.8,-0.7950002311283687,8.859999075486526,0.3233333333333333,-0.34444444444444444,-0.6166666666666667,0.003272391498713655,-0.002181560716217199,0.002181661564992912
1589988701.6118388,-3.8044165329239643,-0.81,8.804416532923964,0.3233333333333333,-0.34444444444444444,-0.6166666666666667,-0.0035133768507578387,0.004363323129985824,0.002181661564992912
1589988701.6218388,-3.8166890818907206,-0.806689081890721,8.82496637716392,0.3233333333333333,-0.34444444444444444,-0.6166666666666667,-0.0041827405603894925,0.004002157990793161,0.0020010789953965806
1589988701.6318388,-3.8002431038877016,-0.7902431038877017,8.849635344168448,0.3233333333333333,-0.34444444444444444,-0.6166666666666667,-0.0032857516076918464,0.0022081800853978686,0.0011040900426989343
1589988701.6418388,-3.7999978812062998,-0.77499894060315,8.859997881206299,0.3422222222222222,-0.3233333333333333,-0.6022222222222222,-0.008453534096404309,0.014452987837865324,0.002454542604021265
1589988701.6518388,-3.842001190240032,-0.7980007934933545,8.87799880975997,0.3422222222222222,-0.3233333333333333,-0.6022222222222222,-0.013744424581106503,0.02203480344560283,0.0006545633870211326
1589988701.6618388,-3.8896189308368903,-0.83,8.834191760794209,0.3422222222222222,-0.3233333333333333,-0.6022222222222222,-0.011791297620770814,0.022574900853721255,0.0035219015315176095
1589988701.6718388,-3.88,-0.8294421217453066,8.94018595941823,0.3422222222222222,-0.3233333333333333,-0.6022222222222222,-0.006443559566127913,0.014059090017832938,0.010081182377480243
1589988701.6818388,-3.88,-0.809130413727421,8.946956528757525,0.3422222222222222,-0.3233333333333333,-0.6022222222222222,-0.0027507868409629506,0.009627762747634985,0.019682391462909142
1589988701.6918387,-3.8500017888767646,-0.8,8.929999105561617,0.3233333333333333,-0.33,-0.5955555555555555,0.0021812712926247983,0.0010906356463123992,0.042543668902558146
1589988701.7018387,-3.8650079605016012,-0.8,8.922496019749198,0.3233333333333333,-0.33,-0.5955555555555555,-0.0010925674945345622,-0.0005462837472672811,0.05318364496082607
1589988701.7118387,-3.8559317620479043,-0.7610170594880239,8.78,0.3233333333333333,-0.33,-0.5955555555555555,0.0020152455954179295,-0.008837590239688303,0.058516558325800334
1589988701.7218387,-3.791686993815696,-0.7770782515460759,8.78,0.3233333333333333,-0.33,-0.5955555555555555,-0.0006127608096586864,-0.01058959450973938,0.05238454338062156
1589988701.7318387,-3.789275287884522,-0.78,8.83565172730713,0.3233333333333333,-0.33,-0.5955555555555555,-0.00614971555297287,-0.006861200008583428,0.04013950028228533
1589988701.7418387,-3.814968414804765,-0.7883228049349218,8.864968414804764,0.32795711385273435,-0.3364732927271614,-0.6011040921788368,-0.010176493422869172,0.0016259099427747446,0.028375381986201105
1589988701.7518387,-3.8334455276453427,-0.8082772361773287,8.924831708531986,0.3288888888888889,-0.3377777777777778,-0.6022222222222222,-0.013841666913453926,0.011660005348461015,0.024974614622040828
1589988701.7618387,-3.8514702077943754,-0.8,8.911761662355003,0.3288888888888889,-0.3377777777777778,-0.6022222222222222,-0.01777404210369747,0.016073504914335818,0.03875558004493668
1589988701.7718387,-3.8584023643109844,-0.8,8.98045646733972,0.3288888888888889,-0.3377777777777778,-0.6022222222222222,-0.019535368359862325,0.02070088843616419,0.06190810605166108
1589988701.7818387,-3.795066226594184,-0.8,8.998552506687377,0.3288888888888889,-0.3377777777777778,-0.6022222222222222,-0.015587425007523997,0.019713902598079612,0.09447863870845226
1589988701.7918386,-3.6265475865830377,-0.8020861739841832,8.977913826015817,0.3288888888888889,-0.3377777777777778,-0.6088888888888889,-0.013356802008419242,0.012925169757150533,0.1577465654895134
1589988701.8018386,-3.3062847013907826,-0.8630886283065176,8.916911371693482,0.3288888888888889,-0.3377777777777778,-0.6088888888888889,-0.009197842322004476,0.01209337781986758,0.20515870591464178
1589988701.8118386,-3.0612096951353465,-0.8972335180258244,8.810143767238644,0.3288888888888889,-0.3377777777777778,-0.6088888888888889,-0.007736407600696936,0.012989377266735727,0.26400322862265047
1589988701.8218386,-2.876556146598747,-0.9086023080737502,8.756988459631248,0.3288888888888889,-0.3377777777777778,-0.6088888888888889,-0.010450914211684535,0.02247363183732195,0.32479881171607505
1589988701.8318386,-2.78089812992126,-0.7215403543307086,8.693462106299213,0.3288888888888889,-0.3377777777777778,-0.6088888888888889,-0.02598399722695667,0.02194250138737765,0.3721687015580773
1589988701.8418386,-2.715349986166555,-0.9140168372791588,8.914716809612269,0.31245554633325867,-0.3414296316790289,-0.6088888888888889,-0.07524007585761502,0.019829485071483143,0.4396957330611931
1589988701.8518386,-2.614992421690805,-1.0438965139777703,9.058493179521724,0.3088888888888889,-0.3422222222222222,-0.6088888888888889,-0.0662667300387173,0.010994648422433966,0.4703439869308685
1589988701.8618386,-2.1735243347928597,-0.8408211940047153,8.661171901313574,0.3088888888888889,-0.3422222222222222,-0.6088888888888889,0.005968316762997569,-0.04294085318951315,0.44530250403960736
1589988701.8718386,-1.9306905314814002,-0.7887915699075494,8.742071594444202,0.3088888888888889,-0.3422222222222222,-0.6088888888888889,0.012769836866574864,0.02102570000392503,0.40868491693807385
1589988701.8818386,-1.9674455593042106,-0.7244702712176313,8.852336677912632,0.3088888888888889,-0.3422222222222222,-0.6088888888888889,-0.004269907331695093,-0.02107249154474192,0.3886381590577562
1589988701.8918386,-2.0472113082873364,-0.7586056541436683,9.014422616574674,0.32004163341928193,-0.3422222222222222,-0.6148942128667929,-0.018930069406346346,-0.03157847968022057,0.3628198309536132
1589988701.9018385,-2.162907244089084,-0.7029072440890841,8.936365944888644,0.3233333333333333,-0.3422222222222222,-0.6166666666666667,-0.0026382300785686053,-0.014497931306914307,0.3218361072438398
1589988701.9118385,-2.191693490271439,-0.7316934902714388,8.900383137160702,0.3233333333333333,-0.3422222222222222,-0.6166666666666667,0.0036419546110781267,-0.017638023651737673,0.3006404839162821
1589988701.9218385,-2.2023481614102742,-0.7585911031538356,8.952348161410274,0.3233333333333333,-0.3422222222222222,-0.6166666666666667,-0.003272492347489368,-0.01412957123748198,0.24947169294305607
1589988701.9318385,-2.24360871190509,-0.7338347728569461,8.99360871190509,0.3233333333333333,-0.3422222222222222,-0.6166666666666667,-0.003272492347489368,-0.013229405665832094,0.2053635799322115
1589988701.9418385,-2.25,-0.7166445190309838,8.804966778546476,0.31555555555555553,-0.3422222222222222,-0.5955555555555555,-0.005728673557313568,-0.0003660261931083845,0.141321477795839
1589988701.9518385,-2.2510171575476443,-0.6810171575476444,8.745931369809423,0.31555555555555553,-0.3422222222222222,-0.5955555555555555,-0.008726646259971648,-0.004215383561503285,0.08628613942345739
1589988701.9618385,-2.2744581679986586,-0.7044581679986587,8.652167328005365,0.31555555555555553,-0.3422222222222222,-0.5955555555555555,-0.008726646259971648,-0.0008060267917982715,0.0385551446475872
1589988701.9718385,-2.3102306379699455,-0.7297693620300545,8.7912685088347,0.31555555555555553,-0.3422222222222222,-0.5955555555555555,-0.004300426380678561,0.0021942409148543642,-0.03454535654935438
1589988701.9818385,-2.3217743711124568,-0.7182256288875433,8.85475904111851,0.31555555555555553,-0.3422222222222222,-0.5955555555555555,-0.0011523615164846348,0.0028238538876931498,-0.07106290897400393
1589988701.9918385,-2.3405791505791504,-0.6994208494208494,8.931737451737453,0.31555555555555553,-0.3492749892749893,-0.6067224367224368,0.004552849713817255,0.006157508123590033,-0.13343513842105298
1589988702.0018384,-2.3684547604967476,-0.7084547604967475,8.987682140745122,0.31555555555555553,-0.3555555555555556,-0.6166666666666667,0.016694774852528477,0.015772503551679758,-0.22619934143981654
1589988702.0118384,-2.3159232778770797,-0.7280255740409735,8.899872129795133,0.31555555555555553,-0.3555555555555556,-0.6166666666666667,0.018436435071746436,0.020295031944659415,-0.29810981941186243
1589988702.0218384,-2.322509348357182,-0.7675280450715461,8.933782719250138,0.31555555555555553,-0.3555555555555556,-0.6166666666666667,0.01854412330243975,0.02481945954452835,-0.3511453196599095
1589988702.0318384,-2.3700584835558005,-0.79,8.96,0.31555555555555553,-0.3555555555555556,-0.6166666666666667,0.020000690867866246,0.03455360738954389,-0.42804157875077115
1589988702.0418384,-2.35200105938438,-0.79,8.93466737292292,0.3239997645812489,-0.3555555555555556,-0.6075187735554989,0.018653264161144004,0.04232411879995327,-0.502435271686957
1589988702.0518384,-2.366167366620003,-0.8080836833100016,8.811497900139992,0.3288888888888889,-0.3555555555555556,-0.6022222222222222,0.013508044836849874,0.04571037400312805,-0.6042216732130024
1589988702.0618384,-2.4042937804030577,-0.81,8.724553683113273,0.3288888888888889,-0.3555555555555556,-0.6022222222222222,0.01308996938995747,0.053296635127216954,-0.6688173101744919
1589988702.0718384,-2.42,-0.81,8.698766026229748,0.3288888888888889,-0.3555555555555556,-0.6022222222222222,0.0178710950157483,0.0567232006898157,-0.7675323179622631
1589988702.0818384,-2.4788679245283016,-0.829622641509434,8.830817610062892,0.3288888888888889,-0.3555555555555556,-0.6022222222222222,0.019257622682185862,0.05600970131006959,-0.8291343032616929
1589988702.0918384,-2.565634578956432,-0.84,8.964907008782504,0.33507050877293687,-0.34319231578745957,-0.6217973518550408,0.026715210402908512,0.05967823066044629,-0.9281161926277228
1589988702.1018384,-2.5847986250252752,-0.8473993125126376,8.947802062462086,0.33555555555555555,-0.3422222222222222,-0.6233333333333333,0.036149307206317365,0.06968137046702068,-0.9902509348236406
1589988702.1118383,-2.6158125928677562,-0.8586041976225854,8.86256222139673,0.33555555555555555,-0.3422222222222222,-0.6233333333333333,0.04208562525749212,0.07402423478980245,-1.069239363431732
1589988702.1218383,-2.59430806890714,-0.9113838621857199,8.918511816247626,0.33555555555555555,-0.3422222222222222,-0.6233333333333333,0.04160821554076614,0.07697904813954594,-1.1404878523443076
1589988702.1318383,-2.59,-0.9425285033003822,8.918735748349809,0.33555555555555555,-0.3422222222222222,-0.6233333333333333,0.04206593935695607,0.0817495729118836,-1.1889173921033873
1589988702.1418383,-2.584003274834159,-0.9899836258292047,8.898006549668318,0.3442174919062147,-0.3468863417956541,-0.6279974529067651,0.04123411803634768,0.08704722475624471,-1.2577064584789641
1589988702.1518383,-2.6077592507994516,-1.074771585198721,8.797469164001827,0.35,-0.35,-0.6311111111111111,0.0393513841099995,0.09340406759405984,-1.3464878312252302
1589988702.1618383,-2.618482776471603,-1.1139311058864132,8.705172235283966,0.35,-0.35,-0.6311111111111111,0.03649392606099394,0.09936341151245212,-1.406133654321052
1589988702.1718383,-2.646161474856986,-1.0938385251430143,8.716161474856987,0.35,-0.35,-0.6311111111111111,0.04075370617063425,0.10511272233792515,-1.4710713237201136
1589988702.1818383,-2.665080993631095,-1.1277024840777374,8.75016198726219,0.35,-0.35,-0.6311111111111111,0.04474173215155161,0.1066331265063278,-1.5202935712737726
1589988702.1918383,-2.6819281117376317,-1.187712446950527,8.837532726294606,0.3771695878468279,-0.32680644939904935,-0.6264724009909209,0.049067780729967654,0.10625083911162939,-1.5629840709760654
1589988702.2018383,-2.699090794768612,-1.2381815895372232,8.899090794768613,0.3955555555555556,-0.3111111111111111,-0.6233333333333333,0.0562273061628131,0.10977719341053996,-1.6264281479945788
1589988702.2118382,-2.7255014666517066,-1.3037536666292657,8.86174780002244,0.3955555555555556,-0.3111111111111111,-0.6233333333333333,0.059504979172064515,0.11295568751439085,-1.6579143600341277
1589988702.2218382,-2.7329437103015257,-1.396450317587793,8.847056289698473,0.3955555555555556,-0.3111111111111111,-0.6233333333333333,0.06262596742246318,0.12146472837410523,-1.701814126998804
1589988702.2318382,-2.701720367278798,-1.4412097245409015,8.85,0.3955555555555556,-0.3111111111111111,-0.6233333333333333,0.06095456334304586,0.12435470920459595,-1.7360601723721687
1589988702.2418382,-2.6721712460063896,-1.5124006389776359,8.894571884984027,0.42427965921192756,-0.2932823571175009,-0.642152573659922,0.05805087767032641,0.12338230152110664,-1.776446297865988
1589988702.2518382,-2.6206455536823237,-1.5529029642117844,8.88354851789411,0.42777777777777776,-0.2911111111111111,-0.6444444444444445,0.05601945316243248,0.12685303504185888,-1.801770776752772
1589988702.2618382,-2.679049843437195,-1.6117873825778966,8.72463785226631,0.42777777777777776,-0.2911111111111111,-0.6444444444444445,0.054690848722971086,0.1285687227364335,-1.8337198901602279
1589988702.2718382,-2.706192308542869,-1.676673079900042,8.748576925628607,0.42777777777777776,-0.2911111111111111,-0.6444444444444445,0.0527752322649986,0.1322506460542302,-1.860128704254331
1589988702.2818382,-2.71650991114149,-1.7160396445659603,8.74698017771702,0.42777777777777776,-0.2911111111111111,-0.6444444444444445,0.05733072558494771,0.13521171890390382,-1.8830736667300747
1589988702.2918382,-2.7280686465106925,-1.746137293021385,8.77227458604277,0.45915584754158195,-0.25345742739454613,-0.6749259979292828,0.06791706822555647,0.1381141534094462,-1.9128349220013268
1589988702.3018382,-2.66843478049492,-1.8555403762944238,8.806385094073606,0.4666666666666667,-0.24444444444444444,-0.6822222222222222,0.06309744642304388,0.13373856390795755,-1.9416652429742312
1589988702.3118382,-2.695958486255256,-1.91494810781907,8.756062270617116,0.4666666666666667,-0.24444444444444444,-0.6822222222222222,0.06806104815717934,0.13406197105704787,-1.972408521780627
1589988702.3218381,-2.718793862375967,-1.966984655939917,8.77819079356395,0.4666666666666667,-0.24444444444444444,-0.6822222222222222,0.07179747783753268,0.14442264804791735,-2.003170793963385
1589988702.3318381,-2.680276230875937,-2.057392292072938,8.827668522948874,0.4666666666666667,-0.24444444444444444,-0.6822222222222222,0.06852827883218131,0.14681377047832103,-2.0292128479165794
1589988702.3418381,-2.619656121045392,-2.113562585969739,8.856781292984868,0.4853125477609659,-0.21181415252942076,-0.6691701054562127,0.06397039832318281,0.1454316005412228,-2.0620332890274686
1589988702.351838,-2.61,-2.145472261028106,8.843018492647928,0.4888888888888889,-0.20555555555555555,-0.6666666666666666,0.06419438293243587,0.1497114818102358,-2.0921316666171026
1589988702.361838,-2.5985541897284077,-2.167168715407388,8.76560223323465,0.4888888888888889,-0.20555555555555555,-0.6666666666666666,0.06373474405854755,0.15240746431074098,-2.114056383003002
1589988702.371838,-2.529946045275052,-2.2280431637799585,8.728016186417484,0.4888888888888889,-0.20555555555555555,-0.6666666666666666,0.061302924312055786,0.1505317052107692,-2.141531940401506
1589988702.381838,-2.49,-2.297675499609812,8.75614664268992,0.4888888888888889,-0.20555555555555555,-0.6666666666666666,0.06116991002931412,0.15128852889954064,-2.1622733645070973
1589988702.391838,-2.4840070012618556,-2.33,8.75801400252371,0.519519771328295,-0.1702634518753703,-0.6846456628811006,0.06675349785441942,0.1570758140835156,-2.18165010920499
1589988702.401838,-2.444371656270118,-2.4226336936976933,8.721497325016095,0.54,-0.14666666666666667,-0.6966666666666667,0.07214503972396838,0.15926129424448254,-2.2021977675530615
1589988702.411838,-2.365179544501886,-2.500512784686321,8.701897443062736,0.54,-0.14666666666666667,-0.6966666666666667,0.07308566242726255,0.16456440535894137,-2.215796170444515
1589988702.421838,-2.3567598023190968,-2.543799011595485,8.733799011595485,0.54,-0.14666666666666667,-0.6966666666666667,0.07234828238193634,0.16580627893946132,-2.2287196814951877
1589988702.431838,-2.36,-2.6056485355648533,8.763042438732816,0.54,-0.14666666666666667,-0.6966666666666667,0.07341754100962398,0.17007440703403504,-2.2390009253297443
1589988702.441838,-2.3028618750138947,-2.6807894444320937,8.789046041662035,0.5491703163557946,-0.11069081019393373,-0.7192397530809305,0.07209889235679323,0.17096619639912955,-2.2485825942067694
1589988702.451838,-2.2283512860686776,-2.726659485572529,8.741691800496149,0.5544444444444444,-0.09,-0.7322222222222222,0.07090400086226964,0.17016960206944715,-2.2652864416333305
1589988702.461838,-2.2031575577406817,-2.7721061056482963,8.671051452092385,0.5544444444444444,-0.09,-0.7322222222222222,0.06263648635127192,0.16925098934600294,-2.2733488731507965
1589988702.471838,-2.1411222334245523,-2.78,8.668411109510778,0.5544444444444444,-0.09,-0.7322222222222222,0.059251504385940415,0.16907877128695067,-2.282639768957486
1589988702.481838,-2.096380508232607,-2.8270672884743506,8.663276101646522,0.5544444444444444,-0.09,-0.7322222222222222,0.06037178931527897,0.17421301599859687,-2.292267757380166
1589988702.491838,-2.0484371729753184,-2.856312565404936,8.716813088644427,0.5621598021615888,-0.06545113453635877,-0.7511599184370312,0.061086523819801536,0.1760259926984032,-2.2989531734191306
1589988702.501838,-2.0165761851291313,-2.880135722306303,8.729864277693698,0.5666666666666667,-0.05111111111111112,-0.7622222222222222,0.05889005724784997,0.17635591150591326,-2.3012942758090094
1589988702.511838,-1.9661436566206294,-2.9338563433793707,8.646906094367715,0.5666666666666667,-0.05111111111111112,-0.7622222222222222,0.06020602394060977,0.18149857170102107,-2.302450281890288
1589988702.521838,-1.9379656511178687,-2.99212022108746,8.650085872205327,0.5666666666666667,-0.05111111111111112,-0.7622222222222222,0.06174289573019807,0.18391594336980113,-2.29683643465645
1589988702.531838,-1.933509605796716,-3.0375480289835806,8.694567240577012,0.5666666666666667,-0.05111111111111112,-0.7622222222222222,0.06064600018730363,0.18396756363815248,-2.2902464345813103
1589988702.541838,-1.94,-3.0761101476248887,8.730223763800177,0.5707400984165927,-0.04961751946947159,-0.7611359737555753,0.05768072873001563,0.18445929614007336,-2.2827577372264414
1589988702.551838,-1.8824053270520023,-3.1455976324213326,8.647201183789335,0.6,-0.03888888888888889,-0.7533333333333333,0.05044059647386651,0.19028477996145082,-2.247113026085006
1589988702.561838,-1.8176103750377628,-3.18591169996979,8.542831125113288,0.6,-0.03888888888888889,-0.7533333333333333,0.04407919565196168,0.19012698936957984,-2.216094974934837
1589988702.571838,-1.7767263775593627,-3.1860358265356177,8.587749214250676,0.6,-0.03888888888888889,-0.7533333333333333,0.032387367005982784,0.17921709839879396,-2.1918752195361138
1589988702.581838,-1.7377016010215107,-3.198696264283142,8.638508005107553,0.6,-0.03888888888888889,-0.7533333333333333,0.02340887930366449,0.16893655578173178,-2.1603053104334577
1589988702.591838,-1.7107129962146947,-3.24,8.605722022711833,0.6082551144758269,-0.03940483354362807,-0.7631362817733778,0.03132298940488022,0.17344209441693648,-2.1135594629944823
1589988702.6018379,-1.7,-3.2791285547331515,8.69235917413323,0.6177777777777778,-0.04,-0.7744444444444445,0.029290145083058612,0.16246656047986016,-2.0634600422824914
1589988702.6118379,-1.6339156915403799,-3.302657299060042,8.629230289660464,0.6177777777777778,-0.04,-0.7744444444444445,0.031206957005696496,0.14980231822601447,-2.0049696297596973
1589988702.6218379,-1.6174872628463295,-3.3374363142316463,8.674872628463293,0.6177777777777778,-0.04,-0.7744444444444445,0.041166357367866335,0.1467195190616344,-1.9491127604300005
1589988702.6318378,-1.6139527492724768,-3.4104725072752338,8.706047250727524,0.6177777777777778,-0.04,-0.7744444444444445,0.03901566222971863,0.1369361867142459,-1.900172213760513
1589988702.6418378,-1.5739547085505383,-3.413954708550538,8.702790941710107,0.5617073244119484,-0.06883623315956942,-0.7576233084346956,0.04228850597872371,0.13325885270820248,-1.8301366005038455
1589988702.6518378,-1.5224074074074074,-3.430074074074074,8.684962962962963,0.54,-0.08,-0.7511111111111111,0.043903918938477726,0.12679089795217138,-1.767582199957257
1589988702.6618378,-1.51,-3.480751448908085,8.62566473478922,0.54,-0.08,-0.7511111111111111,0.03474264431980405,0.119168533466231,-1.7085121325715338
1589988702.6718378,-1.4971302018469348,-3.5257395963061304,8.632174495382664,0.54,-0.08,-0.7511111111111111,0.03545683210635865,0.11320920072965086,-1.6461008431518722
1589988702.6818378,-1.49,-3.5361976252023974,8.646197625202397,0.54,-0.08,-0.7511111111111111,0.039423401630120015,0.10919086607673174,-1.5953662962667758
1589988702.6918378,-1.49,-3.5302403204272363,8.640240320427237,0.54,-0.08,-0.7511111111111111,0.041372925058957705,0.10594166036200225,-1.5518269396894009
1589988702.7018378,-1.3852846386089992,-3.5122771088719946,8.662438252519006,0.5344444444444445,0.027777777777777776,-0.6222222222222222,0.03939410519250578,0.09586891183705476,-1.4371467203523314
1589988702.7118378,-1.362526899559179,-3.5362634497795895,8.510107598236717,0.5344444444444445,0.027777777777777776,-0.6222222222222222,0.04819448305644483,0.09905593543370149,-1.343686567787667
1589988702.7218378,-1.35,-3.554692939103528,8.579349205667054,0.5344444444444445,0.027777777777777776,-0.6222222222222222,0.03914792863933583,0.09067293553839476,-1.289889906568465
1589988702.7318377,-1.3490267776777678,-3.590648814881488,8.747404740474048,0.5344444444444445,0.027777777777777776,-0.6222222222222222,0.022241263996850558,0.07540887344122928,-1.247402637210436
1589988702.7418377,-1.3383763602422256,-3.606324727951555,8.923593771342713,0.5287273545913076,0.06248868045753717,-0.6116047696378253,0.03490658503988659,0.07762609717999493,-1.1387243280913095
1589988702.7518377,-1.025903043339707,-2.9005242192479286,8.276940726577438,0.5188888888888888,0.12222222222222222,-0.5933333333333334,0.012139359725016625,0.10125103142203681,-1.0442055010842195
1589988702.7618377,-0.9436220938841996,-2.9873754874376823,7.66952761735525,0.5188888888888888,0.12222222222222222,-0.5933333333333334,0.07716985693409513,0.03287234904784768,-0.9556049718477979
1589988702.7718377,-1.0952575805267022,-3.4317521771062847,8.828658063162312,0.5188888888888888,0.12222222222222222,-0.5933333333333334,0.04241879362982677,0.02920498845069071,-0.8872503531771176
1589988702.7818377,-1.0993064351156667,-3.4511727709951905,8.688902961850667,0.5188888888888888,0.12222222222222222,-0.5933333333333334,0.0034004218177266492,0.03528761972661486,-0.8178232158261298
1589988702.7918377,-1.1851096765471323,-3.663937202149593,8.887636123973367,0.5393528313861569,0.1648554357581971,-0.5984493189576503,0.02744652210035578,0.0592584319713781,-0.7150816634145878
1589988702.8018377,-1.1292989364759989,-3.553481029031331,8.52563782696177,0.5455555555555556,0.17777777777777778,-0.6,0.020048663965926417,0.04179730257830302,-0.6640865240386019
1589988702.8118377,-1.085820505373221,-3.4543363345919254,8.231446413011907,0.5455555555555556,0.17777777777777778,-0.6,0.009152776786389809,0.019890632400787103,-0.6136944914328958
1589988702.8218377,-1.193035932914861,-3.6718308490584373,8.867902714888158,0.5455555555555556,0.17777777777777778,-0.6,0.021388122682857565,0.027601938470123853,-0.5285663092139856
1589988702.8318377,-1.1390670352453351,-3.585200414651002,8.514803040774014,0.5455555555555556,0.17777777777777778,-0.6,0.023110987767100105,0.02298019361315184,-0.46387974800479215
1589988702.8418376,-1.135646685127871,-3.612164033230168,8.484302818048542,0.5430196286040072,0.20110830573202296,-0.5969568876581419,0.030828185702005843,0.018141169807244062,-0.390189140304661
1589988702.8518376,-1.173559620498814,-3.693559620498814,8.721755192984979,0.54,0.2288888888888889,-0.5933333333333334,0.029661925833853714,0.01217793826242279,-0.3157684622536353
1589988702.8618376,-1.1795490957505825,-3.725614556751359,8.71942549650505,0.54,0.2288888888888889,-0.5933333333333334,0.02523666606798541,0.005172520357520641,-0.23921402268020214
1589988702.8718376,-1.1679347222922867,-3.6882172224184027,8.549629723048984,0.54,0.2288888888888889,-0.5933333333333334,0.022779395015845378,0.0037538820304474974,-0.18360333475952342
1589988702.8818376,-1.1644489315160693,-3.685791687699815,8.464489315160694,0.54,0.2288888888888889,-0.5933333333333334,0.021598008976203176,0.002763144304173254,-0.12425412443784378
1589988702.8918376,-1.1854415480018374,-3.8080115985300873,8.918492765273312,0.5482954371459194,0.23654621548512222,-0.5974810519062931,0.014494031956058931,-0.003434588699412934,-0.04040226518162905
1589988702.9018376,-1.0712402983949967,-3.553010323261246,8.223100745987491,0.5688888888888889,0.25555555555555554,-0.6077777777777778,0.012375434540116338,-0.007317303738934481,0.031422683094583875
1589988702.9118376,-1.1736039735336836,-3.681623841202102,8.491623841202102,0.5688888888888889,0.25555555555555554,-0.6077777777777778,0.0004816993254413782,-0.014446500567824684,0.1328978649309271
1589988702.9218376,-1.1928618879685065,-3.7482961535307147,8.599454195029935,0.5688888888888889,0.25555555555555554,-0.6077777777777778,0.0013082722830998874,-0.022970607798163498,0.2108813518128539
1589988702.9318376,-1.186696347446847,-3.7193351101419427,8.573858703333535,0.5688888888888889,0.25555555555555554,-0.6077777777777778,-0.0006893375700239074,-0.031026996367387993,0.3126789229487152
1589988702.9418375,-1.1511552854739588,-3.661354070106774,8.475018711161466,0.5645507223156827,0.2623726744563082,-0.6114962062690974,-0.0009864927263960972,-0.03272492347489368,0.3941937449503269
1589988702.9518375,-1.1740652072208688,-3.7381304144417378,8.669702840918257,0.5611111111111111,0.2677777777777778,-0.6144444444444445,-0.004363323129985824,-0.036304901041260565,0.45668893258692084
1589988702.9618375,-1.1764944400763786,-3.715977760305515,8.675590250477367,0.5611111111111111,0.2677777777777778,-0.6144444444444445,-0.005836551179939479,-0.04257058102729935,0.508552588722849
1589988702.9718375,-1.1456149423209054,-3.6670057498282285,8.558235634470039,0.5611111111111111,0.2677777777777778,-0.6144444444444445,-0.007291639490158026,-0.049775737186974846,0.56236715328075
1589988702.9818375,-1.1508098180825452,-3.7345950909587273,8.630809818082545,0.5611111111111111,0.2677777777777778,-0.6144444444444445,-0.008402074491889101,-0.052271540110563605,0.5971846830110172
1589988702.9918375,-1.192408954160399,-3.734890744992479,8.655036418335841,0.5696595017549415,0.2721898503681419,-0.6196837806455018,-0.01906967557279698,-0.049628827979410546,0.6361456150954048
1589988703.0018375,-1.2312956658373706,-3.78,8.63870433416263,0.5955555555555555,0.2855555555555556,-0.6355555555555555,-0.0272707695624114,-0.05126904677733343,0.6697701004528239
1589988703.0118375,-1.246903172140914,-3.78,8.59548413929543,0.5955555555555555,0.2855555555555556,-0.6355555555555555,-0.023505673228320867,-0.050892537143924374,0.6739117064203236
1589988703.0218375,-1.2677103576908035,-3.7645792846183928,8.526144821154597,0.5955555555555555,0.2855555555555556,-0.6355555555555555,-0.017624066064424855,-0.05143982032181498,0.6855540520412191
1589988703.0318375,-1.2843327762227905,-3.752998328668372,8.60665552445581,0.5955555555555555,0.2855555555555556,-0.6355555555555555,-0.022943382059178244,-0.055813871181070646,0.6906414509672553
1589988703.0418375,-1.2989787552461203,-3.8104043986075413,8.71102124475388,0.6728726146193693,0.28256263714018215,-0.642040212122198,-0.023353048518023566,-0.057435716863163185,0.6869564788850178
1589988703.0518374,-1.31,-3.773980200290498,8.594864689243941,0.7677777777777778,0.2788888888888889,-0.65,-0.01802282860562139,-0.05511107521050089,0.6818657218380044
1589988703.0618374,-1.3255611715570217,-3.6916708786677663,8.522793221781809,0.7677777777777778,0.2788888888888889,-0.65,-0.018726387890901357,-0.054965904248475486,0.6795875774952921
1589988703.0718374,-1.3577399355549211,-3.725479871109842,8.675139291104133,0.7677777777777778,0.2788888888888889,-0.65,-0.021992228861109665,-0.056054517905211584,0.6829647614784308
1589988703.0818374,-1.3757645204316722,-3.755764520431672,8.786941918273312,0.7677777777777778,0.2788888888888889,-0.65,-0.02336946558160226,-0.054836765789856384,0.6946023400884614
1589988703.0918374,-1.3752381091932127,-3.7478571637898193,8.693095272983033,1.0281611295086077,0.2792989414112997,-0.8082802736505517,-0.02342688813991861,-0.05259362472982121,0.7214027468351193
1589988703.1018374,-1.3600916236837335,-3.683089003510044,8.650183247367467,1.4733333333333334,0.28,-1.0788888888888888,-0.02911547311580475,-0.05745708427378816,0.7531501222426252
1589988703.1118374,-1.3895834697217675,-3.6430061374795417,8.692738134206218,1.4733333333333334,0.28,-1.0788888888888888,-0.03490658503988659,-0.05890486225480863,0.7805998469447861
1589988703.1218374,-1.516291196038991,-3.845961627727062,8.674367940584869,1.4733333333333334,0.28,-1.0788888888888888,-0.030860907512973386,-0.05890486225480863,0.8353966277624912
1589988703.1318374,-1.5242669528980932,-3.9018891274150778,8.625178684177294,1.4733333333333334,0.28,-1.0788888888888888,-0.024257657738149814,-0.06097990644063091,0.870887945174758
1589988703.1418374,-1.5600629355860614,-3.900251742344245,8.725283210137276,1.3408391411474834,0.15054213305174238,-1.0231309163440103,-0.02563109078493721,-0.06817349130229901,0.9037086794498301
1589988703.1518373,-1.5250209549175513,-3.762573342211429,8.585020954917551,0.94,-0.2411111111111111,-0.8544444444444445,-0.025912945651568212,-0.06981317007977318,0.9296411048538614
1589988703.1618373,-1.5779454570497222,-3.71,8.58045314723842,0.94,-0.2411111111111111,-0.8544444444444445,-0.024667269345337882,-0.07209369303610019,0.9424283653812708
1589988703.1718373,-1.6350241159447567,-3.6900964637790272,8.649710608662918,0.94,-0.2411111111111111,-0.8544444444444445,-0.02564241531313364,-0.07417649320975901,0.933787978797812
1589988703.1818373,-1.6338594485163176,-3.615967720771552,8.648248823738918,0.94,-0.2411111111111111,-0.8544444444444445,-0.02484027826393395,-0.07291349163624113,0.9160113217513481
1589988703.1918373,-1.6431829365491908,-3.5427317461967633,8.59137817513948,0.8512314362392333,-0.13748884345412052,-0.8102369923723495,-0.0258327342632559,-0.06951518279563347,0.8909080781264411
1589988703.2018373,-1.6591761603592838,-3.537883438742506,8.670823839640716,0.6611111111111111,0.08444444444444445,-0.7155555555555555,-0.02759151754367614,-0.06704115964153534,0.8555583741186193
1589988703.2118373,-1.6622226081778482,-3.5,8.656111304088924,0.6611111111111111,0.08444444444444445,-0.7155555555555555,-0.02630135270633116,-0.06466217207228155,0.8252140553251438
1589988703.2218373,-1.653343117565271,-3.5,8.633284412173644,0.6611111111111111,0.08444444444444445,-0.7155555555555555,-0.02109366430481715,-0.060725048147245546,0.7955450972883298
1589988703.2318373,-1.6877306245669603,-3.49075645847768,8.616638374740177,0.6611111111111111,0.08444444444444445,-0.7155555555555555,-0.024603265592831887,-0.061169040639114894,0.7682749381547584
1589988703.2418373,-1.794831255115305,-3.476003562659477,8.703001781329737,0.6526840306196139,0.09985396305746795,-0.7126662708156136,-0.025616116177205304,-0.0567232006898157,0.7457639972569728
1589988703.2518373,-1.7506443031526517,-3.538067090542045,8.735807595796464,0.6222222222222222,0.15555555555555556,-0.7022222222222222,-0.01924791630036499,-0.05691671958210131,0.7255786604310628
1589988703.2618372,-1.7981242571175218,-3.3956272286474354,8.67250099050997,0.6222222222222222,0.15555555555555556,-0.7022222222222222,-0.017521496455818495,-0.057779929504374564,0.7117673016746908
1589988703.2718372,-1.8591127285330562,-3.340402911359501,8.628225457066113,0.6222222222222222,0.15555555555555556,-0.7022222222222222,-0.024420488557562327,-0.05757650805524141,0.7109930314507636
1589988703.2818372,-1.822770123906074,-3.274986223030933,8.555540247812148,0.6222222222222222,0.15555555555555556,-0.7022222222222222,-0.014906016915191887,-0.05678363541837719,0.728436229461776
1589988703.2918372,-1.8577524448487606,-3.3209469524675916,8.78680549238117,0.6181986455411518,0.14918489247719405,-0.7106046736411189,-0.02441146317540596,-0.06195147299496049,0.7657177787036777
1589988703.3018372,-1.7899468373123308,-3.3299468373123307,8.701443760767905,0.6088888888888889,0.13444444444444445,-0.73,-0.01947166506649802,-0.060771544082163134,0.8043857605582507
1589988703.3118372,-1.8176968806212435,-3.3946062387575133,8.644888562277892,0.6088888888888889,0.13444444444444445,-0.73,-0.023299691818874962,-0.061031415161615046,0.8318808449396813
1589988703.3218372,-1.7881963613550815,-3.4181963613550814,8.631149100794646,0.6088888888888889,0.13444444444444445,-0.73,-0.022013362105366842,-0.05953080112289107,0.8441062791968192
1589988703.3318372,-1.7532027608461815,-3.3731244173538903,8.716718895661527,0.6088888888888889,0.13444444444444445,-0.73,-0.021066605930131627,-0.061077977870501586,0.8329598913222941
1589988703.3418372,-1.7167839921272756,-3.313567984254551,8.718743972445465,0.5981688626464746,0.12354575109798992,-0.7266053250232355,-0.014745412897302593,-0.058203238177944906,0.8048524514295446
1589988703.3518372,-1.6799416394889777,-3.2559299673867734,8.69610504891984,0.5422222222222223,0.06666666666666668,-0.7088888888888889,-0.011999138607461015,-0.0545415391248228,0.7172271910337829
1589988703.3618371,-1.6235203888874896,-3.22,8.719107120368738,0.5422222222222223,0.06666666666666668,-0.7088888888888889,-0.2560754865974812,0.6540982720020208,0.5521467373062693
1589988703.3718371,-2.4430698783687097,-1.2216484617219177,4.103586453613165,0.5422222222222223,0.06666666666666668,-0.7088888888888889,-0.6735293952234489,0.9136541600845907,-0.9275845348548906
1589988703.3818371,-2.4407344037904712,0.6407554619636746,-0.7697341405633062,0.5422222222222223,0.06666666666666668,-0.7088888888888889,-0.5863419322687488,-0.47189256381271305,-2.756303554672984
1589988703.3918371,-0.5730005897174717,-0.13036079987133434,-0.18362997909183512,0.5422222222222223,0.08801229471577406,-0.6974537310054385,-0.2658697252313758,-1.3808317103900607,-3.290463832877145
1589988703.401837,0.20490482076637825,-0.5199134734239802,0.1973053152039555,0.5422222222222223,0.16,-0.6588888888888889,-0.3451960304411838,-0.6152096841574759,-3.1843421636352036
1589988703.411837,0.054342820076218275,-0.35463269277548043,-0.14204897429660263,0.5422222222222223,0.16,-0.6588888888888889,-0.24754336249246106,-0.5712164624649528,-3.055043063080577
1589988703.421837,0.11621900161030596,-0.27922521279043017,-0.027882217621348043,0.5422222222222223,0.16,-0.6588888888888889,-0.17004789677165308,-0.43456083592796924,-2.8578402900194337
1589988703.431837,0.8318650711780483,-0.3763955023726016,1.2536942438621828,0.5422222222222223,0.16,-0.6588888888888889,-0.03353779157955614,-0.26972986487008915,-2.7312750681317137
1589988703.441837,2.665447189097104,1.0062137989778535,5.890938184473108,0.5307044833833591,0.18541845812714636,-0.6557115816229956,1.0266534166000154,0.9679065111024676,-2.6416811529524145
1589988703.451837,1.279565814384089,2.318149666091081,9.846069444733393,0.51,0.2311111111111111,-0.65,1.5511879019542392,2.440814110346639,-2.441793286824729
1589988703.461837,-1.2713265472755975,0.3466621305318165,6.9466458004463565,0.51,0.2311111111111111,-0.65,0.017668596663285102,1.3431684260503687,-2.0314885282143997
1589988703.471837,0.2328714859437751,-0.590441767068273,3.452488704819277,0.51,0.2311111111111111,-0.65,-0.4871019432730861,-0.2321249025139628,-1.617206467180116
1589988703.481837,1.534991903146206,-0.5806978716841456,9.487223550277605,0.51,0.2311111111111111,-0.65,0.634022007767341,0.1713772715284463,-1.4257536013087209
1589988703.491837,0.514765254321643,-0.2906287534423836,4.10594213477554,0.5075130414265754,0.2396378262199955,-0.6411180050949121,0.46400804973393756,0.334832931830752,-1.300228778985899
1589988703.501837,0.61,-1.7238527985896872,10.19972410753636,0.5022222222222222,0.2577777777777778,-0.6222222222222222,-0.43608696020446736,-0.08571018985068236,-1.0562845225651991
1589988703.511837,0.2468093791532181,-2.808545661666983,11.425805961647997,0.5022222222222222,0.2577777777777778,-0.6222222222222222,-0.5235507268529905,-0.11467123017167319,-0.8199948133194299
1589988703.521837,-0.2658136669967873,-2.6263974975240947,9.394782482668663,0.5022222222222222,0.2577777777777778,-0.6222222222222222,0.23660551535835778,0.22639730593893276,-0.5896331006373476
1589988703.531837,-0.39484942979330007,-2.37,7.426654490377762,0.5022222222222222,0.2577777777777778,-0.6222222222222222,0.5120304684999974,0.24263209922787796,-0.43445008564963283
1589988703.541837,-0.5877916963978963,-2.3666875445968447,7.142874018869421,0.5018541716218716,0.25912729664573003,-0.6222222222222222,0.1889852583177981,0.052382911302667035,-0.35421332977279807
1589988703.551837,-0.5935585265253875,-2.4389458114066276,8.057463518702887,0.4988888888888889,0.27,-0.6222222222222222,-0.3798210105711381,-0.10680612607640218,-0.24057394006468388
1589988703.561837,-0.6289349319734512,-2.5781404130252836,8.372029118087859,0.4988888888888889,0.27,-0.6222222222222222,0.0060174996343418385,0.0017879161757837943,-0.0644770654724407
1589988703.571837,-0.569212801908359,-2.27070933969453,6.997606268429248,0.4988888888888889,0.27,-0.6222222222222222,0.19010611305890412,0.05228250060242588,0.0550262925716513
1589988703.581837,-0.8206165501400334,-3.0327787068566017,9.617094557836836,0.4988888888888889,0.27,-0.6222222222222222,-0.06748501968390161,-0.02778762347793167,0.15063506921005998
1589988703.591837,-0.8922779675491033,-3.177559777967549,10.167648377455166,0.4988888888888889,0.2740300313122687,-0.6256765347755954,-0.04225304158327727,-0.045825838434188755,0.24052609158038263
1589988703.601837,-0.708135239930968,-2.678049846471076,8.044615729430486,0.4988888888888889,0.2855555555555556,-0.6355555555555555,0.04314836328814813,-0.00391495713226741,0.35508367070959224
1589988703.611837,-0.7919766682702221,-2.913953336540444,8.755580028863996,0.4988888888888889,0.2855555555555556,-0.6355555555555555,-0.0626213222060118,-0.016260657861243817,0.42308963779432035
1589988703.621837,-0.7991828740292763,-2.9283657480585528,8.885291732526975,0.4988888888888889,0.2855555555555556,-0.6355555555555555,-0.06026309688591788,-0.04770366212916276,0.4702541441961987
1589988703.631837,-0.7857594240575942,-3.0188561143885613,8.625917408259173,0.4988888888888889,0.2855555555555556,-0.6355555555555555,0.005981299715082556,-0.03255924284709524,0.5669953202870165
1589988703.641837,-0.6995686493148273,-2.8703603392118313,8.262519733560257,0.4988888888888889,0.28976825089416425,-0.6355555555555555,-0.02731782262295513,-0.05456506565509466,0.6062273428548702
1589988703.6518369,-0.8290512675851275,-3.1643794929659492,9.017446084408611,0.4988888888888889,0.32,-0.6355555555555555,-0.013910052903054566,-0.04690572364734761,0.659586227193606
1589988703.6618369,-0.7908844886891004,-3.17964620452436,8.834245545707683,0.4988888888888889,0.32,-0.6355555555555555,-0.020571412469218155,-0.04690572364734761,0.6887296752955716
1589988703.6718369,-0.7305098592969892,-3.1447450703515054,8.412705633163547,0.4988888888888889,0.32,-0.6355555555555555,-0.021151439372428693,-0.05027016837029428,0.7280268401162774
1589988703.6818368,-0.7174641577060932,-3.2148873527905786,8.662269585253457,0.4988888888888889,0.32,-0.6355555555555555,-0.00846119959874203,-0.059453628892700464,0.7575674563749997
1589988703.6918368,-2.4896621181219905,-7.058284729084754,8.19493072054835,0.5026819125847741,0.31810348815205736,-0.6396646645594313,-0.010541295479103282,-0.036698367660541555,0.7605445331999897
1589988703.7018368,-12.367874732703317,-28.164366075739807,3.5682606746223353,0.5255555555555556,0.30666666666666664,-0.6644444444444444,-0.11078493830504421,0.06624345888763589,0.5258108738778893
1589988703.7118368,-0.38704512125140805,-2.1219015536332915,9.640273958045524,0.5255555555555556,0.30666666666666664,-0.6644444444444444,-0.39614448038137884,0.012245399145423587,-2.8811156584497333
1589988703.7218368,0.13491712292807317,-2.141694292357309,11.210317257931449,0.5255555555555556,0.30666666666666664,-0.6644444444444444,0.46109138189177895,0.2728474345408247,-3.7187076708280093
1589988703.7318368,1.5091530194472875,-1.8025025588536334,11.074879733879222,0.5255555555555556,0.30666666666666664,-0.6644444444444444,0.9477636360278425,0.5430509010848381,-3.4297961196566633
1589988703.7418368,0.5358211153292316,-2.577413928524676,8.071651721429507,0.5218595002254512,0.31058013701618886,-0.671836555104653,0.23123791919664904,0.062416540563900495,-3.2313196614458515
1589988703.7518368,-1.29,-3.43,12.97,0.5066666666666667,0.32666666666666666,-0.7022222222222222,-0.4548764363010222,0.13962634015954636,-3.0172379443851973
1589988703.7618368,-1.1163378396925612,-3.2879127779302775,11.930282390886632,0.5066666666666667,0.32666666666666666,-0.7022222222222222,-0.29668505002791146,0.1711170049230894,-2.885616806506326
1589988703.7718368,-0.5622596417787538,-2.834576070546253,8.613009024155915,0.5066666666666667,0.32666666666666666,-0.7022222222222222,0.2080328348384421,0.27158961652945524,-2.4656726876828436
1589988703.7818367,-0.823062764766032,-3.1738884290142995,9.87484799792245,0.5066666666666667,0.32666666666666666,-0.7022222222222222,-0.03171259724011743,0.1035896720633032,-2.299487418876226
1589988703.7918367,-0.6596776549642109,-2.9220030514031587,8.860498774569477,0.5066666666666667,0.32666666666666666,-0.7022222222222222,0.030666330270569024,0.13477913581864645,-2.1628478633766273
1589988703.8018367,-0.3884388612321095,-2.809542626011201,8.14951617921593,0.4744444444444445,0.37333333333333335,-0.68,0.1197035750903049,0.1409359140781097,-1.9075531666185295
1589988703.8118367,-0.5434087196639701,-3.1684201929060363,9.242461496577473,0.4744444444444445,0.37333333333333335,-0.68,0.03429091390129027,0.12492104010516945,-1.7616398704206297
1589988703.8218367,-0.19663441619049785,-3.4799808773647185,8.023854576911694,0.4744444444444445,0.37333333333333335,-0.68,0.04118903728255689,0.11307857781894352,-1.5234448542335368
1589988703.8318367,0.2022078378794206,-5.315619271600325,8.073530782249378,0.4744444444444445,0.37333333333333335,-0.68,0.000951123307946335,0.08640932475602901,-1.570300361663861
1589988703.8418367,-2.890341044644778,-6.185871286935096,7.8252711344036605,0.47123832928103815,0.378532439003722,-0.6793067859106149,-0.026609534593683766,0.0676984255448112,-2.436489891986838
1589988703.8518367,-13.831921896083072,-21.39253612843929,7.144498112912372,0.43751864816299574,0.4332130029789259,-0.6720160440472543,0.09507083987869128,0.3781623221765329,-3.143309714289605
1589988703.8618367,1.640016522499757,1.7925123918748178,11.367336184274468,0.43333333333333335,0.44,-0.6711111111111111,0.11866396301159868,-0.07197748691583068,0.378689247968087
1589988703.8718367,0.009420740596753685,0.5695655554475654,7.796331421906891,0.43333333333333335,0.44,-0.6711111111111111,0.3223255793367418,-0.1689168588784534,1.2689306363587778
1589988703.8818367,4.122584736409063,-6.190413798639401,9.726211996548333,0.43333333333333335,0.44,-0.6711111111111111,-0.13529583104780143,-0.06354788165635145,0.9654024266349934
1589988703.8918366,0.19369782614889314,-2.20440496880253,8.708392546796205,0.43173278124416337,0.44290100066162064,-0.672611628694708,-0.23624068086376915,-0.14503194916527176,-0.02789803067193378
1589988703.9018366,0.2144140258766173,-2.8893118319894997,8.640069379336209,0.4155555555555556,0.4722222222222222,-0.6877777777777778,0.08724386053681268,0.2535540325257171,-0.5067924543450041
1589988703.9118366,0.17962788681815367,-5.138548696675128,9.068691928260376,0.4155555555555556,0.4722222222222222,-0.6877777777777778,0.017275055727484116,0.02285147868377666,-0.5159934654705498
1589988703.9218366,-1.2351706700379266,-7.302054502036803,8.788186823992135,0.4155555555555556,0.4722222222222222,-0.6877777777777778,-0.10504726484216405,-0.04483987187381568,-0.5734092441738365
1589988703.9318366,-1.943982957467127,-7.681853669286711,8.531340042606331,0.4155555555555556,0.4722222222222222,-0.6877777777777778,-0.009188861063438629,0.0666776065239631,-0.44544200409117646
1589988703.9418366,0.5208962021597001,-3.8736153676632634,8.537502240505399,0.4155555555555556,0.4722222222222222,-0.6877777777777778,0.0338313959358404,-0.007935651709161481,0.004254119854412042
1589988703.9518366,-0.4160612109115105,-4.994388999778221,8.87189620758483,0.4155555555555556,0.45480791503412926,-0.6662659865454276,0.007019395687321947,0.006070573702635522,0.016573176665713535
1589988703.9618366,0.030605990338164253,-4.479421449275362,8.605261835748792,0.4155555555555556,0.4533333333333333,-0.6644444444444444,-0.02253177906613279,-0.004044779462641158,-0.05211641677649009
1589988703.9718366,-0.058548212560386476,-4.430791884057971,8.76736038647343,0.4155555555555556,0.4533333333333333,-0.6644444444444444,0.02432607449991917,0.007448656317711209,0.014191866571696646
1589988703.9818366,-0.050811508996971316,-4.595392838054517,8.521910742918225,0.4155555555555556,0.4533333333333333,-0.6644444444444444,-0.0009709229626496188,0.0016219621789979365,0.00023699770875724654
1589988703.9918365,-0.04006124302582068,-4.590122486051642,8.539755027896716,0.4155555555555556,0.4533333333333333,-0.6644444444444444,-0.0011041919380521408,0.0032591311919336835,0.0032457700363779972
1589988704.0018365,-0.04,-4.528553869467303,8.557556037295056,0.42628424501364537,0.4533333333333333,-0.678099140118377,0.0008242358075138438,0.003272492347489368,-0.0005576408325312313
1589988704.0118365,-0.0327807103874027,-4.467486803256688,8.75165786883779,0.42777777777777776,0.4533333333333333,-0.68,0.00545415391248228,0.0034533377836498697,0.0017266688918249349
1589988704.0218365,-0.04779117831260625,-4.399939697593272,8.70662646506218,0.42777777777777776,0.4533333333333333,-0.68,0.00545415391248228,-0.0014588263580964508,-0.0007294131790482254
1589988704.0318365,-0.05,-4.572471565100476,8.584045023438351,0.42777777777777776,0.4533333333333333,-0.68,-0.0036524735924841362,-0.001090830782496456,0.0006495871742490888
1589988704.0418365,-0.05,-4.473402013154548,8.606907227733565,0.42777777777777776,0.4533333333333333,-0.68,-0.011965405659464922,-0.001090830782496456,-0.0018442924458451475
1589988704.0518365,-0.0036019801120326543,-4.589194059663901,8.659279603977593,0.4222222222222222,0.4655555555555556,-0.6733333333333333,-0.008097982134508408,-0.0021030785493100067,-0.001090830782496456
1589988704.0618365,-0.04913478657345086,-4.452595640279648,8.65017304268531,0.4222222222222222,0.4655555555555556,-0.6733333333333333,-0.00015100823025744614,-0.0011097068112786367,-0.001090830782496456
1589988704.0718365,-0.021388637785967595,-4.573982569594141,8.53555455114387,0.4222222222222222,0.4655555555555556,-0.6733333333333333,0.009363046389666752,0.000989846192985044,0.000989846192985044
1589988704.0818365,-0.04908319641051567,-4.4537520538422655,8.600916803589485,0.4222222222222222,0.4655555555555556,-0.6733333333333333,0.004954115124025905,0.003372500105180643,0.0018816382919190874
1589988704.0918365,-0.042456711324570275,-4.553149330131446,8.60754328867543,0.4222222222222222,0.4655555555555556,-0.6733333333333333,0.001339928168274448,0.004095337496330934,-0.00028687388153178766
1589988704.1018364,-0.04878565959854865,-4.510929063613062,8.627571319197099,0.4222222222222222,0.4479842363584582,-0.6918808369302694,-0.004791833967316162,0.0034049563365225917,-0.0020491975759596884
1589988704.1118364,-0.04099920080329515,-4.53800159839341,8.612006393573639,0.4222222222222222,0.4455555555555555,-0.6944444444444444,0.0034904841463152753,0.00021799179882590707,0.00010899589941295353
1589988704.1218364,-0.04959425398061436,-4.520811492038771,8.543245968155084,0.4222222222222222,0.4455555555555555,-0.6944444444444444,0.005365633862918027,0.0020931415154286596,0.0010465707577143298
1589988704.1318364,-0.04896901211556384,-4.501546481826654,8.65,0.4222222222222222,0.4455555555555555,-0.6944444444444444,0.0017880399027395601,-0.001147062448532649,0.001090830782496456
1589988704.1418364,-0.03268173345759552,-4.525977399813607,8.65,0.4222222222222222,0.4455555555555555,-0.6944444444444444,-0.00443029282038373,-0.002035395694693119,0.001090830782496456
1589988704.1518364,-0.037443278382053025,-4.5225567216179465,8.65,0.40650863452677694,0.45134477207493007,-0.6836930423370345,-0.008701896785215824,-0.0029935972831762977,0.001090830782496456
1589988704.1618364,-0.030682640216069368,-4.537952079351792,8.53931735978393,0.4011111111111111,0.4533333333333333,-0.68,-0.007907536802807298,-0.00515629592805888,-0.0008674372941789058
1589988704.1718364,-0.03730734604267686,-4.5180779618719695,8.532692653957323,0.4011111111111111,0.4533333333333333,-0.68,4.1539541904488456e-05,-0.002265722711800048,0.001300492618015218
1589988704.1818364,-0.020515008022541387,-4.519742495988729,8.598197471921106,0.4011111111111111,0.4533333333333333,-0.68,0.009648941061201875,-2.808933021103844e-05,5.617866042207688e-05
1589988704.1918364,-0.03672168330666883,-4.503278316693331,8.650165049920007,0.4011111111111111,0.4533333333333333,-0.68,0.007993424353860957,0.0009120263443035741,0.0
1589988704.2018363,-0.05,-4.559190439666477,8.658785659499715,0.4222222222222222,0.4655555555555556,-0.6877777777777778,-0.0022037388982952873,-0.001002521449286955,-2.207733330237526e-05
1589988704.2118363,-0.04889753780307128,-4.519448768901535,8.596692613409214,0.4222222222222222,0.4655555555555556,-0.6877777777777778,-0.0030319724072996644,0.003212362362441942,-0.00103070079744903
1589988704.2218363,-0.030395533431992465,-4.510395533431992,8.54158213372797,0.4222222222222222,0.4655555555555556,-0.6877777777777778,0.0012202687954336112,0.002095369556368142,4.314600431238505e-05
1589988704.2318363,-0.03980021525628952,-4.519800215256289,8.579200861025159,0.4222222222222222,0.4655555555555556,-0.6877777777777778,0.004297943725492057,4.358626966251148e-05,0.0010690376476652002
1589988704.2418363,-0.04849304865938431,-4.4945208540218475,8.656437437934459,0.4222222222222222,0.4655555555555556,-0.6877777777777778,0.001583979455516825,0.0009264478914896662,-0.0007620650004828765
1589988704.2518363,-0.04268411609498681,-4.5338953034300795,8.662684116094987,0.44579562591615357,0.45661391967165055,-0.6820876458516565,-0.0028993648998829284,-0.001303286626931175,-0.001090830782496456
1589988704.2618363,-0.04968647466277798,-4.540313525337222,8.61156762668611,0.4544444444444444,0.4533333333333333,-0.68,-0.009646475498000925,-0.001125031091389892,0.0010224301647095838
1589988704.2718363,-0.05,-4.5490531080931875,8.510415810974937,0.4544444444444444,0.4533333333333333,-0.68,5.793194284871295e-05,-0.0040534534780915015,0.0020783716810281374
1589988704.2818363,-0.031979373549328796,-4.486927807422651,8.608123758704027,0.4544444444444444,0.4533333333333333,-0.68,0.004039448890335755,0.0025167857883058743,0.002181661564992912
1589988704.2918363,-0.03,-4.525736118391871,8.635245372797291,0.4544444444444444,0.4533333333333333,-0.68,0.007689347517569478,0.0007779740568016275,0.002181661564992912
1589988704.3018363,-0.04149654935753232,-4.511258626606169,8.66874137339383,0.4320900429159094,0.4558881220794516,-0.68,0.006218488273634427,0.0,0.00030054307523999643
1589988704.3118362,-0.03628613322161709,-4.531141600335149,8.621430666108084,0.4155555555555556,0.4577777777777778,-0.68,0.002119396925648487,0.002991901605783116,-0.001090830782496456
1589988704.3218362,-0.03,-4.532038279077375,8.54808931784721,0.4155555555555556,0.4577777777777778,-0.68,0.00043772417952949567,0.0017508967181179827,-0.00043772417952949567
1589988704.3318362,-0.022276350064149915,-4.5354472998717,8.55861824967925,0.4155555555555556,0.4577777777777778,-0.68,0.0008425195103252049,-0.0008425195103252049,-0.0016850390206504097
1589988704.3418362,-0.026181039650595185,-4.5090948017470245,8.631810396505951,0.4155555555555556,0.4577777777777778,-0.68,0.00243932444623653,-0.00041658395062641915,0.0005153257624872353
1589988704.3518362,-0.045234771819627005,-4.51285215772944,8.662382614090186,0.4307903273751825,0.4577777777777778,-0.68,-0.0008821471688003017,0.002492783709773802,-0.0011420500480388237
1589988704.3618362,-0.020670999808831966,-4.52,8.640447333205888,0.4355555555555555,0.4577777777777778,-0.68,-0.0053809591878299645,0.0011396272655979987,-4.879648310154297e-05
1589988704.3718362,-0.03843505547461616,-4.538435055474616,8.520172139414996,0.4355555555555555,0.4577777777777778,-0.68,-0.008470582810793447,8.535448305939993e-05,-0.002010952598874112
1589988704.3818362,-0.04,-4.546908620503791,8.565268964030327,0.4355555555555555,0.4577777777777778,-0.68,-0.0034513511228866636,0.002260840773036422,0.0008327927990556508
1589988704.3918362,-0.04642002543406608,-4.530739923697801,8.609260076302197,0.4355555555555555,0.4577777777777778,-0.68,0.003811382175026157,0.004673124621067257,0.0007810292914150222
1589988704.4018362,-0.033412492634060105,-4.50341249263406,8.66146876841485,0.4244972173115956,0.44764096772081446,-0.68,0.006544984694978735,0.0018353211845514913,-0.0009047081819826971
1589988704.4118361,-0.0496004228902925,-4.549001057225731,8.59159830843883,0.4222222222222222,0.4455555555555555,-0.68,0.001199798535308932,0.001090830782496456,0.002116280913305426
1589988704.4218361,-0.04032155020551967,-4.54032155020552,8.522250851438637,0.4222222222222222,0.4455555555555555,-0.68,-0.001020679410036672,3.5075686229892e-05,-0.002041358820073344
1589988704.4318361,-0.049058718463942844,-4.530941281536057,8.556234873855772,0.4222222222222222,0.4455555555555555,-0.68,-0.00010267788745266931,-0.0019763057900875733,0.004735408700313595
1589988704.441836,-0.03436640145864413,-4.53,8.630351193436102,0.4222222222222222,0.4455555555555555,-0.68,0.0,-0.002181661564992912,0.002043431806461743
1589988704.451836,-0.04265988108434949,-4.511010178373476,8.668989821626525,0.41800226186077244,0.4532921495515469,-0.6757800396385502,0.0006904893994776518,-0.0014911721655152602,0.001090830782496456
1589988704.461836,-0.05,-4.535972869538858,8.635033913076429,0.4155555555555556,0.4577777777777778,-0.6733333333333333,-0.000871184888889311,-0.003052846453882223,0.001090830782496456
1589988704.471836,-0.043779825519720074,-4.53377982551972,8.55535790623664,0.4155555555555556,0.4577777777777778,-0.6733333333333333,-0.0038048939007317524,-0.0019154607883717198,0.001090830782496456
1589988704.481836,-0.04,-4.52290370719447,8.51709629280553,0.4155555555555556,0.4577777777777778,-0.6733333333333333,-0.007002324839258196,-0.0003167453191084981,-0.0004573401442794598
1589988704.491836,-0.03416766547934568,-4.531664669041309,8.578323345206542,0.4155555555555556,0.4577777777777778,-0.6733333333333333,-0.002546143454318036,0.0,-0.0004546217796018115
1589988704.501836,-0.043432719629442215,-4.526567280370558,8.646865439258884,0.4110779823457415,0.46300161318922756,-0.6927361505758609,0.005486678001828444,0.0007326412032219978,0.0007326412032219978
1589988704.511836,-0.034622409876316575,-4.504622409876316,8.698443975309209,0.4088888888888889,0.4655555555555556,-0.7022222222222222,0.006797098044098823,0.001090830782496456,0.001090830782496456
1589988704.521836,-0.047880947037701974,-4.526821420556553,8.549071476660682,0.4088888888888889,0.4655555555555556,-0.7022222222222222,0.0016687128327502023,-0.0018349323348406637,0.0030413395273878696
1589988704.531836,-0.043430415698425,-4.536569584301575,8.562847921507874,0.4088888888888889,0.4655555555555556,-0.7022222222222222,-0.0024923216096852923,0.0006848603487524872,0.0018392313906166683
1589988704.541836,-0.04,-4.533991484251324,8.604034062994705,0.4088888888888889,0.4655555555555556,-0.7022222222222222,-0.003707895736408746,0.002181661564992912,0.00043540338891937794
1589988704.551836,-0.03415323702514714,-4.524153237025147,8.631693525949705,0.4127867308721242,0.4538620296058498,-0.6976747399084477,-0.0013591436382103515,0.0015438786618999065,0.0
1589988704.561836,-0.046941291438021504,-4.511529354280989,8.63152935428099,0.4155555555555556,0.4455555555555555,-0.6944444444444444,0.0009240041097918751,0.00016682667270458086,0.0018480082195837502
1589988704.571836,-0.02347821012581406,-4.518840596624728,8.532753437127985,0.4155555555555556,0.4455555555555555,-0.6944444444444444,-0.0027666071910588553,0.0,0.0002529425782152564
1589988704.581836,-0.028450691349560048,-4.52,8.536901382699119,0.4155555555555556,0.4455555555555555,-0.6944444444444444,-0.006037974624732354,0.0,0.0
1589988704.591836,-0.04361441818146621,-4.533614418181466,8.601264881816599,0.4155555555555556,0.4455555555555555,-0.6944444444444444,-0.0035747794073541835,0.0022276539657184145,0.0014851026438122761
1589988704.601836,-0.041996351971822124,-4.523992703943644,8.638003648028178,0.43156285161191127,0.45533779203443964,-0.6828836195148542,0.0030567138198491794,0.002399429783349019,0.002181661564992912
1589988704.611836,-0.024089842440496147,-4.52,8.663865236339255,0.4355555555555555,0.4577777777777778,-0.68,0.006966616573027148,0.0013138970839791373,0.00044613260296536266
1589988704.621836,-0.046475859841756825,-4.5111747133860804,8.599397707088649,0.4355555555555555,0.4577777777777778,-0.68,0.004747747186630183,0.00012814135221478633,0.0028880682908450092
1589988704.631836,-0.04197137058006623,-4.518028629419933,8.581971370580066,0.4355555555555555,0.4577777777777778,-0.68,0.0008601726849776564,0.0008757876112520419,0.001520917124985284
1589988704.641836,-0.04659344202825531,-4.52,8.60637376811302,0.4355555555555555,0.4577777777777778,-0.68,-0.0014384659054053508,-0.00034763512290889487,0.00037159782979378055
1589988704.651836,-0.04221150855365474,-4.527788491446345,8.643365474339037,0.42517090029376187,0.4543162260238465,-0.68,-0.002181661564992912,0.0006083544612802941,0.000849592621888375
1589988704.661836,-0.04866708136352327,-4.521332918636476,8.59799751181886,0.4222222222222222,0.4533333333333333,-0.68,-0.0012362296504196588,-0.0008000330466500505,-0.0008000330466500505
1589988704.671836,-0.04155428333987396,-4.528445716660126,8.54777141669937,0.4222222222222222,0.4533333333333333,-0.68,0.001673023531436138,0.002594308302747002,0.0007517387601252729
1589988704.681836,-0.033870338776505,-4.53,8.57677796734097,0.4222222222222222,0.4533333333333333,-0.68,-0.001161550009438708,0.0012665654028303965,-0.0002464538472761917
1589988704.6918359,-0.03,-4.53,8.589229256031256,0.4222222222222222,0.4533333333333333,-0.68,-0.003272492347489368,0.0023498118142988053,-0.001090830782496456
1589988704.7018359,-0.035455792682926826,-4.524544207317073,8.623646341463415,0.4149478319783198,0.4636387195121951,-0.6842433943089431,-0.0014870883670527145,0.0019827844894036188,0.0012897078580857491
1589988704.7118359,-0.04,-4.512453992123165,8.652453992123165,0.4088888888888889,0.4722222222222222,-0.6877777777777778,0.003292567070804913,0.0,0.0008030670443856833
1589988704.7218359,-0.0480581008152486,-4.5180581008152485,8.59359329429326,0.4088888888888889,0.4722222222222222,-0.6877777777777778,0.005242325571759119,0.003516009767093181,0.0008790024417732953
1589988704.7318358,-0.015462187040713712,-4.511365546760178,8.58,0.4088888888888889,0.4722222222222222,-0.6877777777777778,0.0026285356972751924,0.002479577653181099,0.00014895804409409354
1589988704.7418358,-0.04180445385590058,-4.51636089077118,8.611804453855902,0.4088888888888889,0.4722222222222222,-0.6877777777777778,-0.0005938006179274443,0.0007939304735327338,0.0
1589988704.7518358,-0.04710496388504687,-4.52,8.617104963885048,0.4088888888888889,0.455028840735618,-0.6863449959872274,-0.000775031331433474,0.000703315116779719,0.0
1589988704.7618358,-0.03213088856084738,-4.527869111439153,8.649345557195764,0.4088888888888889,0.4455555555555555,-0.6855555555555556,-0.0008583868988722662,-0.0014843299141203425,0.0
1589988704.7718358,-0.03822738475804681,-4.521772615241953,8.561271382903438,0.4088888888888889,0.4455555555555555,-0.6855555555555556,0.000704106128207466,0.002305680711766894,0.0
1589988704.7818358,-0.025472939008042893,-4.52,8.583581182975871,0.4088888888888889,0.4455555555555555,-0.6855555555555556,0.001090830782496456,0.00010317928564330643,0.0015846565309230308
1589988704.7918358,-0.02,-4.528380515692789,8.60838051569279,0.4088888888888889,0.4455555555555555,-0.6855555555555556,-0.0002804278911370157,-0.0006337445579519653,0.002638747789537403
1589988704.8018358,-0.0207790188617487,-4.540779018861748,8.62,0.4109662725202188,0.446507689719915,-0.684603421391196,-0.0023516171159010785,-8.497777545408339e-05,0.003017559021127118
1589988704.8118358,-0.051716651745747536,-4.521044464339003,8.605522232169502,0.4355555555555555,0.4577777777777778,-0.6733333333333333,-0.0012047641677169155,0.0012780884392052255,-0.0015792794811344542
1589988704.8218358,-0.043756877498236535,-4.501878438749118,8.543149071243826,0.4355555555555555,0.4577777777777778,-0.6733333333333333,0.0035436996057568856,0.00040981176211446913,0.0004761131393247525
1589988704.8318357,-0.045350119752930795,-4.494649880247069,8.562100718517584,0.4355555555555555,0.4577777777777778,-0.6733333333333333,0.0055305381932936725,-0.0017508225949617738,0.0022580458458043053
1589988704.8418357,-0.05,-4.505332819485124,8.616832434098967,0.4355555555555555,0.4577777777777778,-0.6733333333333333,0.005290571334216124,-0.0011818034128850147,0.0015999411998058857
1589988704.8518357,-0.05,-4.534200761999579,8.647397714001263,0.4243535235566787,0.4577777777777778,-0.6854688679987831,0.0005231000480402201,0.0008069654152683379,-0.0015490628324046473
1589988704.8618357,-0.045706812069410165,-4.53570681206941,8.63858637586118,0.4088888888888889,0.4577777777777778,-0.7022222222222222,-0.004209120657435299,-0.0015591449374694215,-0.001245033255046981
1589988704.8718357,-0.03244329543506827,-4.522443295435068,8.574432954350684,0.4088888888888889,0.4577777777777778,-0.7022222222222222,-0.001332610935652772,0.0002912642211047932,-0.001648617190731803
1589988704.8818357,-0.04521947217284288,-4.52,8.603268152604949,0.4088888888888889,0.4577777777777778,-0.7022222222222222,0.002490280310922786,0.000260737345522194,-0.002181661564992912
1589988704.8918357,-0.03767461452557748,-4.52,8.613837307262788,0.4088888888888889,0.4577777777777778,-0.7022222222222222,0.0012557558652441523,-0.0026889819763269546,-0.0015094160709111732
1589988704.9018357,-0.04279150932600984,-4.52,8.641978773315024,0.40391441303988507,0.4577777777777778,-0.6880094340822113,0.0,-0.0015726487045054178,-0.002486167995236659
1589988704.9118357,-0.05,-4.53168152866242,8.595751592356688,0.4011111111111111,0.4577777777777778,-0.68,-0.0012742571051582805,-0.0012742571051582805,-0.002635363794910228
1589988704.9218357,-0.043177191390041496,-4.533177191390042,8.543177191390042,0.4011111111111111,0.4577777777777778,-0.68,5.109733145446625e-05,-0.0014374085995104524,-0.0014374085995104524
1589988704.9318357,-0.02038168094240199,-4.523460560314134,8.58577607780106,0.4011111111111111,0.4577777777777778,-0.68,0.003230857415382934,-0.001090830782496456,-0.0003774885715342967
1589988704.9418356,-0.02972743635896117,-4.52,8.61493185908974,0.4011111111111111,0.4577777777777778,-0.68,0.0016734112749739924,-0.0016288131534988224,-0.0010759647420047326
1589988704.9518356,-0.03930023165348136,-4.52,8.630699768346519,0.39912967252842246,0.4605517917935419,-0.6776222737007737,-0.001090830782496456,-0.002181661564992912,-0.0017926070090607872
1589988704.9618356,-0.03306551039598788,-4.52,8.641289659736008,0.3955555555555556,0.4655555555555556,-0.6733333333333333,-0.001090830782496456,-0.002181661564992912,-0.001090830782496456
1589988704.9718356,-0.05,-4.52,8.561053421207736,0.3955555555555556,0.4655555555555556,-0.6733333333333333,-0.00033874027755228045,-0.0006774805551045609,0.00041335022739189507
1589988704.9818356,-0.04503987449339783,-4.52,8.5349601255066,0.3955555555555556,0.4655555555555556,-0.6733333333333333,0.0005410657587647475,0.001082131517529495,8.699264966960949e-06
1589988704.9918356,-0.04664194059761314,-4.52,8.56988873268926,0.3955555555555556,0.4655555555555556,-0.6733333333333333,0.0007285691195269902,0.0014571382390539804,-0.0003663074565575244
1589988705.0018356,-0.0365401752339942,-4.514135043808499,8.624135043808499,0.41119543873289277,0.4583872757659427,-0.6642100681465533,0.0006397674751682962,0.0,0.0017305982576647522
1589988705.0118356,-0.03738606146806011,-4.521590707645373,8.63738606146806,0.4222222222222222,0.4533333333333333,-0.6577777777777778,0.0004586557479719397,-0.0018965251035735489,0.0009173114959438794
1589988705.0218356,-0.05,-4.523569424546323,8.566402519102196,0.4222222222222222,0.4533333333333333,-0.6577777777777778,0.0007014669654037173,-0.003272492347489368,-0.0014029339308074347
1589988705.0318356,-0.05,-4.513627746844051,8.564605772091639,0.4222222222222222,0.4533333333333333,-0.6577777777777778,0.0017859357721333358,-0.0004920723889418493,-0.002181661564992912
1589988705.0418355,-0.04582289322540557,-4.51,8.610885533872972,0.4222222222222222,0.4533333333333333,-0.6577777777777778,0.0017260098998427029,0.0006351791173462469,-0.0012703582346924938
1589988705.0518355,-0.0373053115386041,-4.504610623077208,8.642694688461397,0.4222222222222222,0.45453097264950926,-0.6676583021362295,0.0007968858702035898,0.0002939449122928661,0.0002939449122928661
1589988705.0618355,-0.038694666040982324,-4.503041999061473,8.636958000938526,0.4222222222222222,0.4577777777777778,-0.6944444444444444,-0.0004742204680515056,0.001090830782496456,0.001090830782496456
1589988705.0718355,-0.05,-4.524969116974226,8.575277947231966,0.4222222222222222,0.4577777777777778,-0.6944444444444444,-0.0016328773582275947,0.0005487842067653171,0.001090830782496456
1589988705.0818355,-0.03572662727769227,-4.53,8.551410059083462,0.4222222222222222,0.4577777777777778,-0.6944444444444444,-0.0014031698482159863,-0.0007784917167769255,-0.001244644367834321
1589988705.0918355,-0.03556992398571298,-4.524430076014287,8.604559391885704,0.4222222222222222,0.4577777777777778,-0.6944444444444444,0.00012433812545975726,-0.0023059996904526694,0.0008562607048976214
1589988705.1018355,-0.04,-4.52,8.647299297077321,0.4145174086406051,0.4577777777777778,-0.6891727298886011,0.000692715885370021,-0.002874377450362933,0.002874377450362933
1589988705.1118355,-0.04393348052133039,-4.52,8.65213303895734,0.4011111111111111,0.4577777777777778,-0.68,-0.0004290761635017397,-0.0017525854014911722,0.002181661564992912
1589988705.1218355,-0.02659171542022039,-4.52,8.58147928855055,0.4011111111111111,0.4577777777777778,-0.68,0.0001858930867565799,-0.002367554651749492,0.0009049376957398761
1589988705.1318355,-0.027160823103417824,-4.528580411551709,8.565741234655126,0.4011111111111111,0.4577777777777778,-0.68,0.0024947973395602952,-0.002804503495134755,-0.0004679888523546131
1589988705.1418355,-0.04437256795108108,-4.528745135902162,8.614068580122296,0.4011111111111111,0.4577777777777778,-0.68,0.0040563943247174305,-0.0018747327597245186,-0.0007839019772280626
1589988705.1518354,-0.039939951961569256,-4.509939951961569,8.654969975980785,0.4082899653055778,0.4577777777777778,-0.6722689262521128,0.0027303520686785794,-0.0005486905036856673,0.0
1589988705.1618354,-0.04493952869789286,-4.514939528697893,8.62457670088525,0.4155555555555556,0.4577777777777778,-0.6644444444444444,0.0005256262039093932,0.0,-0.0005520117870278395
1589988705.1718354,-0.029025634831969564,-4.515487182584015,8.562564087079924,0.4155555555555556,0.4577777777777778,-0.6644444444444444,-0.0028865070840431296,-0.0029927938359111225,-0.0004922720153142314
1589988705.1818354,-0.0309987574097085,-4.514500621295145,8.561997514819417,0.4155555555555556,0.4577777777777778,-0.6644444444444444,-0.0031635448148137225,-0.0024547081245520257,-0.0005998891575860508
1589988705.1918354,-0.048384834723835674,-4.526769669447671,8.59676966944767,0.4155555555555556,0.4577777777777778,-0.6644444444444444,-0.0017243397738476557,-0.0009146435822905124,-0.0015481525736417122
1589988705.2018354,-0.055145171046441295,-4.525725855232206,8.639419315814234,0.4155555555555556,0.4556200760206406,-0.6719964005944247,-0.0005612510958667665,-0.001122502191733533,-0.0016520818783632226
1589988705.2118354,-0.05,-4.51012662078406,8.64481006882391,0.4155555555555556,0.4533333333333333,-0.68,-0.0005523214836960648,-0.0011046429673921296,-0.0016431522661925209
1589988705.2218354,-0.0403529269691755,-4.529647073030825,8.591411707876702,0.4155555555555556,0.4533333333333333,-0.68,-0.001090830782496456,-0.0016554953538421746,-0.001129329142691437
1589988705.2318354,-0.03,-4.531166328239108,8.558833671760892,0.4155555555555556,0.4533333333333333,-0.68,-0.0006090287285339213,-0.0006090287285339213,-0.0009636041079250692
1589988705.2418354,-0.03581078487814239,-4.522905392439071,8.596148531951641,0.4155555555555556,0.4533333333333333,-0.68,0.0006338583015542638,-0.0009507874523313958,-0.002498590715770044
1589988705.2518353,-0.03562762816498166,-4.525209209388327,8.669581581223346,0.4187494159633374,0.4591887440809334,-0.6837261704757456,0.0016590673778221427,-0.002227303973147829,-0.004317680721830907
1589988705.2618353,-0.03816850179388841,-4.51394383273537,8.661831498206112,0.4222222222222222,0.4655555555555556,-0.6877777777777778,-0.0008910453203650997,0.00023041995274458108,-0.0014904017067591683
1589988705.2718353,-0.03604136845118809,-4.519305754365875,8.608124105353564,0.4222222222222222,0.4655555555555556,-0.6877777777777778,-0.002181661564992912,7.57304508317751e-05,0.001090830782496456
1589988705.2818353,-0.027901841294803748,-4.526049079352598,8.571852761942205,0.4222222222222222,0.4655555555555556,-0.6877777777777778,-0.002612640151131591,-0.001090830782496456,-0.0002021049759195813
1589988705.2918353,-0.044338507021433854,-4.524338507021434,8.603015521064302,0.4222222222222222,0.4655555555555556,-0.6877777777777778,-0.003272492347489368,-0.001090830782496456,-0.0017084038640872063
1589988705.3018353,-0.04588951923776275,-4.525889519237762,8.632331442286711,0.42450582264568737,0.46053163462393226,-0.6818404166767684,-0.0014789567689662113,-0.0006424468878656667,-0.0015392146771272452
1589988705.3118353,-0.03511478769020605,-4.52,8.640229575380413,0.42777777777777776,0.4533333333333333,-0.6733333333333333,2.5042789185684977e-05,0.0005328939966553855,-0.0005829795750267553
1589988705.3218353,-0.03442923859068338,-4.524429238590684,8.594566091274533,0.42777777777777776,0.4533333333333333,-0.6733333333333333,-0.001090830782496456,0.0025402957218180503,0.0006076758027225912
1589988705.3318353,-0.04436424103852913,-4.525635758961471,8.55872848207706,0.42777777777777776,0.4533333333333333,-0.6733333333333333,-0.00013870108908408112,0.0024590637431610744,0.0
1589988705.3418353,-0.04461876637506106,-4.52,8.588834317687287,0.42777777777777776,0.4533333333333333,-0.6733333333333333,0.00021032848961319826,0.00029350076429441924,0.00029350076429441924
1589988705.3518353,-0.03975987020010817,-4.5167467099332965,8.649759870200109,0.4238015343629189,0.45477924002964565,-0.6755021933778018,-0.0007621459853332008,0.001090830782496456,0.001090830782496456
1589988705.3618352,-0.04873648484848485,-4.5212635151515155,8.664368242424242,0.4155555555555556,0.4577777777777778,-0.68,0.00033867320803471755,-0.00013782812214234007,0.001090830782496456
1589988705.3718352,-0.04500156795517739,-4.524998432044822,8.609984320448227,0.4155555555555556,0.4577777777777778,-0.68,-0.000545244353870921,3.420747546139212e-07,-3.420747546139212e-07
1589988705.3818352,-0.05,-4.52,8.58330619403674,0.4155555555555556,0.4577777777777778,-0.68,-0.0014527493644634793,0.0014540181236123257,-0.0007276434413805862
1589988705.3918352,-0.0465723047888653,-4.521713847605567,8.628286152394432,0.4155555555555556,0.4577777777777778,-0.68,-0.00361551604012154,0.0016208062475946987,0.00018695177246607107
1589988705.4018352,-0.03,-4.521545571140653,8.62563628590623,0.41743431752429944,0.4543333808350807,-0.6821918889635346,-0.00030741170827341545,-0.0013982424907698714,0.0013982424907698714
1589988705.4118352,-0.03256188499384994,-4.50768565498155,8.62719057503075,0.4222222222222222,0.4455555555555555,-0.6877777777777778,-0.0005319141799950047,-0.0013432866612407349,0.0016227449624914606
1589988705.4218352,-0.045068539250218746,-4.519862921499563,8.564657303748906,0.4222222222222222,0.4455555555555555,-0.6877777777777778,-1.4952944789566177e-05,0.001643722646139467,-0.0005528918636430111
1589988705.4318352,-0.04488534166901535,-4.515114658330984,8.560458633323938,0.4222222222222222,0.4455555555555555,-0.6877777777777778,0.000582937242320546,0.0010658162151149107,-0.0005329081075574554
