time,acc_x,acc_y,acc_z,mag_x,mag_y,mag_z,gyr_x,gyr_y,gyr_z
1589985619.2643073,-3.74,-0.48,9.1,0.27111111111111114,-0.38333333333333336,-0.5966666666666667,0.001090830782496456,0.0,0.01963495408493621
1589985619.2743073,-3.7851188440194057,-0.4788391330145545,9.03395797703396,0.27111111111111114,-0.38333333333333336,-0.5966666666666667,-0.0006850102069273755,-0.003957502554416743,0.0048957746497656895
1589985619.2843072,-3.8,-0.5333862978959465,9.072396085113128,0.27111111111111114,-0.38333333333333336,-0.5966666666666667,-0.00041472922130417623,-0.0023350184464089843,0.003272492347489368
1589985619.2943072,-3.7934045451910254,-0.5402136355730768,9.093190909617949,0.27624090929586903,-0.38333333333333336,-0.6017964648514246,0.0,-0.00037137826947709657,0.005430849886547446
1589985619.3043072,-3.79,-0.508294599645407,9.10723513345153,0.2788888888888889,-0.38333333333333336,-0.6044444444444445,0.0,0.0015784612568799645,0.012069599094058608
1589985619.3143072,-3.76707337304879,-0.4954146746097579,9.06873207148782,0.2788888888888889,-0.38333333333333336,-0.6044444444444445,0.0010003628166877234,0.0031820243816806353,0.017181888622517096
1589985619.3243072,-3.7443376175773677,-0.4813247648452646,9.03084404394342,0.2788888888888889,-0.38333333333333336,-0.6044444444444445,0.002181661564992912,0.003417001774767745,0.02096236520623718
1589985619.3343072,-3.763402464378074,-0.46360985751229655,9.073402464378074,0.2788888888888889,-0.38333333333333336,-0.6044444444444445,0.002923964140983097,0.0,0.018476254057973287
1589985619.3443072,-3.7757921974522293,-0.4957921974522293,9.082316878980892,0.2803047593772116,-0.3842343418259024,-0.6010978414720453,0.003984224693234468,0.0,0.011367307879542089
1589985619.3543072,-3.8579833819896696,-0.54,9.081008309005165,0.2911111111111111,-0.3911111111111111,-0.5755555555555556,0.0004002734108688995,-0.003452786858137783,0.008616656809861407
1589985619.3643072,-3.8920131532312054,-0.5700328830780136,9.015940810459576,0.2911111111111111,-0.3911111111111111,-0.5755555555555556,0.0,-0.0034885063115654294,0.014403988111274088
1589985619.3743072,-3.9,-0.5813880772059554,8.988611922794044,0.2911111111111111,-0.3911111111111111,-0.5755555555555556,-0.000469707524011335,-0.002181661564992912,0.023089782808079315
1589985619.3843071,-3.841889529802482,-0.5235116238419857,9.03486628211851,0.2911111111111111,-0.3911111111111111,-0.5755555555555556,-0.001090830782496456,-0.0026042528295048815,0.03730472214209228
1589985619.3943071,-3.70931013015311,-0.42558607809186594,9.098137973969378,0.2911111111111111,-0.3911111111111111,-0.5791724328752792,-0.0006469731568488348,-0.0037163499731369893,0.0528789883119679
1589985619.4043071,-3.624825313117996,-0.39419578114700066,9.11,0.2911111111111111,-0.3911111111111111,-0.5844444444444444,-0.00045768872317666063,-0.0039056344068091635,0.06045338176048174
1589985619.414307,-3.6218251854863297,-0.41060839516210995,9.067566419351559,0.2911111111111111,-0.3911111111111111,-0.5844444444444444,-0.001090830782496456,-0.0003795013485603585,0.0518289526232287
1589985619.424307,-3.7161143896137037,-0.48010399055791253,9.054041596223165,0.2911111111111111,-0.3911111111111111,-0.5844444444444444,0.001531700539561437,0.002181661564992912,0.027242410536996404
1589985619.434307,-3.7821069825951446,-0.5144732543512138,9.081053491297572,0.2911111111111111,-0.3911111111111111,-0.5844444444444444,0.0026696179194169384,0.0015787871369204822,0.006113596460215535
1589985619.444307,-3.787759348714657,-0.5038796743573286,9.102240651285342,0.28771093019851596,-0.3911111111111111,-0.5844444444444444,0.0008464136430072489,-0.002914912983460532,-0.004852157408964237
1589985619.454307,-3.793689604027147,-0.47946559395927907,9.041551979864263,0.2855555555555556,-0.3911111111111111,-0.5844444444444444,0.0,-0.0024675456178823376,-0.009531592989578678
1589985619.464307,-3.8,-0.47,8.961033868986437,0.2855555555555556,-0.3911111111111111,-0.5844444444444444,-0.0015261075145528147,-0.0033799920543256777,-0.010145254067688153
1589985619.474307,-3.7656810631229236,-0.47,8.994910299003323,0.2855555555555556,-0.3911111111111111,-0.5844444444444444,-0.001432938509631557,-0.002865877019263114,-0.009817477042468105
1589985619.484307,-3.75558852034257,-0.47558852034257004,9.03117704068514,0.2855555555555556,-0.3911111111111111,-0.5844444444444444,-0.0029196697879813765,0.00025679044232031515,-0.009207864040639797
1589985619.494307,-3.76,-0.48822868874782643,9.064686066243478,0.2855555555555556,-0.38791106548695636,-0.5867301913188406,-0.0030169070821291274,0.0017328562157073464,-0.007829035561400516
1589985619.504307,-3.7700763969732245,-0.49496180151338764,9.120152793946449,0.2855555555555556,-0.38333333333333336,-0.59,8.33361700830395e-06,0.0021899951820012163,-0.003797073696216836
1589985619.514307,-3.78,-0.5037698856725857,9.064265628800777,0.2855555555555556,-0.38333333333333336,-0.59,0.001090830782496456,-0.0012336922014446663,0.0011622614919705612
1589985619.524307,-3.785894598422011,-0.49821080315597815,9.077156787376087,0.2855555555555556,-0.38333333333333336,-0.59,0.0017338317234149112,-0.0019864904656524576,0.002181661564992912
1589985619.534307,-3.7854825247782995,-0.49,9.119034950443401,0.2855555555555556,-0.38333333333333336,-0.59,0.002181661564992912,-0.0005980506793968572,0.003660001874291708
1589985619.544307,-3.7830589016223812,-0.4961178032447629,9.117764393510475,0.2872549453457675,-0.38571247903963,-0.59,0.002515335970025115,0.0006673488100644062,0.006788851532611093
1589985619.554307,-3.79,-0.5050351579192728,9.09,0.2911111111111111,-0.3911111111111111,-0.59,0.003272492347489368,0.002181661564992912,0.009817477042468105
1589985619.564307,-3.771572092770331,-0.4777147285135539,9.016288371081323,0.2911111111111111,-0.3911111111111111,-0.59,0.003272492347489368,0.0008415463341187753,0.01115759227334224
1589985619.574307,-3.765258411639891,-0.45948317672021827,8.991033646559563,0.2911111111111111,-0.3911111111111111,-0.59,0.0009780774339571132,0.0011472074567661274,0.014867157249376334
1589985619.584307,-3.7857272029938867,-0.46179540224541504,9.037522605239301,0.2911111111111111,-0.3911111111111111,-0.59,-0.002377509568619109,3.7196921455156726e-05,0.017882185448650844
1589985619.594307,-3.796080625787361,-0.4846397914042129,9.075360208595788,0.2797693987897017,-0.3911111111111111,-0.5863912733522788,-0.004363323129985824,-0.002766369618681576,0.017531877844824167
1589985619.604307,-3.7713887219824835,-0.48569436099124197,9.061388721982484,0.26666666666666666,-0.3911111111111111,-0.5822222222222222,-0.002484633702357507,-0.0026513339218999913,0.014953444666725602
1589985619.614307,-3.7681501852488446,-0.48,9.02962453687789,0.26666666666666666,-0.3911111111111111,-0.5822222222222222,-0.0004445236476244104,-0.003272492347489368,0.01175639844708424
1589985619.624307,-3.7740304002168217,-0.48,9.041787198482249,0.26666666666666666,-0.3911111111111111,-0.5822222222222222,0.00021153385803854394,-0.003272492347489368,0.010468659362735604
1589985619.634307,-3.7885980821547784,-0.4985980821547782,9.097897123232167,0.26666666666666666,-0.3911111111111111,-0.5822222222222222,0.002105198807987961,-0.003272492347489368,0.01090830782496456
1589985619.644307,-3.816215205650187,-0.52,9.133107602825094,0.27633476434473525,-0.38869408669159394,-0.5780787517887642,0.003950466111766351,-0.0022555317010738932,0.011586281589241541
1589985619.654307,-3.8335793522684343,-0.5378967613421712,9.136420647731567,0.2977777777777777,-0.38333333333333336,-0.5688888888888889,0.004673260385320961,-0.0007808935271613191,0.01465175644428011
1589985619.6643069,-3.8182637557851433,-0.5591318778925717,9.059357206301716,0.2977777777777777,-0.38333333333333336,-0.5688888888888889,0.00030867181181109095,-0.0039599538863998775,0.019824348948485917
1589985619.6743069,-3.8059292480287876,-0.5262830078848495,9.02371699211515,0.2977777777777777,-0.38333333333333336,-0.5688888888888889,-0.00347522281836451,-0.006100934539168079,0.02116983502324332
1589985619.6843069,-3.7849462284442095,-0.48494622844420965,9.050021508622317,0.2977777777777777,-0.38333333333333336,-0.5688888888888889,-0.0032701461207582144,-0.005998396190364931,0.017446253839749834
1589985619.6943069,-3.754460290228036,-0.4516904353420545,9.05723014511402,0.292545829659812,-0.38333333333333336,-0.5731975520448607,-0.0024838058622606326,-0.004849865317946839,0.013274367280650764
1589985619.7043068,-3.74058881800531,-0.4305888180053097,9.04941118199469,0.2788888888888889,-0.38333333333333336,-0.5844444444444444,-0.0030155720252973907,-0.003144032186393379,0.011036767986060549
1589985619.7143068,-3.7594832319721982,-0.4463221546481321,9.027355690703736,0.2788888888888889,-0.38333333333333336,-0.5844444444444444,0.0014356508275907309,-5.637064721363081e-05,0.013434789435051745
1589985619.7243068,-3.777995813304388,-0.4630062800434176,9.00501046673903,0.2788888888888889,-0.38333333333333336,-0.5844444444444444,0.0025095958462093802,0.002181661564992912,0.01516460301610333
1589985619.7343068,-3.766689163854518,-0.49,9.070067491563554,0.2788888888888889,-0.38333333333333336,-0.5844444444444444,0.005089316620398725,0.0018168242729093577,0.02509278909117269
1589985619.7443068,-3.7747086828383587,-0.4758898209022897,9.117055089548854,0.2788888888888889,-0.38333333333333336,-0.5869921156704199,0.0039785276873278135,0.0012832285038254614,0.02880995133304344
1589985619.7543068,-3.7426120839827632,-0.4026120839827634,9.146306041991382,0.2788888888888889,-0.38333333333333336,-0.5988888888888889,0.0009728166334778605,0.0009728166334778605,0.037609209064403105
1589985619.7643068,-3.7270407083806765,-0.3870407083806763,9.095610625710144,0.2788888888888889,-0.38333333333333336,-0.5988888888888889,-0.0017364480610448816,0.0005232124138746077,0.04036073895236887
1589985619.7743068,-3.7240538072611056,-0.4043228435666334,9.006215229044422,0.2788888888888889,-0.38333333333333336,-0.5988888888888889,-0.002830290572817208,0.003036717805969343,0.03814973007900807
1589985619.7843068,-3.7373282525268903,-0.4436641262634452,9.033664126263444,0.2788888888888889,-0.38333333333333336,-0.5988888888888889,-0.0019818144790369236,0.0012906778684524441,0.033307808352238684
1589985619.7943068,-3.7725051835068295,-0.4675155505204882,9.057515550520488,0.28362090217956665,-0.38333333333333336,-0.5952702904901354,-0.001090830782496456,0.001635115307982525,0.024540300008883784
1589985619.8043067,-3.7873098172545685,-0.49,9.08730981725457,0.2977777777777777,-0.38333333333333336,-0.5844444444444444,-0.0008250383266395493,-0.0007973773675707201,0.018837576717365488
1589985619.8143067,-3.805791614710031,-0.4984167705799383,9.051082605940431,0.2977777777777777,-0.38333333333333336,-0.5844444444444444,0.0,-0.004649683213160449,0.01865777984689864
1589985619.8243067,-3.7960812483805024,-0.4904062419025135,8.993512509716984,0.2977777777777777,-0.38333333333333336,-0.5844444444444444,0.00042746948955055025,-0.006544984694978735,0.022244085139479668
1589985619.8343067,-3.7776286393345218,-0.4558762131115072,9.050618934442463,0.2977777777777777,-0.38333333333333336,-0.5844444444444444,0.0019905015181810952,-0.006095149327136416,0.021108104961056296
1589985619.8443067,-3.76,-0.4422610340479193,9.08773896595208,0.2857393862967633,-0.39107229928541404,-0.5865941572089113,0.0024283021189672052,-0.004609963683960117,0.01812202818817867
1589985619.8543067,-3.7555493788082615,-0.4166481364247844,9.095549378808261,0.26666666666666666,-0.4033333333333333,-0.59,0.00011985586306056256,-0.0018160299683355281,0.0164823176005074
1589985619.8643067,-3.754086603518268,-0.4,9.065480378890392,0.26666666666666666,-0.4033333333333333,-0.59,-0.0019823893652134513,-0.00044577929135849754,0.015271630954950384
1589985619.8743067,-3.76,-0.4085043999688498,9.03850439996885,0.26666666666666666,-0.4033333333333333,-0.59,-0.002808649283855206,-0.000163144655228132,0.01619931708221871
1589985619.8843067,-3.7644408688656474,-0.42,9.06110217216412,0.26666666666666666,-0.4033333333333333,-0.59,-0.002181661564992912,-0.00012022833242318143,0.016000021582039732
1589985619.8943067,-3.77943791901314,-0.42,9.09859479753285,0.26666666666666666,-0.4033333333333333,-0.59,-0.002181661564992912,-0.004210039319305174,0.011092248397781338
1589985619.9043067,-3.772655559048517,-0.4432777952425862,9.11,0.27111111111111114,-0.3911111111111111,-0.5822222222222222,-0.004073646574499864,-0.004652999685471784,0.01222093972349959
1589985619.9143066,-3.78,-0.48,9.093159675000871,0.27111111111111114,-0.3911111111111111,-0.5822222222222222,-0.0027476367790238345,-0.004404442775551213,0.008505338121304272
1589985619.9243066,-3.783293158917577,-0.4865863178351542,9.046586317835153,0.27111111111111114,-0.3911111111111111,-0.5822222222222222,0.00034608086508187844,-0.002168514518180207,0.006159462689458742
1589985619.9343066,-3.7895128197990036,-0.5,9.060243590100498,0.27111111111111114,-0.3911111111111111,-0.5822222222222222,0.003272492347489368,-0.00423046534001834,0.009923763274442093
1589985619.9443066,-3.77,-0.4956666247800955,9.074333375219904,0.2704691295970512,-0.3938395325458658,-0.5812592499511323,0.003430058316888674,0.001090830782496456,0.013865668233655313
1589985619.9543066,-3.7687036524078983,-0.47043211586403383,9.098703652407899,0.26666666666666666,-0.41,-0.5755555555555556,0.004363323129985824,0.001137967311105776,0.012046275136070336
1589985619.9643066,-3.743596169807883,-0.46201915096058466,9.0484229811527,0.26666666666666666,-0.41,-0.5755555555555556,0.004363323129985824,0.0029662241100975556,0.011913125572300506
1589985619.9743066,-3.752941679981739,-0.438825039945218,9.024708399908697,0.26666666666666666,-0.41,-0.5755555555555556,0.0027588855918183877,0.0037215481147188493,0.008854814519567643
1589985619.9843066,-3.7632255947805544,-0.4632255947805546,9.069676784341665,0.26666666666666666,-0.41,-0.5755555555555556,-0.001442688590345338,0.0014779459492951477,0.004433837847885443
1589985619.9943066,-3.763721583744641,-0.47418561083690597,9.087907194581547,0.270619743568189,-0.4060469230984776,-0.5799737003278452,-0.002409951222215303,0.0,0.0
1589985620.0043066,-3.736087849735864,-0.49391215026413615,9.08,0.2855555555555556,-0.3911111111111111,-0.5966666666666667,-0.0028457429541022296,0.0008534987867742765,0.00042674939338713827
1589985620.0143065,-3.723868803261516,-0.5183935902154526,9.05240961467682,0.2855555555555556,-0.3911111111111111,-0.5966666666666667,-0.0011784468446108482,0.0028504713785809546,0.002762855316466562
1589985620.0243065,-3.6926361248208885,-0.5217994746059545,8.993472775035823,0.2855555555555556,-0.3911111111111111,-0.5966666666666667,0.0007120097915204338,0.0054997861029138905,0.010333194604738957
1589985620.0343065,-3.6570480479026455,-0.4381921916105812,9.001475976048678,0.2855555555555556,-0.3911111111111111,-0.5966666666666667,-0.0011270280756873197,0.0106948916829122,0.019224336638880513
1589985620.0443065,-3.6435090947239304,-0.3840363788957214,9.008245452638034,0.2855555555555556,-0.3911111111111111,-0.5966666666666667,-0.006296075487229501,0.024725163228526685,0.0273471254284468
1589985620.0543065,-3.5203033373183925,-0.26680148325261904,8.91525278109866,0.2911111111111111,-0.38333333333333336,-0.6044444444444445,-0.03647113844868168,0.08926062001022585,0.04852542533687315
1589985620.0643065,-3.3737244340359096,-0.20687587822014053,8.805184231069477,0.2911111111111111,-0.38333333333333336,-0.6044444444444445,-0.0733386568265441,0.18516890852459864,0.05706696992236357
1589985620.0743065,-3.5085063834031516,-0.43432907773123214,9.322835461134384,0.2911111111111111,-0.38333333333333336,-0.6044444444444445,-0.11178663622980956,0.28039317839185546,0.06377352603654342
1589985620.0843065,-3.5294234989028523,-0.42038433406476494,9.329807832967617,0.2911111111111111,-0.38333333333333336,-0.6044444444444445,-0.09429357723759395,0.26442125496418034,0.0516044415202195
1589985620.0943065,-2.598758882320091,-0.38656126634443183,9.067343873365557,0.29288186220073986,-0.3853992096045669,-0.6044444444444445,-0.040821215787723006,0.04458867714536015,-0.006425123337260992
1589985620.1043065,-2.022813961856783,-0.5102302986685858,9.072177042101476,0.2977777777777777,-0.3911111111111111,-0.6044444444444445,-0.020345426814809754,0.008162978392513962,-0.04358691318818693
1589985620.1143064,-1.7826517104285902,-0.7401662370571017,8.936134606142689,0.2977777777777777,-0.3911111111111111,-0.6044444444444445,0.021744081050297872,0.09540280017484422,-0.04391069282354623
1589985620.1243064,-1.7972486799094796,-0.6459964797586121,8.677248679909479,0.2977777777777777,-0.3911111111111111,-0.6044444444444445,0.02574130247431566,0.02211289812698536,0.012547433989460111
1589985620.1343064,-1.8882710607465143,-0.62526324750752,8.847669838627292,0.2977777777777777,-0.3911111111111111,-0.6044444444444445,-0.011843332171322454,-0.019487299111350588,0.07419298186439141
1589985620.1443064,-2.0907148952931136,-0.6485702094137727,9.104995732948204,0.2959919618955921,-0.3911111111111111,-0.600575176699709,-0.011939953178344403,-0.007635815477475192,0.13600432079509608
1589985620.1543064,-2.1388269356137593,-0.5937653871227518,8.93765387122752,0.2911111111111111,-0.3911111111111111,-0.59,0.012908296724835634,-0.004349895332264408,0.21007220631575696
1589985620.1643064,-2.2043622611706812,-0.6114540870568937,9.022908174113788,0.2911111111111111,-0.3911111111111111,-0.59,-0.008265409830569422,-0.008592384046470369,0.25918084388346196
1589985620.1743064,-2.29,-0.6129876278093658,9.057489689841137,0.2911111111111111,-0.3911111111111111,-0.59,-0.010851741890881127,-0.027322836841031255,0.3194617160910656
1589985620.1843064,-2.315411111318885,-0.5727396824803186,9.022739682480319,0.2911111111111111,-0.3911111111111111,-0.59,-0.0070381094807156295,-0.021121773759490998,0.369067012106484
1589985620.1943064,-2.337959890689217,-0.5616953930239064,9.02356314419125,0.2901692260978298,-0.3911111111111111,-0.5924489010345314,-0.011112047871702866,-0.02329612516905456,0.4086571382212799
1589985620.2043064,-2.2360970091027306,-0.57087100130039,9.079547984395319,0.2855555555555556,-0.3911111111111111,-0.6044444444444445,-0.017073246507919304,-0.030733284915912765,0.45341276551479176
1589985620.2143064,-2.2896852198034128,-0.5779370439606826,8.965874087921366,0.2855555555555556,-0.3911111111111111,-0.6044444444444445,-0.013315002985019907,-0.030924654714394192,0.5046885862460133
1589985620.2243063,-2.2355496704059212,-0.5627748352029606,8.935549670405921,0.2855555555555556,-0.3911111111111111,-0.6044444444444445,-0.009846012479382719,-0.03463821064336953,0.5548445744143778
1589985620.2343063,-2.229963969344083,-0.5557039912411665,8.9271119737235,0.2855555555555556,-0.3911111111111111,-0.6044444444444445,-0.005603810640917943,-0.049406350343505843,0.5910531150406318
1589985620.2443063,-2.2726009930730093,-0.5589014896095138,8.975549255195244,0.2828836919430312,-0.3919332229918878,-0.5991007172193956,-0.013171917107970674,-0.03967346139566572,0.6267360136273828
1589985620.2543063,-2.215976035053206,-0.527159974961996,9.017159974961997,0.27111111111111114,-0.3955555555555556,-0.5755555555555556,-0.010598509151513003,-0.04407217778302323,0.6627669531730839
1589985620.2643063,-2.1783064818284004,-0.5544623454477333,9.0416935181716,0.27111111111111114,-0.3955555555555556,-0.5755555555555556,-0.01569096118456498,-0.04908738521234052,0.6861149879213884
1589985620.2743063,-2.2049246447925372,-0.54,9.032311611981344,0.27111111111111114,-0.3955555555555556,-0.5755555555555556,-0.019097758671680155,-0.04908738521234052,0.7046109256687731
1589985620.2843063,-2.214576304052744,-0.5372881520263719,9.067288152026372,0.27111111111111114,-0.3955555555555556,-0.5755555555555556,-0.018044925969360127,-0.048495751762923686,0.7207248221297521
1589985620.2943063,-2.205671525247267,-0.5243284747527329,9.065671525247268,0.27315916189484646,-0.3976036063392909,-0.578863945283128,-0.019789620943021828,-0.04736972422160446,0.7285202958495469
1589985620.3043063,-2.2510106345351226,-0.47898936546487775,9.1,0.2855555555555556,-0.41,-0.5988888888888889,-0.02032542689790833,-0.04617463629959367,0.7231801942603685
1589985620.3143063,-2.27,-0.4537021897810219,9.046468613138686,0.2855555555555556,-0.41,-0.5988888888888889,-0.01963495408493621,-0.040300384957249726,0.7100891171183294
1589985620.3243062,-2.2652930213294677,-0.4329395319942017,8.934706978670532,0.2855555555555556,-0.41,-0.5988888888888889,-0.018608050639662057,-0.04254240051736178,0.6927404577100426
1589985620.3343062,-2.237748913472936,-0.40264934808376135,8.96715152113789,0.2855555555555556,-0.41,-0.5988888888888889,-0.015004353708895394,-0.043611509501581734,0.6661368279994366
1589985620.3443062,-2.2061612236461348,-0.37794625878462174,9.025134353038446,0.28213265352992517,-0.4093154195948739,-0.601741307243581,-0.013956771758752297,-0.04645766681994435,0.6334314110726926
1589985620.3543062,-2.2673847122396515,-0.3427690047741461,9.062615287760348,0.25222222222222224,-0.4033333333333333,-0.6266666666666667,-0.011462107178734991,-0.04254240051736178,0.579432360606151
1589985620.3643062,-2.284478245415961,-0.284478245415961,9.026195613539903,0.25222222222222224,-0.4033333333333333,-0.6266666666666667,-0.011323302010883262,-0.04073541055526359,0.5230959976894959
1589985620.3743062,-2.2651666639150747,-0.27,8.99,0.25222222222222224,-0.4033333333333333,-0.6266666666666667,-0.014480778187412299,-0.03547018064402431,0.4697799066892562
1589985620.3843062,-2.237468260388635,-0.27,8.99,0.25222222222222224,-0.4033333333333333,-0.6266666666666667,-0.009948637508514921,-0.032448753524759406,0.4176602888819363
1589985620.3943062,-2.2502044750430295,-0.24002271944922546,9.130022719449226,0.25222222222222224,-0.40340906483075156,-0.6266666666666667,-0.007635815477475192,-0.022885141665306717,0.32050102884243065
1589985620.4043062,-2.3203024775801793,-0.24507561939504485,9.112915906672747,0.25222222222222224,-0.43666666666666665,-0.6266666666666667,-0.0057557323954604295,-0.011747052902804068,0.20815796231021014
1589985620.4143062,-2.2618167751574,-0.22878881656173303,9.028183224842598,0.25222222222222224,-0.43666666666666665,-0.6266666666666667,-0.00019817942665672995,-0.007437636050818462,0.13149929579485156
1589985620.4243062,-2.29,-0.2115988689825595,8.992005655087203,0.25222222222222224,-0.43666666666666665,-0.6266666666666667,-0.0024004445958120107,-0.003316865827972995,0.022701000888002632
1589985620.4343061,-2.2859799792467803,-0.21865999308226006,8.962060062259658,0.25222222222222224,-0.43666666666666665,-0.6266666666666667,0.0023278336444558035,0.00291252196230737,-0.07912239619304294
1589985620.4443061,-2.2603784410669596,-0.21012614702231988,9.03886467679912,0.25222222222222224,-0.43666666666666665,-0.6266666666666667,0.0032587318419826884,0.007567012949941793,-0.17314311414325828
1589985620.4543061,-2.322060673325934,-0.22198483166851646,9.048091009988902,0.25222222222222224,-0.43,-0.6344444444444445,0.01024222709743574,0.01612940410633633,-0.3124534045681497
1589985620.464306,-2.293847576766556,-0.2290381058083611,9.005771365149833,0.25222222222222224,-0.43,-0.6344444444444445,0.015627977081825842,0.02305393980055218,-0.39554783289873985
1589985620.474306,-2.3639852318775327,-0.25,9.036014768122467,0.25222222222222224,-0.43,-0.6344444444444445,0.015263576193656847,0.03228214735286027,-0.5568831513594267
1589985620.484306,-2.379093021161639,-0.25,9.02090697883836,0.25222222222222224,-0.43,-0.6344444444444445,0.023503596996943446,0.038874163995489555,-0.6541153968382086
1589985620.494306,-2.2706539920766344,-0.29039239524598065,9.02078479049196,0.25246928589561746,-0.43008719894355124,-0.6344444444444445,0.026208474567463006,0.050192483888611,-0.7903399993164996
1589985620.504306,-2.3146129498815684,-0.31676776992894123,9.073535539857883,0.26907600328859266,-0.4359483933175425,-0.6344444444444445,0.02812654594106641,0.05115151957541271,-0.902547174672299
1589985620.514306,-2.4541436291017305,-0.3360615553293132,9.06181533401206,0.27111111111111114,-0.43666666666666665,-0.6344444444444445,0.03011364424170634,0.07069478756550922,-1.0692715615640194
1589985620.524306,-2.5072187564068766,-0.3631288990422634,8.988957033652579,0.27111111111111114,-0.43666666666666665,-0.6344444444444445,0.03291454010770616,0.07432818651600899,-1.1735800880846379
1589985620.534306,-2.4494344073760987,-0.4535335286138361,8.97766764306918,0.27111111111111114,-0.43666666666666665,-0.6344444444444445,0.03740818103081508,0.08162340176598837,-1.3122306377661523
1589985620.544306,-2.539919030941747,-0.47006072679368954,9.059898788677184,0.2711515956402375,-0.4366531718236245,-0.6345164169406692,0.0338312108770952,0.09599310885968812,-1.4139463353224537
1589985620.554306,-2.5070335422994896,-0.5093780563993192,9.021722570499149,0.2911111111111111,-0.43,-0.67,0.04298605062492013,0.09880632382478859,-1.553760764255988
1589985620.564306,-2.5398697211769106,-0.5526896415131709,9.0459003983187,0.2911111111111111,-0.43,-0.67,0.04815035722519308,0.10922266982994132,-1.6566049875909679
1589985620.574306,-2.6007606223035693,-0.6338031115178455,8.962281866910708,0.2911111111111111,-0.43,-0.67,0.04950224032363378,0.11688483577163808,-1.7619381453688734
1589985620.584306,-2.6139163616425365,-0.6848954520531706,8.994895452053171,0.2911111111111111,-0.43,-0.67,0.0545415391248228,0.11996857725088045,-1.8675106246121187
1589985620.594306,-2.6387784709770155,-0.7159730887212696,9.025973088721269,0.2911111111111111,-0.43,-0.67,0.0545415391248228,0.1267486657958411,-1.9298874392257566
1589985620.604306,-2.5859532424158087,-0.7757476839887082,9.058299073595483,0.3399086406990665,-0.4117009264045167,-0.6750830759987454,0.05753571804019098,0.13978945950163887,-2.053854979872921
1589985620.614306,-2.556867105772956,-0.8802425416505231,9.083132894227044,0.34444444444444444,-0.41,-0.6755555555555556,0.05529062416120278,0.13651149209019384,-2.141827772115559
1589985620.624306,-2.569374789286383,-0.9521882374976587,8.93968739464319,0.34444444444444444,-0.41,-0.6755555555555556,0.059177661891592535,0.14889858569308584,-2.265554338675263
1589985620.634306,-2.553662858213148,-1.0071799962539802,8.931831429106573,0.34444444444444444,-0.41,-0.6755555555555556,0.06603328511845133,0.1626098321468034,-2.3452509586874957
1589985620.644306,-2.597752733389403,-1.153089991589571,8.997190916736754,0.34534959349593497,-0.40856424633211846,-0.6769913092234371,0.0667245318019325,0.1747474216140231,-2.474702933561465
1589985620.654306,-2.527201009251472,-1.2500986122792261,8.90900126156434,0.3737662601626016,-0.36348953368844034,-0.7220660218671152,0.07249653123552151,0.18148142095321027,-2.565130924687693
1589985620.664306,-2.6058376034686637,-1.3583247930626725,8.997800551832873,0.37666666666666665,-0.3588888888888889,-0.7266666666666667,0.07493323825398202,0.1841676655124722,-2.6889438855127024
1589985620.674306,-2.583293259755617,-1.4034134804887661,8.877564052029957,0.37666666666666665,-0.3588888888888889,-0.7266666666666667,0.07903191560287734,0.18908607833114655,-2.7659990196719346
1589985620.684306,-2.5327316029548297,-1.6368602914463326,8.966860291446332,0.37666666666666665,-0.3588888888888889,-0.7266666666666667,0.07503271589436095,0.19806198621856594,-2.895034029576558
1589985620.694306,-2.4407061927673444,-1.6205432252056498,8.949945677479434,0.37684170589959815,-0.35862934795730084,-0.7268235983927432,0.07967805246433332,0.2073408080229877,-2.977386812860318
1589985620.704306,-2.547455452306546,-1.7527920693722965,8.927702973985388,0.4088888888888889,-0.3111111111111111,-0.7555555555555555,0.08656876344755991,0.22431800956393003,-3.088797518315886
1589985620.7143059,-2.461996151451695,-1.8889826815326276,8.865028864112288,0.4088888888888889,-0.3111111111111111,-0.7555555555555555,0.08050163250225487,0.23223598444176394,-3.1666670681848554
1589985620.7243059,-2.491469063412646,-1.9975257521903511,8.780463879015644,0.4088888888888889,-0.3111111111111111,-0.7555555555555555,0.08585513189882925,0.24082338678337845,-3.2526690151198356
1589985620.7343059,-2.525627714009127,-2.0954653574885906,8.944534642511409,0.4088888888888889,-0.3111111111111111,-0.7555555555555555,0.07780669236840251,0.24081742137524664,-3.3167524406663644
1589985620.7443058,-2.502425943852856,-2.1244675701839304,8.91553242981607,0.4088888888888889,-0.3111111111111111,-0.7555555555555555,0.07970488275051767,0.24524653226684867,-3.3490216771623222
1589985620.7543058,-2.3938937381404175,-2.2361062618595824,8.892607210626187,0.42038878347037745,-0.30125405861269233,-0.7341986084756483,0.08072147790473774,0.2629407238398867,-3.4058187776496616
1589985620.7643058,-2.3314922974493193,-2.3819383795945543,8.848061620405446,0.4244444444444445,-0.2977777777777777,-0.7266666666666667,0.07057843206339795,0.26222227662513,-3.474979035503737
1589985620.7743058,-2.33874201853759,-2.4688697219361484,8.790063851699278,0.4244444444444445,-0.2977777777777777,-0.7266666666666667,0.06940846174878003,0.2765221207928972,-3.5086885550294404
1589985620.7843058,-2.33,-2.610741203134604,8.86,0.4244444444444445,-0.2977777777777777,-0.7266666666666667,0.07317219306516419,0.27287507898154645,-3.548039882271463
1589985620.7943058,-2.33,-2.667133527965581,8.86,0.4244444444444445,-0.2977777777777777,-0.7266666666666667,0.06789952302326396,0.2737538573218632,-3.574403232480964
1589985620.8043058,-2.1674102645550666,-2.6338689476789034,8.869032763080273,0.4886774263486158,-0.27369040956371354,-0.7527613155652362,0.07452875972805262,0.26591595359144204,-3.5905231290518236
1589985620.8143058,-2.2453144388042863,-2.792202834179357,8.917062887760856,0.4955555555555556,-0.27111111111111114,-0.7555555555555555,0.07425659052081161,0.2536524568831187,-3.593036402921221
1589985620.8243058,-2.0974612239142694,-2.8143808164128594,8.887492244782855,0.4955555555555556,-0.27111111111111114,-0.7555555555555555,0.07506300471127708,0.23752417307380935,-3.5914235745402894
1589985620.8343058,-2.052878299194515,-2.850791300089498,8.862878299194515,0.4955555555555556,-0.27111111111111114,-0.7555555555555555,0.06648565634476769,0.22810124705340654,-3.573758003683004
1589985620.8443058,-1.9891340617031696,-2.8578739931440924,8.79913406170317,0.4955555555555556,-0.27111111111111114,-0.7555555555555555,0.07575687987307764,0.2389176745031015,-3.5559881585870765
1589985620.8543057,-1.7959900426742532,-2.804873399715505,8.844441678520626,0.4744444444444445,-0.25,-0.7033333333333334,0.07718318283599426,0.2246613322780279,-3.521301383731044
1589985620.8643057,-1.9471343153650547,-3.0543712629722113,8.873917894206318,0.4744444444444445,-0.25,-0.7033333333333334,0.06493475670927015,0.24468575695925224,-3.47344596342763
1589985620.8743057,-1.7986795632739796,-2.9917605823013607,8.68955985442466,0.4744444444444445,-0.25,-0.7033333333333334,0.08408999512069923,0.22323621093788498,-3.424090915846509
1589985620.8843057,-1.7663610998458918,-3.0322743125963174,8.685913212750426,0.4744444444444445,-0.25,-0.7033333333333334,0.08503442233024198,0.21479442854423855,-3.373739617245012
1589985620.8943057,-1.7119294346662342,-3.0662941033336035,8.77436466866737,0.4744444444444445,-0.25,-0.7033333333333334,0.06796389825309504,0.21331003514622573,-3.3381141756927053
1589985620.9043057,-1.69,-3.12197392237045,8.910737413689079,0.49683053637535096,-0.125010986719105,-0.6315112883883414,0.067496626341534,0.20080752647502004,-3.2733963030245183
1589985620.9143057,-1.680511772817815,-3.18692936309311,9.23362326982992,0.5011111111111111,-0.10111111111111112,-0.6177777777777778,0.0718273543817708,0.2037062275551785,-3.1902803442297025
1589985620.9243057,-1.526862598493127,-3.059833208719158,8.507283602691667,0.5011111111111111,-0.10111111111111112,-0.6177777777777778,0.10790993482053754,0.17976354255713095,-3.1261797987266706
1589985620.9343057,-1.3124599670376627,-2.9414798461757585,8.987200439497833,0.5011111111111111,-0.10111111111111112,-0.6177777777777778,0.0465458273945106,0.19284364307511764,-3.0266060782492086
1589985620.9443057,-1.3380625470527194,-3.06095855291269,8.645832705963741,0.5011111111111111,-0.10111111111111112,-0.6177777777777778,-0.013965017787620056,0.16770836892254026,-2.965164296987352
1589985620.9543056,-1.4956168402523105,-3.3356168402523103,9.49679938808441,0.52,0.024444444444444446,-0.5877777777777777,0.004775707868061557,0.17631893515430308,-2.852115689199475
1589985620.9643056,-1.3146218295108514,-3.1571316424057874,8.518605072782638,0.52,0.024444444444444446,-0.5877777777777777,0.14351176600939672,0.18575412230029495,-2.757842040058529
1589985620.9743056,-1.2038822100575572,-3.0980705120306973,8.695788463907908,0.52,0.024444444444444446,-0.5877777777777777,0.08874992180653957,0.19219669220651345,-2.6950269834728995
1589985620.9843056,-1.2568907328359995,-3.2085504847010013,9.190461961941995,0.52,0.024444444444444446,-0.5877777777777777,0.0017417086703090988,0.10730938487334314,-2.589105117471888
1589985620.9943056,-1.2234260182710337,-3.3005784497546578,8.87254717357482,0.52,0.024444444444444446,-0.5877777777777777,0.06744952206516923,0.1821432834619338,-2.4777668781083753
1589985621.0043056,-1.1617247167436004,-3.2655224506924045,9.257744439781789,0.5466666666666666,0.12444444444444445,-0.5877777777777777,0.09160987337593032,0.14645353097177607,-2.361344694612768
1589985621.0143056,-1.1793256399496432,-3.42393075954679,8.82652182123374,0.5466666666666666,0.12444444444444445,-0.5877777777777777,0.05801052291729185,0.14933347529680221,-2.269186476211931
1589985621.0243056,-1.11,-3.4708603933736337,8.868107134578006,0.5466666666666666,0.12444444444444445,-0.5877777777777777,0.09477088197640948,0.1385167385055096,-2.1448028093128326
1589985621.0343056,-1.11,-3.50825674494909,8.785835161112002,0.5466666666666666,0.12444444444444445,-0.5877777777777777,0.08905984917319007,0.13770087667647826,-2.059953179093573
1589985621.0443056,-1.1172256962756475,-3.6211597478590623,8.955093799442476,0.5466666666666666,0.12444444444444445,-0.5877777777777777,0.06756143279360129,0.1287744654798628,-1.957641264117912
1589985621.0543056,-1.0388463660003677,-3.513923458800662,8.843346641800846,0.5538803230221896,0.1893673516441503,-0.5994999693555024,0.0449464630840026,0.12367504234552745,-1.837408194913137
1589985621.0643055,-1.0552661341447953,-3.665147204260175,8.782366932927602,0.5555555555555556,0.20444444444444448,-0.6022222222222222,0.0635714659401207,0.10499092068732335,-1.7104424449184212
1589985621.0743055,-0.962042086963553,-3.584506862883826,8.855352240797268,0.5555555555555556,0.20444444444444448,-0.6022222222222222,0.04105974915684314,0.10418202443050174,-1.6058256686110708
1589985621.0843055,-0.87276644863409,-3.4927664486340904,8.698760420674619,0.5555555555555556,0.20444444444444448,-0.6022222222222222,0.05353563001540257,0.09431440184940533,-1.4586699887535035
1589985621.0943055,-0.8299135030283836,-3.522069197577293,8.730086496971616,0.5555555555555556,0.20444444444444448,-0.6022222222222222,0.05803974591355,0.099058757477786,-1.357660467292463
1589985621.1043055,-0.82,-3.447354387781517,9.061399603071878,0.5433117611528174,0.25648057065608193,-0.6103847518240477,0.036867614336851914,0.06730056011273888,-1.2409285898854394
1589985621.1143055,-0.7302158383508521,-3.30033574854577,9.06007194611695,0.5422222222222223,0.2611111111111111,-0.6111111111111112,0.05884730949283795,0.07197651940232086,-1.1107587324605153
1589985621.1243055,-0.6798797221461812,-3.278519880919792,8.916799206131946,0.5422222222222223,0.2611111111111111,-0.6111111111111112,0.03937888300115829,0.06418443994330596,-1.0292376628862068
1589985621.1343055,-0.6691969372573212,-3.2883938745146426,8.455334760677868,0.5422222222222223,0.2611111111111111,-0.6111111111111112,0.05470838790183852,0.0751317469907658,-0.8826510893810516
1589985621.1443055,-0.7247144693352919,-3.4359052515607784,8.784763128901947,0.5422222222222223,0.2611111111111111,-0.6111111111111112,0.030196877401417986,0.03524235367773545,-0.8189488213381594
1589985621.1543055,-0.7309900462140064,-3.4792325808745113,8.715395485247067,0.5583388632144409,0.2893152328474938,-0.6159461034087768,0.017836711978241687,0.03562485426024886,-0.6980748422611219
1589985621.1643054,-0.7420613638233117,-3.504122727646623,8.92356666940857,0.5644444444444444,0.3,-0.6177777777777778,0.02123930173575768,0.03217793783286864,-0.5827828733055324
1589985621.1743054,-0.7226155343463518,-3.583897086525179,8.757027188245637,0.5644444444444444,0.3,-0.6177777777777778,0.014846524760578645,0.024283587752689767,-0.44551266157572444
1589985621.1843054,-0.6919494843391901,-3.5712996562261266,8.860902406417111,0.5644444444444444,0.3,-0.6177777777777778,0.016220691235634608,0.017878604025379986,-0.31998763714637746
1589985621.1943054,-0.6593232435814709,-3.5316540544768387,8.80864648716294,0.5644444444444444,0.3,-0.6177777777777778,0.013016146716599104,0.009087504967823958,-0.22664657076236916
1589985621.2043054,-0.6596789064766756,-3.4135320287565687,8.799678906476677,0.6784404540586235,0.3860347242371163,-0.6392864588370568,0.014110748432593422,0.001265960132147713,-0.08457432359706539
1589985621.2143054,-0.6505686843559978,-3.3534121061359867,8.611373687119956,0.6822222222222222,0.3888888888888889,-0.64,0.0008064399213605286,-0.02257149889251494,0.036561373527927446
1589985621.2243054,-0.6583908681234589,-3.42551781311113,8.792989966839555,0.6822222222222222,0.3888888888888889,-0.64,0.012814224137312123,-0.007522846181235016,0.1607918519838548
1589985621.2343054,-0.6870610927413006,-3.4039185430115992,8.8029389072587,0.6822222222222222,0.3888888888888889,-0.64,-0.005391720124191073,-0.03289842700118116,0.293464110548159
1589985621.2443054,-0.6973189419043423,-3.334129522860919,8.726810580956576,0.6822222222222222,0.3888888888888889,-0.64,-0.003643951915195269,-0.03200555226010312,0.39884222645635786
1589985621.2543054,-0.7076762072185903,-3.3407048288743613,8.661618963907049,1.214439256044486,0.5961464837908281,-1.1116602879867177,-0.01474182625528268,-0.04226608228750455,0.5243303507338654
1589985621.2643054,-0.7820626294692099,-3.539164402356676,9.0193209760297,1.3755555555555556,0.6588888888888889,-1.2544444444444445,-0.01854412330243975,-0.0507279012706418,0.6620117642329172
1589985621.2743053,-0.7707589779700231,-3.444553867820139,8.745729973510379,1.3755555555555556,0.6588888888888889,-1.2544444444444445,-0.023441486429737698,-0.054767163296831955,0.7503923637078778
1589985621.2843053,-0.818249250951494,-3.621318325370475,8.836282290063973,1.3755555555555556,0.6588888888888889,-1.2544444444444445,-0.0207336465517506,-0.06398492366070149,0.8910672389818818
1589985621.2943053,-0.8031035807810543,-3.67,8.814690026186952,1.3755555555555556,0.6588888888888889,-1.2544444444444445,-0.02198210944677263,-0.0707309465139193,0.9783244200373378
1589985621.3043053,-0.8246945994811729,-3.714694599481173,8.787245499567645,1.1822927966878916,0.40230878075622983,-1.0843566630855366,-0.02399827721492203,-0.07892389236166147,1.0919503396614803
1589985621.3143053,-0.8740676037215989,-3.6862704148863954,8.901864792556802,0.8566666666666667,-0.03,-0.7977777777777778,-0.02626130570487215,-0.09074237225959887,1.2717281431917522
1589985621.3243053,-0.9600779260859501,-3.583120129619628,9.005038963042974,0.8566666666666667,-0.03,-0.7977777777777778,-0.0238587357106107,-0.1012464509330348,1.4626100004924387
1589985621.3343053,-0.9682552404438964,-3.3772397392989255,8.785494979742822,0.8566666666666667,-0.03,-0.7977777777777778,-0.040031203142613464,-0.12119299084796609,1.588442729220848
1589985621.3443053,-1.006978381390983,-3.491168930216186,8.776282889912293,0.8566666666666667,-0.03,-0.7977777777777778,-0.04140056553236909,-0.13186365412818307,1.6997948822432076
1589985621.3543053,-1.0655553259207209,-3.695555325920721,8.861112718554955,0.703586574629025,0.10271056366166523,-0.7304966082934917,-0.0436327804129147,-0.12908171774323787,1.7984142459367538
1589985621.3643053,-1.0427333978186184,-3.5364003869117107,8.720933591274473,0.5811111111111111,0.2088888888888889,-0.6766666666666666,-0.04492406531144589,-0.13878091992466132,1.891191385027713
1589985621.3743052,-1.0625888299343678,-3.345939095229713,8.947005054442124,0.5811111111111111,0.2088888888888889,-0.6766666666666666,-0.03967412479196782,-0.14221221834663467,1.972377092236497
1589985621.3843052,-1.102784164987555,-3.377372288728221,8.592001896408677,0.5811111111111111,0.2088888888888889,-0.6766666666666666,-0.04821040225658924,-0.15790089108062957,2.0201799510817455
1589985621.3943052,-1.1756044585987262,-3.543077070063694,8.711392144373672,0.5811111111111111,0.2088888888888889,-0.6766666666666666,-0.06210544314625443,-0.1431545408439687,2.057274918301075
1589985621.4043052,-1.1463298280038017,-3.6715602293282648,8.709494742005703,0.5443371043729752,0.21684002548091824,-0.6756727745926631,-0.043122647446150866,-0.1431841066455124,2.102366457780558
1589985621.4143052,-1.2840463917525773,-3.6399871134020616,8.996095360824743,0.54,0.21777777777777774,-0.6755555555555556,-0.049090196631883035,-0.14660850059338643,2.1386932344148586
1589985621.4243052,-1.32,-3.4379714448615,8.7243486007507,0.54,0.21777777777777774,-0.6755555555555556,-0.05964787313986916,-0.152289451454543,2.17356722431314
1589985621.4343052,-1.386185917810268,-3.4582197210484984,8.73432113076319,0.54,0.21777777777777774,-0.6755555555555556,-0.056926617401191,-0.16168324613366075,2.1921630393951257
1589985621.4443052,-1.389130693069307,-3.502569216921692,8.806284608460846,0.54,0.21777777777777774,-0.6755555555555556,-0.054261281034313526,-0.163654818954009,2.206004725394746
1589985621.4543052,-1.3645574432695735,-3.584684566947844,8.827848402043484,0.5480450939236731,0.195499056142991,-0.687313769751693,-0.05563236990731925,-0.15695534769429137,2.2210005491764555
1589985621.4643052,-1.436481702283775,-3.8154939007612585,8.856481702283775,0.5688888888888889,0.13777777777777778,-0.7177777777777777,-0.05088526003224892,-0.15459832531117867,2.231240489381113
1589985621.4743052,-1.3878031339142667,-3.6747731624399202,8.717651908874213,0.5688888888888889,0.13777777777777778,-0.7177777777777777,-0.044170398644667756,-0.1527906911569227,2.2213033811998786
1589985621.4843051,-2.695412889606358,-4.7663633428535945,7.106630324102819,0.5688888888888889,0.13777777777777778,-0.7177777777777777,-0.038881256526864985,-0.14969774386100712,2.192344500378299
1589985621.4943051,-3.0610871478873243,-7.3948229080364545,-0.33503106876553446,0.5688888888888889,0.13777777777777778,-0.7177777777777777,-0.5929723542030938,1.3385473426786731,1.7221756173905334
1589985621.5043051,-2.9749213402964743,-0.9535171429498206,-0.604123714684226,0.5067915130414725,0.11293882743881122,-0.6184219764219117,-0.9017873558293177,-1.288849529034107,-4.943953719141205
1589985621.514305,-0.43773875539125084,-0.4918032450195112,-0.06096734442390633,0.5022222222222222,0.1111111111111111,-0.6111111111111112,-0.9032078879070654,-1.5391622341024993,-5.4170656658774
1589985621.524305,-0.07373888315310906,-0.6418310420402471,-0.037938560741908024,0.5022222222222222,0.1111111111111111,-0.6111111111111112,-0.9313152989347095,-1.554196430698681,-5.3150945933119935
1589985621.534305,-0.32582115721800115,-0.6836715371127996,-0.16265692577440094,0.5022222222222222,0.1111111111111111,-0.6111111111111112,-1.0570825649666475,-1.467389691372304,-4.934411955808434
1589985621.544305,1.3984532237192662,-0.9722341478267489,2.330907551191292,0.5022222222222222,0.1111111111111111,-0.6111111111111112,-1.1351049194364677,-1.3556349370474134,-4.6968361514054635
1589985621.554305,2.1173636776243274,-1.5975543020164689,3.612218115801076,0.4765131441497907,0.20843833524245897,-0.6533474536586772,0.48971674963999456,0.6969555726072285,-4.567477100757676
1589985621.564305,0.3278171875000002,-0.7599173611111111,0.5529718749999999,0.4711111111111111,0.2288888888888889,-0.6622222222222223,1.4467017125550021,1.7958469322561155,-4.454442952324709
1589985621.574305,0.44499150428401,-0.6966964317992842,1.1407823289107408,0.4711111111111111,0.2288888888888889,-0.6622222222222223,2.272287870006392,2.814440509524003,-4.220505613883599
1589985621.584305,1.0481487922705315,1.5484985507246374,11.340898550724638,0.4711111111111111,0.2288888888888889,-0.6622222222222223,1.2243619607416703,5.070427994260944,-3.536517873239038
1589985621.594305,0.6658581795395282,1.54826807624669,10.192470336156536,0.4711111111111111,0.2288888888888889,-0.6622222222222223,0.8921946004909169,4.569529264406695,-3.2351864903855603
1589985621.604305,-0.6483475689881735,0.18932572273324572,0.7834280551905388,0.4578790699372171,0.24532869762009052,-0.6588139691925828,0.4874801464013496,1.513812960813329,-2.562014441851308
1589985621.614305,2.802688709086671,-0.5136616388639164,13.655792961076148,0.3977777777777778,0.32,-0.6433333333333333,-0.40126384493676703,-0.524477019141094,-2.0147995051063057
1589985621.624305,1.4199515975260955,-1.7474476251008384,13.021026230229545,0.3977777777777778,0.32,-0.6433333333333333,-1.2631615398881566,-0.17555165080589907,-1.6364900087038632
1589985621.634305,-0.05152667657007859,-1.791199863977234,10.463376765163854,0.3977777777777778,0.32,-0.6433333333333333,-0.598497009762854,0.033709176031025925,-1.4005748705819756
1589985621.644305,0.08112298738033075,-2.461087630548303,11.543475032637076,0.3977777777777778,0.32,-0.6433333333333333,0.48063111484278687,0.28882809664696146,-1.1283048013126278
1589985621.654305,0.31027379704066177,-1.891261019845431,8.009903297215425,0.4079436094605616,0.3341192106705331,-0.6297788910896216,0.9242529702853792,0.4441128439194926,-0.9043340502703068
1589985621.664305,0.19549506133503267,-1.4618396527003346,4.895091205990123,0.4177777777777778,0.3477777777777778,-0.6166666666666667,0.10641491345451115,-0.030395764279401494,-0.7321308387070622
1589985621.674305,0.26323791709809946,-3.0615688566752395,11.183264304084974,0.4177777777777778,0.3477777777777778,-0.6166666666666667,-0.47438853119231195,-0.14176500829378524,-0.5421343730848094
1589985621.684305,0.09161598432589085,-3.473482182946243,12.708776684762643,0.4177777777777778,0.3477777777777778,-0.6166666666666667,-0.1781403385292456,-0.017629569064614648,-0.2691313611091992
1589985621.694305,-0.006543011392957802,-2.7277902822436584,9.110924536540828,0.4177777777777778,0.3477777777777778,-0.6166666666666667,0.27788622975450783,0.13225562198072716,0.010579317833697172
1589985621.704305,-0.0417139716816448,-2.2007887761039635,6.854869076097498,0.39751607364783814,0.3759679748281287,-0.6149047793510197,0.036974840262456676,0.03405899957767397,0.2799133004742388
1589985621.714305,-0.13166243436096015,-2.5405615369589447,8.018090061933378,0.3922222222222223,0.38333333333333336,-0.6144444444444445,-0.03449856226055319,0.006462272124069109,0.5195071166995443
1589985621.724305,-0.2280509944960875,-3.0369626216548506,9.762723000379184,0.3922222222222223,0.38333333333333336,-0.6144444444444445,-0.010841250353473948,0.026965275776871113,0.7502973373041617
1589985621.734305,-0.20396684036001894,-2.7126849834201803,8.027130270014212,0.3922222222222223,0.38333333333333336,-0.6144444444444445,-0.00545415391248228,-0.06126252427670267,0.9543315250291671
1589985621.744305,-0.18368585584522826,-2.6683980181668043,8.144011442727379,0.3922222222222223,0.38333333333333336,-0.6144444444444445,-0.06262175522838641,-0.08531552647922235,1.1242697581138612
1589985621.754305,-0.19775124834988234,-2.862009986799059,8.696507490099293,0.40504256825269286,0.38974350634856864,-0.6144444444444445,-0.039354555085899225,-0.09210085333043141,1.2818412441608928
1589985621.7643049,-0.2548672497871352,-3.000151714528988,8.77520860747736,0.4211111111111111,0.3977777777777778,-0.6144444444444445,0.0033800640184314355,-0.08950191000018043,1.4766497523714972
1589985621.7743049,-0.2556913822909513,-2.9256913822909514,8.665106211665522,0.4211111111111111,0.3977777777777778,-0.6144444444444445,-0.05652602089104253,-0.12391968918476885,1.6663893928976343
1589985621.7843049,-0.2828023102169558,-3.01394846766975,8.970189250245088,0.4211111111111111,0.3977777777777778,-0.6144444444444445,-0.06023198313732839,-0.12015828164998082,1.802649478073627
1589985621.7943048,-0.3212291336158928,-3.0743854331920537,9.084552364264912,0.4211111111111111,0.3977777777777778,-0.6144444444444445,-0.04058916950289567,-0.12077764278973754,1.9260115410449579
1589985621.8043048,-0.3606932250032761,-2.9472270999868955,8.618661381208229,0.4211111111111111,0.38839929236011,-0.6297910569460825,-0.03472840124085869,-0.12747596331753142,2.0571938559542753
1589985621.8143048,-0.39181197829716197,-3.09903714524207,8.921698247078464,0.4211111111111111,0.3855555555555555,-0.6344444444444445,-0.02885946261627638,-0.14289387004646428,2.1399949704756707
1589985621.8243048,0.2964879898466022,-3.2287944407013365,7.451846257501449,0.4211111111111111,0.3855555555555555,-0.6344444444444445,-0.37793457143001596,-0.24219258429629076,0.655845834637627
1589985621.8343048,0.36494306323459413,-2.8907290102888945,6.076000878766798,0.4211111111111111,0.3855555555555555,-0.6344444444444445,-0.7107468107108081,-0.20970427964568214,-2.0452659388132197
1589985621.8443048,-1.2985298806497478,-2.570904821405489,9.85918781507174,0.4211111111111111,0.3855555555555555,-0.6344444444444445,0.1522462121956097,0.3686013987745953,-4.36256064354589
1589985621.8543048,0.11403502053888459,-3.6654842303140014,12.675485622780757,0.4622223769407505,0.36234758290979135,-0.6510215677628475,1.060358759135186,0.770672783253826,-3.7931341916885364
1589985621.8643048,-2.598128429181061,-6.434287746393009,10.275429790692948,0.49,0.3466666666666667,-0.6622222222222223,0.6246406066490334,0.4630309561131939,-3.371203777398793
1589985621.8743048,-3.2823101004541075,-6.592165267648273,7.7601448328058344,0.49,0.3466666666666667,-0.6622222222222223,-0.2735909278140424,0.016122477464223198,-1.8785639422111087
1589985621.8843048,-0.026950952765680658,-2.648860228190829,11.501023508778845,0.49,0.3466666666666667,-0.6622222222222223,-0.3117456461418312,-0.19933236019894174,0.512252583487165
1589985621.8943048,-0.02786446866777642,-1.811377329109166,11.733112280513344,0.49,0.3466666666666667,-0.6622222222222223,0.11354006182216012,-0.13148309477986603,1.4202769667250197
1589985621.9043047,0.791178748027354,-3.266314781693845,7.662514466070489,0.4565384300660471,0.36880278216143547,-0.6622222222222223,0.025580136780794543,-0.0002841553937360797,1.5723583781132089
1589985621.9143047,2.625775337103088,-5.353466724662897,8.082207481513702,0.4177777777777778,0.3944444444444444,-0.6622222222222223,-0.2987133814223535,-0.27341229923960214,0.9244238111817704
1589985621.9243047,0.27069557394111543,-3.1066249757439977,9.389606788152486,0.4177777777777778,0.3944444444444444,-0.6622222222222223,-0.1012133057687376,-0.06734328610999202,-0.0033392657314268437
1589985621.9343047,-1.011469174703205,-2.7960479327795285,8.094383016645978,0.4177777777777778,0.3944444444444444,-0.6622222222222223,0.29301199394838784,0.1994713882124391,-0.3270003007691634
1589985621.9443047,-0.9721231369096285,-5.094483365826049,7.475465903611932,0.4177777777777778,0.3944444444444444,-0.6622222222222223,0.12216101952833974,0.10909446608122186,-0.3402930125329021
1589985621.9543047,-0.7400053364957011,-5.063619329973318,8.894252594129854,0.434231577560365,0.38964541950785647,-0.6622222222222223,-0.09529708573188234,-0.08153327850664187,-0.2538627449294779
1589985621.9643047,-0.29683607651245547,-4.268350756227758,8.860124555160143,0.4444444444444444,0.38666666666666666,-0.6622222222222223,-0.013476224417923309,-0.01375196489485997,-0.007993804983608105
1589985621.9743047,-0.13394569448400265,-4.268649007879996,8.844324503939998,0.4444444444444444,0.38666666666666666,-0.6622222222222223,0.01610655716481333,0.009264346195671028,0.03906702793604439
1589985621.9843047,0.02538841252359975,-4.439689269981121,8.813057937382,0.4444444444444444,0.38666666666666666,-0.6622222222222223,0.004747735433155152,-0.011914400140051067,0.00640940314712282
1589985621.9943047,-0.0026537356321839067,-4.359245689655173,8.795307471264367,0.4444444444444444,0.38666666666666666,-0.6622222222222223,-0.004570518287235869,-0.00035953531825386013,-0.0008562081271232958
1589985622.0043046,-0.036656602903894914,-4.317283705923023,8.871193823461626,0.4308722695961691,0.3919204117692249,-0.6617844101303424,-0.005851418444056584,0.0027091520346481466,0.00023118875030738438
1589985622.0143046,-0.0005288414646041073,-4.402211536585841,8.75,0.41,0.4,-0.6611111111111111,-0.001825045036817463,-0.002881786692388858,0.00024124121844531772
1589985622.0243046,-0.054478228885697276,-4.412260833012225,8.718956457771394,0.41,0.4,-0.6611111111111111,0.0158787010022941,0.0035191109718713384,0.003272492347489368
1589985622.0343046,0.0,-4.312117704568864,8.747753801567764,0.41,0.4,-0.6611111111111111,0.013429469736673794,-0.00214549669381917,0.0017698314759291042
1589985622.0443046,0.001210466815562357,-4.250894201340062,8.993053464582127,0.41,0.4,-0.6611111111111111,0.008698102448446317,-0.0007922486781635274,-0.0012228722288570438
1589985622.0543046,-0.0022915988277434074,-4.3566317974601105,8.851562601758385,0.41,0.3972685335938348,-0.6611111111111111,-0.015942033673320376,-0.0056511144038187446,-0.0015112588466229188
1589985622.0643046,-0.04648333265331103,-4.463516667346689,8.755383328573176,0.41,0.38666666666666666,-0.6611111111111111,-0.01752116623748816,-0.0028210097305876565,0.0009629611493775071
1589985622.0743046,-0.05553991549366202,-4.454460084506338,8.580154261569618,0.41,0.38666666666666666,-0.6611111111111111,0.0029205912152406536,-0.004312841149377255,0.0
1589985622.0843046,-0.043138424821002386,-4.367931583134447,8.714964200477327,0.41,0.38666666666666666,-0.6611111111111111,0.012431739359310247,-0.002226787420752511,-0.0005679783191280274
1589985622.0943046,-0.017130426105179123,-4.345695639157769,8.83856521305259,0.41,0.38666666666666666,-0.6611111111111111,0.006080197819906053,-0.001403852736208342,0.00031064892596431365
1589985622.1043046,-0.04,-4.401158497772119,8.78652450668364,0.41,0.38666666666666666,-0.657819789235448,-0.004910057794618356,0.0006292239688722395,0.0007968411241202626
1589985622.1143045,-0.02920336332524987,-4.446194955012125,8.678406726650499,0.41,0.38666666666666666,-0.6533333333333333,-0.006612452392221281,0.000588865181612381,-0.001090830782496456
1589985622.1243045,-0.014988884257329443,-4.419911074058636,8.64496665277199,0.41,0.38666666666666666,-0.6533333333333333,0.00492207645493694,0.0005442028518206927,2.4250788550706035e-06
1589985622.1343045,-0.02655306718597858,-4.367585199610516,8.712765335929893,0.41,0.38666666666666666,-0.6533333333333333,0.012262552467304365,0.0013542446423398067,0.001090830782496456
1589985622.1443045,-0.05,-4.35,8.823522811894952,0.41,0.38666666666666666,-0.6533333333333333,0.011590110910484609,0.002565940730588645,0.0008553135768628817
1589985622.1543045,-0.05,-4.35,8.80270019361565,0.41,0.38666666666666666,-0.6533333333333333,0.0032616614803643463,0.0002945454314649369,9.818181048831223e-05
1589985622.1643045,-0.006713996710215348,-4.416713996710215,8.766572006579569,0.43,0.3944444444444444,-0.6822222222222222,-0.01308996938995747,-0.002784236728483845,-0.00024412780950276133
1589985622.1743045,-0.03135782198633014,-4.4403394554965825,8.716605445034176,0.43,0.3944444444444444,-0.6822222222222222,-0.012719680884997621,-0.001127859632992441,-0.001090830782496456
1589985622.1843045,-0.064347191087562,-4.42173595543781,8.656743257930847,0.43,0.3944444444444444,-0.6822222222222222,0.0015180932165617072,-0.002181661564992912,-0.001090830782496456
1589985622.1943045,-0.0501012159500034,-4.350506079750017,8.749342096324979,0.43,0.3944444444444444,-0.6822222222222222,0.010842062140598564,-0.002181661564992912,-0.001090830782496456
1589985622.2043045,-0.02576062639821029,-4.3363590604026845,8.822119686800896,0.4274092716877952,0.3956220482227193,-0.6777473278647775,0.00618320468713735,0.002810048425155859,0.00023122196116675436
1589985622.2143044,-0.007621525933793592,-4.3814062665958575,8.801458311205524,0.4177777777777778,0.4,-0.6611111111111111,-0.0037913948928468607,0.001090830782496456,0.0013502820551752023
1589985622.2243044,-0.007242798353909465,-4.4282716049382715,8.684650205761317,0.4177777777777778,0.4,-0.6611111111111111,-0.002688920323931593,0.001090830782496456,0.0013915948254070013
1589985622.2343044,-0.026778579251482307,-4.392259526417161,8.655816684920126,0.4177777777777778,0.4,-0.6611111111111111,0.004399946437725517,0.0005978785885558769,0.0002464760969702895
1589985622.2443044,-0.030085241517633296,-4.368136386428214,8.75779542035768,0.4177777777777778,0.4,-0.6611111111111111,0.011999138607461015,-0.0006563581509254957,0.001090830782496456
1589985622.2543044,-0.00917507931929622,-4.332233439092395,8.820824920680703,0.4177777777777778,0.3983009112371674,-0.6587323868431454,0.0066612938323490425,0.0003336152984444983,0.0007572154840519577
1589985622.2643044,-0.01575998689476024,-4.37424001310524,8.781013315859681,0.4177777777777778,0.3944444444444444,-0.6533333333333333,-0.009596405816041872,0.001090830782496456,-0.000517781487944949
1589985622.2743044,-0.014227157730855308,-4.40896954364114,8.688864211345724,0.4177777777777778,0.3944444444444444,-0.6533333333333333,-0.0105596017990624,-0.0004611113775284841,-5.62026758131628e-05
1589985622.2843044,-0.03467485283296542,-4.420650294334069,8.614674852832964,0.4177777777777778,0.3944444444444444,-0.6533333333333333,-0.0029753533332911287,-0.0006518195528410803,0.0016007781198803998
1589985622.2943044,-0.04345814694133024,-4.396167412234679,8.675330351061284,0.4177777777777778,0.3944444444444444,-0.6533333333333333,0.004108633289695651,0.001090830782496456,0.0018044362515930127
1589985622.3043044,-0.04591025150006384,-4.365910251500064,8.793632494999787,0.42035280461107094,0.3952018052777659,-0.6533333333333333,0.009222647234948228,0.001090830782496456,0.0012395382343764253
1589985622.3143044,-0.020297640014089468,-4.340892920042268,8.878511799929553,0.43666666666666665,0.4,-0.6533333333333333,0.00522688148985225,0.0010258958046021618,0.002149194076045765
1589985622.3243043,-0.029531305036984853,-4.368593915110955,8.832343474815076,0.43666666666666665,0.4,-0.6533333333333333,-0.001823774739712341,-0.000988577403844864,0.001141957471822252
1589985622.3343043,-0.02,-4.426158766778523,8.67152369966443,0.43666666666666665,0.4,-0.6533333333333333,-0.0025210591039680572,-0.0009246209327725308,0.001343634476845991
1589985622.3443043,-0.023505728563014194,-4.405977085747943,8.721551557067126,0.43666666666666665,0.4,-0.6533333333333333,0.005623402533444566,-5.6416206987428604e-05,0.00038241566316129486
1589985622.3543043,-0.02763553849902534,-4.372906615497076,8.801280153508772,0.4350903589993502,0.3986864102772363,-0.6533333333333333,0.010709524912815549,-0.0016658160871347257,0.0016066762603546424
1589985622.3643043,-0.02376929434628186,-4.357538588692564,8.836076350883463,0.43,0.3944444444444444,-0.6533333333333333,0.0024333223937646276,-0.002055831150607054,0.0024501598872465466
1589985622.3743043,-0.027560763888888888,-4.382196180555556,8.748289930555556,0.43,0.3944444444444444,-0.6533333333333333,-0.00649195819860738,-0.004389836378171501,0.001090830782496456
1589985622.3843043,-0.020278993055555555,-4.418605034722222,8.653626909722222,0.43,0.3944444444444444,-0.6533333333333333,-0.012846502019475275,-0.0012125644677375537,0.001090830782496456
1589985622.3943043,-0.03411474201963478,-4.411172113029452,8.678254176872374,0.43,0.3944444444444444,-0.6533333333333333,-0.001153412846028174,-0.003593483375885133,0.0017328128392879861
1589985622.4043043,-0.026318704453441297,-4.3815750607287445,8.782637408906883,0.43,0.3965506792622582,-0.6505250202429149,0.007004493849866149,-0.003674059397654703,0.002812983192601954
1589985622.4143043,-0.04040500200225709,-4.359594997997743,8.83,0.43,0.4044444444444445,-0.64,0.007331110370114338,-4.41788651034732e-05,0.0007419468100321285
1589985622.4243042,-0.02,-4.383008843738699,8.811946937567807,0.43,0.4044444444444445,-0.64,0.003214574350522811,0.0016893406595087633,0.0
1589985622.4343042,-0.012606809155398425,-4.407393190844601,8.702606809155398,0.43,0.4044444444444445,-0.64,-0.0028692563397812497,0.00011887724062789964,-0.0004032360077081185
1589985622.4443042,-0.008135916877281662,-4.411864083122718,8.70898380604699,0.43,0.4044444444444445,-0.64,-0.00040667985027865615,0.0018858312792072026,-0.0007950004967107467
1589985622.4543042,-0.029582166523414756,-4.388746499570244,8.76,0.43,0.4034230737239028,-0.6408820928950133,0.004272166006342485,0.0010452522206747864,0.0
1589985622.4643042,-0.02376757146421937,-4.371302714392658,8.76,0.43,0.3892096191347585,-0.6531573491310925,0.0030036181506780586,0.0004109782928425733,0.0
1589985622.4743042,-0.013747591726123685,-4.369378612410815,8.734990366904494,0.43,0.38,-0.6611111111111111,-0.001228498139946996,0.0003410159704939908,0.0006820319409879816
1589985622.4843042,-0.002396621057689876,-4.3923966210576895,8.68479324211538,0.43,0.38,-0.6611111111111111,-0.008988077062342382,0.0008293999801257229,0.0011359383555099795
1589985622.4943042,-0.017148731320830408,-4.4119145522013845,8.7,0.43,0.38,-0.6611111111111111,-0.008777736218393657,0.0,-0.0008819855348998523
1589985622.5043042,-0.037758825190624117,-4.44439706297656,8.711205874046879,0.4307470582697919,0.38074705826979194,-0.6594924848598952,-0.0042317826769708595,0.00036671137065342595,0.0031502552239382263
1589985622.5143042,-0.022173130251231323,-4.393480609246306,8.79782686974877,0.43666666666666665,0.38666666666666666,-0.6466666666666666,0.005691205649724018,0.002561337135764153,0.001707558090509435
1589985622.5243042,-0.027526602128170253,-4.369175534042723,8.78505320425634,0.43666666666666665,0.38666666666666666,-0.6466666666666666,0.006275178841383424,0.00017987056906354075,0.0
1589985622.5343041,-0.002358788703096245,-4.3607862629010326,8.734717577406192,0.43666666666666665,0.38666666666666666,-0.6466666666666666,0.003529796280163596,0.00201012560987676,0.0
1589985622.5443041,-0.01400531831690912,-4.4020026591584545,8.722002659158456,0.43666666666666665,0.38666666666666666,-0.6466666666666666,-0.0019632053393038437,-0.0021802112190440273,-0.0006539183311183197
1589985622.5543041,-0.027126857500391052,-4.408563428750195,8.728563428750196,0.43666666666666665,0.38666666666666666,-0.6466666666666666,-0.0012475363965500684,0.0013981334947248498,0.0007774195543892308
1589985622.564304,-0.026390933871348544,-4.403984889785581,8.760827198385954,0.43666666666666665,0.3944444444444444,-0.6533333333333333,0.0020094362159760646,-0.0002624586952798882,0.0017879735220730796
1589985622.574304,-0.0009050501229430679,-4.360301683374314,8.835474749385284,0.43666666666666665,0.3944444444444444,-0.6533333333333333,0.008463377850956048,-0.002181661564992912,-0.001090830782496456
1589985622.584304,-0.02778670996356724,-4.376639870109298,8.703279740218596,0.43666666666666665,0.3944444444444444,-0.6533333333333333,-0.00048286498046671097,-0.0019402290747595565,-0.0006079658020297449
1589985622.594304,-0.020666598741689805,-4.40199979622507,8.74800020377493,0.43666666666666665,0.3944444444444444,-0.6533333333333333,-0.002617949421198097,-0.001090830782496456,0.0009454014970947277
1589985622.604304,-0.02884222251343205,-4.428842222513432,8.72115777748657,0.43666666666666665,0.3950876541592044,-0.6533333333333333,-0.007590000870504924,-0.001090830782496456,-0.0008382429181705174
1589985622.614304,-0.020472425636705333,-4.418582723089884,8.731889702546821,0.43666666666666665,0.4,-0.6533333333333333,0.0014000326386716551,-0.001090830782496456,0.0011423644251923224
1589985622.624304,-0.035815053563975324,-4.378369892872049,8.755462366090061,0.43666666666666665,0.4,-0.6533333333333333,0.00636716759158519,-0.0014079927539689566,0.0009130136791029094
1589985622.634304,-0.044125042034196434,-4.352937478982902,8.722937478982903,0.43666666666666665,0.4,-0.6533333333333333,0.0019907753484951106,-0.0015408030654957832,-0.0005795153162500893
1589985622.644304,-0.027327882017960138,-4.3733605899102,8.73801635394612,0.43666666666666665,0.4,-0.6533333333333333,-0.0013823136374235953,0.0,0.002689526637635089
1589985622.654304,-0.019451003180817227,-4.410548996819183,8.760548996819182,0.43587367126118043,0.4,-0.6537603308593644,-0.0021217753020071907,0.00011977252597144228,0.001090830782496456
1589985622.664304,-0.015357073549388705,-4.406607316126528,8.780714147098777,0.4222222222222222,0.4,-0.6611111111111111,0.000370084400446231,0.0013051124552272996,0.001090830782496456
1589985622.674304,-0.03801576663561806,-4.37,8.785952700093146,0.4222222222222222,0.4,-0.6611111111111111,0.004363323129985824,-0.0016737537819258045,0.0013822922822111301
1589985622.684304,-0.05021169100186935,-4.374894154499065,8.729788308998131,0.4222222222222222,0.4,-0.6611111111111111,0.003295584253611028,-0.003005557628395669,0.002181661564992912
1589985622.694304,-0.02228586612006301,-4.39,8.757714133879936,0.4222222222222222,0.4,-0.6611111111111111,-0.0014960958770582832,-0.002181661564992912,0.0016829629393068173
1589985622.704304,-0.03,-4.391539236903738,8.75,0.4220511958995846,0.3994869210320872,-0.6608118150464953,-0.006419056170267307,-0.0023075900897043407,-4.197617490380955e-05
1589985622.714304,-0.028488436779782245,-4.425465310339346,8.75,0.4177777777777778,0.38666666666666666,-0.6533333333333333,-0.0027778344403984693,-0.004629724067330782,-0.0009259448134661565
1589985622.724304,-0.021821823094651513,-4.405465469283955,8.75,0.4177777777777778,0.38666666666666666,-0.6533333333333333,-0.0005961902135726478,-0.0009936503559544122,-0.00019873007119088266
1589985622.734304,-0.03,-4.37,8.696463179989504,0.4177777777777778,0.38666666666666666,-0.6533333333333333,0.006262975267564049,-0.0008088213550817697,0.0016176427101635394
1589985622.744304,-0.028505800366338926,-4.3744825989009835,8.745976798534643,0.4177777777777778,0.38666666666666666,-0.6533333333333333,0.003874347443308096,0.0012538226780556985,-0.0018556777738744266
1589985622.754304,-0.02,-4.400871406788276,8.779128593211723,0.41860077307781607,0.3874412504784674,-0.6533333333333333,0.0008531914453145461,0.002181661564992912,4.7527867436381975e-05
1589985622.764304,-0.02,-4.416108566745408,8.76,0.43666666666666665,0.4044444444444445,-0.6533333333333333,-0.0037265888526649403,0.0013326825285650671,0.0013030755416034172
1589985622.774304,-0.02166040453987969,-4.393358381840482,8.751697977300601,0.43666666666666665,0.4044444444444445,-0.6533333333333333,0.00017702348595188453,-0.002181661564992912,0.002181661564992912
1589985622.784304,-0.029825763622559228,-4.360696945509764,8.710871181887205,0.43666666666666665,0.4044444444444445,-0.6533333333333333,0.0064119410122185925,-0.002181661564992912,0.002181661564992912
1589985622.794304,-0.02,-4.365943237392768,8.747924316523692,0.43666666666666665,0.4044444444444445,-0.6533333333333333,0.0008850483058497661,0.0026241857179177953,0.000874728572639265
1589985622.804304,-0.020538008118778848,-4.391076016237557,8.78,0.43588954382843054,0.40390643632566564,-0.6541104561715695,-0.004363323129985824,-0.0002347503268787902,0.0
1589985622.8143039,-0.028014205757598575,-4.415957382727204,8.776028411515197,0.4222222222222222,0.3944444444444444,-0.6677777777777778,-0.004363323129985824,-0.004363323129985824,-0.0002166165487315704
1589985622.8243039,-0.02429211411913489,-4.43141577176173,8.744977600583027,0.4222222222222222,0.3944444444444444,-0.6677777777777778,-0.0029587320690438244,-0.003426929089357824,-0.00038853525202545624
1589985622.8343039,-0.04,-4.396095729013255,8.699109965635738,0.4222222222222222,0.3944444444444444,-0.6677777777777778,0.002607551462547861,0.0,0.002039698265807929
1589985622.8443038,-0.03641869107425504,-4.37,8.76447663615718,0.4222222222222222,0.3944444444444444,-0.6677777777777778,0.005258823811590684,-0.0001953301008915958,0.0008955006816048601
1589985622.8543038,-0.013327093799463216,-4.37,8.79334113275067,0.4222222222222222,0.3944444444444444,-0.6677777777777778,0.003999372555372974,-0.0014547813571093057,-0.00036395057461284974
1589985622.8643038,-0.022987989285405682,-4.38532532619027,8.794674673809729,0.4222222222222222,0.3944444444444444,-0.6677777777777778,-0.001742708920554478,-0.0005099278089782968,-0.001090830782496456
1589985622.8743038,-0.012108922363847046,-4.392108922363847,8.733128621089223,0.4222222222222222,0.3944444444444444,-0.6677777777777778,-0.0012614705920410926,0.0,0.0004600954864759096
1589985622.8843038,-0.0213571916189676,-4.3972856167620655,8.678143149713806,0.4222222222222222,0.3944444444444444,-0.6677777777777778,0.002477754844136124,0.00014804663957160587,0.0018855682858497003
1589985622.8943038,-0.03,-4.383373764180387,8.740121292541163,0.4222222222222222,0.3944444444444444,-0.6677777777777778,0.0038112922568582135,0.001090830782496456,-0.0003680205820850734
1589985622.9043038,-0.03,-4.399051339077131,8.787154017231389,0.4222222222222222,0.3944444444444444,-0.6677777777777778,0.001246055063019154,0.001090830782496456,-0.002078178711311113
1589985622.9143038,-0.03,-4.4,8.798289158147167,0.42866934522557393,0.3944444444444444,-0.6558045493429817,-0.003430203651458785,-0.0016217898778766889,0.0005309590953802329
1589985622.9243038,-0.0025451020518067746,-4.391696734701204,8.771516326493977,0.43,0.3944444444444444,-0.6533333333333333,-0.007173102867024239,0.0019965765208125306,-0.0009982882604062653
1589985622.9343038,-0.02513274812860143,-4.406755165419067,8.696224172904662,0.43,0.3944444444444444,-0.6533333333333333,-0.003066552926240418,0.00035395654449900263,-0.00017697827224950132
1589985622.9443038,-0.03877522680985003,-4.3875504536197,8.7624495463803,0.43,0.3944444444444444,-0.6533333333333333,0.0014916368717140483,0.0020480595352537143,0.0020480595352537143
1589985622.9543037,-0.031009442695797074,-4.3720188853915944,8.777981114608405,0.43,0.3944444444444444,-0.6533333333333333,0.0040329837802633274,0.0012009438990706214,0.0012009438990706214
1589985622.9643037,-0.01459299191374663,-4.376123989218329,8.803159029649596,0.43666666666666665,0.4,-0.6322222222222222,0.0009238248837207182,-0.0018476497674414364,0.00016700589877573774
1589985622.9743037,-0.03717281817960633,-4.41,8.707172818179608,0.43666666666666665,0.4,-0.6322222222222222,-0.0001541988478699888,0.0,0.001090830782496456
1589985622.9843037,-0.01849872486402311,-4.408498724864024,8.69450382540793,0.43666666666666665,0.4,-0.6322222222222222,-0.0009270670693644417,0.0,0.0012545944956284703
1589985622.9943037,-0.010694291453379122,-4.399305708546621,8.724165748720276,0.43666666666666665,0.4,-0.6322222222222222,0.00015147089787403002,0.00022720634681104503,0.002257397013929927
1589985623.0043037,-0.017488660662217326,-4.392511339337783,8.764931963973304,0.43666666666666665,0.4,-0.6322222222222222,0.001633772314003391,0.0024506584710050866,0.0029985477219946076
1589985623.0143037,-0.02,-4.39,8.805251496243475,0.43666666666666665,0.39532379699194925,-0.6621499214737467,-0.0005728493756545759,0.0005179814068418803,0.003272492347489368
1589985623.0243037,-0.018762725899946417,-4.382474548200107,8.741339081299625,0.43666666666666665,0.3944444444444444,-0.6677777777777778,-0.003272492347489368,-0.0002699313349448096,-0.0008208994475516464
1589985623.0343037,-0.012786666978113101,-4.397213333021887,8.681393333489057,0.43666666666666665,0.3944444444444444,-0.6677777777777778,-0.0031205032414747605,-0.0024856397770221268,0.0009388416764818486
1589985623.0443037,-0.02904607725707441,-4.3809539227429255,8.696677459200478,0.43666666666666665,0.3944444444444444,-0.6677777777777778,-0.0015573205897289012,-0.0038430389839324815,0.00020811365842133688
1589985623.0543036,-0.02119628686929181,-4.388803713130708,8.751625991914958,0.43666666666666665,0.3944444444444444,-0.6677777777777778,0.003580355204953932,0.00043835751163654596,0.0019206722566489478
1589985623.0643036,-0.02890913191659984,-4.39,8.786727395749798,0.42379792056491133,0.3993939621758888,-0.6747071026017999,0.004363323129985824,0.001090830782496456,-0.0007338450369917143
1589985623.0743036,-0.019203342902277862,-4.390796657097722,8.79884680063189,0.4222222222222222,0.4,-0.6755555555555556,0.0010039289739674963,8.690180852895956e-05,-0.001090830782496456
1589985623.0843036,-0.012078782422584974,-4.397921217577415,8.69910295391619,0.4222222222222222,0.4,-0.6755555555555556,0.00022675998566682462,0.0008640707968296313,-0.001090830782496456
1589985623.0943036,-0.010519211610962437,-4.398961576778076,8.73207684644385,0.4222222222222222,0.4,-0.6755555555555556,-0.002068387163419432,-0.000920919180136236,0.0
1589985623.1043036,-0.018712323950540115,-4.38257535209892,8.76484929580216,0.4222222222222222,0.4,-0.6755555555555556,-0.0002809273345268546,0.0017602705632026301,0.0
1589985623.1143036,-0.030769979403843108,-4.380769979403843,8.805380123576942,0.4222222222222222,0.4,-0.6611111111111111,0.001090830782496456,0.00016798344712006623,-0.0009228473353763897
1589985623.1243036,-0.03941284959955534,-4.390293575200222,8.746770672797554,0.4222222222222222,0.4,-0.6611111111111111,0.0009627344363444252,0.002181661564992912,0.0010588066959584482
1589985623.1343036,-0.018408346694970754,-4.4,8.643979133262574,0.4222222222222222,0.4,-0.6611111111111111,-0.003098869905470556,0.002094850343983506,0.0
1589985623.1443036,-0.0002202250529208601,-4.399559549894159,8.691761800423366,0.4222222222222222,0.4,-0.6611111111111111,-0.0011628992625373515,0.0010187623024555605,7.206848004089557e-05
1589985623.1543036,-0.008008504475062204,-4.3839829910498755,8.754068035800497,0.4222222222222222,0.4,-0.6611111111111111,-0.0037116077434439987,-0.0015299461784510865,0.0026207769609475425
1589985623.1643035,-0.03910173240871921,-4.37044913379564,8.80089826759128,0.4222222222222222,0.38666666666666666,-0.6755555555555556,0.001188816576445259,0.0011398236794708575,-0.00014697869092320453
1589985623.1743035,-0.02131162825389722,-4.38,8.814097672857462,0.4222222222222222,0.38666666666666666,-0.6755555555555556,0.003057877676307894,0.0020385851175385955,-0.00320095412376221
1589985623.1843035,-0.036953830088759604,-4.38,8.743707764600583,0.4222222222222222,0.38666666666666666,-0.6755555555555556,0.0004984283861843284,0.00033228559078955213,-0.002347804360387688
1589985623.1943035,-0.020122884303269188,-4.399877115696731,8.740245768606538,0.4222222222222222,0.38666666666666666,-0.6755555555555556,-0.0021950661630620776,-0.0032322785532818707,1.3404598069165817e-05
1589985623.2043035,-0.02822687224669603,-4.391773127753304,8.756453744493392,0.4222222222222222,0.38666666666666666,-0.6755555555555556,-0.0030790741140290932,-0.0005802547003808242,0.0008974125490361813
