time,acc_x,acc_y,acc_z,mag_x,mag_y,mag_z,gyr_x,gyr_y,gyr_z
1589988763.2038903,-3.81,-0.83,8.79,0.3088888888888889,-0.3411111111111111,-0.6233333333333333,-0.002181661564992912,0.00545415391248228,0.0
1589988763.2138903,-3.811280252425229,-0.8032006310630728,8.817681514551374,0.29444444444444445,-0.3466666666666667,-0.6233333333333333,0.0005586155019222562,0.0008813499692756099,0.001021003844756174
1589988763.2238903,-3.8183788307743174,-0.8383788307743175,8.898041784629372,0.29444444444444445,-0.3466666666666667,-0.6233333333333333,0.010628155627967888,-0.0024985797929922855,-0.0006338364559987466
1589988763.2338903,-3.794601942921638,-0.81,8.835339809738795,0.29444444444444445,-0.3466666666666667,-0.6233333333333333,0.013765648655486002,-0.0029378296142750612,-0.0020143301983857583
1589988763.2438903,-3.8199625120928733,-0.81,8.919875040309577,0.29444444444444445,-0.3466666666666667,-0.6233333333333333,0.005466421801401843,-0.0010935569800341362,-0.0010921938812652962
1589988763.2538903,-3.8109517128492927,-0.83,8.992379282123231,0.29481455499694714,-0.3464023019863076,-0.6223287475479689,0.005090798727245239,0.0,0.0
1589988763.2638903,-3.8272980240851164,-0.83,9.03324506021279,0.30117145381087856,-0.34186165997635654,-0.6050743079101549,-0.0011500720894612182,0.0,0.0
1589988763.2738903,-3.837482522433231,-0.8137762163501532,8.954895134599388,0.3022222222222222,-0.3411111111111111,-0.6022222222222222,-0.009680169941264324,0.0023189686661966922,0.001090830782496456
1589988763.2838902,-3.822635705562733,-0.8360464416558999,8.8658142333764,0.3022222222222222,-0.3411111111111111,-0.6022222222222222,-0.008870401698042985,0.0031287369094180313,0.001090830782496456
1589988763.2938902,-3.806570969890527,-0.8382854849452632,8.84485645483579,0.3022222222222222,-0.3411111111111111,-0.6022222222222222,-0.003957957273473939,0.0019946369851168693,-0.0005610737396281278
1589988763.3038902,-3.792244462282035,-0.8311222311410175,8.823366693423052,0.3022222222222222,-0.3411111111111111,-0.6022222222222222,0.0022931609285309264,0.0012132472098662613,-0.002905243065379952
1589988763.3138902,-3.803033219039192,-0.8284833904804041,8.816066438078384,0.29444444444444445,-0.3411111111111111,-0.6022222222222222,0.010479222782069059,-0.0014217036522969333,-0.0001654364349002386
1589988763.3238902,-3.818497216384618,-0.8207513918076909,8.846994432769236,0.29444444444444445,-0.3411111111111111,-0.6022222222222222,0.013852943647035973,-0.003108564084780392,-0.001008866651141968
1589988763.3338902,-3.7948193619361934,-0.7970484048404841,8.80777095709571,0.29444444444444445,-0.3411111111111111,-0.6022222222222222,0.013576271113058532,-0.0040413540442390695,-0.00189910159134427
1589988763.3438902,-3.792849370433701,-0.7776678843463392,8.858911083475828,0.29444444444444445,-0.3411111111111111,-0.6022222222222222,0.006799379049314241,0.0005256183301792926,-0.0007404185623769276
1589988763.3538902,-3.8580491217161508,-0.8673175423597077,9.005610523861339,0.29444444444444445,-0.3411111111111111,-0.6022222222222222,-0.002979881610812009,0.003192689419304634,0.0010376288303733
1589988763.3638902,-3.7881775756565634,-0.7836448486868736,8.980887878282816,0.33555555555555555,-0.3533333333333333,-0.5955555555555555,0.002477309718452689,-0.006147393380460396,0.0
1589988763.3738902,-3.7839007110403777,-0.801950355520189,8.926347511358676,0.33555555555555555,-0.3533333333333333,-0.5955555555555555,-0.0027928370530836315,-0.0035123199946922364,0.0
1589988763.3838902,-3.8069668246445496,-0.8169668246445498,8.87696682464455,0.33555555555555555,-0.3533333333333333,-0.5955555555555555,-0.009564156149850445,0.0005066417852353208,-0.0002533208926176604
1589988763.3938901,-3.8229708356929053,-0.834376668554324,8.890159169970067,0.33555555555555555,-0.3533333333333333,-0.5955555555555555,-0.00765317822777502,0.002181661564992912,-0.0007841256304402767
1589988763.4038901,-3.7805561847746945,-0.8004449478197557,8.830778658684572,0.33555555555555555,-0.3533333333333333,-0.5955555555555555,-0.001175769268715438,0.002181661564992912,0.0010665626435767469
1589988763.4138901,-3.8035647190542154,-0.8157098127028104,8.84570981270281,0.314609138618475,-0.3576971701952251,-0.589446183948907,0.0023365186741994325,-0.00038885052752900403,0.0002339934183224839
1589988763.42389,-3.82,-0.82810911981979,8.851491039189055,0.3088888888888889,-0.3588888888888889,-0.5877777777777777,0.006751247725637289,0.002181661564992912,-0.0009876992671671789
1589988763.43389,-3.82,-0.8142147281942559,8.78896627687415,0.3088888888888889,-0.3588888888888889,-0.5877777777777777,0.008266890734556654,0.002181661564992912,-0.00022987776270749685
1589988763.44389,-3.790087412976267,-0.8195629351186636,8.890262238928802,0.3088888888888889,-0.3588888888888889,-0.5877777777777777,0.005406477529831297,-0.0021435204588721255,0.0021530557354023224
1589988763.45389,-3.7994165795502566,-0.7729171022487156,8.91824973865077,0.3088888888888889,-0.3588888888888889,-0.5877777777777777,0.0003182064928588498,0.0019270963707058325,-0.0008999068867811466
1589988763.46389,-3.8312259476273147,-0.8512259476273148,9.041225947627316,0.3144444444444445,-0.3477777777777778,-0.6022222222222222,-0.007906274281512127,0.007769545618435541,0.001090830782496456
1589988763.47389,-3.778129701967593,-0.7981297019675926,8.988129701967592,0.3144444444444445,-0.3477777777777778,-0.6022222222222222,-0.0029417869214590836,0.001977643698373657,0.001090830782496456
1589988763.48389,-3.81,-0.8378175395213282,8.89,0.3144444444444445,-0.3477777777777778,-0.6022222222222222,-0.0031534575939035146,0.0031534575939035146,0.0008527612753247486
1589988763.49389,-3.81,-0.8230006182107215,8.89,0.3144444444444445,-0.3477777777777778,-0.6022222222222222,-0.0023453199005316365,0.0023453199005316365,-0.0007635141114190067
1589988763.50389,-3.81,-0.8105827866775529,8.871165573355105,0.3144444444444445,-0.3477777777777778,-0.6022222222222222,-0.003208920182739019,0.0011544029472468054,0.001990945070741864
1589988763.51389,-3.802064127059947,-0.8020641270599475,8.83825650823979,0.30474504418438025,-0.34689601411777193,-0.6022222222222222,0.00019018544810661848,0.0028221696802944495,-0.00041534678170407867
1589988763.52389,-3.7952220859485846,-0.7783553375177357,8.79,0.3022222222222222,-0.3466666666666667,-0.6022222222222222,0.0018398768388994044,0.004363323129985824,0.00011392824203116919
1589988763.53389,-3.835077454469332,-0.8438468180866653,8.79,0.3022222222222222,-0.3466666666666667,-0.6022222222222222,-0.00028538115353254044,0.0035578735010219084,0.001090830782496456
1589988763.54389,-3.8015739063871097,-0.8031478127742201,8.81518250219376,0.3022222222222222,-0.3466666666666667,-0.6022222222222222,0.004767407698151321,-0.002009975011410172,0.0007474576753309765
1589988763.55389,-3.8094047907992756,-0.8188095815985511,8.940476652788409,0.3022222222222222,-0.3466666666666667,-0.6022222222222222,0.0013505397897665737,-0.0011557580343139855,-0.000960976278861397
1589988763.56389,-3.79220565562733,-0.8211028278136648,9.011102827813664,0.3144444444444445,-0.3466666666666667,-0.6166666666666667,-0.00012029985269388717,-0.002181661564992912,0.00024059970538777435
1589988763.57389,-3.8085765305126755,-0.8292882652563377,9.019288265256337,0.3144444444444445,-0.3466666666666667,-0.6166666666666667,-0.0010131925657605497,-0.002181661564992912,0.0020263851315210995
1589988763.58389,-3.803252526632068,-0.8010841755440227,8.863252526632067,0.3144444444444445,-0.3466666666666667,-0.6166666666666667,-0.003154227141784401,-0.001090830782496456,-0.002681166318964532
1589988763.59389,-3.829568705494574,-0.8104312945054262,8.889137410989148,0.3144444444444445,-0.3466666666666667,-0.6166666666666667,-0.0021346146327088675,-0.001184924647064545,0.002087567700424823
1589988763.60389,-3.823047513915234,-0.8169524860847663,8.876095027830466,0.3144444444444445,-0.3466666666666667,-0.6166666666666667,-0.0014232629813787756,-0.002607627949724729,0.0006648643977646392
1589988763.61389,-3.82,-0.8285851521672302,8.86141484783277,0.30967491546264986,-0.3466666666666667,-0.6166666666666667,0.0026551485200759107,-0.0004630078705600924,-0.0009364948256430917
1589988763.62389,-3.812217521306674,-0.83,8.828870085226695,0.3088888888888889,-0.3466666666666667,-0.6166666666666667,0.004970365812049989,0.0,-0.00024189405021614557
1589988763.63389,-3.801201619699492,-0.8,8.79081457729543,0.3088888888888889,-0.3466666666666667,-0.6166666666666667,0.0030103395960772994,-0.0006976016553783527,0.0012219071582024903
1589988763.64389,-3.8098228196748267,-0.8,8.86840537707344,0.3088888888888889,-0.3466666666666667,-0.6166666666666667,0.0011294855330467816,0.0021236794391674236,0.002162334189717749
1589988763.65389,-3.8012173169428114,-0.8,8.922696098343131,0.3088888888888889,-0.3466666666666667,-0.6166666666666667,0.002048872885665604,0.0012236194618237637,-0.0016505068476836806
1589988763.66389,-3.813865661936273,-0.8138656619362735,8.964664154840683,0.3042670015767977,-0.3474369812186819,-0.6020306901783778,0.002181661564992912,0.001090830782496456,-0.0006691524790152492
1589988763.6738899,-3.82,-0.82,8.961075315947111,0.3022222222222222,-0.3477777777777778,-0.5955555555555555,0.0011494801692973466,-0.0030378948002858057,0.0010321813956955654
1589988763.6838899,-3.8008720570367482,-0.8382558859265032,8.841744114073496,0.3022222222222222,-0.3477777777777778,-0.5955555555555555,-0.0002853799979333247,-0.002086534899015137,0.0031773656815115934
1589988763.6938899,-3.81,-0.8185288978843392,8.860367775528914,0.3022222222222222,-0.3477777777777778,-0.5955555555555555,-0.0033126104342883276,-0.0008100041749037378,0.0021014253913949925
1589988763.7038898,-3.81,-0.7895061151763627,8.867623471205908,0.3022222222222222,-0.3477777777777778,-0.5955555555555555,-0.004104084053577494,0.004730311160120428,0.0005184781528166595
1589988763.7138898,-3.8163636568746897,-0.7927273137493795,8.88272731374938,0.3100000250690653,-0.3435353398613179,-0.5997979934720153,-0.0050574904108015035,0.005156650133347377,0.0
1589988763.7238898,-3.811359362976346,-0.8172812740473083,8.915921911070962,0.3144444444444445,-0.3411111111111111,-0.6022222222222222,0.0011436770795641028,0.0034207758454077694,-0.0009425472845780545
1589988763.7338898,-3.8097404492224998,-0.83,8.832076406220004,0.3144444444444445,-0.3411111111111111,-0.6022222222222222,0.0010625181847246147,0.003244179749717527,0.0
1589988763.7438898,-3.801688423881743,-0.83,8.896492608946055,0.3144444444444445,-0.3411111111111111,-0.6022222222222222,0.000184178474410757,0.002365840039403669,0.0
1589988763.7538898,-3.8104863890163077,-0.8457295835244618,8.930972778032615,0.3144444444444445,-0.3411111111111111,-0.6022222222222222,0.0017158313904332037,0.00275360536180398,0.0005719437968110679
1589988763.7638898,-3.82,-0.8404938170165563,8.969506182983443,0.3084842218661701,-0.3373182421976637,-0.5989711917249816,0.003272492347489368,0.004868338211040529,0.0005588821613127359
1589988763.7738898,-3.814775023933624,-0.82,8.969100095734497,0.3022222222222222,-0.3333333333333333,-0.5955555555555555,0.005552318239893406,0.0042651588025746975,0.0005699564731010096
1589988763.7838898,-3.792677259262109,-0.8084515061747394,8.892257530873696,0.3022222222222222,-0.3333333333333333,-0.5955555555555555,0.007005942849671963,0.002181661564992912,0.0029804486659061403
1589988763.7938898,-3.7139573354019197,-0.7819883642005236,8.85,0.3022222222222222,-0.3333333333333333,-0.5955555555555555,0.00916467093140327,0.0008718184467806447,0.008947774043728759
1589988763.8038898,-3.698527307975132,-0.777131826993783,8.871395480981349,0.3022222222222222,-0.3333333333333333,-0.5955555555555555,0.0054625763307841945,0.003111846568103066,0.038449834436337066
1589988763.8138897,-3.3332714045214047,-0.8839664502164503,8.945344516594515,0.3144444444444445,-0.3411111111111111,-0.5955555555555555,-0.002087545272732065,0.002933936040415853,0.12864352633596973
1589988763.8238897,-2.9718097643097643,-0.9596212121212121,8.920126262626262,0.3144444444444445,-0.3411111111111111,-0.5955555555555555,0.004331185859457729,0.001100012859790197,0.1873290681159907
1589988763.8338897,-2.989851882328739,-0.8490002057189878,8.770296235342522,0.3144444444444445,-0.3411111111111111,-0.5955555555555555,0.008694331996922997,-0.012007217173223178,0.23471442524926772
1589988763.8438897,-2.955408588818756,-0.5745914111812443,8.85480763450556,0.3144444444444445,-0.3411111111111111,-0.5955555555555555,-0.0009177552491900789,-0.014443015957936805,0.2871978841936624
1589988763.8538897,-3.026322137060415,-0.5036778629395852,8.917841899609257,0.3144444444444445,-0.3411111111111111,-0.5955555555555555,-0.012950705676442182,-0.017881001794294547,0.319858749639061
1589988763.8638897,-2.237620221948212,-0.8527568304237783,9.068539165422804,0.29444444444444445,-0.3477777777777778,-0.6088888888888889,-0.002623756330174972,-0.014522653754689988,0.3606876687343621
1589988763.8738897,-1.8497379778051788,-0.8731716853786748,8.687461872931404,0.29444444444444445,-0.3477777777777778,-0.6088888888888889,0.03449149734482734,0.023334904993812366,0.3740491600573629
1589988763.8838897,-1.8258549869238705,-0.8308344729959931,8.531709973847741,0.29444444444444445,-0.3477777777777778,-0.6088888888888889,0.057076865517759624,0.025991917753943723,0.3434236754604124
1589988763.8938897,-2.0,-0.84,8.88,0.29444444444444445,-0.3477777777777778,-0.6088888888888889,-0.022907446432425576,-0.02399827721492203,0.29343348049154666
1589988763.9038897,-2.071669309023649,-0.8465153917294226,8.971215484211918,0.29444444444444445,-0.3477777777777778,-0.6088888888888889,-0.029303917305054914,-0.03252690504509448,0.2593189691708569
1589988763.9138896,-2.1293951563079205,-0.8047446352815191,8.897164010049837,0.29947281830205347,-0.3477777777777778,-0.6139172627464979,-0.003810584314480135,-0.010289590797666948,0.21427494712450423
1589988763.9238896,-2.1592027899767503,-0.7928018599845001,8.83,0.3022222222222222,-0.3477777777777778,-0.6166666666666667,0.01828323693239707,0.00785448886606141,0.16680507527774094
1589988763.9338896,-2.1800644029045713,-0.8199742388381716,8.840128805809142,0.3022222222222222,-0.3477777777777778,-0.6166666666666667,-0.0010950459427437494,-0.006543579641562971,0.08609554377252146
1589988763.9438896,-2.213830040734837,-0.8064679837060652,8.907660081469674,0.3022222222222222,-0.3477777777777778,-0.6166666666666667,-0.0033050017708966192,-0.005806927698845348,0.04410638303761693
1589988763.9538896,-2.271291561712846,-0.7724722921914358,8.905590365239295,0.3022222222222222,-0.3477777777777778,-0.6166666666666667,0.003143694632301656,0.004304969178491445,-0.021043829358802855
1589988763.9638896,-2.3291174675154793,-0.7823528385802738,8.906764628935205,0.3022222222222222,-0.34405230468106546,-0.612320281387169,0.010202459354909297,0.012993700029890635,-0.0798550536641362
1589988763.9738896,-2.3780387907682305,-0.7819612092317695,8.932025860512153,0.3022222222222222,-0.3411111111111111,-0.6088888888888889,0.010466333623424296,0.015706552795813546,-0.154775717063206
1589988763.9838896,-2.4024214714925947,-0.7637892642537029,8.865471171044435,0.3022222222222222,-0.3411111111111111,-0.6088888888888889,0.008726646259971648,0.01662660330175279,-0.23177443437998527
1589988763.9938896,-2.41,-0.76,8.811839100774097,0.3022222222222222,-0.3411111111111111,-0.6088888888888889,0.008726646259971648,0.026355452608408943,-0.32124324561821943
1589988764.0038896,-2.417595931194178,-0.7751918623883559,8.870767449553425,0.3022222222222222,-0.3411111111111111,-0.6088888888888889,0.010383821373638526,0.03250453812907505,-0.39371476676158623
1589988764.0138896,-2.4806721739130433,-0.79,8.899831956521739,0.3088888888888889,-0.3588888888888889,-0.6233333333333333,0.0121457842065688,0.03930656956964937,-0.4942836705809258
1589988764.0238895,-2.517144347826087,-0.79,8.890713913043479,0.3088888888888889,-0.3588888888888889,-0.6233333333333333,0.020102778208351206,0.04129581807009496,-0.5609234953458534
1589988764.0338895,-2.493279036011336,-0.7989069879962215,8.82765108402645,0.3088888888888889,-0.3588888888888889,-0.6233333333333333,0.02072578486743266,0.047281179746228204,-0.6341532929148942
1589988764.0438895,-2.517455162742638,-0.8366068836568504,8.838303441828424,0.3088888888888889,-0.3588888888888889,-0.6233333333333333,0.021724082756036635,0.04699825654124009,-0.7103835873154827
1589988764.0538895,-2.52,-0.877812856076382,8.908063140937488,0.3088888888888889,-0.3588888888888889,-0.6233333333333333,0.022641564197573634,0.05185541493321468,-0.771947376792354
1589988764.0638895,-2.5746805446990577,-0.8717731517669807,8.917848767844653,0.3163146418727116,-0.3480877936396923,-0.6280588125048568,0.024895687144472434,0.057427189766420056,-0.8301890476723869
1589988764.0738895,-2.6184933694885033,-0.8939734779540136,8.926986738977007,0.3211111111111111,-0.3411111111111111,-0.6311111111111111,0.03266531899953792,0.06555459036841049,-0.9128176204592895
1589988764.0838895,-2.6020219227484103,-0.9269671158773845,8.813142497864668,0.3211111111111111,-0.3411111111111111,-0.6311111111111111,0.032835202253583474,0.07046288574751047,-0.9836370662280147
1589988764.0938895,-2.6,-0.936461913091196,8.819385739273589,0.3211111111111111,-0.3411111111111111,-0.6311111111111111,0.03202003810352434,0.07442842771911631,-1.028538160560726
1589988764.1038895,-2.5873671418832807,-0.9778985743501586,8.861582145291798,0.3211111111111111,-0.3411111111111111,-0.6311111111111111,0.03094507716716583,0.0777361858252147,-1.0886530976997801
1589988764.1138895,-2.570549151456932,-1.0094508485430675,8.927254242715337,0.3347623367844309,-0.3474116768064895,-0.6237604511331696,0.03466697251449672,0.08163259929319179,-1.165164805223636
1589988764.1238894,-2.6532862170860705,-1.0251429485611037,8.861856731475033,0.33555555555555555,-0.3477777777777778,-0.6233333333333333,0.03903618364693967,0.08841966645851912,-1.2104016738456458
1589988764.1338894,-2.63863416222376,-1.059547026983029,8.79863416222376,0.33555555555555555,-0.3477777777777778,-0.6233333333333333,0.04293920347751616,0.08924972268463219,-1.2548537122627912
1589988764.1438894,-2.642514794000521,-1.1369008895009118,8.826900889500912,0.33555555555555555,-0.3477777777777778,-0.6233333333333333,0.04295065517323972,0.08924399683677042,-1.3223805951578427
1589988764.1538894,-2.65,-1.15,8.882298951549759,0.33555555555555555,-0.3477777777777778,-0.6233333333333333,0.04561846707854863,0.09329320736619294,-1.3722150648658014
1589988764.1638894,-2.6754890328373526,-1.2349634427911749,8.9,0.3629326648993786,-0.3298410509663075,-0.6233333333333333,0.04875933842301741,0.10231673717987089,-1.4349679555097334
1589988764.1738894,-2.6862938622425707,-1.2562938622425706,8.89370613775743,0.36777777777777776,-0.32666666666666666,-0.6233333333333333,0.04908738521234052,0.10500203207216097,-1.4768102647502537
1589988764.1838894,-2.6978384202484036,-1.314868941738824,8.827292638012773,0.36777777777777776,-0.32666666666666666,-0.6233333333333333,0.04737730719372013,0.10581058590215622,-1.5333865109854758
1589988764.1938894,-2.692782500148606,-1.344434999702788,8.831652499554181,0.36777777777777776,-0.32666666666666666,-0.6233333333333333,0.04690572364734761,0.10738520010426907,-1.5797416838810803
1589988764.2038894,-2.6833403351315224,-1.3899579892108656,8.859978994605433,0.36777777777777776,-0.32666666666666666,-0.6233333333333333,0.048358637135276716,0.11017161769904281,-1.623488499729869
1589988764.2138894,-2.688490491524394,-1.4354714745731818,8.886980983048788,0.4007963559281987,-0.30968568361787874,-0.6223899453861784,0.052792061017674176,0.11774792247397241,-1.6754745933630135
1589988764.2238894,-2.6988728372249287,-1.484364186124643,8.836762976650428,0.4066666666666667,-0.30666666666666664,-0.6222222222222222,0.059257966726145875,0.12373993727862995,-1.7159367405151489
1589988764.2338893,-2.725698712051518,-1.558529898804048,8.778602575896963,0.4066666666666667,-0.30666666666666664,-0.6222222222222222,0.054389103802043384,0.1187481199693343,-1.753879679408481
1589988764.2438893,-2.6793213804196134,-1.6206786195803864,8.795339309790194,0.4066666666666667,-0.30666666666666664,-0.6222222222222222,0.057136161559173886,0.12425926763910047,-1.7871509512931398
1589988764.2538893,-2.690614001010062,-1.6506140010100616,8.80687133367002,0.4066666666666667,-0.30666666666666664,-0.6222222222222222,0.059313123929124724,0.126944632443905,-1.8117231775802403
1589988764.2638893,-2.692352140193002,-1.7211828784559824,8.855887158841986,0.4474552523039883,-0.27692498963945295,-0.6324193686315527,0.05832718885776695,0.12595869737254725,-1.8422871303205806
1589988764.2738893,-2.669964837150827,-1.800105488547519,8.829929674301654,0.46,-0.2677777777777778,-0.6355555555555555,0.06072802778807314,0.12908803538179364,-1.8627996588313571
1589988764.2838893,-2.667305997373413,-1.8446119947468262,8.758858018386109,0.46,-0.2677777777777778,-0.6355555555555555,0.062177354602297986,0.13408753663227763,-1.8872170962287915
1589988764.2938893,-2.701356610510676,-1.842160847372331,8.755678305255337,0.46,-0.2677777777777778,-0.6355555555555555,0.05875687900431825,0.13782837372804535,-1.9039436652077866
1589988764.3038893,-2.642523660481407,-1.9013421268350845,8.809073701468067,0.46,-0.2677777777777778,-0.6355555555555555,0.05982144787877753,0.13719723177273965,-1.9201549838469076
1589988764.3138893,-2.605909597903073,-1.987276783224583,8.828180804193854,0.46853608585999423,-0.2480791181008682,-0.648687995340162,0.0636650723417409,0.13764312207302667,-1.9369691061500374
1589988764.3238893,-2.5697126977972267,-2.0300718255506935,8.830071825550693,0.4744444444444445,-0.2344444444444445,-0.6577777777777778,0.06709784555178194,0.13743684364238684,-1.9510096166361612
1589988764.3338892,-2.5739173367776345,-2.102739052539478,8.802356568476313,0.4744444444444445,-0.2344444444444445,-0.6577777777777778,0.07214422378601296,0.13430071711881525,-1.9707664926253383
1589988764.3438892,-2.5436983596967995,-2.2284740061907433,8.78,0.4744444444444445,-0.2344444444444445,-0.6577777777777778,0.06189338074020424,0.14536446793412242,-2.0004877032523907
1589988764.3538892,-2.5157877422734414,-2.221575484546883,8.77289387113672,0.4744444444444445,-0.2344444444444445,-0.6577777777777778,0.06588128795241498,0.1437020359544471,-2.01921550199535
1589988764.3638892,-2.451062599513953,-2.2807248805832567,8.799468700243024,0.4993291246496644,-0.19122368408800994,-0.675458997923592,0.06743652468346668,0.1456654455659694,-2.0400117076791426
1589988764.3738892,-2.4180457328051856,-2.3782743968311126,8.811954267194816,0.5166666666666667,-0.16111111111111112,-0.6877777777777778,0.06478537112995623,0.1492306397206818,-2.075336163525923
1589988764.3838892,-2.42,-2.408772041057628,8.722397141731069,0.5166666666666667,-0.16111111111111112,-0.6877777777777778,0.0684544402144805,0.15149152922560927,-2.097004258517465
1589988764.3938892,-2.4266242667896925,-2.486242667896922,8.742866934686614,0.5166666666666667,-0.16111111111111112,-0.6877777777777778,0.06945881003713658,0.15560669119976994,-2.1259043171399528
1589988764.4038892,-2.3823691667024427,-2.5268044047567937,8.786804404756793,0.5166666666666667,-0.16111111111111112,-0.6877777777777778,0.06575335763116628,0.15485289642990685,-2.161825261706527
1589988764.4138892,-2.2973341053850604,-2.5613329473074695,8.774333526346265,0.5297220613781123,-0.13238924274593067,-0.68081490059834,0.06863138409595682,0.15893398184639934,-2.1936786419872996
1589988764.4238892,-2.2587053516252626,-2.6409821612491244,8.791294648374738,0.5333333333333333,-0.12444444444444445,-0.6788888888888889,0.0705874653447599,0.16112642029196575,-2.2207951249324833
1589988764.4338892,-2.2425118279569896,-2.6849763440860213,8.69516559139785,0.5333333333333333,-0.12444444444444445,-0.6788888888888889,0.07172083371918417,0.1606261229525609,-2.246811609417961
1589988764.4438891,-2.1785257996841336,-2.743789925276383,8.721474200315866,0.5333333333333333,-0.12444444444444445,-0.6788888888888889,0.07199483164476607,0.16286679815325028,-2.2676536046128093
1589988764.4538891,-2.16,-2.764452685280173,8.757810741120691,0.5333333333333333,-0.12444444444444445,-0.6788888888888889,0.07248054426160425,0.16459604260814473,-2.27948620919269
1589988764.4638891,-2.1559778028122003,-2.7740221971878,8.779195560562439,0.5338696262917066,-0.11908151486071127,-0.6807659142431954,0.07282241023691918,0.1660695311298047,-2.2893527382485943
1589988764.473889,-2.11,-2.8278510571158093,8.773925528557903,0.54,-0.057777777777777775,-0.7022222222222222,0.07024137881862631,0.1716480237200695,-2.3018061286308575
1589988764.483889,-2.0787860219195347,-2.8829192198606393,8.729277285619244,0.54,-0.057777777777777775,-0.7022222222222222,0.07047838626059037,0.1769005997869672,-2.307958334183363
1589988764.493889,-2.0212938378531873,-2.963059243220219,8.680471567513845,0.54,-0.057777777777777775,-0.7022222222222222,0.06886347511305835,0.17652201091263167,-2.307864224094925
1589988764.503889,-1.9948199562258266,-3.0042880700386774,8.72,0.54,-0.057777777777777775,-0.7022222222222222,0.06829386287592075,0.1744356259586472,-2.304360388294657
1589988764.513889,-1.934306502539697,-3.077128998306869,8.72,0.5537983597471997,-0.031132669300426588,-0.7212544425631874,0.06747756525146544,0.1781159496614105,-2.2954237896627485
1589988764.523889,-1.881721832884097,-3.1,8.762649056603774,0.5722222222222222,0.004444444444444445,-0.7466666666666667,0.05970672578850789,0.17533478873313224,-2.277929175097489
1589988764.533889,-1.8549770335390914,-3.145068899382726,8.704869856721517,0.5722222222222222,0.004444444444444445,-0.7466666666666667,0.05563069973915097,0.17125876268377532,-2.262369681552303
1589988764.543889,-1.828254257256078,-3.178254257256078,8.612169504837384,0.5722222222222222,0.004444444444444445,-0.7466666666666667,0.05753114993277219,0.17187795110256107,-2.2438333896972726
1589988764.553889,-1.765604525634999,-3.1801797610750007,8.664575235440001,0.5722222222222222,0.004444444444444445,-0.7466666666666667,0.056894305506929775,0.1732121629255909,-2.2184414445408036
1589988764.563889,-1.6914244077112046,-3.2035683057834032,8.766431694216596,0.5779392837480858,0.007541186104287242,-0.7542894153678182,0.04511171419246866,0.1684540768379164,-2.198333194617124
1589988764.573889,-1.625854560828665,-3.1702441602367615,8.726587041538949,0.5988888888888889,0.01888888888888889,-0.7822222222222223,0.0369284441036069,0.16242725159112353,-2.1635169479436533
1589988764.583889,-1.5959469531643447,-3.2373103911364782,8.636212187342622,0.5988888888888889,0.01888888888888889,-0.7822222222222223,0.04817421500147039,0.17078938146619674,-2.126644909274457
1589988764.593889,-1.5330591847253658,-3.303388163054927,8.653470407637316,0.5988888888888889,0.01888888888888889,-0.7822222222222223,0.04031588149128645,0.1727118833978667,-2.0910328951235413
1589988764.603889,-1.504399909383647,-3.301200181232706,8.678799818767294,0.5988888888888889,0.01888888888888889,-0.7822222222222223,0.034426629380298876,0.17139135231526464,-2.066295588092698
1589988764.613889,-1.4939541860683145,-3.29,8.671661926935217,0.6001623661850544,0.022964016236618506,-0.7837503949776209,0.03206542748070085,0.1661688551513002,-2.032077128490988
1589988764.623889,-1.4047403326191203,-3.3546427235316125,8.645259667380879,0.6044444444444445,0.03666666666666667,-0.7888888888888889,0.02617993877991494,0.15271630954950385,-1.9765853778835782
1589988764.633889,-1.2563303547864118,-3.231359574708743,8.32147645439807,0.6044444444444445,0.03666666666666667,-0.7888888888888889,0.020661193767485042,0.1551690851105838,-1.9520576222727786
1589988764.643889,-1.3037768871075484,-3.343795591182365,8.950168336673347,0.6044444444444445,0.03666666666666667,-0.7888888888888889,0.023863326072024002,0.14412359428340182,-1.8736271286647914
1589988764.653889,-1.3386514245384644,-3.4671784109059844,8.879522491735077,0.6044444444444445,0.03666666666666667,-0.7888888888888889,0.02836160034490785,0.13635384781205698,-1.8380498685065283
1589988764.663889,-1.281600610054162,-3.468399389945838,8.515676827718359,0.5962669378018497,0.01990277804934747,-0.807288278834727,0.02314323890256808,0.12872701185786808,-1.7971058018050932
1589988764.673889,-1.25,-3.5187590187590185,8.725021645021645,0.5822222222222222,-0.008888888888888889,-0.8388888888888889,0.015817833381395214,0.10907993010885916,-1.7067314718823592
1589988764.683889,-1.245317980673711,-3.5874561546103134,8.753179806737108,0.5822222222222222,-0.008888888888888889,-0.8388888888888889,0.02671578859101502,0.10736789387432823,-1.6406477591952624
1589988764.693889,-1.2136101337086558,-3.643194933145672,8.686805066854328,0.5822222222222222,-0.008888888888888889,-0.8388888888888889,0.033118727972726664,0.11589059927651299,-1.5737748091566743
1589988764.703889,-1.1593135793636598,-3.6755148154772552,8.72171605159085,0.5822222222222222,-0.008888888888888889,-0.8388888888888889,0.025503488855691103,0.10611265144644973,-1.4975285882583673
1589988764.713889,-1.1457545816213395,-3.7072637448640187,8.729717928650622,0.538743161083212,0.007096060059276649,-0.7474549809053821,0.03060480033205295,0.09863787372988293,-1.4140059602708646
1589988764.7238889,-1.1434838244570604,-3.746064702171758,8.673935297828242,0.5066666666666667,0.01888888888888889,-0.68,0.032112615198407204,0.09177753004493093,-1.3269213815508807
1589988764.7338889,-1.109739669043701,-3.76,8.62368760285244,0.5066666666666667,0.01888888888888889,-0.68,0.031432965157144006,0.08571658134256001,-1.247685577180047
1589988764.7438889,-1.0852118471362304,-3.8030933757739263,8.590423694272461,0.5066666666666667,0.01888888888888889,-0.68,0.031158004114364157,0.0813824379846779,-1.1738770639982976
1589988764.7538888,-1.0836346556832142,-3.85,8.609077245465713,0.5066666666666667,0.01888888888888889,-0.68,0.029848910557706877,0.07616093975792944,-1.0999682539633335
1589988764.7638888,-1.0854221986192247,-3.85,8.678311205523102,0.5071753112645306,0.06771877028382604,-0.6332046969965186,0.027547097912518043,0.06799994631492245,-1.0097455012293137
1589988764.7738888,-1.0984327171277346,-3.8991539123406254,8.96420227883086,0.5077777777777778,0.12555555555555556,-0.5777777777777777,0.026008974739720272,0.05991702284346404,-0.9144475718811415
1589988764.7838888,-0.8492754985697999,-3.5280497269617745,8.852980217230412,0.5077777777777778,0.12555555555555556,-0.5777777777777777,0.0906696765925949,0.11291775440508849,-0.8226382749083381
1589988764.7938888,-0.741773309520877,-3.3311873383421604,7.784641581475551,0.5077777777777778,0.12555555555555556,-0.5777777777777777,0.06634220134683697,0.0745549721251787,-0.7594739027772932
1589988764.8038888,-0.8987053233248399,-3.6021678947730873,8.410094346119413,0.5077777777777778,0.12555555555555556,-0.5777777777777777,-0.06312327714297668,-0.022289576920268464,-0.7327841517878156
1589988764.8138888,-0.9242624220437777,-3.739463579668202,9.072221905188929,0.5043997427501279,0.17059602259088663,-0.5856598595089607,-0.020774828455786862,0.002477390401025348,-0.6470611404922144
1589988764.8238888,-0.8582665880271306,-3.723466823945739,8.329865526393395,0.5011111111111111,0.21444444444444444,-0.5933333333333334,0.051835982834859747,0.047720099114457015,-0.5442952228758277
1589988764.8338888,-0.8751654980408332,-3.786735924932976,8.479630336151784,0.5011111111111111,0.21444444444444444,-0.5933333333333334,0.005823650625258199,0.021487443007634218,-0.49892871174196
1589988764.8438888,-0.9110163757976475,-3.866406550319059,8.866570308295534,0.5011111111111111,0.21444444444444444,-0.5933333333333334,-0.009554225114563405,0.0013204528846318675,-0.4501904848923969
1589988764.8538888,-0.8796823158983035,-3.8596823158983034,8.54327803624857,0.5011111111111111,0.21444444444444444,-0.5933333333333334,0.026313035275127204,0.022694003330397547,-0.36707360627439367
1589988764.8638887,-0.899393298557263,-3.879393298557263,8.753528517944138,0.5011111111111111,0.21444444444444444,-0.5933333333333334,-0.004505561572166701,0.013376753120750554,-0.3326714516541586
1589988764.8738887,-0.9624591010848975,-3.9398364043395904,8.865736180471844,0.5222222222222223,0.2588888888888889,-0.5777777777777777,0.022370953800290243,0.009835322560693893,-0.26010011876893363
1589988764.8838887,-0.9652227560225348,-3.9676113780112674,8.703725158123941,0.5222222222222223,0.2588888888888889,-0.5777777777777777,0.021507459585349886,0.005763309977061513,-0.20762906216357627
1589988764.8938887,-0.95,-3.9323114343958485,8.596926195329873,0.5222222222222223,0.2588888888888889,-0.5777777777777777,0.02399827721492203,0.0012589230352106524,-0.1394617856271238
1589988764.9038887,-0.9418743073212074,-3.9121885390181887,8.639068387769738,0.5222222222222223,0.2588888888888889,-0.5777777777777777,0.02399827721492203,-0.0019772063528097636,-0.08688941163102254
1589988764.9138887,-0.9151652699713898,-3.932966946005722,8.751867784022888,0.52057391888571,0.27042701224447463,-0.5823930271200121,0.022056415595094116,-0.004567066760707977,-0.033468648595577556
1589988764.9238887,-0.8946347345503266,-3.9302435102997824,8.755608775749455,0.5166666666666667,0.2977777777777777,-0.5933333333333334,0.015590823643474552,-0.00896615038923858,0.023892464254074278
1589988764.9338887,-0.94,-3.9239698057171144,8.670412077713154,0.5166666666666667,0.2977777777777777,-0.5933333333333334,0.00929453700393435,-0.015704669582626243,0.10541804340549743
1589988764.9438887,-0.934931393939394,-3.95,8.66,0.5166666666666667,0.2977777777777777,-0.5933333333333334,0.0026447555931887416,-0.020202820757016907,0.177731479053156
1589988764.9538887,-0.9561181307055197,-3.97611813070552,8.681765108921267,0.5166666666666667,0.2977777777777777,-0.5933333333333334,-0.0013731282838329228,-0.024665661745413785,0.23678774564776034
1589988764.9638886,-0.9817274780128358,-4.001727478012835,8.676909912051343,0.5226412658796187,0.295020270448723,-0.6020654398753401,-0.00026275746237517154,-0.028812796426531728,0.2924462034394423
1589988764.9738886,-0.9750108303249098,-3.99,8.720194945848377,0.5311111111111111,0.2911111111111111,-0.6144444444444445,-0.002181661564992912,-0.03273201190597127,0.34911783222676823
1589988764.9838886,-0.9768003678665355,-3.993199632133465,8.73960809306378,0.5311111111111111,0.2911111111111111,-0.6144444444444445,-0.0018326358426081167,-0.03460131293284386,0.38562905361964056
1589988764.9938886,-0.9700330757191952,-3.999966924280805,8.590727665822294,0.5311111111111111,0.2911111111111111,-0.6144444444444445,-0.0010944387837615904,-0.03164852469745776,0.41220414773811553
1589988765.0038886,-0.976780436721871,-3.9798293449171935,8.696268471473452,0.5311111111111111,0.2911111111111111,-0.6144444444444445,-0.0036236922204871992,-0.037827877514378126,0.455025360955034
1589988765.0138886,-0.9875828873715937,-3.947914436857969,8.654834225256813,0.5388995851359756,0.297556744786861,-0.6144444444444445,-0.004554656338836697,-0.04085190468576828,0.47760305054061825
1589988765.0238886,-0.9885434014479504,-3.9655321094116776,8.682815102171926,0.5633333333333334,0.31777777777777777,-0.6144444444444445,-0.009203317021466293,-0.042553101014523975,0.503931720021876
1589988765.0338886,-0.9905331415739409,-3.978465420230616,8.624265132591526,0.5633333333333334,0.31777777777777777,-0.6144444444444445,-0.00597049094171634,-0.03921175144584408,0.5253151833710651
1589988765.0438886,-0.9754424520343492,-3.91,8.585575479656507,0.5633333333333334,0.31777777777777777,-0.6144444444444445,-0.013007952392705462,-0.04334364712055044,0.5429586565664446
1589988765.0538886,-0.980493340836616,-3.87502219721128,8.653991121115489,0.5633333333333334,0.31777777777777777,-0.6144444444444445,-0.017291847108690302,-0.04576107772776682,0.5576297904040263
1589988765.0638885,-1.0044580887386172,-3.823374266215852,8.684458088738618,0.5739832119866969,0.3172824345845981,-0.6176641752001125,-0.01139460986768301,-0.044362684363935916,0.5693021393933305
1589988765.0738885,-1.0270288291821925,-3.8858148656599334,8.703514414591096,0.6111111111111112,0.31555555555555553,-0.6288888888888889,-0.013281650970878597,-0.04633067890458423,0.5830055184210103
1589988765.0838885,-1.0696906834599,-3.98422670864975,8.647319874050751,0.6111111111111112,0.31555555555555553,-0.6288888888888889,-0.017352068918900374,-0.04521886567308146,0.6019361447359578
1589988765.0938885,-1.0893084527695,-3.972766188922,8.597925358308501,0.6111111111111112,0.31555555555555553,-0.6288888888888889,-0.020218087526513412,-0.04792111832918611,0.6117297606785379
1589988765.1038885,-1.1,-3.9337276179095273,8.663548561185745,0.6111111111111112,0.31555555555555553,-0.6288888888888889,-0.019228334048826474,-0.04990062528455999,0.6197013817252083
1589988765.1138885,-1.1060647117648958,-3.9460647117648957,8.707870576470208,0.6892785071919884,0.33711897516407335,-0.6487676663404913,-0.018213344588433922,-0.05159982549133926,0.6325201593595555
1589988765.1238885,-1.12,-3.908811931012398,8.67069307836589,0.8688888888888889,0.38666666666666666,-0.6944444444444444,-0.019483747841697072,-0.05235987755982988,0.6553408828946128
1589988765.1338885,-1.12,-3.8364903601309566,8.632980720261914,0.8688888888888889,0.38666666666666666,-0.6944444444444444,-0.022553452201408808,-0.05346513238704942,0.6775357323328068
1589988765.1438885,-1.1292660212388195,-3.826678838229875,8.596678838229876,0.8688888888888889,0.38666666666666666,-0.6944444444444444,-0.02399827721492203,-0.05543021668334785,0.7033076199583489
1589988765.1538885,-1.1724514890598265,-3.9024514890598265,8.665097021880346,0.8688888888888889,0.38666666666666666,-0.6944444444444444,-0.025067941106686926,-0.05427412315188157,0.7388791034608623
1589988765.1638885,-1.1782857381313376,-3.9082857381313376,8.653428523737325,0.8688888888888889,0.38666666666666666,-0.6944444444444444,-0.027613612498669164,-0.053637705303886,0.757971638900729
1589988765.1738884,-1.21,-4.01168629882207,8.69,1.5955555555555556,0.26666666666666666,-1.4911111111111108,-0.03244900347535335,-0.05872091558844841,0.7948734455385257
1589988765.1838884,-1.232543567159484,-4.0171179616231525,8.651353884869456,1.5955555555555556,0.26666666666666666,-1.4911111111111108,-0.028749824927265986,-0.057777109990023195,0.8197688379258209
1589988765.1938884,-1.2704924354790863,-3.984295461287452,8.571901512904184,1.5955555555555556,0.26666666666666666,-1.4911111111111108,-0.026855923800572046,-0.05999569303730508,0.8309519170034817
1589988765.2038884,-1.23171814170776,-3.9585682152435333,8.583722640366814,1.5955555555555556,0.26666666666666666,-1.4911111111111108,-0.024964161206517427,-0.06002692973503034,0.8342356550279867
1589988765.2138884,-1.2883592585970558,-3.9149222242088326,8.716562965611777,1.4679423353265657,0.19957857374628338,-1.3782645635086184,-0.02126271623596703,-0.06162345518833591,0.8241481082442141
1589988765.2238884,-1.2800268192383337,-3.939919542284999,8.749892723046665,0.8198637185370603,-0.14112561336591373,-0.8051779009476131,-0.0239895006397008,-0.06435023959206966,0.8159677550330129
1589988765.2338884,-1.3260326086956522,-3.762690217391304,8.589836956521738,0.8177777777777778,-0.14222222222222222,-0.8033333333333333,-0.01920217882883707,-0.061190271312702015,0.7914748022673334
1589988765.2438884,-1.3391332458770615,-3.638234164167916,8.524333770614692,0.8177777777777778,-0.14222222222222222,-0.8033333333333333,-0.020631236659616956,-0.059046684566532184,0.7786132817903145
1589988765.2538884,-1.4190850163064395,-3.708170032612879,8.707886644924749,0.8177777777777778,-0.14222222222222222,-0.8033333333333333,-0.01940442280789313,-0.06042584279003177,0.7534028173888067
1589988765.2638884,-1.4470837385875193,-3.7570837385875193,8.708334954350077,0.7737011821221027,-0.07217191841230998,-0.7794585106865093,-0.017907893758731624,-0.05916243425835609,0.7414314163954149
1589988765.2738883,-1.473700992764597,-3.7466910651186267,8.751887094060239,0.6311111111111111,0.15444444444444444,-0.7022222222222222,-0.022907446432425576,-0.059188261670621266,0.7289583621234451
1589988765.2838883,-1.484585244648318,-3.701463111620795,8.653951643730887,0.6311111111111111,0.15444444444444444,-0.7022222222222222,-0.02240727383165933,-0.057313858871545914,0.7280843045259023
1589988765.2938883,-1.5011367947727112,-3.7394316026136445,8.605683973863556,0.6311111111111111,0.15444444444444444,-0.7022222222222222,-0.02072578486743266,-0.05594238259018289,0.7302618137827107
1589988765.3038883,-1.5078721899956615,-3.7105955039930585,8.736383430013015,0.6311111111111111,0.15444444444444444,-0.7022222222222222,-0.0212549604065127,-0.060028172741641454,0.7400799663673407
1589988765.3138883,-1.4741738306043417,-3.6566781289669468,8.837478508186974,0.6311111111111111,0.15444444444444444,-0.7022222222222222,-0.022725328716259905,-0.05708743612214704,0.7444910712965823
1589988765.3238883,-1.4526637493272179,-3.5596506212996983,8.684475931949548,0.5844444444444444,0.19333333333333333,-0.7088888888888889,-0.02268832557882415,-0.06234169524249905,0.7558909520566436
1589988765.3338883,-1.4698850665978522,-3.6594253329892608,8.803793199277449,0.5844444444444444,0.19333333333333333,-0.7088888888888889,-0.027772304441109674,-0.055356527889370136,0.7553689736555458
1589988765.3438883,-1.4472933137564943,-3.511620736390332,8.512690309464649,0.5844444444444444,0.19333333333333333,-0.7088888888888889,-0.017688423596111634,-0.05524871878277736,0.744390367378254
1589988765.3538883,-1.5183510277840524,-3.527411339507567,8.73375875310594,0.5844444444444444,0.19333333333333333,-0.7088888888888889,-0.030607080561960084,-0.0621386691645632,0.7168305658511107
1589988765.3638883,-1.5315038533638825,-3.465687072768931,8.553336047414364,0.5844444444444444,0.19205512740401304,-0.7119101029036459,-0.011984989678525567,-0.05011410172415721,0.6892051931707829
1589988765.3738883,-1.6188669027285982,-3.584818503720816,8.958382912650773,0.5844444444444444,0.18234812191904465,-0.7348539340499348,-0.028445605737580086,-0.05791123564686725,0.6545512646254049
1589988765.3838882,-1.5867169891558581,-3.610150967467574,8.731943440357218,0.5844444444444444,0.1811111111111111,-0.7377777777777778,-0.007586411489239652,-0.04472406208235469,0.6071708404298666
1589988765.3938882,-1.5718530725069106,-3.5655592175207316,8.650191898788009,0.5844444444444444,0.1811111111111111,-0.7377777777777778,-0.02217902753545978,-0.04472406208235469,0.5706893003143162
1589988765.4038882,-1.49,-3.608405055838684,8.611898883226317,0.5844444444444444,0.1811111111111111,-0.7377777777777778,-0.007762854626247155,-0.036914265186126866,0.5173022899143935
1589988765.4138882,-1.49,-3.6006882784758893,8.766234430482218,0.5844444444444444,0.1811111111111111,-0.7377777777777778,-0.013655243428553225,-0.036072495357225995,0.4710049493248458
1589988765.4238882,-1.4425025187369456,-3.6474672564197075,8.717507556210837,0.5633333333333334,0.08888888888888889,-0.6877777777777778,-0.001908679117789474,-0.02454314310301161,0.37385999582273505
1589988765.4338882,-1.4095514669860105,-3.5095514669860104,8.749334276849382,0.5633333333333334,0.08888888888888889,-0.6877777777777778,0.0012849964054219042,-0.019852811476530542,0.2740132961491552
1589988765.4438882,-2.461281657456719,-2.592501377318486,3.9632882018063738,0.5633333333333334,0.08888888888888889,-0.6877777777777778,-0.225784197876302,0.6817772337632603,-0.04815537403040754
1589988765.4538882,-5.339221689844572,-0.5058197966577072,-8.15767091270305,0.5633333333333334,0.08888888888888889,-0.6877777777777778,-0.8116426061362206,2.4340056412577233,-0.6729691653688866
1589988765.4638882,0.18041288020249807,-2.1717685381136147,1.1390182165235072,0.5559070224214007,0.10515604612455104,-0.6761078606304549,-0.7034294656337576,-2.1624493366923536,-6.3769836277500636
1589988765.4738882,-0.5704423614537083,-1.2718845584607794,-0.19904620950501561,0.5166666666666667,0.19111111111111112,-0.6144444444444445,-0.5579469399465374,-0.7777128380867271,-7.060816346411385
1589988765.4838881,0.21994891640866873,-1.7757641898864809,0.365968524251806,0.5166666666666667,0.19111111111111112,-0.6144444444444445,-0.5067714724770931,-0.7419260801125688,-6.802531756464363
1589988765.4938881,0.3119050326983224,-2.1940602786465737,2.721910719363093,0.5166666666666667,0.19111111111111112,-0.6144444444444445,-0.43135921639165936,-0.5441821972785931,-6.5283454159329635
1589988765.5038881,0.5900801149234765,-4.811786010276811,9.493716227415879,0.5166666666666667,0.19111111111111112,-0.6144444444444445,-0.3713755066154679,-0.35308765230508155,-6.309083964824527
1589988765.5138881,1.311620617526771,-0.7999207018201118,5.156653242171646,0.5090695818980918,0.22673881899132436,-0.6178500341682884,1.161911463140799,1.682210978791626,-5.66107508877311
1589988765.523888,2.9027212297465725,1.1809779808890735,16.362654756958868,0.4844444444444445,0.3422222222222222,-0.6288888888888889,1.6398322742772533,2.8577144338171783,-5.133315880439542
1589988765.533888,-2.8995717051518155,0.635203286584502,9.089335836048544,0.4844444444444445,0.3422222222222222,-0.6288888888888889,0.8434277391588172,2.8336557132468223,-4.572061277806743
1589988765.543888,-0.47518648275309805,-0.6474134651958919,0.8728119557166023,0.4844444444444445,0.3422222222222222,-0.6288888888888889,-0.1901683556780287,0.9777338330633624,-3.885750268009743
1589988765.553888,-0.7848018804566823,-0.40006755422115114,4.0463817011022005,0.4844444444444445,0.3422222222222222,-0.6288888888888889,0.25033340442579916,0.04731558781091273,-3.5859343613355326
1589988765.563888,0.7644694425789121,-1.1374212855054715,5.023996760557816,0.4844444444444445,0.3422222222222222,-0.6288888888888889,0.45096357159830436,-0.830215458695855,-3.3825929756877238
1589988765.573888,1.2718025483081596,-1.8580246392709476,7.192814614800438,0.3977777777777778,0.43666666666666665,-0.5788888888888889,0.1015012014135123,-0.49806554824170857,-3.0041453609040896
1589988765.583888,1.0028237279554468,-2.0349843895029953,7.872340055691502,0.3977777777777778,0.43666666666666665,-0.5788888888888889,-0.13785989567833049,0.49798546868886295,-2.7346710935329503
1589988765.593888,1.105798682620462,-2.560997055469508,12.60877078617262,0.3977777777777778,0.43666666666666665,-0.5788888888888889,-0.03894995366755319,1.0264063755233177,-2.412555497855337
1589988765.603888,0.7774106854118088,-2.910801661191769,10.745525845488741,0.3977777777777778,0.43666666666666665,-0.5788888888888889,0.03425065324551325,0.33177933970996387,-2.332346322195275
1589988765.613888,0.5618223836249587,-3.013205378312674,10.41876046700081,0.3922859496250054,0.4432146156180491,-0.5843807170416613,-0.003531326891335732,-0.27367542776192766,-2.1633369239548217
1589988765.623888,0.74,-2.26,6.92,0.3688888888888889,0.4711111111111111,-0.6077777777777778,0.10690141668465268,0.358883327441334,-1.9133171924987835
1589988765.633888,0.6607171911796189,-2.72,7.973312727467351,0.3688888888888889,0.4711111111111111,-0.6077777777777778,0.07054955675605384,0.34830161495983364,-1.7029410121856587
1589988765.643888,0.3532384341637011,-2.7908973055414337,9.4494534824606,0.3688888888888889,0.4711111111111111,-0.6077777777777778,-0.033285866706462136,-0.048473758236828396,-1.5611338508727683
1589988765.653888,0.29540461469446666,-2.8008141054397226,9.249475141893079,0.3688888888888889,0.4711111111111111,-0.6077777777777778,0.0023772924098185433,0.1498573546387601,-1.3153953335307642
1589988765.663888,0.4322767462422635,-2.3333465959328032,6.920373563218391,0.36142622065035857,0.4781943216425975,-0.6094220945083014,0.1366878002067868,0.026944291914422852,-1.1495900077502414
1589988765.673888,0.4386680001632853,-2.997674000898069,9.179046005633342,0.3033333333333333,0.5333333333333333,-0.6222222222222222,-0.019727129441909214,0.09803165371100411,-0.8887246011646031
1589988765.683888,0.41175309339220617,-2.8750618678441238,8.232074241412947,0.3033333333333333,0.5333333333333333,-0.6222222222222222,0.010504307832689661,0.04665792466407731,-0.705339097623941
1589988765.693888,0.42,-3.071151565629524,8.480621294147976,0.3033333333333333,0.5333333333333333,-0.6222222222222222,0.015078241953115685,0.03526357594562239,-0.4599040960792569
1589988765.703888,0.42,-3.191802991988278,8.673921253515468,0.3033333333333333,0.5333333333333333,-0.6222222222222222,-0.020612945637527268,0.013733722739276094,-0.2519486287265676
1589988765.713888,0.419069887112855,-2.9462007525809666,8.20232270929148,0.3027477067006864,0.5339189599659802,-0.62263560572762,0.015618424840550918,-0.0005072978842472181,-0.009158831781136339
1589988765.723888,0.3759381057643258,-3.5116357762285326,8.78348716204727,0.28444444444444444,0.5522222222222222,-0.6355555555555555,-0.008293207495724458,-0.019430291155943417,0.26068715217524846
1589988765.733888,0.3260144533242646,-4.831046590715864,8.369834041829622,0.28444444444444444,0.5522222222222222,-0.6355555555555555,-0.010627132789564734,-0.030321942527198036,0.41939407215638713
1589988765.743888,0.7898950489711565,-0.29814035403001166,9.186647317818313,0.28444444444444444,0.5522222222222222,-0.6355555555555555,-0.5046624472196546,-0.3986211489897204,2.5060257096393714
1589988765.753888,-0.5744113577140801,-1.979026147901878,11.568530326174859,0.28444444444444444,0.5522222222222222,-0.6355555555555555,-0.3418618780574787,-0.44877687989321896,4.251609590100478
1589988765.763888,-1.5860580285946113,-2.9169402087238745,8.552907864917042,0.28390522555794934,0.5530849724406144,-0.6371732122150409,0.6777616926134238,0.08399061300463821,4.609863674891293
1589988765.7738879,-0.1855923194890864,-1.7352272011092202,3.965791685048633,0.2788888888888889,0.5611111111111111,-0.6522222222222223,-0.022053980941521695,-0.2367628494077276,4.5070333310499295
1589988765.7838879,0.36218283279220775,-3.0899019886363637,9.971172483766233,0.2788888888888889,0.5611111111111111,-0.6522222222222223,-0.5980775272158295,-0.5638636905559959,4.384976275965933
1589988765.7938879,-0.24210957792207793,-3.5069488636363637,10.192462662337663,0.2788888888888889,0.5611111111111111,-0.6522222222222223,-0.2592029094958452,-0.4032464059928253,4.417471102322644
1589988765.8038878,2.1386963360667766,-6.166256580189174,6.491625804827919,0.2788888888888889,0.5611111111111111,-0.6522222222222223,0.09764272703889346,-0.18488249138305377,4.453188085526912
1589988765.8138878,15.192436608557845,-22.68654516640254,7.61351822503962,0.28550757175559077,0.5565394435640078,-0.653518665257968,-0.2609211912262363,-0.3194720953150922,4.291028363094206
1589988765.8238878,0.02925684181080701,-4.8119851741339925,9.157620401883538,0.38666666666666666,0.4866666666666667,-0.6733333333333333,-0.4889279125350485,-0.4620928853449822,1.4463331397097905
1589988765.8338878,-1.91,-0.63,9.92,0.38666666666666666,0.4866666666666667,-0.6733333333333333,-0.3217950808364545,-0.01963495408493621,-1.7049685130419607
1589988765.8438878,-1.56475607812583,-1.0564777858445629,12.280859171639545,0.38666666666666666,0.4866666666666667,-0.6733333333333333,0.269692685158775,0.3110000611764421,-1.6972149280944577
1589988765.8538878,-0.7256920810884143,-1.71119074382728,10.2230850032947,0.38666666666666666,0.4866666666666667,-0.6733333333333333,0.7828191788019845,0.3852353535612528,-1.539611267898775
1589988765.8638878,-1.7232912434806478,-2.972277732027938,12.718076066733767,0.38666666666666666,0.4866666666666667,-0.6733333333333333,-0.2997742192910867,-0.04656144338574167,-1.242587379210022
1589988765.8738878,-0.9627599575579497,-2.7541731962128635,10.62852024159321,0.4340608789494685,0.4607339844741901,-0.6733333333333333,-0.4535401418826015,0.020585201958065874,-1.0491820939767025
1589988765.8838878,-0.47616607390700905,-2.630850320957668,8.490402715128383,0.4455555555555555,0.4544444444444444,-0.6733333333333333,0.04378025405560976,0.12110662996795706,-0.7874604798614329
1589988765.8938878,-5.875652253774659,-11.574565592740898,8.346009331031189,0.4455555555555555,0.4544444444444444,-0.6733333333333333,0.12077742059937664,0.10378773416747937,-0.501839023725614
1589988765.9038877,2.105859814114103,-16.004458873663715,6.920739318908195,0.4455555555555555,0.4544444444444444,-0.6733333333333333,-0.156552510673944,-0.01638856938429288,0.07803265075496557
1589988765.9138877,2.501910098445917,-5.041406104885148,9.394806513528573,0.4455555555555555,0.4544444444444444,-0.6733333333333333,-0.08689567063662407,-0.2375193357080851,0.9069491045211961
1589988765.9238877,-0.8102636798263012,-2.022662477295977,7.7693058310194365,0.4044444444444445,0.4744444444444445,-0.6522222222222223,0.20235103451896913,0.16606892641465976,-0.014860408769945713
1589988765.9338877,0.0026214678032656577,-3.6268504113129705,7.4887881800333025,0.4044444444444445,0.4744444444444445,-0.6522222222222223,0.07277121189053823,0.07749507279859946,-0.08478501708480565
1589988765.9438877,-0.43114329817339847,-6.43552508361204,9.283238487265244,0.4044444444444445,0.4744444444444445,-0.6522222222222223,-0.17276806370600262,-0.14325209666680072,-0.22977173166724277
1589988765.9538877,0.7464388739679697,-2.800136277728041,8.108082164528001,0.4044444444444445,0.4744444444444445,-0.6522222222222223,-0.07094644556943035,-0.009331849551464134,-0.21050060983367275
1589988765.9638877,-0.046276733313438845,-3.884905003481548,8.149804038595445,0.4044444444444445,0.4744444444444445,-0.6522222222222223,0.09213644568531124,0.01569947794344969,0.026159213754603394
1589988765.9738877,-0.025186974566350964,-4.94731446206236,8.736566563796956,0.4188888888888889,0.4666666666666667,-0.6644444444444444,-0.02561011115991722,0.008909894687474988,-0.017355643604945317
1589988765.9838877,0.13486540956903456,-4.53,8.963690124513404,0.4188888888888889,0.4666666666666667,-0.6644444444444444,-0.02063052803396489,-0.025059744920393166,-0.00198398029566554
1589988765.9938877,-0.023296122353635446,-4.508212397649316,8.486927143524552,0.4188888888888889,0.4666666666666667,-0.6644444444444444,0.014345354177976949,0.008897288897809864,0.003449223617642781
1589988766.0038877,0.01,-4.4,8.72,0.4188888888888889,0.4666666666666667,-0.6644444444444444,-0.001090830782496456,-0.001090830782496456,-0.001090830782496456
1589988766.0138876,0.0022571523119039733,-4.547114106073824,8.54191450317379,0.4188888888888889,0.4666666666666667,-0.6644444444444444,-0.010381581045088786,-0.001090830782496456,-0.002780058102967789
1589988766.0238876,0.0,-4.524270627902538,8.679884852726001,0.40833973040411115,0.4723469827738548,-0.6538952859596666,-0.00990331950559859,-0.0018874932535861764,-0.001679167405309927
1589988766.0338876,-0.01484495238095238,-4.514844952380952,8.571860571428571,0.4044444444444445,0.4744444444444445,-0.65,-0.01196531246433903,-0.002991328116084758,-0.0002811642314046103
1589988766.0438876,0.019333114592732344,-4.511333770814535,8.744442621606103,0.4044444444444445,0.4744444444444445,-0.65,0.007660064115163367,-0.0010423335071201062,4.8497275376349694e-05
1589988766.0538876,-0.0013098187187269295,-4.552619637437454,8.572418177343943,0.4044444444444445,0.4744444444444445,-0.65,0.00841066235173541,0.0004588629660239787,0.0015496937485204346
1589988766.0638876,0.0177110908261068,-4.604638863532633,8.58313327247832,0.4044444444444445,0.4744444444444445,-0.65,0.006459537943246214,0.00033512801025464486,0.0014259587927511008
1589988766.0738876,0.01163160685875906,-4.55877202286253,8.571017618290023,0.40920662044402545,0.4819278638723575,-0.6772124342833199,-0.0005568886865564369,0.002003680866346239,0.0017587244046118689
1589988766.0838876,0.017471671388101982,-4.502528328611898,8.732188385269122,0.4122222222222222,0.4866666666666667,-0.6944444444444444,0.0013542679615554448,0.004225424196079579,0.0002757978678124891
1589988766.0938876,0.01029906822963631,-4.626112113014728,8.517476705740908,0.4122222222222222,0.4866666666666667,-0.6944444444444444,0.0042980765637950225,0.002246908131183713,0.0
1589988766.1038876,-0.019516853389994204,-4.53161048870002,8.696940071469962,0.4122222222222222,0.4866666666666667,-0.6944444444444444,0.008656375434017897,3.5135412976875294e-05,0.0010732630760080183
1589988766.1138875,-0.012976210734097948,-4.551071367797706,8.650833475138686,0.4122222222222222,0.4866666666666667,-0.6944444444444444,0.0002987041648560892,0.0015323531082028288,0.001090830782496456
1589988766.1238875,0.008614547253834736,-4.532078179119248,8.66722909450767,0.4122222222222222,0.4752911100115455,-0.6530787838803673,-0.010379354748840598,-0.0039099347790224285,0.001090830782496456
1589988766.1338875,0.002865753911806544,-4.558536984352774,8.605791785206259,0.4122222222222222,0.4744444444444445,-0.65,-0.010130082300673925,-0.0028068720814045543,0.0018690563067870908
1589988766.1438875,0.01913816740153396,-4.522154581496165,8.560861832598466,0.4122222222222222,0.4744444444444445,-0.65,0.002708424230829967,0.0009498137533316062,0.0011378364588847394
1589988766.1538875,0.02,-4.559389548923017,8.599389548923018,0.4122222222222222,0.4744444444444445,-0.65,0.005420858971183247,-0.0021317191530443634,0.0021650140943433958
1589988766.1638875,0.012050226113730396,-4.5043515827961125,8.703347060521505,0.4122222222222222,0.4744444444444445,-0.65,0.011524454560802835,0.0012870816626188337,0.0004472899511870391
1589988766.1738875,0.002365929829697946,-4.551072561362417,8.676561508807886,0.4173116023357569,0.47953382455797916,-0.6627234502838367,0.0022642470312029973,0.0013489136912425677,0.0016654957475006886
1589988766.1838875,0.0,-4.56309078442716,8.639272353281482,0.4188888888888889,0.4811111111111111,-0.6666666666666666,-0.001090830782496456,0.001090830782496456,0.002181661564992912
1589988766.1938875,-0.009885404317994036,-4.550114595682006,8.541031361138053,0.4188888888888889,0.4811111111111111,-0.6666666666666666,-0.001090830782496456,0.0032474914479947124,0.001103331232243784
1589988766.2038875,-0.0035370473883609707,-4.511222284330166,8.60462952611639,0.4188888888888889,0.4811111111111111,-0.6666666666666666,0.0024341630447994016,-0.0002525014798064897,-0.00031916674842188703
1589988766.2138875,0.0,-4.502816774236699,8.678450322710095,0.4188888888888889,0.4811111111111111,-0.6666666666666666,0.0036642765365009033,0.0006145248089467711,-0.001090830782496456
1589988766.2238874,0.0,-4.548111698067117,8.7,0.4125369392110361,0.4673485534757635,-0.6645493501073824,-0.0008848489949927736,0.00010299089375184105,-5.1495446875920526e-05
1589988766.2338874,0.0,-4.5581664544039455,8.642834819172379,0.4122222222222222,0.4666666666666667,-0.6644444444444444,-0.006435762691103325,-0.0026724659543034346,-0.001781643969535623
1589988766.2438874,0.0,-4.567781881021708,8.528835546717799,0.4122222222222222,0.4666666666666667,-0.6644444444444444,-0.006786943941054814,-0.0015747492746486132,0.00036495304426822006
1589988766.2538874,0.009054343293954135,-4.524728283530229,8.59054343293954,0.4122222222222222,0.4666666666666667,-0.6644444444444444,0.00036874477125613345,-0.00010315514446290319,0.0020785064205300087
1589988766.2638874,0.01,-4.526283073311488,8.643981513180417,0.4122222222222222,0.4666666666666667,-0.6644444444444444,0.0065738466039791076,0.0013707539553706625,0.0014962845873075807
1589988766.2738874,-0.004844713272071652,-4.53,8.677422356636036,0.41717045997957947,0.4666666666666667,-0.6487750248794799,0.007388516513291686,0.0013720080552674396,0.0002811772727709837
1589988766.2838874,-0.003376433276408881,-4.556494266894365,8.62701146621127,0.4188888888888889,0.4666666666666667,-0.6433333333333333,0.0029323894589725415,-0.0010767263591072607,0.0007225190472012388
1589988766.2938874,0.0,-4.53163696792536,8.532864693869378,0.4188888888888889,0.4666666666666667,-0.6433333333333333,-0.005186305662041072,-8.928275014706902e-05,4.464137507353451e-05
1589988766.3038874,0.0,-4.539550939432839,8.568203757731357,0.4188888888888889,0.4666666666666667,-0.6433333333333333,0.0018387672020879695,0.0010418458735100356,0.0010418458735100356
1589988766.3138874,0.0,-4.476871080963837,8.680475608313287,0.4188888888888889,0.4666666666666667,-0.6433333333333333,0.00046008736123356853,0.00023004368061678427,-0.0014915305231425595
1589988766.3238873,0.0,-4.526368608293952,8.701703923963256,0.4133581715310595,0.47311917025080097,-0.6608472716331262,0.0036198460459246277,-0.004524807557405784,0.0005332229694505588
1589988766.3338873,0.0,-4.549357795748492,8.671926612754524,0.4122222222222222,0.4744444444444445,-0.6644444444444444,-0.001761339865275868,-0.002391822414851434,-0.0009507235492574411
1589988766.3438873,0.0072670247599426075,-4.520931900960229,8.590062727640632,0.4122222222222222,0.4744444444444445,-0.6644444444444444,-0.005352499287116637,-0.0005962427039310492,-0.001090830782496456
1589988766.3538873,0.019391816920943133,-4.547567267683772,8.616350901525658,0.4122222222222222,0.4744444444444445,-0.6644444444444444,-0.0044960080947915645,0.0020489766001871713,-6.63424824028703e-05
1589988766.3638873,0.0048203055655228425,-4.527230458348284,8.66553908330343,0.4122222222222222,0.4744444444444445,-0.6644444444444444,0.007227611440626649,0.0005258137691911303,-0.0016558477958017817
1589988766.3738873,0.009071719464047005,-4.5290717194640475,8.689071719464046,0.4122222222222222,0.4855321015671686,-0.6644444444444444,0.007939594572498142,0.0,0.0007870516874735056
1589988766.3838873,0.0008755123550767078,-4.539124487644924,8.644377561775384,0.4122222222222222,0.4866666666666667,-0.6644444444444444,0.004649833878197916,-0.000995327199759092,0.0020861579822555477
1589988766.3938873,0.0,-4.557853359917755,8.580488800274152,0.4122222222222222,0.4866666666666667,-0.6644444444444444,0.001117490701773333,0.0002075021887885406,0.0008833285937079154
1589988766.4038873,0.0062096083469594335,-4.5513711749591215,8.571048041734796,0.4122222222222222,0.4866666666666667,-0.6644444444444444,-0.0038002835553405693,0.0004134675892854277,0.0013547263864220566
1589988766.4138873,0.0047080184028918835,-4.545291981597108,8.611167926388433,0.4122222222222222,0.4866666666666667,-0.6644444444444444,-0.003145091341870163,0.0005772656426530292,0.002181661564992912
1589988766.4238873,0.0,-4.5403618826600916,8.649276234679817,0.4052613596989549,0.47702854932675803,-0.6585544838478337,0.0010118802334405806,0.001090830782496456,0.0011303060570243936
1589988766.4338872,0.01493653794220902,-4.534978845980737,8.67,0.3977777777777778,0.4666666666666667,-0.6522222222222223,0.0027293845017797723,-0.0016247084460515222,0.0
1589988766.4438872,0.014687272991428158,-4.555312727008572,8.603644849629521,0.3977777777777778,0.4666666666666667,-0.6522222222222223,-0.0017158436981539308,-0.0015793907991666508,-0.0005567864661638346
1589988766.4538872,0.0,-4.57657579817955,8.5794547890773,0.3977777777777778,0.4666666666666667,-0.6522222222222223,-0.00545415391248228,0.0003735224751227295,0.0010610941396247237
1589988766.4638872,0.011532508398180041,-4.55693498320364,8.62306501679636,0.3977777777777778,0.4666666666666667,-0.6522222222222223,-0.0010511486064354904,0.0006290007580066841,0.002181661564992912
1589988766.4738872,0.016757767083167764,-4.530273301249503,8.659453397500993,0.3999392663889993,0.4666666666666667,-0.656184951342795,0.00395002529984485,0.0003834852885556809,0.0014743160710521369
1589988766.4838872,0.010584867617407685,-4.511754602852223,8.696490794295553,0.40405453269950603,0.4666666666666667,-0.6637296062453906,0.0073168196770983605,-0.0009632324623457232,0.00012759832015073278
1589988766.4938872,0.0017794665281025378,-4.518220533471897,8.576691997921538,0.4044444444444445,0.4666666666666667,-0.6644444444444444,0.004048931093599905,-0.00019410968652763426,0.0017934421919376434
1589988766.5038872,-0.008127635986792952,-4.544382907960379,8.582510543947171,0.4044444444444445,0.4666666666666667,-0.6644444444444444,-0.0020470329665024595,-0.0008865875523319712,-0.0004781010920030019
1589988766.5138872,-0.0029981355133484955,-4.55,8.611005593459954,0.4044444444444445,0.4666666666666667,-0.6644444444444444,-0.0025087074157985473,-0.001090830782496456,0.0004367390808851855
1589988766.5238872,0.017187450832310644,-4.541406274583845,8.654374901664621,0.42736104555419197,0.4628472331483754,-0.6587152941670076,-0.0012442315429664727,-0.00015340076047001686,0.001090830782496456
1589988766.5338871,0.002529196484766544,-4.51379379472715,8.66,0.4311111111111111,0.4622222222222222,-0.6577777777777778,0.0017678227579081354,-0.0019057690269363944,0.00013794626902825877
1589988766.5438871,0.008108984322955988,-4.5505449216147795,8.570801172447485,0.4311111111111111,0.4622222222222222,-0.6577777777777778,0.0012971085935667543,-0.00041255562214059685,-0.0008845529714261575
1589988766.5538871,0.01,-4.5458793959235395,8.578241208152921,0.4311111111111111,0.4622222222222222,-0.6577777777777778,-0.003530126095717806,0.0,-0.0003206713027940791
1589988766.5638871,0.003944468452895419,-4.570277657735523,8.620277657735523,0.4311111111111111,0.4622222222222222,-0.6577777777777778,-0.0034724858476942603,0.0,0.0
1589988766.573887,-0.015108106384335736,-4.552229734039161,8.670216212768672,0.42187837943179485,0.4714549539015385,-0.6535810815599068,0.0002903965613967859,0.0,0.0
1589988766.583887,-0.01472723076923077,-4.54,8.68527276923077,0.4188888888888889,0.4744444444444445,-0.6522222222222223,0.0022411705796811033,0.0011503397971846473,0.0005751698985923236
1589988766.593887,-0.005780762141218072,-4.5357807621412185,8.664684572847309,0.4188888888888889,0.4744444444444445,-0.6522222222222223,0.00419298725449612,0.003102156471999664,0.0001703358754897035
1589988766.603887,0.0065896355070667,-4.543179271014133,8.636589635507068,0.4188888888888889,0.4744444444444445,-0.6522222222222223,0.0032977007355202803,0.002925687678677824,-0.0003720130568424561
1589988766.613887,0.003778910663841808,-4.55,8.633778910663843,0.4188888888888889,0.4744444444444445,-0.6522222222222223,-0.0018900318841321676,-0.0018900318841321676,-0.0006786155748541799
1589988766.623887,0.007303007120579063,-4.557303007120579,8.651909021361737,0.4034714294121109,0.4744444444444445,-0.6676396816990002,-0.0011767851412184446,-0.0035666886327939793,-0.0018874652796883008
1589988766.633887,0.00180431575525717,-4.519021578776286,8.635412947265772,0.3977777777777778,0.4744444444444445,-0.6733333333333333,0.0008940104657786697,-0.003272492347489368,0.001394380298121767
1589988766.643887,0.0,-4.522800457067031,8.585198400265394,0.3977777777777778,0.4744444444444445,-0.6733333333333333,-0.0017017957372517463,0.00021829080219588513,0.002181661564992912
1589988766.653887,0.007601845256266748,-4.5528055357688,8.6056110715376,0.3977777777777778,0.4744444444444445,-0.6733333333333333,-0.002443259666558325,0.001352428884061869,0.0005231962031308263
1589988766.663887,0.016274830862242694,-4.547450338275515,8.607450338275514,0.3977777777777778,0.4744444444444445,-0.6733333333333333,-0.0014971836990436008,0.00040635291654714494,0.001368955731898622
1589988766.673887,0.005751660293821693,-4.554248339706178,8.649869188971623,0.4025272243465039,0.4744444444444445,-0.6733333333333333,-0.00031370440494816576,0.0015542527550965804,0.0014045351874446216
1589988766.683887,0.007980532370315452,-4.552019467629684,8.677980532370315,0.4044444444444445,0.4744444444444445,-0.6733333333333333,0.00435270518512475,0.002181661564992912,0.00022028974547150585
1589988766.693887,0.002409706802012054,-4.5348194136040245,8.596506774822133,0.4044444444444445,0.4744444444444445,-0.6733333333333333,0.00545415391248228,0.0005257164712851683,0.0008279725468538718
1589988766.703887,0.007608262454434993,-4.54521652490887,8.63086609963548,0.4044444444444445,0.4744444444444445,-0.6733333333333333,0.00047455778051644186,-0.0008299326886609731,0.001090830782496456
1589988766.713887,0.004805663430420713,-4.555194336569579,8.634416990291262,0.4044444444444445,0.4744444444444445,-0.6733333333333333,-0.0027906734499196957,-0.0005242165600220427,0.001090830782496456
1589988766.723887,-0.0049143086494079875,-4.555085691350592,8.624914308649409,0.41427306174326045,0.4706222043837938,-0.6766095390996053,-0.0032911873000932607,-0.001608203744838845,0.0005547628675501744
1589988766.733887,-0.0031792338521763443,-4.55,8.657283064591295,0.4244444444444445,0.4666666666666667,-0.68,5.042893728383294e-05,-0.0002963716777870419,0.0007440301674255816
1589988766.743887,-0.005825596475698376,-4.544174403524302,8.611744035243017,0.4244444444444445,0.4666666666666667,-0.68,-0.00018011720992247506,0.002997252771124853,-0.00018011720992247506
1589988766.753887,-0.003032641903843062,-4.54,8.604836790480784,0.4244444444444445,0.4666666666666667,-0.68,0.0011892318226927113,0.0028432813931930454,0.00042921095429632227
1589988766.763887,0.006008130832486372,-4.552016261664972,8.638024392497458,0.4244444444444445,0.4666666666666667,-0.68,-0.001750650869412404,0.0008708907535244735,0.001746216188230675
1589988766.773887,0.00578774073307103,-4.555787740733071,8.654212259266929,0.4192961275626424,0.4666666666666667,-0.670639423851269,-0.0034443507155414083,0.0,0.0017221753577707042
1589988766.783887,-0.004952401174930106,-4.55,8.64019039530028,0.4122222222222222,0.4666666666666667,-0.6577777777777778,-2.076890543876173e-05,0.0016206694946656127,0.0005506076176079184
1589988766.793887,-0.005286906180827515,-4.5405738123616555,8.591721437084965,0.4122222222222222,0.4666666666666667,-0.6577777777777778,0.004238136692491764,0.0022442547837399416,0.0
1589988766.803887,0.0,-4.53,8.579291254914462,0.4122222222222222,0.4666666666666667,-0.6577777777777778,0.006124114801105116,0.001932570570243695,0.0
1589988766.813887,0.004056018991724092,-4.534056018991724,8.626224075966896,0.4122222222222222,0.4666666666666667,-0.6577777777777778,0.0032419387272008405,0.0037149353845456557,-0.0004424430370562878
1589988766.8238869,0.00777719053191891,-4.542222809468081,8.65,0.409011497434994,0.4683955184751742,-0.6577777777777778,-0.00048494179828148537,0.003393439533422853,-0.0006058889842149705
