time,acc_x,acc_y,acc_z,mag_x,mag_y,mag_z,gyr_x,gyr_y,gyr_z
1589988790.029551,-3.86,-0.86,9.06,0.3233333333333333,-0.3322222222222222,-0.6088888888888889,-0.01963495408493621,0.003272492347489368,-0.004363323129985824
1589988790.039551,-3.823023789909883,-0.8230237899098829,8.91023789909883,0.3233333333333333,-0.3322222222222222,-0.6088888888888889,-0.01676890573903305,0.005352856064036567,0.0007609864711462083
1589988790.049551,-3.8130769380032987,-0.8038461239934026,8.798461628019792,0.3233333333333333,-0.3322222222222222,-0.6088888888888889,-0.0022655667405399376,0.001090830782496456,0.0008390940890603377
1589988790.059551,-3.818686224757271,-0.7913137752427286,8.850510201941828,0.3233333333333333,-0.3322222222222222,-0.6088888888888889,0.001146485180840111,0.0009475201348914421,-0.0014651083269678425
1589988790.069551,-3.81,-0.7996177998180698,8.920229320109158,0.323171959923185,-0.3322222222222222,-0.6088888888888889,0.008818367719147199,-5.002988682302768e-05,0.003230800775136845
1589988790.079551,-3.81,-0.7688488511986854,8.938690689280788,0.3101806260616672,-0.3322222222222222,-0.6088888888888889,0.016202385304943983,-0.004077675842712183,-0.00012557085477078516
1589988790.089551,-3.812887427809862,-0.7528874278098623,8.91246343847179,0.3022222222222222,-0.3322222222222222,-0.6088888888888889,0.01978087632626243,-0.007489893236148967,-0.0018666920512695018
1589988790.099551,-3.82,-0.760605151840394,8.82605151840394,0.3022222222222222,-0.3322222222222222,-0.6088888888888889,0.01685918608991579,-0.00961944156579227,-0.0011568426080550678
1589988790.109551,-3.822436594927594,-0.7748731898551884,8.929746379710377,0.3022222222222222,-0.3322222222222222,-0.6088888888888889,0.0036489463502334648,-0.004684445768932596,-0.0019158702898434635
1589988790.119551,-3.8313668564618646,-0.7913668564618644,8.965467425847459,0.3031334598634652,-0.3322222222222222,-0.607066413606403,-0.00962125172228518,0.0006435280513396894,-0.0012399316928820448
1589988790.129551,-3.8333887603925736,-0.8033056198037133,8.983471900981433,0.3088888888888889,-0.3322222222222222,-0.5955555555555555,-0.01274752066896621,-0.003984597483553036,-0.0025422487487049366
1589988790.139551,-3.82,-0.8080700340142742,8.932630306128468,0.3088888888888889,-0.3322222222222222,-0.5955555555555555,-0.006162129062994618,-0.008267395369395438,-0.003061965716849286
1589988790.149551,-3.8205981283511505,-0.8,8.859102807473274,0.3088888888888889,-0.3322222222222222,-0.5955555555555555,0.00035885124952542683,-0.010875684984098612,-0.0020837930423950684
1589988790.159551,-3.836194294709018,-0.7885828841270549,8.841417115872945,0.3088888888888889,-0.3322222222222222,-0.5955555555555555,0.012829414703563514,-0.008987200946365606,0.0008832617584708314
1589988790.169551,-3.8237373962370618,-0.7512121887111863,8.878787811288815,0.3088888888888889,-0.3322222222222222,-0.5955555555555555,0.015547088365092082,-0.0062695272848370355,0.00020384334308868885
1589988790.179551,-3.82,-0.7425980606938067,8.963464080925077,0.3233333333333333,-0.34444444444444444,-0.5955555555555555,0.01351952310388093,-0.003083556042182798,0.001803788954379772
1589988790.1895509,-3.82,-0.7665686853485226,8.99542491379803,0.3233333333333333,-0.34444444444444444,-0.5955555555555555,0.007418347545773337,-0.0013403630255806277,-0.0016825970788245676
1589988790.1995509,-3.824234227002729,-0.7663513405040938,8.934819794509552,0.3233333333333333,-0.34444444444444444,-0.5955555555555555,0.004928395890849596,0.0013217720402291901,-0.0036704993567876214
1589988790.2095509,-3.84064446597239,-0.7906444659723905,8.99,0.3233333333333333,-0.34444444444444444,-0.5955555555555555,-0.001301731778782947,0.002251961897088409,-0.0011611311145919528
1589988790.2195508,-3.8481354263369623,-0.8027968604945566,8.99,0.3219866967989172,-0.34444444444444444,-0.5961770801099014,-0.0036514461082300417,0.002560615325733586,-0.0023850549997802783
1589988790.2295508,-3.8276674914122366,-0.8183374570611833,8.966674914122367,0.3088888888888889,-0.34444444444444444,-0.6022222222222222,0.005053552865068077,-0.0046177603467827824,-0.0038544486963919067
1589988790.2395508,-3.8217590594015967,-0.7747228217952092,8.877686584188822,0.3088888888888889,-0.34444444444444444,-0.6022222222222222,0.009948889753213706,-0.004110968612031085,-0.0012222434932420586
1589988790.2495508,-3.8291194173905416,-0.7526417478283759,8.82616407826621,0.3088888888888889,-0.34444444444444444,-0.6022222222222222,0.005934437220946544,0.0015092649331429429,0.0027922090390251043
1589988790.2595508,-3.842356222066265,-0.7570686661987959,8.87942488826506,0.3088888888888889,-0.34444444444444444,-0.6022222222222222,0.0025014204794054956,0.006287960738950778,0.001090830782496456
1589988790.2695508,-3.8501793446649004,-0.7803586893298003,8.910717378659601,0.3090084519988223,-0.34444444444444444,-0.6021026591122888,1.9563468114959382e-05,0.005375900040022442,0.0010712673143814966
1589988790.2795508,-3.8573285849732906,-0.7973285849732905,8.955342830053418,0.31555555555555553,-0.34444444444444444,-0.5955555555555555,0.001090830782496456,0.001090830782496456,0.0
1589988790.2895508,-3.848237094610861,-0.7917629053891392,8.959422567665165,0.31555555555555553,-0.34444444444444444,-0.5955555555555555,0.0020523465150474127,0.0007062244894760733,0.0007692125860407654
1589988790.2995508,-3.8410246930563674,-0.7989753069436325,8.916148158338206,0.31555555555555553,-0.34444444444444444,-0.5955555555555555,0.005986101330730672,-0.0008672774367972306,0.003916216438587373
1589988790.3095508,-3.781533412277239,-0.76,9.0,0.31555555555555553,-0.34444444444444444,-0.5955555555555555,-0.006123231238190528,0.00486513112426701,0.017540507313877376
1589988790.3195508,-3.7876651608847567,-0.76,9.0,0.31555555555555553,-0.34444444444444444,-0.5955555555555555,-0.008798711290834352,0.006871741163749877,0.013527287234911645
1589988790.3295507,-3.850209714971074,-0.7902097149710738,9.029370855086778,0.31555555555555553,-0.34444444444444444,-0.6088888888888889,-0.011907633189061954,0.004340446775386059,0.009977611524666462
1589988790.3395507,-3.85760759136447,-0.7976075913644702,9.00717722590659,0.31555555555555553,-0.34444444444444444,-0.6088888888888889,-0.008679700671053711,0.003533463645883998,0.015626493431180888
1589988790.3495507,-3.838921100917431,-0.814605504587156,8.821078899082568,0.31555555555555553,-0.34444444444444444,-0.6088888888888889,-0.006309605428884087,0.00023537926609464813,0.017924051052132593
1589988790.3595507,-3.8321569901364363,-0.7689215049317819,8.834313980272873,0.31555555555555553,-0.34444444444444444,-0.6088888888888889,-0.004245677568067536,0.0020640160030746244,0.020993096716501104
1589988790.3695507,-3.8486722579883055,-0.7606638710058473,8.86734451597661,0.31555555555555553,-0.34444444444444444,-0.6088888888888889,-0.003344909440367876,0.0011632478753749638,0.01468771982260348
1589988790.3795507,-3.85,-0.7765537220231326,8.936214888092529,0.31555555555555553,-0.33892653710340026,-0.5914155156422489,-0.0005638959153309937,-0.006132093036592543,0.014180800172453925
1589988790.3895507,-3.810916113985861,-0.7490838860141389,8.93267108811311,0.31555555555555553,-0.3377777777777778,-0.5877777777777777,0.0059453894933470565,-0.01060851022414872,0.016062664136631
1589988790.3995507,-3.818558231907295,-0.7414417680927046,8.871534144741636,0.31555555555555553,-0.3377777777777778,-0.5877777777777777,0.0009436350100460377,-0.008107632982498211,0.01356178689498049
1589988790.4095507,-3.85890764782364,-0.7532770565290796,8.93873881741088,0.31555555555555553,-0.3377777777777778,-0.5877777777777777,-0.005334996774552246,-0.002181661564992912,0.009698319904538072
1589988790.4195507,-3.8507682754070367,-0.7776951737788904,9.003853796743707,0.31555555555555553,-0.3377777777777778,-0.5877777777777777,-0.004447128976328869,-0.002181661564992912,0.008810452106314693
1589988790.4295506,-3.84,-0.7711454247554739,9.027709150489052,0.3288888888888889,-0.3388888888888889,-0.6022222222222222,-0.007635815477475192,0.0018068221903015872,0.0023066080232233537
1589988790.4395506,-3.836885546952551,-0.7737710939051022,8.977298243001787,0.3288888888888889,-0.3388888888888889,-0.6022222222222222,-0.006446746038296196,-0.0014305649079761691,0.0031026252847495116
1589988790.4495506,-3.8236366975004015,-0.7436366975004016,8.805455046250604,0.3288888888888889,-0.3388888888888889,-0.6022222222222222,-0.0005950532370099106,-0.0030741412684860644,0.0015866083279830012
1589988790.4595506,-3.8418231292517007,-0.76,8.836380952380953,0.3288888888888889,-0.3388888888888889,-0.6022222222222222,-0.0033719286229006097,-0.0022810978404041535,-0.0011902670579076976
1589988790.4695506,-3.8539646837458386,-0.76,8.878876393110437,0.3288888888888889,-0.3388888888888889,-0.6022222222222222,-0.00403414769237881,-0.002943316909882354,-0.0018524861273858978
1589988790.4795506,-3.8346892248620112,-0.7684369250459964,8.933747700183986,0.3242017083077798,-0.33326427219155796,-0.5900355527113386,0.0011586313998870447,-0.006033469612425802,-0.004022313074950535
1589988790.4895506,-3.829241282490658,-0.76,8.916965129962632,0.3233333333333333,-0.3322222222222222,-0.5877777777777777,0.004280559888544891,-0.008726646259971648,-0.001173594023937389
1589988790.4995506,-3.8205819931044447,-0.76,8.88232797241778,0.3233333333333333,-0.3322222222222222,-0.5877777777777777,0.0033359779468422907,-0.008726646259971648,-0.0021181759656399893
1589988790.5095506,-3.848412490922295,-0.7694708303074317,8.93682498184459,0.3233333333333333,-0.3322222222222222,-0.5877777777777777,-0.001893044270084022,-0.00252800231888358,-0.001148554241478234
1589988790.5195506,-3.8591792113040264,-0.7883584226080532,9.022612901736238,0.3233333333333333,-0.3322222222222222,-0.5877777777777777,-0.00017906831509858232,-0.0011803649400457471,-8.953415754929116e-05
1589988790.5295506,-3.844785081548126,-0.7519627038703157,9.03,0.3072731416341333,-0.35081823366340126,-0.5987663299930199,-0.002489535210071577,-0.001090830782496456,-0.001659690140047718
1589988790.5395505,-3.841326992606104,-0.77,8.971374548060323,0.3022222222222222,-0.3566666666666667,-0.6022222222222222,-0.004580451787418345,0.003272492347489368,-7.237621914417382e-05
1589988790.5495505,-3.8549887625810233,-0.77,8.882573043223347,0.3022222222222222,-0.3566666666666667,-0.6022222222222222,-0.00681585367222253,0.003272492347489368,-0.0008175101807455687
1589988790.5595505,-3.8408002891740467,-0.7891997108259534,8.897999277064883,0.3022222222222222,-0.3566666666666667,-0.6022222222222222,-0.0034470883606791134,0.0022253105682903482,-4.3649003297436314e-05
1589988790.5695505,-3.84,-0.7820722189866046,8.868288875946417,0.3022222222222222,-0.3566666666666667,-0.6022222222222222,0.00191622819229226,-0.0012774854615281734,-0.002594360269890814
1589988790.5795505,-3.8393447432762833,-0.7406552567237163,8.874586797066014,0.3288888888888889,-0.3377777777777778,-0.5955555555555555,0.0037915037662517403,-0.003201014927022608,-0.003129537506555847
1589988790.5895505,-3.8311407334963326,-0.7488592665036675,8.932014865525671,0.3288888888888889,-0.3377777777777778,-0.5955555555555555,-0.003367845360046368,-0.0023060962862353437,-0.0013397002249813195
1589988790.5995505,-3.831208408742865,-0.7424168174857302,8.897250452457191,0.3288888888888889,-0.3377777777777778,-0.5955555555555555,-0.007899449368386212,0.006544984694978735,-0.0009590138370409466
1589988790.6095505,-3.84,-0.7612508487130424,8.953127121782606,0.3288888888888889,-0.3377777777777778,-0.5955555555555555,-0.009612807400403196,0.006544984694978735,6.822321402163657e-05
1589988790.6195505,-3.84,-0.7741954200358003,8.985488550089501,0.3288888888888889,-0.3377777777777778,-0.5955555555555555,-0.007494756870640424,0.006544984694978735,0.0007742400572758934
1589988790.6295505,-3.84,-0.7965126155383463,9.02476892330752,0.31237627335054263,-0.3267693674188803,-0.6184897438032586,-0.002041867362789394,0.002041867362789394,0.0037927011818100617
1589988790.6395504,-3.8089929310309087,-0.81,9.003957586185452,0.3088888888888889,-0.3244444444444444,-0.6233333333333333,0.004363323129985824,-0.0021267344734138185,0.013474459031011125
1589988790.6495504,-3.791603267066067,-0.81,8.899619602396402,0.3088888888888889,-0.3244444444444444,-0.6233333333333333,0.004363323129985824,-0.0011782754359078824,0.020113672293552678
1589988790.6595504,-3.85,-0.7969524435048542,8.840761889123787,0.3088888888888889,-0.3244444444444444,-0.6233333333333333,0.001132385387950232,-0.00104927617704268,0.033514460978515424
1589988790.6695504,-3.85,-0.7280819359208555,8.857979516019785,0.3088888888888889,-0.3244444444444444,-0.6233333333333333,0.0020714612589349994,-0.00011020030605791249,0.051356902527225995
1589988790.6795504,-3.828541867923799,-0.72,8.9029162641524,0.3192205821107633,-0.333981392033867,-0.6034646925220363,-0.0032800163358457806,-0.0031209588004792533,0.0690555023447226
1589988790.6895504,-3.810359319631467,-0.7392813607370659,8.939281360737066,0.3233333333333333,-0.3377777777777778,-0.5955555555555555,-0.007557424094523285,-0.007518228403047332,0.08893858017552199
1589988790.6995504,-3.7956169943598126,-0.7615745084602815,8.896850983079437,0.3233333333333333,-0.3377777777777778,-0.5955555555555555,-0.009204758007188877,-0.008420286742332033,0.09258600922413676
1589988790.7095504,-3.7394171800616074,-0.7797085900308037,8.932914099691963,0.3233333333333333,-0.3377777777777778,-0.5955555555555555,-0.00975390124952297,-0.007699391270420327,0.09920202541423234
1589988790.7195504,-3.7247353682441897,-0.7723676841220947,9.006323158779052,0.3233333333333333,-0.3377777777777778,-0.5955555555555555,-0.00815236402219698,-0.009300928497746316,0.09760048818690636
1589988790.7295504,-3.6465887091535114,-0.6973039693367115,9.087936724485155,0.3233333333333333,-0.3388888888888889,-0.6088888888888889,-0.004891482801391404,-0.015193608172417503,0.09565550619303359
1589988790.7395504,-3.5580323848502564,-0.5474394205158188,9.074312674592347,0.3233333333333333,-0.3388888888888889,-0.6088888888888889,-0.0011760995500556624,-0.02188129802482184,0.09342627624223215
1589988790.7495503,-3.389518467562705,-0.5721642501852048,8.904583553815218,0.3233333333333333,-0.3388888888888889,-0.6088888888888889,-0.0074417540376004385,-0.022386447456723753,0.10205911621139478
1589988790.7595503,-2.7236861043496665,-1.2601910255053443,9.096935125410097,0.3233333333333333,-0.3388888888888889,-0.6088888888888889,0.009505489510486234,0.027648271590008332,0.11012923218667416
1589988790.7695503,-2.7631662737654223,-0.9385772892875731,8.60138291032667,0.3233333333333333,-0.3388888888888889,-0.6088888888888889,0.04968197699054726,0.0495661244361438,0.053525049012866005
1589988790.7795503,-2.761648115150533,-0.8357684030268668,8.633407539397867,0.31619648922520743,-0.3327715939390667,-0.581361061614689,0.018327916011761432,-0.004873486509391407,-0.04199815893101916
1589988790.7895503,-2.617053488316586,-0.7610499558440939,8.854699381817314,0.31555555555555553,-0.3322222222222222,-0.5788888888888889,-0.04679119123184765,0.038288064132382275,-0.15372491860702892
1589988790.7995503,-1.8996430402162263,-0.7648215201081131,8.958250384454075,0.31555555555555553,-0.3322222222222222,-0.5788888888888889,-0.03835841710500714,0.05611937789052943,-0.24461866318338366
1589988790.8095503,-1.8205060250691318,-0.72,8.777004016712754,0.31555555555555553,-0.3322222222222222,-0.5788888888888889,0.027020360453368097,0.041604373675493175,-0.31711773900312085
1589988790.8195503,-1.9474957107966817,-0.72,8.861663807197788,0.31555555555555553,-0.3322222222222222,-0.5788888888888889,0.03717880605845333,0.043451363785508665,-0.3660629769185314
1589988790.8295503,-2.03477210258844,-0.749908841035376,8.989635364141503,0.31057074871632623,-0.3322222222222222,-0.5855352980078613,0.0169725124817581,0.03302994884704931,-0.4214519669775761
1589988790.8395503,-2.126818759092064,-0.8034093795460319,9.137726233634286,0.3088888888888889,-0.3322222222222222,-0.5877777777777777,0.007437558172904808,0.02932855494599443,-0.505203691613753
1589988790.8495502,-2.2206601853005945,-0.850330092650297,8.968019444098218,0.3088888888888889,-0.3322222222222222,-0.5877777777777777,0.019887006741750122,0.043010498308587615,-0.553904782152914
1589988790.8595502,-2.238086335119864,-0.8590431675599318,8.915740994640409,0.3088888888888889,-0.3322222222222222,-0.5877777777777777,0.026540149966889137,0.05536633572670292,-0.6052290298897007
1589988790.8695502,-2.24,-0.8770543095966747,8.870206610941093,0.3088888888888889,-0.3322222222222222,-0.5877777777777777,0.02665065736633548,0.054862864101587944,-0.6393903992175075
1589988790.8795502,-2.2745165500489435,-0.9097237428851104,8.874516550048943,0.3088888888888889,-0.33550951270307394,-0.5949002404862899,0.024028412191402553,0.05452647163658252,-0.6841723650193605
1589988790.8895502,-2.31,-0.9238502650273825,8.873101590164294,0.3088888888888889,-0.3388888888888889,-0.6022222222222222,0.02382911171362697,0.05563236990731925,-0.7408199468805982
1589988790.8995502,-2.3440443020339927,-0.92,8.747867093898021,0.3088888888888889,-0.3388888888888889,-0.6022222222222222,0.026017522313100637,0.05934602717004785,-0.8041069447039052
1589988790.9095502,-2.3772418593718925,-0.9404313945289193,8.770862789057839,0.3088888888888889,-0.3388888888888889,-0.6022222222222222,0.02469412584114995,0.059252786567922586,-0.8457517997689581
1589988790.9195502,-2.3970287780187998,-0.9921726681127983,8.916518004338394,0.3088888888888889,-0.3388888888888889,-0.6022222222222222,0.026298439442794384,0.05967158299743274,-0.8954920308476615
1589988790.9295502,-2.4201369166207454,-1.0032876944597515,9.01027383324149,0.32678837032955127,-0.3247184660816978,-0.5977473518620566,0.029467366413858737,0.06438888674019975,-0.939040830621342
1589988790.9395502,-2.4726416494579246,-1.008528329891585,9.06411331956634,0.33555555555555555,-0.31777777777777777,-0.5955555555555555,0.036125040771316064,0.06840127068608891,-0.9905979629780045
1589988790.9495502,-2.460986724988556,-1.067039825034332,8.92740043741417,0.33555555555555555,-0.31777777777777777,-0.5955555555555555,0.0360512333219518,0.07183337914605976,-1.038499866518868
1589988790.9595501,-2.424195923116511,-1.0879020384417446,8.92,0.33555555555555555,-0.31777777777777777,-0.5955555555555555,0.03306820163212959,0.07687685529518852,-1.0797087557049985
1589988790.9695501,-2.397233097716486,-1.1051779348556763,8.889644130288648,0.33555555555555555,-0.31777777777777777,-0.5955555555555555,0.03189709554712881,0.07662115762948349,-1.1165710869843073
1589988790.9795501,-2.4102328097074595,-1.1216296679522153,8.878603141755244,0.37666666666666665,-0.2977777777777777,-0.5955555555555555,0.030594053108972893,0.08079766470334593,-1.1603403853793506
1589988790.98955,-2.4202529323246273,-1.1902529323246274,8.819578446125622,0.37666666666666665,-0.2977777777777777,-0.5955555555555555,0.03275251411145288,0.08400316713108016,-1.1936355855378615
1589988790.99955,-2.4461911731359898,-1.2161911731359898,8.77634804477335,0.37666666666666665,-0.2977777777777777,-0.5955555555555555,0.03558193726353686,0.08494630818177484,-1.2209866760080068
1589988791.00955,-2.547204588670414,-1.2424318281547109,8.799909104206282,0.37666666666666665,-0.2977777777777777,-0.5955555555555555,0.035997415822383035,0.0875317339006065,-1.2478410088250942
1589988791.01955,-2.604267190952814,-1.2597068763811257,8.834267190952815,0.37666666666666665,-0.2977777777777777,-0.5955555555555555,0.038115127734066986,0.08888672136013392,-1.2693113580793665
1589988791.02955,-2.63,-1.3126311856526072,8.898368067087345,0.38187714491309643,-0.3039356157053765,-0.6012397136425698,0.041755841240494425,0.0913082605488768,-1.2955336833993751
1589988791.03955,-2.652646401610468,-1.37,8.983969602415701,0.3888888888888889,-0.31222222222222223,-0.6088888888888889,0.04425081609959513,0.09319386249495833,-1.3266182205541626
1589988791.04955,-2.678171181279051,-1.4108559063952557,8.928288187209489,0.3888888888888889,-0.31222222222222223,-0.6088888888888889,0.04650673729606424,0.0945032917259083,-1.3580587974739566
1589988791.05955,-2.6673841065190613,-1.4578476804428169,8.91,0.3888888888888889,-0.31222222222222223,-0.6088888888888889,0.04621763339946238,0.09490227807719166,-1.3768975425436634
1589988791.06955,-2.653861661771904,-1.473861661771904,8.91,0.3888888888888889,-0.31222222222222223,-0.6088888888888889,0.04246694871856025,0.09490227807719166,-1.400755636843437
1589988791.07955,-2.64438292654891,-1.4868512203532702,8.89876585309782,0.4069883477868458,-0.2853850935114585,-0.6170024394293523,0.039135283626770344,0.09551500573999093,-1.4226987550239028
1589988791.08955,-2.5973474029605876,-1.535543830866177,8.854456169133822,0.4211111111111111,-0.2644444444444444,-0.6233333333333333,0.03817907738737596,0.09676855495642159,-1.4516469698361834
1589988791.09955,-2.59346288639496,-1.5836572159873992,8.786148454420161,0.4211111111111111,-0.2644444444444444,-0.6233333333333333,0.03744479084233222,0.09708393964218458,-1.476420177516264
1589988791.10955,-2.6,-1.6335444587842085,8.810316688176313,0.4211111111111111,-0.2644444444444444,-0.6233333333333333,0.0416621626328793,0.09799872284778453,-1.501086792678476
1589988791.11955,-2.6067493353727373,-1.6872453476091627,8.84699734149095,0.4211111111111111,-0.2644444444444444,-0.6233333333333333,0.04916854502473865,0.10185596181766819,-1.5152992232415743
1589988791.12955,-2.6015247141600706,-1.760851715039578,8.910851715039577,0.4559539528974885,-0.26632784129776216,-0.6299252223199452,0.05790693917062084,0.10917598594795426,-1.5354102750955023
1589988791.13955,-2.574942367912586,-1.8201152641748286,8.894942367912586,0.4622222222222222,-0.26666666666666666,-0.6311111111111111,0.060727104682636784,0.11108503024605612,-1.549004857886972
1589988791.14955,-2.5959964359218914,-1.847330957281261,8.846672606796847,0.4622222222222222,-0.26666666666666666,-0.6311111111111111,0.05730549548129541,0.10842896856075894,-1.5691212573178646
1589988791.15955,-2.572236729898236,-1.8777632701017644,8.860822452576322,0.4622222222222222,-0.26666666666666666,-0.6311111111111111,0.05445182346608309,0.10799224746714917,-1.5832440436960562
1589988791.16955,-2.5683551928495096,-1.9317759642475467,8.882532789274263,0.4622222222222222,-0.26666666666666666,-0.6311111111111111,0.052539298186932426,0.10844795254484611,-1.5955409005579912
1589988791.17955,-2.58,-1.987746865941347,8.893240597824041,0.46622779388204977,-0.2533982105434878,-0.6331138969410248,0.050777489179679454,0.10982041464612656,-1.6096353726160149
1589988791.18955,-2.5663778372864066,-1.9890814418090623,8.879081441809062,0.48,-0.20777777777777776,-0.64,0.04809675358486297,0.11285088641087374,-1.628604678305853
1589988791.19955,-2.5041697208908937,-2.0523774618389785,8.759056345402554,0.48,-0.20777777777777776,-0.64,0.04690572364734761,0.1134464013796314,-1.6444397719606736
1589988791.20955,-2.4914445435215034,-2.0742777282392484,8.730055902325262,0.48,-0.20777777777777776,-0.64,0.049402535720322896,0.11219799534314376,-1.6586991884082987
1589988791.21955,-2.4951321705759373,-2.1040748059684393,8.833017441360942,0.48,-0.20777777777777776,-0.64,0.0486140576874786,0.11232673545058043,-1.6736635721416526
1589988791.22955,-2.49,-2.1755994241801977,8.879486207845545,0.4997774578778876,-0.19026060080022017,-0.6354794381993399,0.05080770043076793,0.11899396534176115,-1.6887181433640908
1589988791.2395499,-2.504300767380598,-2.2815038369029894,8.814248081548506,0.5188888888888888,-0.17333333333333334,-0.6311111111111111,0.06421221440696182,0.12435470920459595,-1.7060708380899465
1589988791.2495499,-2.5020285298129608,-2.341885880748156,8.80797147018704,0.5188888888888888,-0.17333333333333334,-0.6311111111111111,0.05806643094682779,0.119137394167531,-1.7199877445223952
1589988791.2595499,-2.4760604821248138,-2.3819193571669155,8.833939517875187,0.5188888888888888,-0.17333333333333334,-0.6311111111111111,0.06085516251059476,0.11868018994349648,-1.7346083216362134
1589988791.2695498,-2.464033827164885,-2.419830864175574,8.845966172835114,0.5188888888888888,-0.17333333333333334,-0.6311111111111111,0.060875737605850515,0.12215459778323236,-1.7448523299973153
1589988791.2795498,-2.4136989703938143,-2.4708673530707905,8.865433676535394,0.5446116831145476,-0.1501828185302405,-0.6594061847593357,0.056628587146924605,0.12351293273200085,-1.7606356692680518
1589988791.2895498,-2.3622320637732503,-2.4925893120755833,8.844821375848834,0.5522222222222222,-0.14333333333333334,-0.6677777777777778,0.052199167621694145,0.1253237997934746,-1.7727997012393946
1589988791.2995498,-2.346497461928934,-2.519492385786802,8.745532994923858,0.5522222222222222,-0.14333333333333334,-0.6677777777777778,0.052304505438890966,0.12795389706562488,-1.7879768595414751
1589988791.3095498,-2.3106926443717333,-2.5758585815663113,8.772063485318489,0.5522222222222222,-0.14333333333333334,-0.6677777777777778,0.050592196775803094,0.12657414865968938,-1.8026159690153742
1589988791.3195498,-2.2779124616059674,-2.6120875383940323,8.793883282141291,0.5522222222222222,-0.14333333333333334,-0.6677777777777778,0.05260350760295875,0.12764311648122884,-1.8136598207802093
1589988791.3295498,-2.2534643191290296,-2.638169601088713,8.77653568087097,0.5554900626577074,-0.13262207857257616,-0.6748580987213292,0.05799226451927786,0.1312561599935061,-1.8258081993499944
1589988791.3395498,-2.2076515760583297,-2.7046968478833415,8.803825788029165,0.5722222222222222,-0.07777777777777778,-0.7111111111111111,0.060251866349897674,0.1351018616072012,-1.8547924018049082
1589988791.3495498,-2.173838717174065,-2.759241924238903,8.74767743434813,0.5722222222222222,-0.07777777777777778,-0.7111111111111111,0.06037308550439838,0.13849416275826645,-1.876694304496607
1589988791.3595498,-2.155225776852358,-2.80864533888585,8.753419562033491,0.5722222222222222,-0.07777777777777778,-0.7111111111111111,0.059474906080109614,0.13962634015954636,-1.8927181396437023
1589988791.3695498,-2.132607836913201,-2.848696081543399,8.7986960815434,0.5722222222222222,-0.07777777777777778,-0.7111111111111111,0.05937915992654059,0.14057493550301028,-1.9099976474215306
1589988791.3795497,-2.0957203724449505,-2.912358634368515,8.81,0.568520096559802,-0.059267149465676586,-0.7100533609218482,0.054803473937427544,0.14180800172453928,-1.9266120620236031
1589988791.3895497,-2.064174501396483,-2.97,8.804724833798828,0.5644444444444444,-0.03888888888888889,-0.7088888888888889,0.04908738521234052,0.14526058992955343,-1.941523585143747
1589988791.3995497,-2.0445624648028047,-2.9917501407887803,8.734749577633659,0.5644444444444444,-0.03888888888888889,-0.7088888888888889,0.051459957521943864,0.1465735571873155,-1.9500032067708728
1589988791.4095497,-2.026963628616803,-3.023036371383197,8.686518185691599,0.5644444444444444,-0.03888888888888889,-0.7088888888888889,0.05060661330295687,0.1479245891113981,-1.9600285550042682
1589988791.4195497,-1.98090479485912,-3.04303173504696,8.71606347009392,0.5644444444444444,-0.03888888888888889,-0.7088888888888889,0.0505089269861967,0.15086535897587064,-1.963875468389189
1589988791.4295497,-1.9373474899878922,-3.0877541833535127,8.752652510012108,0.5703173174105464,-0.010363505910679239,-0.7088888888888889,0.054563720806935584,0.15162547876700738,-1.9634954084936207
1589988791.4395497,-1.9189497850247423,-3.1442008599010305,8.765525107487628,0.5722222222222222,-0.0011111111111111113,-0.7088888888888889,0.05563236990731925,0.1528308702318288,-1.961084625563978
1589988791.4495497,-1.90431320530588,-3.21412076816472,8.7131320530588,0.5722222222222222,-0.0011111111111111113,-0.7088888888888889,0.055012036836710895,0.1538071403320003,-1.9523084215869428
1589988791.4595497,-1.8542754761437268,-3.270483015904182,8.73858678578441,0.5722222222222222,-0.0011111111111111113,-0.7088888888888889,0.049553767311081146,0.1538071403320003,-1.9321696313149488
1589988791.4695497,-1.8524489480795214,-3.3048978961590425,8.76622447403976,0.5722222222222222,-0.0011111111111111113,-0.7088888888888889,0.04731756964110196,0.15516510990948448,-1.9125603273189118
1589988791.4795496,-1.8422477791878173,-3.337752220812183,8.76112388959391,0.5776465119148336,0.010230585518894528,-0.7350241028623802,0.04593749020136745,0.15453645172802297,-1.892365030827544
1589988791.4895496,-1.7835951523092042,-3.369101211922699,8.736348182115952,0.5844444444444444,0.024444444444444446,-0.7677777777777778,0.04273848565769393,0.15172352133717348,-1.867489937123263
1589988791.4995496,-1.7276730478834819,-3.367673047883482,8.65220176335915,0.5844444444444444,0.024444444444444446,-0.7677777777777778,0.03363742954083998,0.14986231704335803,-1.8335700710682357
1589988791.5095496,-1.693161750892354,-3.355526958482059,8.641311290625586,0.5844444444444444,0.024444444444444446,-0.7677777777777778,0.02701276543782695,0.14846795092618353,-1.8059585818491206
1589988791.5195496,-1.6476981350110744,-3.3530754662472315,8.676924533752768,0.5844444444444444,0.024444444444444446,-0.7677777777777778,0.023327314564320255,0.1482685996129242,-1.778813656728567
1589988791.5295496,-1.6125383685579284,-3.3711924471631076,8.681192447163108,0.5935642162069765,0.02651711984501992,-0.764461497136857,0.02181661564992912,0.15175555457420922,-1.7437683423079076
1589988791.5395496,-1.597203973605975,-3.4039801319701257,8.7,0.6088888888888889,0.03,-0.7588888888888888,0.02181661564992912,0.15075714867272516,-1.7069493465773142
1589988791.5495496,-1.59,-3.471226834168011,8.662527798998386,0.6088888888888889,0.03,-0.7588888888888888,0.017729032615883746,0.1381299856339828,-1.6509905837102843
1589988791.5595496,-1.5767122367171027,-3.569726579697384,8.713082698055935,0.6088888888888889,0.03,-0.7588888888888888,0.013822160832999326,0.13018987160273185,-1.6043578310617608
1589988791.5695496,-1.5515658828860581,-3.6053914707215147,8.76843411711394,0.6088888888888889,0.03,-0.7588888888888888,0.016608957309263168,0.12058922571347395,-1.5691465420386093
1589988791.5795496,-1.5258138642564802,-3.641861357435198,8.756510914051841,0.6060981317265424,0.018836971350613914,-0.7802846938002123,0.022552331158928688,0.11144229745138695,-1.5257927672277705
1589988791.5895495,-1.507516923551851,-3.6875169235518515,8.76617384401667,0.6022222222222222,0.0033333333333333327,-0.81,0.02440826179492362,0.10336544700719337,-1.4659817544728684
1589988791.5995495,-1.4747003683475168,-3.692649815826242,8.679826749650704,0.6022222222222222,0.0033333333333333327,-0.81,0.02744797933896582,0.0971957799327512,-1.413035427132359
1589988791.6095495,-1.4071653486527413,-3.6207480229791122,8.676043314184074,0.6022222222222222,0.0033333333333333327,-0.81,0.023689064720198556,0.0952726880587874,-1.3591311316056405
1589988791.6195495,-1.3691105543376136,-3.601778891324773,8.699110554337613,0.6022222222222222,0.0033333333333333327,-0.81,0.023101493374003395,0.09074478819069288,-1.3102437247585788
1589988791.6295495,-1.3714060845483425,-3.66562433819337,8.712812169096685,0.5718059967599758,0.00882515181957228,-0.7521246821065588,0.022600686370800663,0.08602225178640756,-1.2610972994209986
1589988791.6395495,-1.3857620626151013,-3.7611896869244936,8.707620626151012,0.5222222222222223,0.017777777777777778,-0.6577777777777778,0.021317846834683775,0.08075795946460908,-1.1980240516600793
1589988791.6495495,-1.3702887633396108,-3.775433145009416,8.630577526679222,0.5222222222222223,0.017777777777777778,-0.6577777777777778,0.025089107997418484,0.07423949159769978,-1.1347533270452814
1589988791.6595495,-1.3534987879487477,-3.7730024241025046,8.655508484358768,0.5222222222222223,0.017777777777777778,-0.6577777777777778,0.02544369410887064,0.07128565942186177,-1.0851547604275893
1589988791.6695495,-1.3090936604874885,-3.8068680754472246,8.770604226341675,0.5222222222222223,0.017777777777777778,-0.6577777777777778,0.028802106619934258,0.07018776548549023,-1.0218239299118026
1589988791.6795495,-1.2556895495437397,-3.8484477477186987,8.82137909908748,0.5336013213097017,0.07846630624433482,-0.6293300300590792,0.022023716273775217,0.0609738636129097,-0.9466724630433128
1589988791.6895494,-1.266073455333801,-3.888220366001403,8.744971625326787,0.5422222222222223,0.12444444444444445,-0.6077777777777778,0.02170261503445302,0.05411321954574907,-0.8820013390041411
1589988791.6995494,-1.3145597808397527,-3.912731365954215,9.708509276337203,0.5422222222222223,0.12444444444444445,-0.6077777777777778,0.023798828090890116,0.05176398594760577,-0.813250090012854
1589988791.7095494,-0.8058448975623982,-2.8308785573674875,8.077071718472792,0.5422222222222223,0.12444444444444445,-0.6077777777777778,0.023330051567764142,0.07287975476236232,-0.7394839884152994
1589988791.7195494,-0.9111953102659421,-3.2281584215041463,8.090025736345439,0.5422222222222223,0.12444444444444445,-0.6077777777777778,0.08684285716573586,0.15184913494974972,-0.6628539151198211
1589988791.7295494,-0.984357670221493,-3.5235668580803936,8.185251845775225,0.5376457934554736,0.16277203536596482,-0.6003410810318112,0.09704098650226675,0.009041099038453404,-0.6330705797642008
1589988791.7395494,-0.8799284416799692,-3.3276187592888204,7.926320801453184,0.5333333333333333,0.1988888888888889,-0.5933333333333334,-0.06303683342767667,-0.10212006284471253,-0.6220372019907204
1589988791.7495494,-1.005957936979786,-3.606242196789536,8.349431480380499,0.5333333333333333,0.1988888888888889,-0.5933333333333334,-0.07360902773134972,0.023836427953830015,-0.5456001823279472
1589988791.7595494,-1.0561379414656282,-3.7324483097632912,8.467689782953943,0.5333333333333333,0.1988888888888889,-0.5933333333333334,0.07976979961138256,0.055538325659263144,-0.46716519819451424
1589988791.7695494,-1.0720888502430734,-3.7783554009722935,8.731322082131141,0.5333333333333333,0.1988888888888889,-0.5933333333333334,0.021349948230074498,0.03258187076803138,-0.44016839334610314
1589988791.7795494,-1.013007202065498,-3.5680432123929884,8.448321329890836,0.5338150815579814,0.21671357320086768,-0.5841801170650199,-0.0061248490722235,-0.0032949740255269547,-0.3970466923592243
1589988791.7895494,-1.1061124928830421,-3.8222249857660846,8.825933295376226,0.5344444444444445,0.24,-0.5722222222222222,0.02650691670437966,0.02225685744605936,-0.34115496551877444
1589988791.7995493,-1.1055830917081533,-3.8630256943304704,8.736290096102996,0.5344444444444445,0.24,-0.5722222222222222,0.011999138607461015,0.012227521418589302,-0.30309919963260396
1589988791.8095493,-1.0668857944367458,-3.8295092439246967,8.397379592388548,0.5344444444444445,0.24,-0.5722222222222222,0.021763082466565317,0.005007048599360486,-0.25988572396822784
1589988791.8195493,-1.113664616592515,-3.9540838458518714,8.685916154148128,0.5344444444444445,0.24,-0.5722222222222222,0.03089727875031414,0.0008909569532383217,-0.21185494674726374
1589988791.8295493,-1.1060363434375495,-4.012690842723377,8.746436279955562,0.53622626038195,0.24229090620536423,-0.5755313089633038,0.024089511593969104,0.001182065161543533,-0.16942388653292856
1589988791.8395493,-1.0774627034039312,-3.948737133026876,8.487474266053752,0.5422222222222223,0.25,-0.5866666666666667,0.017262930104700674,0.0012811931977390763,-0.09121525218972262
1589988791.8495493,-1.031461609280059,-3.810974406186706,8.20805118762659,0.5422222222222223,0.25,-0.5866666666666667,0.014952757276016233,0.002634744989621066,-0.0679278465255509
1589988791.8595493,-1.0991542621058388,-3.9148342345626506,8.457131255442818,0.5422222222222223,0.25,-0.5866666666666667,0.007658879400697062,-0.009105632469618381,0.011893782429448467
1589988791.8695493,-1.1707382765245855,-4.077651035366114,8.980537073934391,0.5422222222222223,0.25,-0.5866666666666667,0.005622536796914816,-0.008646112784070412,0.06480557914257745
1589988791.8795493,-1.1259688322778056,-4.017958443037074,8.644766242083541,0.5422222222222223,0.25,-0.5866666666666667,0.006436468261908925,-0.013529701574035064,0.10387428946229468
1589988791.8895493,-1.1417610859370362,-4.021032312958822,8.892064625917644,0.5288888888888889,0.2766666666666667,-0.6077777777777778,0.0017930273318795755,-0.01877818881890079,0.16117577921755785
1589988791.8995492,-1.0006702020301956,-3.7969467914597224,8.443893582919445,0.5288888888888889,0.2766666666666667,-0.6077777777777778,0.007225013659946005,-0.020588850928256266,0.19286236613127872
1589988791.9095492,-1.1686529485570891,-4.142562107904642,8.891595483061481,0.5288888888888889,0.2766666666666667,-0.6077777777777778,0.0002587335647718068,-0.02399827721492203,0.2276482544013039
1589988791.9195492,-1.1055016311166876,-4.002225846925972,8.393401756587203,0.5288888888888889,0.2766666666666667,-0.6077777777777778,0.0010241491316517542,-0.02399827721492203,0.24601822800642265
1589988791.9295492,-1.0850492258832871,-3.8723769352917823,8.67722925764192,0.5374152220898946,0.2750164086277624,-0.6077777777777778,-0.0027431860888766572,-0.028102316926480006,0.2639488310988713
1589988791.9395492,-1.0758139367298407,-3.9216278734596814,8.76581393672984,0.5633333333333334,0.27,-0.6077777777777778,0.0013889089209432788,-0.024315378272541883,0.27490838010827995
1589988791.9495492,-1.0970308163120064,-3.9932422959219984,8.754607857092022,0.5633333333333334,0.27,-0.6077777777777778,-0.002918812727721506,-0.026887298019450664,0.28426377884222853
1589988791.9595492,-1.0716086727029113,-3.969435218644687,8.651956636485444,0.5633333333333334,0.27,-0.6077777777777778,-0.0016552246540037173,-0.027659684463588925,0.2919157778473546
1589988791.9695492,-1.1052474190103239,-3.87311854752581,8.732029191883232,0.5633333333333334,0.27,-0.6077777777777778,-0.002122246431592428,-0.024916299276090282,0.30382336215252664
1589988791.9795492,-1.127720393247526,-3.923161179742578,8.801763145980209,0.5851637453377315,0.2772768040014661,-0.6141449812790606,-0.0074379828978153985,-0.02573343967849661,0.3116327725767656
1589988791.9895492,-1.1144453205669766,-3.9055625645358116,8.700007885102789,0.6166666666666667,0.2877777777777778,-0.6233333333333333,-0.007271918506214899,-0.026058926499922985,0.32082612246523445
1589988791.9995492,-1.1131950984441692,-3.95,8.688755885997521,0.6166666666666667,0.2877777777777778,-0.6233333333333333,-0.007309902934721879,-0.02838421897575516,0.3272944720106314
1589988792.0095491,-1.136024738963868,-3.9905278313343517,8.651055662668703,0.6166666666666667,0.2877777777777778,-0.6233333333333333,-0.01090830782496456,-0.02808720602282659,0.3350510361208265
1589988792.0195491,-1.1762188132483402,-3.994625758980082,8.697063385476762,0.6166666666666667,0.2877777777777778,-0.6233333333333333,-0.013383088766811551,-0.029626206390804634,0.3446103987303996
1589988792.0295491,-1.1812686443486906,-3.9575621478289693,8.653196470003314,0.6536027786984864,0.29549888594262147,-0.6289676555076786,-0.016428943842230245,-0.03626876766270906,0.3550681314131926
1589988792.039549,-1.2261359740233548,-4.113375955468609,8.825647903515318,0.8133333333333334,0.3288888888888889,-0.6533333333333333,-0.012179781399447753,-0.03278513773888926,0.3630590337487571
1589988792.049549,-1.1669219288869168,-4.011866163806143,8.605710021579977,0.8133333333333334,0.3288888888888889,-0.6533333333333333,-0.014948031536203225,-0.033707887784474415,0.3769002844325344
1589988792.059549,-1.21,-4.000361290683682,8.627305571880335,0.8133333333333334,0.3288888888888889,-0.6533333333333333,-0.013259639932288519,-0.03448842255538665,0.40877364079408307
1589988792.069549,-1.220023627695034,-3.93670604615839,8.706871440023628,0.8133333333333334,0.3288888888888889,-0.6533333333333333,-0.0174481377565308,-0.03817650000566971,0.440723987327337
1589988792.079549,-1.2279252175531667,-3.928945739680767,8.809966261808368,0.9791603456031768,0.3361337583569889,-0.7840093122579511,-0.014933985603850975,-0.036787708485480256,0.4752311488514532
1589988792.089549,-1.2038143110585453,-3.8303914843287994,8.642494382022472,1.5,0.3588888888888889,-1.1944444444444444,-0.021328547897098357,-0.03957128968470527,0.5188754976624981
1589988792.099549,-1.243130960063096,-3.9444405606940562,8.679809277980928,1.5,0.3588888888888889,-1.1944444444444444,-0.022907446432425576,-0.0410438084754873,0.5564107301159417
1589988792.109549,-1.255295321637427,-4.030590643274853,8.499714912280702,1.5,0.3588888888888889,-1.1944444444444444,-0.022041001455626857,-0.04312003050189426,0.5813172796380504
1589988792.119549,-1.3040146266358739,-4.105605850654349,8.726364896073903,1.5,0.3588888888888889,-1.1944444444444444,-0.01880847551978377,-0.04721147537013973,0.605501860888757
1589988792.129549,-1.3363033102386452,-4.118521324095458,8.648872055427253,1.5,0.3588888888888889,-1.1944444444444444,-0.024443913919814424,-0.047915905170143554,0.6132505886887991
1589988792.139549,-1.435758641138597,-3.97101152151813,8.795408124364622,0.9666666666666668,-0.18777777777777774,-0.8755555555555555,-0.01937603887442626,-0.04991930078432702,0.6155426464789677
1589988792.149549,-1.400826162313376,-3.915413081156688,8.629021801927813,0.9666666666666668,-0.18777777777777774,-0.8755555555555555,-0.01815047293218196,-0.049677860767727205,0.6110786479117193
1589988792.159549,-1.4361671203801964,-3.9538328796198035,8.656167120380196,0.9666666666666668,-0.18777777777777774,-0.8755555555555555,-0.015985228464950603,-0.05198264428733365,0.5976117926680888
1589988792.169549,-1.4272844270115552,-3.9598348351531856,8.699137708046221,0.9666666666666668,-0.18777777777777774,-0.8755555555555555,-0.014643151453549797,-0.04969784802383197,0.5871631840438845
1589988792.179549,-1.4681280490533948,-3.9081280490533947,8.8344329320145,0.9107161328181336,-0.13016328753226214,-0.8416524439670391,-0.012885771218369438,-0.04499810017849902,0.5814826469951674
1589988792.189549,-1.470643359732433,-3.8964522134225223,8.701286719464866,0.6677777777777778,0.12,-0.6944444444444444,-0.011999138607461015,-0.04145156973486533,0.5770494839406253
1589988792.199549,-1.5355596402225327,-3.860550449721834,8.706642158664804,0.6677777777777778,0.12,-0.6944444444444444,-0.0170910189632536,-0.04357318654977891,0.5783224540295734
1589988792.209549,-1.5718586332690476,-3.8418586332690476,8.66277482166508,0.6677777777777778,0.12,-0.6944444444444444,-0.022501955555775752,-0.044749763279312,0.5829091287297573
1589988792.219549,-1.5651412341148223,-3.863107345735647,8.757853085287056,0.6677777777777778,0.12,-0.6944444444444444,-0.015832452598197287,-0.04314636392501687,0.5902565493633964
1589988792.229549,-1.51,-3.8766668899906205,8.655556746616641,0.6527155448360058,0.14098835737787901,-0.6944444444444444,-0.013453701455111221,-0.047875383490719105,0.5989873436122722
1589988792.239549,-1.5260316780821919,-3.8839683219178083,8.715873287671233,0.6,0.21444444444444444,-0.6944444444444444,-0.022682369190489233,-0.050394654379977005,0.604978207515253
1589988792.249549,-1.5548450743365292,-3.855154925663471,8.656338057523968,0.6,0.21444444444444444,-0.6944444444444444,-0.018510323765897205,-0.04961590083531747,0.6062714567930837
1589988792.259549,-1.5694146866750036,-3.8405853133249965,8.765610150062525,0.6,0.21444444444444444,-0.6944444444444444,-0.021688920091466807,-0.051205198998102275,0.6022982113861216
1589988792.269549,-1.5470763979520128,-3.8694351972693504,8.600763979520128,0.6,0.21444444444444444,-0.6944444444444444,-0.018924649233874213,-0.04690572364734761,0.5765240103509524
1589988792.279549,-1.5660699838187704,-3.9039300161812296,8.823449973031284,0.6010188930840226,0.21444444444444444,-0.699102241399976,-0.013661567073450086,-0.04633412596385499,0.5553997436308716
1589988792.2895489,-1.5291507639991946,-3.9263835879997315,8.783616412000267,0.6077777777777778,0.21444444444444444,-0.73,-0.013902888341069116,-0.04056995375132057,0.5041522197692715
1589988792.2995489,-1.5034005955164014,-3.9101008932746018,8.727305657405811,0.6077777777777778,0.21444444444444444,-0.73,-0.009435523866688836,-0.0370882466048795,0.4543656621757337
1589988792.3095489,-1.4732104878827985,-3.9067895121172014,8.60671580484688,0.6077777777777778,0.21444444444444444,-0.73,-0.010525937060281796,-0.033425343276771394,0.3867017527028396
1589988792.3195488,-1.4426241975712475,-3.945248395142495,8.646241975712474,0.6077777777777778,0.21444444444444444,-0.73,-0.006312920559503041,-0.02532117213289418,0.3143983320063269
1589988792.3295488,-1.452714335300243,-3.949142658799028,8.72814300590073,0.6050634424775347,0.2070554205715608,-0.7310555748389833,-0.007542294060162931,-0.021575050207640768,0.23414658135387134
1589988792.3395488,-1.4763194826637314,-3.894218835993396,8.7752603880022,0.5877777777777777,0.16,-0.7377777777777778,0.00034467431095254697,-0.012400620768052376,0.13198095664927204
1589988792.3495488,-1.48319886874356,-3.9661712669633657,8.715541402670292,0.5877777777777777,0.16,-0.7377777777777778,0.005522861448450366,-0.0037148464347854654,0.004212013495433056
1589988792.3595488,-1.404980959634425,-3.944082254379284,8.669550647372429,0.5877777777777777,0.16,-0.7377777777777778,0.013686478530728574,0.0067942224975293345,-0.09650820031829271
1589988792.3695488,-1.313703346978088,-3.8882711293041177,8.69543221767397,0.5877777777777777,0.16,-0.7377777777777778,0.01874610954653794,0.013184264658658705,-0.20197941491438232
1589988792.3795488,-1.9664686270587453,-3.766421951056878,4.227747549509902,0.57236491742793,0.16770643017492387,-0.6979612218740044,-0.3247276750545443,0.5651960367419352,-1.055664818742801
1589988792.3895488,-3.68,-3.61,-6.8,0.5344444444444445,0.18666666666666668,-0.6,-1.1639164449237185,1.9154988540637767,-2.9605147436953816
1589988792.3995488,-0.9193472806905643,-3.513810009780159,0.8182472254114037,0.5344444444444445,0.18666666666666668,-0.6,-0.6361336233555457,-1.817803887764373,-8.838525412532169
1589988792.4095488,-0.147182184614505,-2.434693119121809,-0.09124210285583603,0.5344444444444445,0.18666666666666668,-0.6,-0.6087510577745942,-0.9517785621601433,-9.07870672635361
1589988792.4195487,-0.12418100200904061,-3.2908450527373176,2.254399171270718,0.5344444444444445,0.18666666666666668,-0.6,-0.5439096434456565,-0.5607084580416339,-8.702592030424398
1589988792.4295487,-1.3289099384731289,-5.423807759919638,9.930431629834255,0.5344444444444445,0.18666666666666668,-0.6,-0.4483999880767606,-0.2748976096444868,-8.42539859454174
1589988792.4395487,-0.37342812900151867,-1.803577320508621,0.7629153390309995,0.5255555555555556,0.3377777777777778,-0.6522222222222223,0.9969983183316176,1.8168647009844374,-7.46283971719701
1589988792.4495487,-0.07571916611669705,-2.660603284288986,7.234241624286657,0.5255555555555556,0.3377777777777778,-0.6522222222222223,1.5635440108153167,2.643602929323184,-6.899364909996516
1589988792.4595487,0.5593207020495565,-1.3798476215968185,9.10720136127256,0.5255555555555556,0.3377777777777778,-0.6522222222222223,1.4961784041659283,2.925515789247119,-6.434893770339443
1589988792.4695487,-2.608216197613949,-1.2595614102171917,4.792935913123279,0.5255555555555556,0.3377777777777778,-0.6522222222222223,0.17181293914381235,1.876695318598825,-5.86893309935575
1589988792.4795487,-1.4054601345323914,-0.24772524531668152,3.700737758275671,0.508468307736818,0.35380443780086956,-0.6513973206033866,0.31478772191028564,0.21165651854037523,-5.261143612504312
1589988792.4895487,1.0687110101218757,-1.4754472216484198,12.537172071885974,0.3644444444444445,0.4888888888888889,-0.6444444444444445,0.09619816071097335,-0.8795280043908975,-4.899142094593903
1589988792.4995487,-0.15707091842910753,-2.616338042782783,7.148682276445259,0.3644444444444445,0.4888888888888889,-0.6444444444444445,0.09085013042904062,-0.4055185080018438,-4.476817973329407
1589988792.5095487,0.923653829526,-1.760462067892161,6.365338163833503,0.3644444444444445,0.4888888888888889,-0.6444444444444445,0.4919884700229356,0.5478773484294058,-4.073306034092944
1589988792.5195487,0.49373994913029207,-1.4118645388907123,8.108925787659993,0.3644444444444445,0.4888888888888889,-0.6444444444444445,-0.03606375798824499,0.9851755021502011,-3.4425292652270914
1589988792.5295486,-1.0050191210582409,-1.8213303241176102,10.810484609115415,0.3447375643463664,0.5040320704379384,-0.6365616924052132,-0.15518820281413404,0.07774092691581383,-3.1442022769776727
1589988792.5395486,0.3386198841124064,-1.8938771957950669,6.871883058882807,0.2588888888888889,0.57,-0.6022222222222222,-0.0754985662276215,-0.013126644368513796,-2.7916822044170493
1589988792.5495486,0.5894742894411644,-2.2972222985033643,8.984117293697652,0.2588888888888889,0.57,-0.6022222222222222,0.11209048284055513,0.4017925521987317,-2.519275826507386
1589988792.5595486,1.0286001647672662,-2.7003542496224084,10.200711931896196,0.2588888888888889,0.57,-0.6022222222222222,0.3484554314981294,0.22981938357411788,-2.360652173255459
1589988792.5695486,0.6345937998699687,-2.330625332466458,8.320502393758495,0.2588888888888889,0.57,-0.6022222222222222,-0.03333184679016234,0.025502174970393195,-2.042712988642887
1589988792.5795486,0.6531866540575685,-2.454577693717123,9.212959394763283,0.2588888888888889,0.57,-0.6022222222222222,-0.08876837778845428,0.2479243542196377,-1.8202908093936427
1589988792.5895486,14.741574288934562,-25.46228601737055,6.189165948418749,0.19666666666666666,0.6,-0.6311111111111111,-0.1925560055812007,-0.21180313363211598,-0.927213324987231
1589988792.5995486,-0.09167187625230411,-2.0236723571371322,8.318943656327642,0.19666666666666666,0.6,-0.6311111111111111,-0.1940244110376692,-0.00601596192789642,1.0616388848091285
1589988792.6095486,-1.9106046052754042,-1.1785554997114722,11.787786712831108,0.19666666666666666,0.6,-0.6311111111111111,0.6891423625209854,0.16164014234228058,1.3725344562898325
1589988792.6195486,-0.5208586958545076,-0.3665691256678021,1.8956065598183205,0.19666666666666666,0.6,-0.6311111111111111,0.5886449698773383,0.1309799208577781,1.4295965351637678
1589988792.6295485,-0.2985465921045346,-1.6568451359282432,8.331418526105974,0.19666666666666666,0.6,-0.6311111111111111,-0.4705928309945421,-0.3707105157006544,1.371389729808729
1589988792.6395485,0.44730028411464856,-2.099451825854433,9.228608047129606,0.17614156523030927,0.6186591831239613,-0.6311111111111111,-0.4613155009350615,-0.16698894660784103,1.4888046285380168
1589988792.6495485,0.157512026069415,-2.395173537474784,8.06079553095743,0.17222222222222222,0.6222222222222222,-0.6311111111111111,0.18182743640942142,-0.06777245380494093,1.6568304490894092
1589988792.6595485,0.27321884860083795,-2.5615020948637044,8.198197382713495,0.17222222222222222,0.6222222222222222,-0.6311111111111111,0.013801635901084963,-0.11194825112168666,1.77121420999884
1589988792.6695485,1.3550897642015005,-4.14989281886388,9.631663987138264,0.17222222222222222,0.6222222222222222,-0.6311111111111111,-0.21315891584148122,-0.19528896220673386,2.0234763408249994
1589988792.6795485,0.287408896034298,-3.6361215740315416,8.620176848874598,0.17222222222222222,0.6222222222222222,-0.6311111111111111,-0.06779544212571587,-0.17689960709811295,2.442928774016877
1589988792.6895485,-0.6804167636786962,-2.411477997671711,8.62755250291036,0.18444444444444444,0.6166666666666667,-0.6233333333333333,-0.018040791883405648,-0.18405472233573522,2.977730720200618
1589988792.6995485,0.018526926263463132,-2.91205988874423,9.262682921055745,0.18444444444444444,0.6166666666666667,-0.6233333333333333,-0.13231321641574045,-0.23504202783428516,3.094105558062509
1589988792.7095485,0.08640812940688511,-2.9166632102861882,8.561020323517212,0.18444444444444444,0.6166666666666667,-0.6233333333333333,-0.08956055529264402,-0.2332140562962389,3.1944533812849296
1589988792.7195485,0.14966818747407712,-3.0194608046453753,8.719170468685194,0.18444444444444444,0.6166666666666667,-0.6233333333333333,-0.07317162586512001,-0.23235148106321132,3.2720851522574117
1589988792.7295485,0.26740355121614034,-3.119480710243228,9.186238821445542,0.1863773563168733,0.6159742803243041,-0.623881472521037,-0.13838013420575812,-0.2497436034665162,3.3574347330652974
1589988792.7395484,0.17680217738799847,-3.1013604354776,8.706051540156391,0.25382504572226783,0.5918139139701329,-0.6430084292180892,-0.09489459650214752,-0.2477669881163521,3.428592885671206
1589988792.7495484,0.10577815473405085,-6.519417602558104,8.718443690531897,0.2588888888888889,0.59,-0.6444444444444445,-0.14237213360090287,-0.2668017087459603,3.5650630192858297
1589988792.7595484,0.015820854780845425,-5.69344603026049,8.89835829043831,0.2588888888888889,0.59,-0.6444444444444445,-0.14594043148814737,-0.28464319818218276,3.842498180019088
1589988792.7695484,-0.04732091324200913,-3.870216803652968,8.630560547945205,0.2588888888888889,0.59,-0.6444444444444445,-0.09458620612224147,-0.2959583702189152,4.132444401661544
1589988792.7795484,0.13713196461579086,-3.5464209796672828,8.277233628201742,0.26076926180207144,0.5887860883725023,-0.6446110597658657,-0.13015937927985893,-0.3122112812358402,4.29984463490336
1589988792.7895484,9.743373078580664,-15.09092905370739,6.732286206825785,0.3466666666666667,0.5333333333333333,-0.6522222222222223,-0.2326046485702268,-0.3520640400070541,3.497197959198891
1589988792.7995484,1.4247924426994194,-13.428371757441525,10.21993858854324,0.3466666666666667,0.5333333333333333,-0.6522222222222223,-0.45923320690541763,-0.37586319083580244,0.8527623727956879
1589988792.8095484,-3.3326604919628178,-4.58908050605725,6.947430282895399,0.3466666666666667,0.5333333333333333,-0.6522222222222223,-0.23506808510615146,0.10087153737428078,-1.3904242227435442
1589988792.8195484,-1.699001523885245,-0.4800761942622407,5.150997150997151,0.3466666666666667,0.5333333333333333,-0.6522222222222223,0.9013278978246235,0.39611670014515027,-1.0965050105978142
1589988792.8295484,-1.5318170077203457,-1.2094506787590045,5.733775507275493,0.3503117157280117,0.5305995465373246,-0.6529626228128079,0.4341716897565191,0.13607928517501386,-0.3422807721048583
1589988792.8395483,-0.6616462928514484,-2.8728487908583578,9.026700770661707,0.4177777777777778,0.48,-0.6666666666666666,-0.41943530649288585,-0.09172588203700965,0.1960857470645968
1589988792.8495483,-0.752841401417445,-3.5989098695249306,10.516135333450201,0.4177777777777778,0.48,-0.6666666666666666,-0.3683406180655503,-0.1534684257775896,0.5500139760721072
1589988792.8595483,-0.4826610067747192,-3.3908043907040564,8.380055741360088,0.4177777777777778,0.48,-0.6666666666666666,0.07929921641626539,-0.021572930358067077,1.0167298738225221
1589988792.8695483,1.0855705342594972,-4.268438555869994,7.725426978818283,0.4177777777777778,0.48,-0.6666666666666666,0.02986227143477705,-0.06787102168993711,1.2552827511935136
1589988792.8795483,4.666906087007196,-13.939616247559659,8.646555843701739,0.4177777777777778,0.48,-0.6666666666666666,-0.19606671756480673,-0.14723482050275344,0.6532991563743806
1589988792.8895483,-1.7650679725186373,-2.3752653120888745,8.052394386785558,0.4177777777777778,0.4844275528269097,-0.6589184492195748,0.14593134527147333,0.11462062706042428,-0.48443028072731076
1589988792.8995483,0.028943033334770774,-3.4288298331105262,7.724358316443141,0.4177777777777778,0.4844444444444445,-0.6588888888888889,0.13336456503488198,0.03272720495718921,0.021822119431961634
1589988792.9095483,1.1383483695652175,-5.559453804347826,9.18,0.4177777777777778,0.4844444444444445,-0.6588888888888889,-0.18931166663668358,-0.06036799832611364,0.20307996677736517
1589988792.9195483,-0.05887276055969662,-5.944146070354388,9.116018373218255,0.4177777777777778,0.4844444444444445,-0.6588888888888889,-0.01785595272542151,-0.013898196257981155,0.013898196257981155
1589988792.9295483,-0.004023800183078338,-4.929440303386949,8.800636851052701,0.4177777777777778,0.4844444444444445,-0.6588888888888889,0.05543694187383945,0.01975670432331213,-0.01975670432331213
1589988792.9395483,-0.022016839046072316,-4.581848448585349,8.727898965723567,0.4177777777777778,0.4777777777777778,-0.6444444444444445,-0.011119126561542427,-0.010679120538583135,0.0
1589988792.9495482,-0.03994273014787589,-4.420515428669117,8.620343619112743,0.4177777777777778,0.4777777777777778,-0.6444444444444445,-0.0032974810345317695,0.0010533477519328541,0.0
1589988792.9595482,0.02110656728887716,-4.599327880746653,8.72687707495108,0.4177777777777778,0.4777777777777778,-0.6444444444444445,-0.007635815477475192,-0.0041692985267187494,-0.0037812493201846015
1589988792.9695482,-0.02,-4.551513387660069,8.620756693830034,0.4177777777777778,0.4777777777777778,-0.6444444444444445,-0.0069754755392934025,-0.0031074073629439205,-0.0010082882902237322
1589988792.9795482,-0.02,-4.565464160984534,8.627732080492267,0.4177777777777778,0.4777777777777778,-0.6444444444444445,-0.0008883023465112499,-0.0015856140647483824,-0.0002473916411259632
1589988792.9895482,-0.05787531086527742,-4.5305311722836805,8.747344138581596,0.4311111111111111,0.4777777777777778,-0.6755555555555556,0.007635815477475192,-0.0010328888747116773,-0.0020657777494233545
1589988792.9995482,-0.029100420204099135,-4.537724894948975,8.711375525255123,0.4311111111111111,0.4777777777777778,-0.6755555555555556,0.007635815477475192,-0.00024817546230710037,-0.0004963509246142007
1589988793.0095482,-0.0492169689761126,-4.532349093071662,8.618433937952224,0.4311111111111111,0.4777777777777778,-0.6755555555555556,-0.007550400043024583,0.0,-0.001090830782496456
1589988793.0195482,-0.04228813559322034,-4.553135593220339,8.60457627118644,0.4311111111111111,0.4777777777777778,-0.6755555555555556,-0.0067945815689397894,0.0,-0.001090830782496456
1589988793.0295482,-0.015939703657178752,-4.592080395123761,8.61604019756188,0.4311111111111111,0.4777777777777778,-0.6755555555555556,-0.005670127632087525,0.0,0.0006588833432859655
1589988793.0395482,-0.01727061266874351,-4.5418350986500515,8.714517964693666,0.4311111111111111,0.4737385485173647,-0.6755555555555556,0.0016837533835244358,-0.0015862016213348256,0.0002977299718290432
1589988793.0495481,-0.039426512214267025,-4.556559073285602,8.696559073285602,0.4311111111111111,0.4722222222222222,-0.6755555555555556,-6.25578130063261e-05,-0.003147376721476716,-0.0010282729694901299
1589988793.0595481,-0.02948724201378882,-4.505127579862112,8.6353851781241,0.4311111111111111,0.4722222222222222,-0.6755555555555556,-0.0013704968801614788,-0.0011467640020294606,0.0
1589988793.0695481,-0.020189097519342038,-4.598109024806579,8.551701877674079,0.4311111111111111,0.4722222222222222,-0.6755555555555556,-0.006441847997482728,-0.0021610342254937106,0.0
1589988793.0795481,-0.011726234822705033,-4.53380987858164,8.674106477659423,0.4311111111111111,0.4722222222222222,-0.6755555555555556,-0.004739929146470616,-0.003084189339246972,0.0
1589988793.089548,-0.03,-4.609168021895205,8.631830351830551,0.4244444444444445,0.4722222222222222,-0.6677777777777778,0.00334509613365529,0.002181661564992912,-0.003199888561323446
1589988793.099548,-0.03,-4.56757605806989,8.723332672246242,0.4244444444444445,0.4722222222222222,-0.6677777777777778,0.006974679689265845,0.002181661564992912,0.0004296949942871088
1589988793.109548,-0.010218691335565404,-4.589234580325521,8.58120280234561,0.4244444444444445,0.4722222222222222,-0.6677777777777778,0.004303684319810822,-0.0010789030204614556,-1.1927762035000244e-05
1589988793.119548,-0.026453329720733096,-4.532413345977433,8.670493313464032,0.4244444444444445,0.4722222222222222,-0.6677777777777778,-0.00012362650349904622,-0.00019344085579948186,-0.0008973899266969741
1589988793.129548,-0.040396777569856324,-4.545991943924641,8.679603222430144,0.4244444444444445,0.4722222222222222,-0.6677777777777778,-0.003359055784890051,0.0,-0.001090830782496456
1589988793.139548,-0.03627539414856067,-4.556275394148561,8.683724605851438,0.4152947072101516,0.4778137283098457,-0.6606613154844388,-0.0029589501557521127,-0.0009980815026920666,-0.0005917900311504227
1589988793.149548,-0.026355558570168892,-4.54,8.69364444142983,0.4044444444444445,0.4844444444444445,-0.6522222222222223,-0.002773135571319756,-0.002181661564992912,0.0
1589988793.159548,-0.03,-4.54,8.63012520287503,0.4044444444444445,0.4844444444444445,-0.6522222222222223,0.0010794495199848994,-0.002181661564992912,-0.0010885545299941447
1589988793.169548,-0.022828699582277616,-4.547171300417722,8.615657399164554,0.4044444444444445,0.4844444444444445,-0.6522222222222223,-0.0028205068405941797,-0.0013993940403747847,-0.0003085632578783287
1589988793.179548,-0.027109892876122282,-4.564219785752245,8.645549464380611,0.4044444444444445,0.4844444444444445,-0.6522222222222223,-0.0035877541290331794,-0.001090830782496456,-0.0007755690009526448
1589988793.189548,-0.023140488694067096,-4.549421466082201,8.673719022611866,0.4181634670563103,0.4798714369071559,-0.6773737636773095,-0.004769005564568183,-0.001090830782496456,-0.00034257417395704853
1589988793.199548,-0.038323161580790396,-4.576646323161581,8.725807903951976,0.4244444444444445,0.4777777777777778,-0.6888888888888889,0.0025408335615107547,-0.002090204216745585,0.0
1589988793.209548,-0.04930609643843376,-4.5334695178078315,8.609020746300361,0.4244444444444445,0.4777777777777778,-0.6888888888888889,0.007333042931459041,0.0008637513729843425,-0.0030454129379772544
1589988793.219548,-0.03013446405378562,-4.589596607838643,8.66952937581175,0.4244444444444445,0.4777777777777778,-0.6888888888888889,0.003301827853291091,0.001090830782496456,0.001061495276694733
1589988793.229548,-0.03,-4.551701247863562,8.677659750427287,0.4244444444444445,0.4777777777777778,-0.6888888888888889,-0.002576351739138617,-0.0005802675279686824,-0.0005802675279686824
1589988793.239548,-0.039222341500378885,-4.567667024501137,8.698444683000757,0.4357161951671297,0.4839260054446971,-0.6612218643877522,-0.0063753259290473905,-8.482938296567222e-05,-0.003102833581558024
1589988793.249548,-0.024461586901763227,-4.546692380352645,8.661153967254409,0.43666666666666665,0.4844444444444445,-0.6588888888888889,-0.004002517797173316,-0.0016949779318702804,-0.0024250033815542277
1589988793.259548,-0.01176810736666577,-4.5564637852666685,8.617072429466663,0.43666666666666665,0.4844444444444445,-0.6588888888888889,0.002115268782098706,-0.002181661564992912,-0.002181661564992912
1589988793.269548,-0.03203035462170916,-4.56,8.62468690308114,0.43666666666666665,0.4844444444444445,-0.6588888888888889,6.830715139957873e-05,0.0010225236310968775,-0.0005795689669480172
1589988793.279548,-0.030791394180646386,-4.541582788361293,8.64381290872903,0.43666666666666665,0.4844444444444445,-0.6588888888888889,-0.002095333851659148,0.0006749069612488733,0.0005022515345813462
1589988793.289548,-0.02,-4.5356155975448305,8.669369358526898,0.4307674409275083,0.4806272983779303,-0.6640940880704992,-0.0029318128577098153,-0.0007501512927169033,-0.0002718871766217547
1589988793.299548,-0.02505245788090533,-4.55989508423819,8.69,0.4177777777777778,0.4722222222222222,-0.6755555555555556,-0.0010793862482412423,0.0,-0.0021702170307376983
1589988793.309548,-0.037257892140743175,-4.5572578921407425,8.624678970733312,0.4177777777777778,0.4722222222222222,-0.6755555555555556,0.0023751396489485274,0.0,-0.0018825439988126315
1589988793.319548,-0.027727636477506003,-4.547727636477505,8.66136181761247,0.4177777777777778,0.4722222222222222,-0.6755555555555556,0.003941845942705522,-0.0006693535952161545,-0.00017360077934444823
1589988793.329548,-0.03228475378198344,-4.552284753781983,8.681572869327024,0.4177777777777778,0.4722222222222222,-0.6755555555555556,0.0003431468557526362,-0.0017608601615353207,-0.0002492279755812734
1589988793.3395479,-0.03461365997703286,-4.549227319954065,8.675386340022968,0.42495956447506733,0.4686313288735775,-0.6713661799821367,-0.003944337215606477,-0.00159410301478839,-0.0016783893327009778
1589988793.3495479,-0.036462291642382565,-4.559386874927148,8.673537708357618,0.4311111111111111,0.4655555555555556,-0.6677777777777778,-0.00545415391248228,-0.0017957574473945036,-0.002181661564992912
1589988793.3595479,-0.02662103526248243,-4.563310517631241,8.623173623418689,0.4311111111111111,0.4655555555555556,-0.6677777777777778,-0.0039947352551204015,-0.0014519522363119729,-0.0007222429076310338
1589988793.3695478,-0.016827756513149772,-4.5536555130263,8.628550191381652,0.4311111111111111,0.4655555555555556,-0.6677777777777778,-0.003272492347489368,-0.0007447926979934438,0.0003460380845030121
1589988793.3795478,-0.01164896900851957,-4.543297938017039,8.675159278923324,0.4311111111111111,0.4655555555555556,-0.6677777777777778,-0.003272492347489368,-0.00017987461538758085,0.0009109561671088751
1589988793.3895478,-0.028395804510794376,-4.567593706766192,8.699197902255397,0.4249791762741797,0.48292937092686145,-0.6749317017541978,-0.0012658213645732014,-0.0020066709829161663,-0.0009158402004197104
1589988793.3995478,-0.02160155834202627,-4.5532031166840525,8.658007791710132,0.4244444444444445,0.4844444444444445,-0.6755555555555556,-0.0020069586510482874,-0.0012655336964410803,-0.0020069586510482874
1589988793.4095478,-0.010887912320643829,-4.559112087679356,8.595327473923863,0.4244444444444445,0.4844444444444445,-0.6755555555555556,0.0008002621550416106,0.0008971183641932254,-0.0011876869916480712
1589988793.4195478,-0.018632306556606942,-4.551367693443392,8.624529226226429,0.4244444444444445,0.4844444444444445,-0.6755555555555556,0.0020324693540857393,0.0001491922109071725,-0.0001491922109071725
1589988793.4295478,-0.03431699666340333,-4.5356830033365965,8.672950989990209,0.4244444444444445,0.4844444444444445,-0.6755555555555556,0.002181661564992912,-0.0015617420673339402,0.0
1589988793.4395478,-0.026830878859857483,-4.5497536817102135,8.69658456057007,0.4200547373977303,0.472006941145421,-0.660923198733175,2.686915727906922e-05,0.0006913949786255444,-0.0014365282718092282
1589988793.4495478,-0.013517708480316071,-4.56,8.712964583039367,0.4177777777777778,0.4655555555555556,-0.6533333333333333,-0.005333480660968632,-0.0006467716873218721,-0.002181661564992912
1589988793.4595478,-0.01,-4.56,8.61814098329716,0.4177777777777778,0.4655555555555556,-0.6533333333333333,-0.003932117114332559,-0.0031075861557785705,-0.0031075861557785705
1589988793.4695477,-0.01,-4.54869704163623,8.633908875091308,0.4177777777777778,0.4655555555555556,-0.6533333333333333,-0.0020395308558418487,-0.0026560116016656086,-0.0014230501100180894
1589988793.4795477,-0.023431126293579824,-4.54895408419572,8.66447704209786,0.4177777777777778,0.4655555555555556,-0.6533333333333333,-0.0006024612490086425,-0.0016932920315050983,0.0004883695334878135
1589988793.4895477,-0.03542846879209699,-4.546285406376291,8.692857656039516,0.42082546524971315,0.4686032430274909,-0.6634922915731178,0.0,-9.347738955169452e-05,-0.0009038760033930669
1589988793.4995477,-0.03,-4.542381589604536,8.674600838116703,0.4244444444444445,0.4722222222222222,-0.6755555555555556,-0.0013506219076865652,0.00019041617737207926,-0.0028222850449271795
1589988793.5095477,-0.03,-4.553135917846179,8.596271835692358,0.4244444444444445,0.4722222222222222,-0.6755555555555556,-0.002523737136792108,0.00040667963889806473,-0.0006841511435983912
1589988793.5195477,-0.03,-4.534554415201708,8.636336754394879,0.4244444444444445,0.4722222222222222,-0.6755555555555556,0.002030468272916379,-0.0005940211526672603,-0.0016848519351637162
1589988793.5295477,-0.02348369887374037,-4.543032602252519,8.682581505631298,0.4244444444444445,0.4722222222222222,-0.6755555555555556,0.0011400377905272682,0.00033080558881161057,-0.002181661564992912
1589988793.5395477,-0.036179954745108475,-4.558089977372554,8.732359909490217,0.4244444444444445,0.4722222222222222,-0.6755555555555556,0.0,0.0002083511477282597,-0.004829100469297501
1589988793.5495477,-0.04,-4.552552049045424,8.695312294272547,0.4244444444444445,0.4722222222222222,-0.6755555555555556,-0.0016248908335549372,0.0,-0.0005794814118174679
1589988793.5595477,-0.03183807681680022,-4.558161923183199,8.598380768168003,0.4244444444444445,0.4722222222222222,-0.6755555555555556,-0.0048526446807746456,-0.000890327705260578,-0.0024704800385458563
