time,acc_x,acc_y,acc_z,mag_x,mag_y,mag_z,gyr_x,gyr_y,gyr_z
1589985629.3825698,-3.76,-0.62,8.94,0.3088888888888889,-0.4011111111111111,-0.6044444444444445,0.002181661564992912,0.0,0.001090830782496456
1589985629.3925698,-3.777179193118984,-0.6285895965594921,8.94,0.2917096957699047,-0.3963391130225044,-0.6044444444444445,-0.0015662569695349482,-0.000936979633631965,-0.0007831284847674741
1589985629.4025698,-3.7386768872946456,-0.6213231127053543,8.983384436473228,0.2888888888888889,-0.3955555555555556,-0.6044444444444445,-0.002181661564992912,-0.001379489196038997,0.0009465015757251856
1589985629.4125698,-3.731806954613205,-0.6281930453867951,8.949034773066025,0.2888888888888889,-0.3955555555555556,-0.6044444444444445,-0.002181661564992912,-0.0028782760045577877,0.00019710817146579044
1589985629.4225698,-3.750887326653026,-0.6108873266530263,9.055323959918159,0.2888888888888889,-0.3955555555555556,-0.6044444444444445,-0.004072946161810648,-0.0011876231052215145,-0.001090830782496456
1589985629.4325697,-3.758222198905269,-0.6182221989052691,9.099333193431614,0.2888888888888889,-0.3955555555555556,-0.6044444444444445,-0.001672614830282982,-0.00198773354906407,-0.001090830782496456
1589985629.4425697,-3.74095451585899,-0.6290454841410101,9.122363873128082,0.3033333333333333,-0.4155555555555556,-0.59,-0.001090830782496456,-0.002077540036856193,-0.00010412152813671874
1589985629.4525697,-3.7487571388708028,-0.6212428611291972,9.059942889033579,0.3033333333333333,-0.4155555555555556,-0.59,-0.001090830782496456,-0.0012264059003061262,-0.0009552556646867858
1589985629.4625697,-3.755514750047193,-0.6314950833176023,8.955980333270409,0.3033333333333333,-0.4155555555555556,-0.59,-0.002783227475918134,-0.0038740582584145897,0.0
1589985629.4725697,-3.7339209898577335,-0.6386930033807554,8.984772013523022,0.3033333333333333,-0.4155555555555556,-0.59,-0.000427713643467231,-0.0015185444259636868,0.0
1589985629.4825697,-3.73,-0.6052005981194718,9.024799401880527,0.3033333333333333,-0.4155555555555556,-0.59,0.0018980129391872594,0.002705195095878063,0.0009490064695936297
1589985629.4925697,-3.758646748681898,-0.6013532513181019,9.054059753954306,0.3033333333333333,-0.4088888888888889,-0.59,0.0014435774678731657,0.0012384476019204052,0.0012384476019204052
1589985629.5025697,-3.7477660628361167,-0.6144678743277667,9.0665963770167,0.3033333333333333,-0.4088888888888889,-0.59,-0.0022977533776786375,0.0016942920800875466,0.0014506073376348637
1589985629.5125697,-3.741650378829472,-0.6316503788294718,9.02825189414736,0.3033333333333333,-0.4088888888888889,-0.59,0.001090830782496456,0.0,-0.0009108023794996213
1589985629.5225697,-3.749326342373998,-0.639326342373998,9.06663171186999,0.3033333333333333,-0.4088888888888889,-0.59,0.001090830782496456,0.0,-7.348464753064408e-05
1589985629.5325696,-3.7590950581188047,-0.6218098837623903,9.088190116237609,0.3033333333333333,-0.4088888888888889,-0.59,0.001090830782496456,0.0009921169364586608,-0.0009921169364586608
1589985629.5425696,-3.752917185149416,-0.62,9.068751555448248,0.28444582706510907,-0.4033800328939901,-0.5947218765670561,0.0003182155359224381,-0.00045439971065157976,-0.0003182155359224381
1589985629.5525696,-3.740940294899686,-0.6109402948996857,8.996582064297801,0.2766666666666667,-0.4011111111111111,-0.5966666666666667,0.002964781561128874,0.001873950778632418,0.0019765210407525825
1589985629.5625696,-3.74,-0.6031709355574515,8.949025613344709,0.2766666666666667,-0.4011111111111111,-0.5966666666666667,0.001782621605572598,0.0014367261940345269,0.0036715323069096816
1589985629.5725696,-3.73168581838565,-0.6083141816143498,8.9466283632287,0.2766666666666667,-0.4011111111111111,-0.5966666666666667,0.00018389425887657468,0.002904703829736219,-0.0010782960117334652
1589985629.5825696,-3.744912048192771,-0.61,9.046928313253012,0.2766666666666667,-0.4011111111111111,-0.5966666666666667,-0.003253304239749069,0.003272492347489368,-0.0005550094451183775
1589985629.5925696,-3.7306629207313726,-0.621325841462745,9.080662920731372,0.3033333333333333,-0.4088888888888889,-0.59,-0.003055552045448508,0.003272492347489368,0.0021093481309792917
1589985629.6025696,-3.7383395867269433,-0.6366791734538866,9.088339586726944,0.3033333333333333,-0.4088888888888889,-0.59,-0.0005433689729747891,0.003272492347489368,0.0012719537734880524
1589985629.6125696,-3.7489844400759673,-0.6369533202279013,9.00710891946823,0.3033333333333333,-0.4088888888888889,-0.59,0.002181661564992912,-0.0006477091718545078,0.001090830782496456
1589985629.6225696,-3.741996967980542,-0.6159909039416253,9.056021224136208,0.3033333333333333,-0.4088888888888889,-0.59,0.002181661564992912,0.002401150689555471,0.001090830782496456
1589985629.6325696,-3.7488326699100694,-0.6011673300899307,9.061167330089932,0.3033333333333333,-0.4088888888888889,-0.59,0.004108651210899669,-0.002508476590230904,0.00012733595954307728
1589985629.6425695,-3.7581202300275773,-0.6081202300275776,9.051879769972423,0.2979198466482816,-0.4088888888888889,-0.59,0.0025917637549790736,-0.002386712659985993,0.002657339062510126
1589985629.6525695,-3.7324457634056487,-0.6224457634056488,9.037771182971756,0.2966666666666667,-0.4088888888888889,-0.59,0.001825939697048236,-0.00017786093397233795,0.0
1589985629.6625695,-3.7603663625433197,-0.6510990876299597,8.9018318127166,0.2966666666666667,-0.4088888888888889,-0.59,-0.0021416976110122084,-0.0021416976110122084,0.00011989186194210995
1589985629.6725695,-3.7712905795658234,-0.6832264489145589,8.951505676160126,0.2966666666666667,-0.4088888888888889,-0.59,-0.0011377575797518304,-0.001090830782496456,0.003436736137883178
1589985629.6825695,-3.821411670981876,-0.8085291774546903,9.009980282812188,0.2966666666666667,-0.4088888888888889,-0.59,-0.0029602118920501316,-0.001090830782496456,0.009815326230927231
1589985629.6925695,-3.735295422628376,-0.6715317607310769,9.087177253577025,0.3088888888888889,-0.4088888888888889,-0.6044444444444445,-0.0019763856523687647,-0.0022842995213049858,0.014796627910326366
1589985629.7025695,-3.6926122972340383,-0.5947021350212688,9.061567378340424,0.3088888888888889,-0.4088888888888889,-0.6044444444444445,-0.0001139829694367699,-0.0032155008627709836,0.020383835959122354
1589985629.7125695,-3.680122168426862,-0.520855178988034,8.990855178988035,0.3088888888888889,-0.4088888888888889,-0.6044444444444445,0.002155008548858864,-0.0011174837986305036,0.013183254946426637
1589985629.7225695,-3.7184127498899677,-0.5296031874724919,8.999603187472491,0.3088888888888889,-0.4088888888888889,-0.6044444444444445,0.0032292068155007556,0.00100425971851923,0.007852243137418256
1589985629.7325695,-3.7705222178035456,-0.5805222178035456,9.042101848169622,0.3088888888888889,-0.4088888888888889,-0.6044444444444445,0.0005169328284844641,-0.0007462088968401461,0.003961736118801988
1589985629.7425694,-3.7606234866828085,-0.5893765133171912,9.031870460048426,0.2966666666666667,-0.3955555555555556,-0.6044444444444445,-0.001090830782496456,-0.0013628781689301967,0.005658189452307586
1589985629.7525694,-3.767485439434592,-0.582514560565408,9.052456318303776,0.2966666666666667,-0.3955555555555556,-0.6044444444444445,-0.001090830782496456,-0.004356969884802774,0.007903758239212019
1589985629.7625694,-3.74,-0.6293420532476238,8.940877262336501,0.2966666666666667,-0.3955555555555556,-0.6044444444444445,-0.0032485687284648504,-0.004339399510961306,0.014300418267576515
1589985629.7725694,-3.74,-0.6077148897406369,8.969713480345817,0.2966666666666667,-0.3955555555555556,-0.6044444444444445,-0.0024621828720813423,-0.0035530136545777985,0.018232347549494057
1589985629.7825694,-3.717763522980138,-0.6074121590066207,9.017060795033103,0.2966666666666667,-0.3955555555555556,-0.6044444444444445,-0.002990202685910933,-0.0008468689847353056,0.018017871843100167
1589985629.7925694,-3.7026320201173513,-0.5878960603520537,9.059471919530596,0.29093601564682875,-0.3996488777125827,-0.593801806836174,-0.001665048495327784,0.0016074438521615838,0.014238404815620127
1589985629.8025694,-3.7196730351292615,-0.6193460702585228,9.05032696487074,0.2888888888888889,-0.4011111111111111,-0.59,0.0010551644479167928,0.0032546591801995367,0.0098709765443376
1589985629.8125694,-3.7115758980301274,-0.5863035921205099,9.007879490150637,0.2888888888888889,-0.4011111111111111,-0.59,0.004766538679946855,0.004191419321851968,0.005222842170655106
1589985629.8225694,-3.7395493144138516,-0.6195493144138514,9.050901371172298,0.2888888888888889,-0.4011111111111111,-0.59,0.004264998787866157,0.00734084245111619,0.0008941820982571213
1589985629.8325694,-3.731840054405764,-0.6118400544057641,9.066319891188472,0.2888888888888889,-0.4011111111111111,-0.59,0.0025830991624480465,0.002295143574861859,-0.002469617152579099
1589985629.8425694,-3.7591653645520324,-0.62,9.069165364552033,0.3033333333333333,-0.3955555555555556,-0.5988888888888889,0.0021361392630526287,0.003204208894578943,-0.00545415391248228
1589985629.8525693,-3.720564811147098,-0.619717594426451,9.025763916396766,0.3033333333333333,-0.3955555555555556,-0.5988888888888889,-6.161133855515085e-05,-3.0805669277575425e-05,-0.00545415391248228
1589985629.8625693,-3.740104857363146,-0.61,8.880471858134156,0.3033333333333333,-0.3955555555555556,-0.5988888888888889,-0.0021759424830183737,-0.0010793926185473797,-0.00545415391248228
1589985629.8725693,-3.7585839850203766,-0.61,8.963627932591695,0.3033333333333333,-0.3955555555555556,-0.5988888888888889,-0.0011680624189089157,0.0009363675096715365,-0.00545415391248228
1589985629.8825693,-3.749244334592313,-0.6046221672961564,8.986133498111531,0.3033333333333333,-0.3955555555555556,-0.5988888888888889,-0.001090830782496456,0.0005042002368495824,-0.006040784458129153
1589985629.8925693,-3.74,-0.6,9.01933696720579,0.29774709836277163,-0.3955555555555556,-0.5933026539183273,-0.0006689636011324437,0.001265601544092037,-0.005279383150886699
1589985629.9025693,-3.7341585757167994,-0.6058414242832004,9.085048545699204,0.2888888888888889,-0.3955555555555556,-0.5844444444444444,0.0012744010843474794,0.003272492347489368,-0.003909692889663108
1589985629.9125693,-3.73,-0.61,9.014205849537776,0.2888888888888889,-0.3955555555555556,-0.5844444444444444,0.003131618002331932,0.001372579472811328,-0.006263236004663863
1589985629.9225693,-3.7562186467948173,-0.61,9.032773308493523,0.2888888888888889,-0.3955555555555556,-0.5844444444444444,0.004702497697448817,0.002520836132455906,-0.005829982019999011
1589985629.9325693,-3.7567687595712096,-0.6166156202143951,9.06323124042879,0.2888888888888889,-0.3955555555555556,-0.5844444444444444,0.003289197259931886,0.003272492347489368,-0.004010849477448684
1589985629.9425693,-3.7559449629558355,-0.6318899259116714,9.07,0.29351274896565,-0.398858312753242,-0.5844444444444444,0.00023617698708491516,0.003272492347489368,-0.0026239974881867023
1589985629.9525692,-3.767568812330009,-0.6475688123300091,9.039724750679964,0.2966666666666667,-0.4011111111111111,-0.5844444444444444,0.0005604279128060667,0.0024468629998381066,-0.0030072909126441735
1589985629.9625692,-3.7552107858566783,-0.657394607071661,8.95605392928339,0.2966666666666667,-0.4011111111111111,-0.5844444444444444,-0.002942301726620385,-0.00023821794047719285,-0.004079118849312736
1589985629.9725692,-3.759420393945379,-0.6196135959635861,8.902125222200278,0.2966666666666667,-0.4011111111111111,-0.5844444444444444,-0.0022027366358629706,0.001090830782496456,-0.0032092671348791916
1589985629.9825692,-3.7368270698292423,-0.6045513798861616,8.98496741062611,0.2966666666666667,-0.4011111111111111,-0.5844444444444444,-0.0030242530833563515,0.001090830782496456,-0.0007447177923990494
1589985629.9925692,-3.7116045503111055,-0.5172204763999748,9.055988624222236,0.30279848322963143,-0.40826489710123676,-0.597730046997535,-0.0012658600696382727,8.751464357090871e-05,0.0020066322778510945
1589985630.0025692,-3.745120254998551,-0.51,9.06,0.3033333333333333,-0.4088888888888889,-0.5988888888888889,0.0008246819795807749,-0.0009577563810386154,-0.0006916075781229344
1589985630.0125692,-3.759907902958515,-0.5694474177510934,8.951013067456328,0.3033333333333333,-0.4088888888888889,-0.5988888888888889,0.001090830782496456,-1.0046228782805734e-05,-0.002171615336210106
1589985630.0225692,-3.742529237617318,-0.6136769059567052,9.011147668339387,0.3033333333333333,-0.4088888888888889,-0.5988888888888889,0.0029965953225675316,0.0019057645400710754,0.001629867515149239
1589985630.0325692,-3.7350575155484615,-0.62,9.044712422257692,0.3033333333333333,-0.4088888888888889,-0.5988888888888889,0.0027333509293145553,0.002181661564992912,0.002181661564992912
1589985630.0425692,-3.7342107399439866,-0.6221053699719934,9.072105369971993,0.30029224337378735,-0.4088888888888889,-0.5958477989293429,0.002181661564992912,0.001952001327593508,0.002411321802392316
1589985630.0525692,-3.754426535994017,-0.6122938560239304,9.057867320029914,0.2888888888888889,-0.4088888888888889,-0.5844444444444444,0.0012159412205723671,0.001090830782496456,0.0013410516586482783
1589985630.0625691,-3.749437034739454,-0.5741555521091811,8.987748138957816,0.2888888888888889,-0.4088888888888889,-0.5844444444444444,-0.002304481532128834,-0.00063753036660017,-0.0005147103994642474
1589985630.0725691,-3.7289356720799733,-0.5765964918800401,8.96659649188004,0.2888888888888889,-0.4088888888888889,-0.5844444444444444,-0.00617371955240585,-0.0033885925132729295,-0.0006034654741400087
1589985630.0825691,-3.7313775348038907,-0.6070663022058356,9.008443837009725,0.2888888888888889,-0.4088888888888889,-0.5844444444444444,-0.004533074179223082,-0.003742774870335402,-0.001090830782496456
1589985630.092569,-3.7490990413286736,-0.62,9.039099041328672,0.3020319485858618,-0.401811856744365,-0.5975875041414174,-0.0031742130022453705,-0.001287389472984451,0.0008942720920084607
1589985630.102569,-3.7403824129371577,-0.6392351741256851,9.059235174125686,0.3033333333333333,-0.4011111111111111,-0.5988888888888889,-0.003272492347489368,-0.004238178788942951,-0.0010074012218012072
1589985630.112569,-3.753512102912394,-0.626487897087606,9.005951588350424,0.3033333333333333,-0.4011111111111111,-0.5988888888888889,-0.0003246087888694937,-0.0006784686817109808,0.0018570527761234184
1589985630.122569,-3.76,-0.6277609526103864,9.034326668272707,0.3033333333333333,-0.4011111111111111,-0.5988888888888889,0.002784007984277616,0.00024424218160587605,0.003272492347489368
1589985630.132569,-3.76,-0.6095547905688681,9.084075349051886,0.3033333333333333,-0.4011111111111111,-0.5988888888888889,0.004015901140891555,0.0022302263802065608,0.0017856747606849943
1589985630.142569,-3.7416172370088723,-0.590808618504436,9.081617237008873,0.3033333333333333,-0.4082599633854387,-0.5774423320659062,0.003360698943082871,0.004275116534392321,0.001090830782496456
1589985630.152569,-3.748194218030994,-0.59,9.088194218030994,0.3033333333333333,-0.4088888888888889,-0.5755555555555556,0.0014847912941502181,0.002575622076646674,0.0019846813091660307
1589985630.162569,-3.759336971504121,-0.599336971504121,8.968619370446428,0.3033333333333333,-0.4088888888888889,-0.5755555555555556,0.001090830782496456,0.00014465037859541204,-0.0008738552146033383
1589985630.172569,-3.732319418222502,-0.6369074423699974,8.987680581777498,0.3033333333333333,-0.4088888888888889,-0.5755555555555556,-0.0009221579295239019,0.002012988712020358,0.0019286522855340809
1589985630.182569,-3.751330118175459,-0.6328899606081803,9.00422007878364,0.3033333333333333,-0.4088888888888889,-0.5755555555555556,-0.001090830782496456,0.002957246548328849,0.001406076581656975
1589985630.192569,-3.7494760692158082,-0.6247380346079041,9.046833757744672,0.29222473972779744,-0.4123968658169529,-0.5907567889104993,-0.0005168393998835292,0.003846483730102295,0.0028128049303352363
1589985630.202569,-3.74,-0.6293030226060452,9.075348488696978,0.2822222222222222,-0.4155555555555556,-0.6044444444444445,0.0020296046857869034,0.00487072430143255,0.003855921958539098
1589985630.212569,-3.7069237469316656,-0.6565381265341674,9.020385620397498,0.2822222222222222,-0.4155555555555556,-0.6044444444444445,0.004964666380262198,0.007859526913587777,0.003272492347489368
1589985630.222569,-3.624043971540286,-0.6779937183513878,8.995987436702775,0.2822222222222222,-0.4155555555555556,-0.6044444444444445,0.004582174508052224,0.008073518233607992,0.0015285335386292559
1589985630.232569,-3.4837200491287965,-0.6502870703832463,9.014856464808377,0.2822222222222222,-0.4155555555555556,-0.6044444444444445,0.0019324397601779022,0.010066698847283112,-0.015115058349556352
1589985630.242569,-3.376102730217492,-0.6765127255900046,8.974359093012495,0.288307676487223,-0.39121373849555247,-0.6044444444444445,-0.01085793072543048,0.028831450086854962,-0.048606228385928846
1589985630.252569,-3.2967626202345013,-0.7257733623534368,8.942535982587938,0.2888888888888889,-0.3888888888888889,-0.6044444444444445,-0.024981196702569264,0.06749219648828578,-0.0782317828210198
1589985630.262569,-3.1465246472569857,-0.767428352889482,8.846429117776294,0.2888888888888889,-0.3888888888888889,-0.6044444444444445,-0.03842833862091108,0.09608126720209503,-0.09569174437706635
1589985630.272569,-2.9907887427497757,-0.620816926721673,8.79,0.2888888888888889,-0.3888888888888889,-0.6044444444444445,-0.06930308794604148,0.15740226586697667,-0.11394726033012739
1589985630.282569,-2.9043982002249717,-0.4387964004499437,8.986805399325085,0.2888888888888889,-0.3888888888888889,-0.6044444444444445,-0.10259699105473416,0.2412306629318962,-0.12944075374165764
1589985630.292569,-2.8897241402885077,-0.4969655431735831,9.410069050386271,0.2964521091132837,-0.4202222298185243,-0.619570884893234,-0.1378133103411782,0.30544015132769653,-0.1755410133311343
1589985630.302569,-2.04867808228839,-0.5116044402442981,9.025449031693865,0.2966666666666667,-0.4211111111111111,-0.62,-0.07461018218483874,0.16348261873853653,-0.178613358859244
1589985630.312569,-1.5511320006346183,-0.6263001745200698,8.783486435030937,0.2966666666666667,-0.4211111111111111,-0.62,0.004843839022037454,0.022046619475081866,-0.15574183766938374
1589985630.322569,-1.750204207920792,-0.7523391089108911,8.922543316831684,0.2966666666666667,-0.4211111111111111,-0.62,0.016805949252360314,0.01510557626900104,-0.09077521161420693
1589985630.332569,-1.8692427979220234,-0.766294799811093,8.986294799811093,0.2966666666666667,-0.4211111111111111,-0.62,0.006301598407148808,0.01402441933088493,-0.023281340889646902
1589985630.3425689,-1.9544902108605762,-0.7572885111826926,9.047201699677883,0.2966666666666667,-0.4048686531778849,-0.5917522470726501,0.003180212942660263,-0.002375690040823159,0.04239330311550044
1589985630.3525689,-2.0982753128555176,-0.758448236632537,9.071551763367463,0.2966666666666667,-0.3955555555555556,-0.5755555555555556,-0.0018431193153171062,-0.003441763472327271,0.11429250880569067
1589985630.3625689,-2.135476121080901,-0.7367858183786484,8.938452970812342,0.2966666666666667,-0.3955555555555556,-0.5755555555555556,0.0028828872156138386,-0.0007402179571859928,0.16462436013038798
1589985630.3725688,-2.1877315312547996,-0.73,8.955686786463934,0.2966666666666667,-0.3955555555555556,-0.5755555555555556,-0.0034467304082782353,-0.006942269811790275,0.21576485445574614
1589985630.3825688,-2.193410378823164,-0.7234103788231641,8.989768863530507,0.2966666666666667,-0.3955555555555556,-0.5755555555555556,-0.009767050887292149,-0.015195991722186452,0.25671106696290374
1589985630.3925688,-2.2108903620310314,-0.72,9.0,0.30517755490153126,-0.4048401609026806,-0.5918036149130244,-0.009720353611366611,-0.016265338306345346,0.2992935205785487
1589985630.4025688,-2.207679597135888,-0.732320402864112,8.993839798567944,0.3088888888888889,-0.4088888888888889,-0.5988888888888889,-0.007382698790278555,-0.01728755215949002,0.33440585373111903
1589985630.4125688,-2.2130944872693297,-0.7356351709102235,8.94198688001246,0.3088888888888889,-0.4088888888888889,-0.5988888888888889,-0.0060688557018323125,-0.021400897261318285,0.36525423616584424
1589985630.4225688,-2.23,-0.73,8.935617063775148,0.3088888888888889,-0.4088888888888889,-0.5988888888888889,-0.0069708740424322315,-0.025594681374068468,0.39828785804334504
1589985630.4325688,-2.224646673698036,-0.73,8.989293347396073,0.3088888888888889,-0.4088888888888889,-0.5988888888888889,-0.005222902388613407,-0.02734785340370102,0.42518109664530723
1589985630.4425688,-2.2261609065906756,-0.6930345604559462,9.010804532953378,0.30546616300518015,-0.4040970726516967,-0.6023116147725975,-0.0035257628764317674,-0.024329296410591287,0.4443969208672155
1589985630.4525688,-2.2134668869363154,-0.6810220753757897,9.035511037687893,0.3033333333333333,-0.4011111111111111,-0.6044444444444445,-0.008571449817403484,-0.02662590329269216,0.4518269262099214
1589985630.4625688,-2.2061785816824577,-0.6776428366350847,8.98439276485788,0.3033333333333333,-0.4011111111111111,-0.6044444444444445,-0.014695053444018434,-0.03391315545559753,0.4531116268093863
1589985630.4725688,-2.2390265732968513,-0.6482300700273617,8.986283216621064,0.3033333333333333,-0.4011111111111111,-0.6044444444444445,-0.016362461737446838,-0.02887322289829921,0.4495284667697697
1589985630.4825687,-2.225912808719128,-0.64,9.012043595640435,0.3033333333333333,-0.4011111111111111,-0.6044444444444445,-0.013734956766141306,-0.02355243380860941,0.43913518420647407
1589985630.4925687,-2.231691547182804,-0.634577113204299,9.02,0.3099613060836346,-0.4011111111111111,-0.6014317295579439,-0.013773774161484295,-0.025365886757975676,0.4230035525116278
1589985630.5025687,-2.297063366279572,-0.623276661960061,9.040170014119816,0.31555555555555553,-0.4011111111111111,-0.5988888888888889,-0.014538228545440906,-0.023227783478341528,0.3954472347014069
1589985630.5125687,-2.30349184635876,-0.5924864105979336,8.928940206630909,0.31555555555555553,-0.4011111111111111,-0.5988888888888889,-0.008778519526240333,-0.015323504221219067,0.3669459880394304
1589985630.5225687,-2.2572349607110653,-0.5863825196444673,8.911912598222337,0.31555555555555553,-0.4011111111111111,-0.5988888888888889,-0.004959008354087086,-0.015078104393673396,0.32682441777570703
1589985630.5325687,-2.2653094820481394,-0.6058849136746899,9.015309482048139,0.31555555555555553,-0.4011111111111111,-0.5988888888888889,-0.009305820905693915,-0.019186067801308358,0.28020372542789124
1589985630.5425687,-2.2969984738530536,-0.6169984738530538,9.012006104587785,0.30700186529071194,-0.4252169654938521,-0.6027769299183633,-0.0013113276142902065,-0.012000803375528488,0.22744570960681468
1589985630.5525687,-2.327049022480847,-0.5861887218989408,9.027049022480847,0.3033333333333333,-0.4355555555555555,-0.6044444444444445,0.0025348446885256953,-0.010201941577898993,0.1780425626155163
1589985630.5625687,-2.294858235494714,-0.5764488235007551,8.994858235494714,0.3033333333333333,-0.4355555555555555,-0.6044444444444445,-0.0020390835463132222,-0.011611765343515582,0.12204933477061822
1589985630.5725687,-2.275262914951725,-0.5852629149517251,8.975262914951726,0.3033333333333333,-0.4355555555555555,-0.6044444444444445,-0.0009187533489842057,-0.007406378899458858,0.06246616439865614
1589985630.5825686,-2.28,-0.59,8.99508837063376,0.3033333333333333,-0.4355555555555555,-0.6044444444444445,0.0008649528333913544,-0.0019557836158878104,0.004660843176079819
1589985630.5925686,-2.276651976116008,-0.5886607904464032,9.03,0.302886930148801,-0.43503475184026785,-0.6054860518750198,-0.0018894913639375633,0.0016751711846071534,-0.0565329178677908
1589985630.6025686,-2.236205778243588,-0.5793086673653819,9.01448555439103,0.2966666666666667,-0.42777777777777776,-0.62,0.004550970443101304,0.013540676708067006,-0.17486609139681986
1589985630.6125686,-2.23845729689989,-0.6086570273250826,8.939600539149614,0.2966666666666667,-0.42777777777777776,-0.62,0.009187920249727227,0.022446172442669998,-0.27192188577601983
1589985630.6225686,-2.2223648188762004,-0.6114527716856991,8.895641684942902,0.2966666666666667,-0.42777777777777776,-0.62,0.006287022972459911,0.02534706971993731,-0.41406585236211824
1589985630.6325686,-2.235365487416662,-0.5946345125833383,8.978289386749955,0.2966666666666667,-0.42777777777777776,-0.62,0.011306992749674206,0.03203277761710687,-0.5175018118589758
1589985630.6425686,-2.2245384995064166,-0.5861346248766041,8.981346248766041,0.3039679307886366,-0.4252008610288472,-0.62,0.018049049805645333,0.03793154063897875,-0.6167115608524526
1589985630.6525686,-2.2419185666500057,-0.5893152370333345,9.017809988850013,0.31555555555555553,-0.4211111111111111,-0.62,0.020217717502322045,0.043334447090757365,-0.7391209602663255
1589985630.6625686,-2.3141343704825497,-0.6048268740965099,9.0334625180698,0.31555555555555553,-0.4211111111111111,-0.62,0.023847196363102462,0.05378838756232266,-0.8495238001972166
1589985630.6725686,-2.3647760364179726,-0.6141293394029954,8.963034715223964,0.31555555555555553,-0.4211111111111111,-0.62,0.02701027718525896,0.06495054462268433,-0.9472805674211741
1589985630.6825686,-2.4149433264397073,-0.6349433264397073,9.014981108813235,0.31555555555555553,-0.4211111111111111,-0.62,0.02671917204475107,0.07362489569209868,-1.0551953789817623
1589985630.6925685,-2.464445971954908,-0.7074099532581798,9.04870497662909,0.32002077414230284,-0.4140943390462225,-0.6404124278251306,0.030866582114336065,0.08027728753111188,-1.1540203872749775
1589985630.7025685,-2.4630294110936184,-0.7837132361329774,8.989088233280853,0.3233333333333333,-0.4088888888888889,-0.6555555555555556,0.03566695833500756,0.0891425312574264,-1.2470858768282935
1589985630.7125685,-2.46295180581888,-0.8194277087283196,8.89171687381504,0.3233333333333333,-0.4088888888888889,-0.6555555555555556,0.04062030372391719,0.09374902000112491,-1.322126330774773
1589985630.7225685,-2.4508324224133835,-0.861945962644361,8.885556770115489,0.3233333333333333,-0.4088888888888889,-0.6555555555555556,0.04114849494020375,0.09281141971145461,-1.3935687784232558
1589985630.7325685,-2.44,-0.9196756489493202,8.917633621755254,0.3233333333333333,-0.4088888888888889,-0.6555555555555556,0.04228426869412183,0.0964386100840847,-1.44898555902506
1589985630.7425685,-2.44,-0.9731991060382328,8.946398212076465,0.3357743012597943,-0.4110216262477108,-0.6576882929143775,0.04542199875094962,0.10393396689185673,-1.50599561492903
1589985630.7525685,-2.44,-0.9866668451488542,9.006667916041978,0.3622222222222222,-0.4155555555555556,-0.6622222222222223,0.04472400367419543,0.10253797673834832,-1.5882507290698662
1589985630.7625685,-2.4222477478381252,-1.019587086936458,8.95307357396521,0.3622222222222222,-0.4155555555555556,-0.6622222222222223,0.04105127088428327,0.1061658429247176,-1.6483503005197908
1589985630.7725685,-2.41578040097433,-1.0631216038973206,8.946243207794641,0.3622222222222222,-0.4155555555555556,-0.6622222222222223,0.04242262782885833,0.1089128211685477,-1.7114570860269958
1589985630.7825685,-2.3284934752213764,-1.0901673916420693,8.98,0.3622222222222222,-0.4155555555555556,-0.6622222222222223,0.043614971704268056,0.12019224162610216,-1.7687479671032802
1589985630.7925684,-2.3019871994034675,-1.1206623998011558,8.983443733300193,0.3714055110227359,-0.39948480015465665,-0.6721707850894454,0.046298930807920004,0.13462009588546192,-1.8194408769347263
1589985630.8025684,-2.4352371080590824,-1.2323762632806425,8.997618554029541,0.3888888888888889,-0.3688888888888889,-0.6911111111111111,0.05511281899303355,0.13630211885813193,-1.8828762578092155
1589985630.8125684,-2.4178566256335987,-1.3734129857591117,8.921030654115375,0.3888888888888889,-0.3688888888888889,-0.6911111111111111,0.05219531824555031,0.13243207023414613,-1.9562669102308503
1589985630.8225684,-2.3750420677632076,-1.4302524065792466,8.875462745395286,0.3888888888888889,-0.3688888888888889,-0.6911111111111111,0.05186493986074524,0.13967222897060416,-2.0358298173402147
1589985630.8325684,-2.3380429441609607,-1.4893699390873276,8.883847238577056,0.3888888888888889,-0.3688888888888889,-0.6911111111111111,0.05964475339439804,0.15103034031880772,-2.113380778493516
1589985630.8425684,-2.2902403113894056,-1.5436537485192081,8.833653748519207,0.39220750832064083,-0.36557026945713694,-0.6941452774487129,0.062177354602297986,0.15916820718709992,-2.1737700254772827
1589985630.8525684,-2.4,-1.6987868568958062,8.953639429312581,0.42777777777777776,-0.33,-0.7266666666666667,0.06265660330146483,0.16631769134782237,-2.30434234649349
1589985630.8625684,-2.3684653270291567,-1.6994884423430523,8.820140202258997,0.42777777777777776,-0.33,-0.7266666666666667,0.06670808458404992,0.17614127023121662,-2.4044088812658435
1589985630.8725684,-2.393178741054351,-1.8081749801207796,8.877718725150975,0.42777777777777776,-0.33,-0.7266666666666667,0.058855913066657654,0.17626830051211267,-2.4979004909984717
1589985630.8825684,-2.420136290235763,-1.904795564646356,8.950408870707289,0.42777777777777776,-0.33,-0.7266666666666667,0.05557290207350978,0.18263238779666835,-2.5667870704557068
1589985630.8925683,-2.41,-1.9244281898895599,8.871289911214841,0.43958628414993756,-0.3117952193429203,-0.7394592152365065,0.06675826121648525,0.19354413121415842,-2.6288064385848102
1589985630.9025683,-2.399487409065473,-1.9930755456071627,8.904613318410744,0.4544444444444444,-0.2888888888888889,-0.7555555555555555,0.06551998486635638,0.20535576209443915,-2.692015872448567
1589985630.9125683,-2.35704478230562,-2.1112025471467057,8.881718570432751,0.4544444444444444,-0.2888888888888889,-0.7555555555555555,0.060831608221804466,0.2115574429048132,-2.7430644840726
1589985630.9225683,-2.2901158741409597,-2.2013458041850287,8.751461678325988,0.4544444444444444,-0.2888888888888889,-0.7555555555555555,0.06917539259493473,0.21969740067146024,-2.788712778189882
1589985630.9325683,-2.2548660872465036,-2.2543304362325185,8.720535651013986,0.4544444444444444,-0.2888888888888889,-0.7555555555555555,0.07523810876151893,0.22217396323781624,-2.8382297687554545
1589985630.9425683,-2.2515214889188195,-2.3435888331088526,8.755110322027672,0.4629229555256248,-0.2888888888888889,-0.7555555555555555,0.06433494763453641,0.21905554354649182,-2.8810031837196655
1589985630.9525683,-2.186563837245848,-2.425546986437154,8.754298769431617,0.4744444444444445,-0.2888888888888889,-0.7555555555555555,0.05625427768752937,0.23636910344041392,-2.9179975813149737
1589985630.9625683,-2.0963895398380914,-2.4233729228802727,8.680237537281636,0.4744444444444445,-0.2888888888888889,-0.7555555555555555,0.06138967438558053,0.2453721478170028,-2.9435330251774365
1589985630.9725683,-2.060723582274558,-2.4496599008366906,8.761107065385808,0.4744444444444445,-0.2888888888888889,-0.7555555555555555,0.04853960359379837,0.23316389664497045,-2.96530981879839
1589985630.9825683,-2.11,-2.582298026542842,8.862150252564867,0.4744444444444445,-0.2888888888888889,-0.7555555555555555,0.044870490705418445,0.2354109546469768,-2.981976436349989
1589985630.9925683,-2.11,-2.6678342170489127,8.68449816459072,0.4744444444444445,-0.2888888888888889,-0.7555555555555555,0.06281385794032295,0.25263658719248516,-2.981258701660593
1589985631.0025682,-1.9920980800370114,-2.6646503199938314,8.87234328012954,0.5188888888888888,-0.25,-0.7477777777777778,0.04830170780164583,0.21943631114856862,-2.9989722272736787
1589985631.0125682,-1.96,-2.7129222213757904,8.797556943703816,0.5188888888888888,-0.25,-0.7477777777777778,0.04655953632047321,0.20015502539910116,-3.0001308391921286
1589985631.0225682,-1.9382736089139556,-2.782589586629067,8.715936446798267,0.5188888888888888,-0.25,-0.7477777777777778,0.04908738521234052,0.20611194740594033,-2.9899005500387665
1589985631.0325682,-1.9061548619699413,-2.8376902760601173,8.726146058230448,0.5188888888888888,-0.25,-0.7477777777777778,0.05764558343796393,0.2125445148914647,-2.9758708387522566
1589985631.0425682,-1.8977719067543335,-2.9127454871488343,8.865543813508667,0.49255076044364743,-0.2547494985720927,-0.7223031945274623,0.06466426622056858,0.20641006516169472,-2.9560385427261453
1589985631.0525682,-1.8872864753870915,-3.016341639380654,8.844572950774182,0.4511111111111111,-0.26222222222222225,-0.6822222222222222,0.06742867658533055,0.20705831605547387,-2.919867903057121
1589985631.0625682,-1.7591934835076428,-3.0039963797264684,8.73959674175382,0.4511111111111111,-0.26222222222222225,-0.6822222222222222,0.06780548856516637,0.19294508254940457,-2.8758648927866233
1589985631.0725682,-1.68,-2.96,8.7,0.4511111111111111,-0.26222222222222225,-0.6822222222222222,0.061086523819801536,0.17998707911191522,-2.8590674809232115
1589985631.0825682,-1.7138005876024165,-3.0353715964578334,8.915202350409666,0.4511111111111111,-0.26222222222222225,-0.6822222222222222,0.0532074990294036,0.17403727563362967,-2.8016311054858964
1589985631.0925682,-1.6642645010225554,-3.047008506476185,8.812298526927295,0.4571130014391522,-0.23979410573322665,-0.6741670536240618,0.0626479388531423,0.18263932492775245,-2.7444129825929062
1589985631.1025681,-1.6199076374888648,-3.1460026255333116,9.130395705377655,0.4933333333333334,-0.10444444444444444,-0.6255555555555555,0.061231872457049176,0.16460175708708397,-2.6806705936402686
1589985631.1125681,-1.4688023501594238,-3.008802350159424,8.382619388815248,0.4933333333333334,-0.10444444444444444,-0.6255555555555555,0.07446222420485887,0.14375282095953112,-2.622548359319187
1589985631.1225681,-1.4988550137928565,-3.0388550137928565,8.630553863791066,0.4933333333333334,-0.10444444444444444,-0.6255555555555555,0.1015076799394308,0.183911224929047,-2.5561640588797836
1589985631.1325681,-1.5013976564616636,-3.122867447846112,9.601301476564617,0.4933333333333334,-0.10444444444444444,-0.6255555555555555,-0.0028098645403502754,0.19447017772290776,-2.48248643255932
1589985631.142568,-1.373557301544297,-3.1654808994852344,9.075735573015443,0.4933333333333334,-0.10444444444444444,-0.6255555555555555,-0.022952959285447643,0.155733457059259,-2.43832657100276
1589985631.152568,-1.3405294921147397,-3.1035882279895692,8.545823171488886,0.5188888888888888,-0.0033333333333333327,-0.5966666666666667,0.13689933093152964,0.15595669871861847,-2.309551904242511
1589985631.162568,-1.2924677459804386,-3.1684161395491404,8.671270933764315,0.5188888888888888,-0.0033333333333333327,-0.5966666666666667,0.05833234859280509,0.14109086263095555,-2.234823022472078
1589985631.172568,-1.327531321087835,-3.3040162292465967,8.654642651003293,0.5188888888888888,-0.0033333333333333327,-0.5966666666666667,0.046408140665551524,0.12075344542953655,-2.16788268298335
1589985631.182568,-1.3278295341922697,-3.394786917740337,8.985659068384539,0.5188888888888888,-0.0033333333333333327,-0.5966666666666667,0.06395630609149315,0.14939732986440563,-2.0984773392957785
1589985631.192568,-1.2473269981467607,-3.315069200741296,8.938711012972675,0.5259294454740218,0.023420781690171703,-0.5944136885594241,0.06033256408688956,0.12149930554043409,-2.0087469714125565
1589985631.202568,-1.1818943885288846,-3.2892468633668828,9.140978215910657,0.5466666666666666,0.10222222222222224,-0.5877777777777777,0.0694244309559544,0.09657070924851725,-1.9333188525199423
1589985631.212568,-1.053729859444635,-3.1456804936578675,8.739914295509084,0.5466666666666666,0.10222222222222224,-0.5877777777777777,0.053876270711363354,0.10867621369998628,-1.8233043941888671
1589985631.222568,-1.12323582878863,-3.292797058337465,8.808665509833085,0.5466666666666666,0.10222222222222224,-0.5877777777777777,0.06822577783794992,0.10109428860721782,-1.7368937463249596
1589985631.232568,-1.0643228083938028,-3.1954045891351246,9.016754657776035,0.5466666666666666,0.10222222222222224,-0.5877777777777777,0.05822704537870316,0.09947187283700355,-1.643202760405837
1589985631.242568,-0.9673758077831868,-3.1626241922168132,8.882326130896463,0.5388116137317606,0.1170907152775801,-0.5936690674789573,0.06592481654065147,0.09381144729469522,-1.5555616810496697
1589985631.252568,-0.9224161106275989,-3.1924161106275992,8.784496663765594,0.5155555555555555,0.16111111111111112,-0.6111111111111112,0.04927406907050927,0.08967507730546379,-1.4490479130702862
1589985631.262568,-0.93806280657645,-3.276215336833543,8.798197392097414,0.5155555555555555,0.16111111111111112,-0.6111111111111112,0.049288912898869906,0.07940465109752087,-1.3553870529143572
1589985631.272568,-0.9626748914602283,-3.4061399131681824,8.742888827770466,0.5155555555555555,0.16111111111111112,-0.6111111111111112,0.04233680496253651,0.08022409695544708,-1.2680562079971676
1589985631.282568,-0.9314847385710375,-3.3725763071448123,8.539958595674788,0.5155555555555555,0.16111111111111112,-0.6111111111111112,0.05001625614111222,0.08758078938658354,-1.192658962601482
1589985631.292568,-0.9386608609362168,-3.336695695318916,9.264746954557898,0.5155555555555555,0.16111111111111112,-0.6111111111111112,0.04923346262362233,0.06801095144933637,-1.1417773839646395
1589985631.302568,-0.8289341825902335,-3.213503184713376,8.665940552016984,0.5433333333333333,0.22,-0.6111111111111112,0.05781403147231216,0.0643590161672909,-0.9435686268594344
1589985631.312568,-0.8499680280241318,-3.317460035030165,8.894888098084461,0.5433333333333333,0.22,-0.6111111111111112,0.04714442722790391,0.061896799803196685,-0.9219558387746074
1589985631.322568,-0.8022960414242102,-3.2496503567272175,8.795058273878796,0.5433333333333333,0.22,-0.6111111111111112,0.017754605338930703,0.051230906612849035,-0.8182171769838582
1589985631.332568,-0.752775725682673,-3.1647583868845826,8.809206935519237,0.5433333333333333,0.22,-0.6111111111111112,0.02469981338076375,0.04197062922373831,-0.7086372278793812
1589985631.342568,-0.7794147706297239,-3.3042355295626322,8.864279441195329,0.5474225771422033,0.22323335556980417,-0.6123473941230951,0.01536499387870535,0.04157924697724896,-0.6171397141538602
1589985631.352568,-0.8690592029844366,-3.6302152835797696,8.905026910447472,0.586359047760917,0.25402033233808935,-0.6241188852403805,0.01625396575408664,0.022021865718860587,-0.552244767251026
1589985631.362568,-0.7929284408828905,-3.520998172360467,8.796572472936877,0.5911111111111111,0.2577777777777778,-0.6255555555555555,0.017531351407654626,0.027933273285226625,-0.42354737136433773
1589985631.372568,-0.8,-3.6326155656833774,8.76102594280563,0.5911111111111111,0.2577777777777778,-0.6255555555555555,0.009817477042468105,0.013151457347372192,-0.3197806468482243
1589985631.382568,-0.8,-3.602690019590575,8.786620715685041,0.5911111111111111,0.2577777777777778,-0.6255555555555555,0.00944885430711164,0.005040418906406996,-0.2267651905167123
1589985631.3925679,-0.7952444816987986,-3.5052444816987984,8.794266554903604,0.619291960303416,0.2720443326813821,-0.6311917253940165,0.007689153110036488,-0.001489999465036139,-0.1381785028231063
1589985631.4025679,-0.7754735599535202,-3.4498954202556393,8.845368980209159,0.7688888888888888,0.3477777777777778,-0.6611111111111111,0.0009875160275649897,-0.0028934569690757567,-0.01616788393901603
1589985631.4125679,-0.7884821666420009,-3.3601340831730058,8.776205416605002,0.7688888888888888,0.3477777777777778,-0.6611111111111111,-0.0025955864023942607,-0.01627967676996657,0.06508448240532294
1589985631.4225678,-0.7671784210526316,-3.285145263157895,8.718713684210526,0.7688888888888888,0.3477777777777778,-0.6611111111111111,-0.004865736823545113,-0.01342491185233033,0.19736797491518862
1589985631.4325678,-0.7558150816865236,-3.3853527859028323,8.694184918313477,0.7688888888888888,0.3477777777777778,-0.6611111111111111,-0.0026116280395090652,-0.015574202837831615,0.2949755231508295
1589985631.4425678,-0.7438459014054363,-3.343460654919027,8.706154098594565,0.7688888888888888,0.3477777777777778,-0.6611111111111111,-0.0163207958459616,-0.03515872827562095,0.3524234644350115
1589985631.4525678,-0.7863537303466278,-3.5763537303466277,8.70039701329448,1.5422222222222222,0.29444444444444445,-1.5233333333333334,-0.006399269091452757,-0.02974776927406455,0.5115680503773945
1589985631.4625678,-0.8987357243037468,-3.6778160689240633,8.848160689240633,1.5422222222222222,0.29444444444444445,-1.5233333333333334,-0.02086369595213618,-0.05378925710651929,0.6843775288936476
1589985631.4725678,-0.9311881709540207,-3.665247316183917,8.764059145229897,1.5422222222222222,0.29444444444444445,-1.5233333333333334,-0.01758290186509469,-0.05948810430798989,0.8034458338570297
1589985631.4825678,-0.9481794612112618,-3.5972821551549523,8.67910269394369,1.5422222222222222,0.29444444444444445,-1.5233333333333334,-0.019436364109787777,-0.06782868440910877,0.9211406863950409
1589985631.4925678,-0.9177907676710072,-3.464023381807813,8.815325539397396,1.414626760588171,0.2534130680438066,-1.4002392041314198,-0.01656035474700153,-0.07209377814954344,1.074790665869054
1589985631.5025678,-0.9725236896502323,-3.5525236896502324,8.82130922412558,0.7233333333333334,0.031111111111111114,-0.7333333333333333,-0.027061716545745823,-0.0816135922304486,1.2097933571478494
1589985631.5125678,-0.9840991027621914,-3.484594616573148,8.844568865034832,0.7233333333333334,0.031111111111111114,-0.7333333333333333,-0.025533441687710816,-0.09331306143258852,1.2970890503894998
1589985631.5225677,-0.9499435783221976,-3.262566974228444,8.729887156644395,0.7233333333333334,0.031111111111111114,-0.7333333333333333,-0.040043797599974416,-0.10737682871324435,1.3661401598615022
1589985631.5325677,-1.0102746566791512,-3.5217124427798585,8.806025801081981,0.7233333333333334,0.031111111111111114,-0.7333333333333333,-0.043416472374081264,-0.10110362610868733,1.4172288696310853
1589985631.5425677,-1.0634989236628583,-3.5362980625931444,8.705395264116575,0.7137696086548546,0.044096005593273355,-0.7293678865154275,-0.03701191193213848,-0.1048724244651418,1.4640574780361002
1589985631.5525677,-1.1146874418761943,-3.5379697671666017,8.907656279061904,0.5866666666666667,0.21666666666666667,-0.6766666666666666,-0.0398323202396697,-0.11073632110193934,1.5173796118096683
1589985631.5625677,-1.1288715104580578,-3.289748566983987,8.90056424477097,0.5866666666666667,0.21666666666666667,-0.6766666666666666,-0.05143663421227303,-0.12234063507454267,1.540588239754875
1589985631.5725677,-1.243289985052317,-3.5276128550074737,8.746258594917789,0.5866666666666667,0.21666666666666667,-0.6766666666666666,-0.03537813700146802,-0.10981502733524003,1.5762646663991693
1589985631.5825677,-1.192762476218352,-3.5236833016244695,8.81987092053271,0.5866666666666667,0.21666666666666667,-0.6766666666666666,-0.040059399542879584,-0.11522627706530528,1.5970185067317046
1589985631.5925677,-1.2111773745060734,-3.5482364993414315,8.752349626811064,0.5866666666666667,0.21666666666666667,-0.6766666666666666,-0.0380506457520008,-0.1125479386774669,1.619114798431371
1589985631.6025677,-1.3027732525099451,-3.510336048494033,8.802773252509946,0.575630232998674,0.20287112458167583,-0.7125350760876429,-0.04611740778539951,-0.11848806875905452,1.6477595114107453
1589985631.6125677,-1.37,-3.4873949258018193,8.77,0.5733333333333334,0.2,-0.72,-0.037940755142698415,-0.11591223245723063,1.6800627941162574
1589985631.6225677,-1.3805470689325952,-3.5074223792247468,8.786875310292151,0.5733333333333334,0.2,-0.72,-0.0412811443489118,-0.1183296031710709,1.6973413000680786
1589985631.6325676,-1.4189672813801308,-3.610885187388459,8.84911481261154,0.5733333333333334,0.2,-0.72,-0.04456313047375319,-0.12422596391771475,1.7139365567148348
1589985631.6425676,-1.3503087340755193,-3.671132024943571,8.790514556792532,0.5729902954716453,0.1988565404610395,-0.7196112237567533,-0.03381575425739013,-0.11570664415903348,1.7300351692638338
1589985631.6525676,-1.3743779410076895,-3.759385783694862,8.830629901679483,0.5462467322136781,0.10971132960114942,-0.6893018520643908,-0.03381575425739013,-0.12183291158647414,1.7282848071417078
1589985631.6625676,-0.7685005909628146,-4.0706806073279385,7.901709428129831,0.54,0.08888888888888889,-0.6822222222222222,-0.14779304182473896,0.020524795898998527,1.4733060058258316
1589985631.6725676,5.72181543776707,-7.983174288571689,-1.433363214837712,0.54,0.08888888888888889,-0.6822222222222222,-1.3416315136350327,1.4198532346341306,-0.862790460267064
1589985631.6825676,2.1867050847457628,-1.126078813559322,-0.06536440677966102,0.54,0.08888888888888889,-0.6822222222222222,-1.6653432066565537,-2.3396618403641707,-8.057065390926601
1589985631.6925676,-1.023419215766783,-1.8071412440977213,0.10637890919044686,0.5395341286677768,0.09041355870343758,-0.6815445911935338,-1.6417015593486677,-2.022386796789883,-8.092850322498617
1589985631.7025676,-0.21669285337398136,-1.6651880948193312,0.01338570674796273,0.5155555555555555,0.1688888888888889,-0.6466666666666666,-1.7840503659709168,-1.6877681936688367,-7.807931567960925
1589985631.7125676,-0.293022807286086,-1.9834654829328027,1.2337486606459513,0.5155555555555555,0.1688888888888889,-0.6466666666666666,-1.7665919199626403,-1.3756444456786878,-7.579367547507561
1589985631.7225676,0.0520840926189083,-3.312494691966898,5.866069380590153,0.5155555555555555,0.1688888888888889,-0.6466666666666666,-0.7506561649631295,0.16313682097272603,-7.025971113913527
1589985631.7325675,-0.13023104572431665,-0.7390463930452227,-0.7884331689375568,0.5155555555555555,0.1688888888888889,-0.6466666666666666,0.15193021474252366,1.4389962119464799,-6.613688013353063
1589985631.7425675,0.02446267985611511,-1.61902315647482,2.003877023381295,0.4970828337330136,0.19627947641886492,-0.6445964478417265,0.8643184707351794,2.3216045109393746,-6.147865271679492
1589985631.7525675,0.31367658379749125,-2.2476266811574517,3.6205470271249376,0.38666666666666666,0.36,-0.6322222222222222,1.7493459573821255,3.3933218500285256,-5.625276108231256
1589985631.7625675,1.253796872289276,-1.6036181813675678,6.803394383999604,0.38666666666666666,0.36,-0.6322222222222222,2.3810280914429947,3.964723440198748,-5.1344024800966235
1589985631.7725675,3.717894204851752,-1.2076898023360287,15.740625561545372,0.38666666666666666,0.36,-0.6322222222222222,2.502157180183596,3.2508009372594424,-4.612715787756425
1589985631.7825675,-0.3567570754716982,-0.5403577044025157,-0.8327633647798756,0.38666666666666666,0.36,-0.6322222222222222,1.622626654033821,0.5770966503659687,-4.116855831923202
1589985631.7925675,-0.8188135327501332,1.0339660740601384,-1.6412457279026746,0.38074199493445093,0.36888700759832355,-0.6311450091800012,0.7811152169124587,-0.11539603096179249,-3.5497787414492294
1589985631.8025675,-0.09699940509159541,-0.9847049049172255,5.7500127187314085,0.3377777777777778,0.43333333333333335,-0.6233333333333333,-1.1855730845902215,-0.034688808250027625,-2.808721277838211
1589985631.8125675,-0.42066889031430404,-3.2227186658114175,18.032984220654267,0.3377777777777778,0.43333333333333335,-0.6233333333333333,-1.7926298297963776,0.09774244039011466,-2.3110106418856198
1589985631.8225675,0.01681278958300049,-1.0391482265537626,4.132747443681099,0.3377777777777778,0.43333333333333335,-0.6233333333333333,-0.4462428566072516,-0.3255054348211343,-1.744469344807744
1589985631.8325675,0.5626625239005736,-1.8170411089866156,8.634091778202677,0.3377777777777778,0.43333333333333335,-0.6233333333333333,0.32349598428411386,0.24219467663265715,-1.332354379197434
1589985631.8425674,1.4803005956758346,-3.2590437932048832,15.60505662597441,0.3377777777777778,0.43333333333333335,-0.6233333333333333,0.6885621434885557,0.8528813853479216,-1.0135523645926334
1589985631.8525674,0.4177538456015652,-1.934406152962504,8.105404304201892,0.2588888888888889,0.4688888888888889,-0.6077777777777778,0.17873205492856054,0.2182497999775247,-0.7038468489903764
1589985631.8625674,0.6059639581426238,-2.235542333028198,9.294892215461383,0.2588888888888889,0.4688888888888889,-0.6077777777777778,-0.436362876544819,-0.4395486514379318,-0.5576694153424971
1589985631.8725674,0.5690348093032936,-1.953051147302149,8.283670846558094,0.2588888888888889,0.4688888888888889,-0.6077777777777778,-0.40331599427745646,-0.16976917482710818,-0.1472955293037112
1589985631.8825674,0.6126822415318175,-2.6441354909204433,10.378747593527239,0.2588888888888889,0.4688888888888889,-0.6077777777777778,0.16723402483330063,0.058768245901540034,0.08441602226839048
1589985631.8925674,0.3398617822471813,-1.9526261373035567,6.281748508989595,0.2585663807989784,0.46941104484398205,-0.6080695708115063,0.5924288635806779,0.3752419901947315,0.4647685633800618
1589985631.9025674,0.3307322275913108,-2.126087675765095,7.057760654738583,0.23726408660194737,0.5039004735439371,-0.6273430750850106,-0.048917808061833656,0.0147334573770464,0.6858539067102443
1589985631.9125674,0.5365099861489656,-3.0129623341226934,11.209365980072382,0.23555555555555555,0.5066666666666667,-0.6288888888888889,-0.3075901060485626,-0.36075734752922056,1.0006255932075556
1589985631.9225674,0.3600398857466354,-2.491500476055686,8.51233807673503,0.23555555555555555,0.5066666666666667,-0.6288888888888889,-0.015092207101685733,-0.02204555509724239,1.328263726112689
1589985631.9325674,0.32128054432501724,-2.731961542254216,7.895610886500345,0.23555555555555555,0.5066666666666667,-0.6288888888888889,0.15425358388585825,0.0014032681250503581,1.6037021554280593
1589985631.9425673,0.3692386689049077,-2.875075540633949,8.882181297521477,0.23592212237911853,0.506835851354465,-0.6290580735766872,-0.11213410835868205,-0.15415581409944784,1.7892663475814814
1589985631.9525673,0.34,-3.07,9.35,0.25,0.5133333333333333,-0.6355555555555555,-0.10362892433716332,-0.20943951023931956,2.0104011321409683
1589985631.9625673,1.1206636145628952,-5.4119908436886845,7.2279751471550036,0.25,0.5133333333333333,-0.6355555555555555,-0.0523464175593308,-0.15674555832081274,2.1167299994050977
1589985631.9725673,2.256964059608454,-5.341745397876693,5.49401090873673,0.25,0.5133333333333333,-0.6355555555555555,-0.39003676186354386,-0.41581190223288983,3.122200897290104
1589985631.9825673,1.2399374204861946,-2.091783859986934,7.527385758002957,0.25,0.5133333333333333,-0.6355555555555555,-0.46980213553273337,-0.5530578080466714,5.025354531873583
1589985631.9925673,-0.8824392767531495,-2.9726495770713157,8.672597842675703,0.25,0.5133333333333333,-0.6355555555555555,0.5076534136468493,-0.09337668383219733,5.697363296566865
1589985632.0025673,-0.5425745754933456,-2.1371821936668196,3.903308857273979,0.2966666666666667,0.5022222222222222,-0.6622222222222223,0.26713790063280807,0.05545765676225671,5.727355210287
1589985632.0125673,-0.6281245219519658,-3.2065565243995717,8.416068532966193,0.2966666666666667,0.5022222222222222,-0.6622222222222223,-0.3347794213622052,-0.45780517594666925,5.58970745060597
1589985632.0225673,2.5903225806451613,-9.146451612903226,6.241612903225806,0.2966666666666667,0.5022222222222222,-0.6622222222222223,-0.7961305307736231,-0.8346614890585787,3.8589018633056074
1589985632.0325673,-0.9747461141536609,-2.8793662350818314,8.1735216372788,0.2966666666666667,0.5022222222222222,-0.6622222222222223,-0.8547897152417949,-0.3270060777969931,0.5182250984700958
1589985632.0425673,-1.4414952923225783,-1.4884135313162892,9.528796472033045,0.2966666666666667,0.5022222222222222,-0.6622222222222223,0.2564581694393785,0.16197483273673044,-1.0879151210290285
1589985632.0525672,-1.431758179063957,-2.783965886958746,14.936634534044185,0.40655761248057287,0.4161409813346624,-0.6622222222222223,1.1683586119146336,0.5077663746569736,-0.8018543407420475
1589985632.0625672,-1.0609672243086377,-2.0070621372482074,8.598230454079891,0.43,0.3977777777777778,-0.6622222222222223,0.38388863997065353,0.3271834273746565,-0.5246786384850819
1589985632.0725672,-1.3330454079890748,-2.365059747354046,10.617336975076817,0.43,0.3977777777777778,-0.6622222222222223,-0.3502792087769383,-0.12737581514778856,-0.4489187647313411
1589985632.0825672,-0.5026099683386765,-2.722957844640475,10.520409207670403,0.43,0.3977777777777778,-0.6622222222222223,-0.2994042145364356,-0.29347761852993914,-0.18795608030341723
1589985632.0925672,0.4077600111511578,-4.059280750313626,8.841653557418507,0.43,0.3977777777777778,-0.6622222222222223,0.08324260269020206,0.15476579593555073,0.04345413773364459
1589985632.1025672,-5.09,-7.04,8.84,0.43666666666666665,0.3911111111111111,-0.67,0.006544984694978735,0.02072578486743266,-0.7210391472301574
1589985632.1125672,-2.981202037351443,-6.670096095076401,8.428611544991512,0.43666666666666665,0.3911111111111111,-0.67,0.031433928021816215,0.0199715744635891,-0.39333472676013065
1589985632.1225672,0.931207154220701,-5.798461408667984,7.75259485127513,0.43666666666666665,0.3911111111111111,-0.67,0.06806470133022714,0.016216319966991376,0.22080470172809014
1589985632.1325672,0.026590025500606167,-3.9591095689979516,8.863674177500942,0.43666666666666665,0.3911111111111111,-0.67,-0.046621809410826436,-0.009289139370715087,0.14021231798468242
1589985632.1425672,-0.22765248108356673,-4.818273901592743,8.469159943146188,0.43666666666666665,0.3911111111111111,-0.67,-0.01984458366175725,-0.003551162424485976,0.004413530257260129
1589985632.1525671,0.11093668260124473,-4.3200974113827,8.827931812032109,0.4236690117555095,0.39711002876241447,-0.6779985568684044,0.009921424252868346,-0.015051339611754786,-0.027702497304234654
1589985632.1625671,0.05192520361652843,-4.393101509377568,8.86299465740118,0.4222222222222222,0.3977777777777778,-0.6788888888888889,0.010797476385339696,-0.0003150107051224059,-0.00914666053346819
1589985632.1725671,0.10579553996492107,-4.20903958907542,9.043602605863192,0.4222222222222222,0.3977777777777778,-0.6788888888888889,0.008268010816967625,0.004386254902136025,-0.0010220354660458526
1589985632.1825671,-0.0795821242019733,-4.610726929773651,8.311774521183981,0.4222222222222222,0.3977777777777778,-0.6788888888888889,-0.012180838221260483,0.005056409026177347,0.002011199470862227
1589985632.192567,0.0725616656993616,-4.329260918456181,8.775813080383053,0.4222222222222222,0.3977777777777778,-0.6788888888888889,0.0010962121299434788,-0.0007523005024743859,-0.0004782474699885162
1589985632.202567,-0.09472395101385264,-4.531206585023088,8.65319012246537,0.4222222222222222,0.3977777777777778,-0.6933333333333334,0.0015384634103669148,0.009433791932864855,0.0031765710700885556
1589985632.212567,0.07368801445492873,-4.250519975908452,9.074220036137321,0.4222222222222222,0.3977777777777778,-0.6933333333333334,0.015826937771684008,-0.0028134718054069405,0.0001147551355206067
1589985632.222567,-0.05108176849396613,-4.429340332269062,8.65306077168678,0.4222222222222222,0.3977777777777778,-0.6933333333333334,0.007624304464834527,0.000699397321879864,0.0007943779338738465
1589985632.232567,0.07887296365914787,-4.234508145363409,8.903463189223057,0.4222222222222222,0.3977777777777778,-0.6933333333333334,-0.0036413141275674697,-0.0032233161101456213,-0.001090830782496456
1589985632.242567,0.046022869674185465,-4.3659085213032585,8.712932644110275,0.4222222222222222,0.3977777777777778,-0.6933333333333334,-0.01439148224557707,-0.0017899603610776744,-0.001090830782496456
1589985632.252567,0.03,-4.377879050424537,8.776362848726391,0.4189129555825103,0.3928138778182098,-0.6867148000539094,-0.009076143074533416,-0.001090830782496456,0.0005336016806424357
1589985632.262567,-0.03581850872554204,-4.440444843997884,8.647170809095716,0.4177777777777778,0.3911111111111111,-0.6844444444444444,0.00013004595008249756,0.0005046548925220517,0.00029308794498720213
1589985632.272567,0.04038731625105334,-4.30572984613464,8.817279111138854,0.4177777777777778,0.3911111111111111,-0.6844444444444444,0.011141208589081106,-0.001895684892199609,0.0009955052248986883
1589985632.282567,0.02,-4.341412413403082,8.692824826806163,0.4177777777777778,0.3911111111111111,-0.6844444444444444,-0.002207339965287788,0.002155983164698036,0.0031954571466047393
1589985632.292567,0.02,-4.385887530043829,8.781775060087657,0.4177777777777778,0.3911111111111111,-0.6844444444444444,-0.0030159204034018996,0.0013474027265839247,0.0007697158322624064
1589985632.302567,0.00814253473300619,-4.441501128434479,8.685496614696564,0.420412770059332,0.3983573398853851,-0.6712694830366736,-0.004565941159051308,0.0017375551882774262,-0.0006467244057809702
1589985632.312567,-0.008114801864801865,-4.396966783216783,8.705492424242424,0.4222222222222222,0.4033333333333333,-0.6622222222222223,0.006938472022697447,0.00041128643139580826,0.0015647319178991998
1589985632.322567,0.006221928082947274,-4.355667107875579,8.681334215751159,0.4222222222222222,0.4033333333333333,-0.6622222222222223,0.008047939192035843,-0.0008847689252161306,-0.00047264521065547944
1589985632.332567,-0.029781902690462707,-4.35,8.769454756726157,0.4222222222222222,0.4033333333333333,-0.6622222222222223,0.004381166174397544,-0.0021757138835223387,-0.001090830782496456
1589985632.342567,0.016507656612529002,-4.357751276102088,8.746746171693735,0.4222222222222222,0.4033333333333333,-0.6622222222222223,-0.010856271906430622,-0.002181661564992912,-0.0019363638400751474
1589985632.352567,0.02101295570955107,-4.440883398614041,8.686077734257307,0.41123805697834015,0.3983405309497506,-0.6642193431756552,-0.011350293132678099,-0.0012013271094248406,-0.0012013271094248406
1589985632.362567,0.034613461611302604,-4.420773076777395,8.716533654028257,0.41,0.3977777777777778,-0.6644444444444444,-0.005329023007410861,-0.0026849121589403698,-0.00029379009427449906
1589985632.372567,0.006184435228104419,-4.38745629015207,8.679276652842157,0.41,0.3977777777777778,-0.6644444444444444,0.004104919448647922,-0.00019857076576549693,0.0018443529490343225
1589985632.382567,0.008722516393730055,-4.34127748360627,8.747709436476487,0.41,0.3977777777777778,-0.6644444444444444,0.00668433653916412,0.003748231816644904,0.00013935184418538415
1589985632.392567,-0.02327029844079045,-4.380482014847589,8.753941417966008,0.41,0.3977777777777778,-0.6644444444444444,0.004667477687365236,0.0035766469048687803,-0.0003041545573794121
1589985632.402567,0.034837788736049834,-4.3906452764079935,8.749354723592006,0.41727589612711596,0.4029748464400035,-0.6498926521902125,-0.005841097325920387,0.0012316082563081253,-0.0020408840911812424
1589985632.412567,0.021178040890675546,-4.421369931848874,8.75,0.4177777777777778,0.4033333333333333,-0.6488888888888888,-0.0031230559644219533,0.0017752165286078125,-0.003550433057215625
1589985632.422567,0.01665825931205907,-4.380075666191468,8.723366962751765,0.4177777777777778,0.4033333333333333,-0.6488888888888888,0.0032669897467661703,-0.001449855542725944,-0.0014581094438107399
1589985632.432567,0.0032125492604534525,-4.35,8.751968626848866,0.4177777777777778,0.4033333333333333,-0.6488888888888888,0.01094783432038436,-0.003272492347489368,0.003662453605268054
1589985632.4425669,0.021538740262093122,-4.357179580087364,8.767179580087364,0.4177777777777778,0.4033333333333333,-0.6488888888888888,0.0026010902498262312,-0.0024893216510198024,0.0027969817370466932
1589985632.4525669,0.018945045811647833,-4.36,8.78105495418835,0.4134786289267519,0.4033333333333333,-0.6654713201714171,-0.006517418729980655,-0.0027846157813800456,0.0009757531322186453
1589985632.4625669,0.01,-4.403249729810308,8.696292252077665,0.41,0.4033333333333333,-0.6788888888888889,-0.009335703271239932,-0.0016998877937647414,0.0015726045537246265
1589985632.4725668,-0.01664295104786946,-4.402238032634754,8.651119016317377,0.41,0.4033333333333333,-0.6788888888888889,0.0019297691578678295,0.0027842293694451733,0.0012128965270075047
1589985632.4825668,-0.02,-4.4,8.67749689213894,0.41,0.4033333333333333,-0.6788888888888889,0.007271753196574729,0.0022726771352180276,-0.0009087996420462246
1589985632.4925668,-0.005712961074124213,-4.385712961074124,8.751435194629378,0.41,0.4033333333333333,-0.6788888888888889,0.006856578384921671,0.0014024244724393916,0.0012468804951641054
1589985632.5025668,-0.008630052352616005,-4.38,8.745479790589537,0.43301347294030934,0.4033333333333333,-0.6712177312421191,-0.0009861567136528627,0.001090830782496456,0.002181661564992912
1589985632.5125668,0.004973410588141916,-4.394973410588142,8.754973410588141,0.43666666666666665,0.4033333333333333,-0.67,-0.00299833442441809,-0.0005425149363539007,0.0013649887055677337
1589985632.5225668,0.002094775212636695,-4.4,8.633516403402187,0.43666666666666665,0.4033333333333333,-0.67,0.00017681266875458962,0.0006338217256255229,0.001090830782496456
1589985632.5325668,0.0,-4.36901287164612,8.716201731327049,0.43666666666666665,0.4033333333333333,-0.67,0.00616108780293355,-0.0005992548909825755,-0.0005992548909825755
1589985632.5425668,-0.01279232460523686,-4.36,8.75,0.43666666666666665,0.4033333333333333,-0.67,0.005542676258613313,0.00030459536341146277,0.0010023084363654227
1589985632.5525668,-0.005036605969588886,-4.367481697015205,8.794890182091233,0.4258597709780364,0.3991768349915525,-0.6808068956886303,-0.0005334361157130225,-0.0013575488403529672,0.0005494084830932966
1589985632.5625668,0.0,-4.392238333470024,8.72660624948741,0.4222222222222222,0.3977777777777778,-0.6844444444444444,-0.005820400370071388,-0.002181661564992912,0.0006064564675130794
1589985632.5725667,0.011215686274509803,-4.415607843137255,8.648784313725491,0.4222222222222222,0.3977777777777778,-0.6844444444444444,-0.0075032046764658186,-0.000958219981487083,0.0004791099907435415
1589985632.5825667,0.0027849755654051588,-4.402784975565406,8.657215024434596,0.4222222222222222,0.3977777777777778,-0.6844444444444444,2.7552806160908994e-05,0.000938933928734235,0.0
1589985632.5925667,-0.0065510045274476516,-4.3737959818902095,8.732061049801924,0.4222222222222222,0.3977777777777778,-0.6844444444444444,0.004663849479903229,0.001090830782496456,-0.0014292074789627094
1589985632.6025667,-0.004919977362761743,-4.380320090548953,8.780160045274476,0.41996443438344966,0.40680892913286804,-0.6731555052505817,0.004328406667587409,0.0005366862756486241,-0.0005192280444494164
1589985632.6125667,0.0,-4.392884154929577,8.768652464788731,0.4177777777777778,0.4155555555555556,-0.6622222222222223,-0.00014699328889485703,0.002328654853887769,-0.0004616057867620567
1589985632.6225667,0.006994943214789024,-4.403989886429578,8.669065738207744,0.4177777777777778,0.4155555555555556,-0.6622222222222223,-0.0018538607205471147,0.000983402533337392,-0.0018538607205471147
1589985632.6325667,0.0016540964661516926,-4.384962289398455,8.705113131804636,0.4177777777777778,0.4155555555555556,-0.6622222222222223,0.0014599258279941615,0.0,-0.0012712647167461436
1589985632.6425667,0.0,-4.366566323808122,8.753584190479696,0.4177777777777778,0.4155555555555556,-0.6622222222222223,0.0036470483162119533,0.0014653867512190416,-0.0003581374068869352
1589985632.6525667,-0.007818329278183293,-4.36,8.777818329278183,0.43254573308101285,0.4059998197711093,-0.6622222222222223,0.004363323129985824,-0.0012297281327413416,0.0017056948488671268
1589985632.6625667,0.015163502989020411,-4.368387834329674,8.771612165670327,0.43666666666666665,0.4033333333333333,-0.6622222222222223,-0.0038714139667736886,0.001478221589122427,-0.0005632508005935922
1589985632.6725667,0.005435498229850313,-4.3991290035403,8.638919484068653,0.43666666666666665,0.4033333333333333,-0.6622222222222223,-0.00783726494187279,0.0013872912218627419,0.0012922802468940543
1589985632.6825666,-0.007883347468060077,-4.41788334746806,8.676716822148661,0.43666666666666665,0.4033333333333333,-0.6622222222222223,-0.005286887025061476,0.00023089097376891303,0.002181661564992912
1589985632.6925666,-0.01,-4.407024258862356,8.712975741137644,0.43666666666666665,0.4033333333333333,-0.6622222222222223,0.0012984120134732014,0.0014154337858647563,0.0007662277791281556
1589985632.7025666,-0.004578569775514927,-4.383735709326545,8.736264290673455,0.4330523798503433,0.4033333333333333,-0.6664388901745996,0.005546095724790822,0.00040750267278541496,0.0
1589985632.7125666,0.0,-4.378336092092393,8.73749586186141,0.43,0.4033333333333333,-0.67,0.0060903214019733375,0.00027315909651973733,0.0
1589985632.7225666,0.0,-4.39831945236737,8.682562464346836,0.43,0.4033333333333333,-0.67,0.002731619491730144,0.0017279058282008894,-0.0004537557367920226
1589985632.7325666,0.0,-4.414980050576005,8.644940151728013,0.43,0.4033333333333333,-0.67,-0.0021773092758354384,4.352289157474008e-06,-4.352289157474008e-06
1589985632.7425666,0.0044236723724951806,-4.397881638137524,8.704236723724952,0.43,0.4033333333333333,-0.67,-0.0018248489488103068,0.0008393604157422927,0.00012573518337708161
1589985632.7525666,0.00024647361345255143,-4.37,8.77463028957982,0.43,0.4060426462184854,-0.67,0.002659861705084346,0.002740520006472499,-0.0005588584414795868
1589985632.7625666,0.0025052293961790543,-4.357494770603821,8.796252614698089,0.43,0.4088888888888889,-0.67,0.002725936078975943,0.002863716023369496,0.0
1589985632.7725666,0.004634859481957966,-4.360730281036084,8.740983454301539,0.43,0.4088888888888889,-0.67,-0.0012501533893032378,0.0038577383904392915,-0.0017557381288497704
1589985632.7825665,0.0,-4.391721652844675,8.68456958678883,0.43,0.4088888888888889,-0.67,-0.0050495909152148254,0.0037709569407440046,-0.0026801261582475484
1589985632.7925665,0.0,-4.399261388604072,8.701477222791857,0.43,0.4088888888888889,-0.67,-0.004787883514186922,0.000929690773100283,-0.0015959611713956406
1589985632.8025665,-0.0058553394985758995,-4.378289321002848,8.743421357994304,0.4143857613371309,0.4023829561126935,-0.6752047462209564,0.0005598183927190046,0.0008253245876077304,-0.001090830782496456
1589985632.8125665,-0.0033305319031294925,-4.37,8.74666106380626,0.4033333333333333,0.3977777777777778,-0.6788888888888889,0.004727544568078249,0.0029091876752873527,0.00036422143809242504
1589985632.8225665,-0.014458816252991637,-4.37,8.68939414311453,0.4033333333333333,0.3977777777777778,-0.6788888888888889,0.00545415391248228,0.0001180679780446994,0.001090830782496456
1589985632.8325665,-0.005073007336116812,-4.392390488995825,8.677463496331942,0.4033333333333333,0.3977777777777778,-0.6788888888888889,0.000569306986123513,-0.001090830782496456,0.00027668962810332813
1589985632.8425665,0.00856797516688185,-4.4,8.692851962750323,0.4033333333333333,0.3977777777777778,-0.6788888888888889,-0.0015581413352814526,-0.0006235202297114593,0.0009346211055699932
1589985632.8525665,0.019747197526091997,-4.3994943950521845,8.710758407421725,0.40357209122535753,0.39791822359661555,-0.6788888888888889,-0.0021540850929499013,-1.3788236021505262e-05,0.002140296856928396
1589985632.8625665,0.0,-4.36,8.77,0.4222222222222222,0.4088888888888889,-0.6788888888888889,0.0018673929888248307,0.0007765622063283747,-0.000468366452888179
1589985632.8725665,0.0,-4.372031049968503,8.727891325110239,0.4222222222222222,0.4088888888888889,-0.6788888888888889,0.002616300364919565,0.0015254695824231087,0.00196857594770941
1589985632.8825665,0.0,-4.391908506837995,8.7,0.4222222222222222,0.4088888888888889,-0.6788888888888889,-0.0023648964763658474,0.001090830782496456,0.002622984055866688
1589985632.8925664,0.0,-4.405427980451402,8.705427980451402,0.4222222222222222,0.4088888888888889,-0.6788888888888889,-0.00486205309616442,0.001090830782496456,-0.00018674170027852856
1589985632.9025664,0.004482886130948254,-4.3965513416071555,8.732414430654742,0.42022982838624523,0.4088888888888889,-0.6749041012169349,-0.0033853090927728653,-0.0003761902733229821,-0.0012036475277799532
1589985632.9125664,0.003437318419523533,-4.366874636839047,8.76,0.4177777777777778,0.4088888888888889,-0.67,0.0006818484684895775,-0.0007499065482516672,0.0007158775083706224
1589985632.9225664,0.00576137089335131,-4.365761370893352,8.719670403746541,0.4177777777777778,0.4088888888888889,-0.67,0.0034385977089622546,0.0012569361439693427,0.0004623627105117846
1589985632.9325664,0.01,-4.376095781688,8.702191563376001,0.4177777777777778,0.4088888888888889,-0.67,0.0030334298682560433,0.0008517683032631315,0.0006649466308648902
1589985632.9425664,0.01,-4.38,8.714992687535947,0.4177777777777778,0.4088888888888889,-0.67,-0.0010860447859649216,0.0010892354503192776,0.0016354485076560947
1589985632.9525664,0.005452527254707631,-4.398189890981169,8.729094945490585,0.4263674485188856,0.4088888888888889,-0.6634314282567999,-0.002875166154047249,0.0016856092396800538,0.0011895569143671957
1589985632.9625664,-0.006509860976398319,-4.400470417070805,8.7465098609764,0.43666666666666665,0.4088888888888889,-0.6555555555555556,0.003879978937482949,0.0003807151082136838,0.0007101156742827722
1589985632.9725664,-0.0031704212803869165,-4.39,8.688533791523483,0.43666666666666665,0.4088888888888889,-0.6555555555555556,0.0050550017552113986,0.0007449914698836684,0.00034583931261278756
1589985632.9825664,0.0,-4.39,8.689271972840437,0.43666666666666665,0.4088888888888889,-0.6555555555555556,-0.00010698453543910979,0.001090830782496456,-0.0006386153807749905
1589985632.9925663,0.007966713947990544,-4.393983356973995,8.721950070921986,0.43666666666666665,0.4088888888888889,-0.6555555555555556,-0.0045760428689611615,0.0015253476229870537,0.0002127197389753374
1589985633.0025663,0.016433098591549296,-4.407133802816902,8.743566901408451,0.43151447574334895,0.4088888888888889,-0.665859937402191,-0.006155896109531937,0.0002362186377589154,0.001014395808652514
1589985633.0125663,0.0033752168802820845,-4.400125650640846,8.763249566239436,0.4222222222222222,0.4088888888888889,-0.6844444444444444,-0.0011182434998715561,-0.001104537141184006,0.00035447268837378526
1589985633.0225663,-0.007166978462128843,-4.404333956924257,8.70549719384084,0.4222222222222222,0.4088888888888889,-0.6844444444444444,0.003436218999690232,0.002345388217193776,0.001090830782496456
1589985633.0325663,-0.0032818283166109255,-4.41,8.720309030100335,0.4222222222222222,0.4088888888888889,-0.6844444444444444,0.004363323129985824,0.004005331194923052,0.001090830782496456
1589985633.0425663,0.0,-4.399191034879797,8.7345955174399,0.4222222222222222,0.4088888888888889,-0.6844444444444444,0.0020051727539761744,0.0037737855359834117,0.002269905970501281
1589985633.0525663,0.0033748136974986083,-4.393374813697498,8.746874068487493,0.42072230502333396,0.4070139923902786,-0.6795697135480575,-0.0007362701332844329,0.0017999520809205023,0.002536222214204935
1589985633.0625663,0.007961063090718153,-4.397961063090718,8.761649567816463,0.4177777777777778,0.4033333333333333,-0.67,-0.0017368345361503472,-0.0008684172680751736,0.0004235902392326086
1589985633.0725663,0.0,-4.393914191651556,8.678257425045333,0.4177777777777778,0.4033333333333333,-0.67,0.000853944148421461,0.0004269720742107305,-0.001327717416571451
1589985633.0825663,0.0,-4.3890720503797,8.673659937025375,0.4177777777777778,0.4033333333333333,-0.67,0.002181661564992912,0.000494803590726768,0.000298013595884844
1589985633.0925663,0.006993092429867017,-4.373986184859734,8.723986184859735,0.4177777777777778,0.4033333333333333,-0.67,0.0014188335162587237,-0.001090830782496456,0.0018536588312306442
1589985633.1025662,0.01985783424077435,-4.399857834240775,8.74971566848155,0.4177777777777778,0.40315957518316864,-0.6697946494588963,-3.1015757276063777e-05,-0.0010753229038584242,0.003272492347489368
1589985633.1125662,0.01297649391107335,-4.392976493911073,8.727023506088926,0.4177777777777778,0.3911111111111111,-0.6555555555555556,-0.001856976446781704,0.0003246851182112079,0.00294780722927816
1589985633.1225662,0.006985828229596924,-4.404338057256801,8.693971656459194,0.4177777777777778,0.3911111111111111,-0.6555555555555556,0.000802003774283821,0.001090830782496456,0.0017084529257978427
1589985633.1325662,-0.000549083650880057,-4.40054908365088,8.67417637452368,0.4177777777777778,0.3911111111111111,-0.6555555555555556,0.003272492347489368,0.001090830782496456,-0.0004555717889664025
1589985633.1425662,0.006790557383587597,-4.3932094426164126,8.709256655698475,0.4177777777777778,0.3911111111111111,-0.6555555555555556,0.003272492347489368,0.0007407349024325944,-0.001131373924801327
1589985633.1525662,0.003237826766798071,-4.403237826766798,8.756475653533595,0.42173512160386434,0.3968672475854188,-0.6577141067334209,0.002566108126366506,-0.00035319211056143094,0.001090830782496456
1589985633.1625662,0.006025323618872463,-4.398075970856618,8.766025323618873,0.43,0.4088888888888889,-0.6622222222222223,0.00022369091309734916,-0.0006572608477969026,0.0015244007171960094
