time,acc_x,acc_y,acc_z,mag_x,mag_y,mag_z,gyr_x,gyr_y,gyr_z
1589985639.200652,-3.77,-0.25,9.12,0.25555555555555554,-0.4177777777777778,-0.6144444444444445,0.011999138607461015,-0.01963495408493621,-0.04036073895236887
1589985639.2106519,-3.7,-0.23612059709034255,8.952241194180685,0.25555555555555554,-0.4177777777777778,-0.6144444444444445,0.008124768197843838,-0.02606701343815578,-0.006187582993035248
1589985639.2206519,-3.7185035578236185,-0.2392517789118091,8.98163300510314,0.25555555555555554,-0.4177777777777778,-0.6144444444444445,-0.0006011212254294785,-0.0081106283301165,-0.0011724490420076188
1589985639.2306519,-3.756159142617651,-0.2661591426176506,9.073091046980402,0.2519646349738554,-0.42495961894117806,-0.6096565503355109,-0.0052855634526640435,0.013595740769412182,-0.0005875630062027871
1589985639.2406518,-3.7498537490190484,-0.26656916601269887,9.10328458300635,0.2488888888888889,-0.4311111111111111,-0.6055555555555555,-0.003272492347489368,0.01963495408493621,-0.001090830782496456
1589985639.2506518,-3.7238478618421054,-0.2653840460526316,9.046159539473685,0.2488888888888889,-0.4311111111111111,-0.6055555555555555,0.0008386658705229746,0.014349179233206055,-0.002265447416214268
1589985639.2606518,-3.743190369897959,-0.2644682716836735,9.044253826530612,0.2488888888888889,-0.4311111111111111,-0.6055555555555555,0.005570159035557078,0.011024312948039358,-0.005082746205846249
1589985639.2706518,-3.776257227787279,-0.2537427722127209,9.105028911149116,0.2488888888888889,-0.4311111111111111,-0.6055555555555555,0.00791010003166998,0.0072212349290416596,-0.0072275423633243584
1589985639.2806518,-3.78,-0.25,9.12,0.2628245756873552,-0.42127415572395843,-0.5916198687570893,0.009531430290647935,-0.0069036532994821735,-0.002807111293417478
1589985639.2906518,-3.749131954022989,-0.25,9.06598091954023,0.2677777777777778,-0.4177777777777778,-0.5866666666666667,0.012342863148511105,-0.020168056880455566,0.0031181460609085478
1589985639.3006518,-3.6886699270424117,-0.25,8.921674817606029,0.2677777777777778,-0.4177777777777778,-0.5866666666666667,0.01122355526829326,-0.015441789945768732,-0.00030271217417470256
1589985639.3106518,-3.6739809887810746,-0.24398098878107444,8.906019011218925,0.2677777777777778,-0.4177777777777778,-0.5866666666666667,0.004342585107169051,-0.002362499280422011,-0.005686836684953312
1589985639.3206518,-3.6649749851606885,-0.2500500296786229,8.965275163232425,0.2677777777777778,-0.4177777777777778,-0.5866666666666667,-0.007125873129989142,0.016417035650927118,-0.014756231216116307
1589985639.3306518,-3.6884655144186915,-0.24861379423252333,9.042772411534953,0.26081954091987536,-0.42157317970027003,-0.6069088102532919,-0.01542284254715415,0.03658608737266308,-0.02879906030298412
1589985639.3406518,-3.7870626576266746,-0.24,9.12165012610134,0.25555555555555554,-0.4244444444444445,-0.6222222222222222,-0.02056557769345493,0.045314477682261475,-0.02902222270147526
1589985639.3506517,-3.8477586859026314,-0.2525862286342105,9.089655085463159,0.25555555555555554,-0.4244444444444445,-0.6222222222222222,-0.01838425424249534,0.03551780864254982,-0.014227796214163037
1589985639.3606517,-3.833729285520239,-0.26,9.081762428687856,0.25555555555555554,-0.4244444444444445,-0.6222222222222222,-0.006866810891607683,0.011252433672879262,0.0029506661508604216
1589985639.3706517,-3.7678872534872534,-0.2665140933140933,9.057429533429532,0.25555555555555554,-0.4244444444444445,-0.6222222222222222,0.000990971756751037,-0.007716491832028656,0.011519026149925874
1589985639.3806517,-3.730884744141559,-0.2745576279292205,9.04455762792922,0.25251713693607525,-0.4274828630639248,-0.6120941601572878,0.005758292767669001,-0.015175120340525778,0.009706359416130586
1589985639.3906517,-3.741955009559452,-0.25804499044054835,9.01157873327096,0.2488888888888889,-0.4311111111111111,-0.6,0.010522836279280684,-0.019356111769628565,0.001369673097804097
1589985639.4006517,-3.735945580706359,-0.24,8.939909301177265,0.2488888888888889,-0.4311111111111111,-0.6,0.011999138607461015,-0.023565902384634446,-0.00196547414984912
1589985639.4106517,-3.745270664145066,-0.2552706641450662,8.9758119924352,0.2488888888888889,-0.4311111111111111,-0.6,0.010333367555600704,-0.01983384958527125,-0.002181661564992912
1589985639.4206517,-3.7253938631988373,-0.26615153420029075,9.045363807802616,0.2488888888888889,-0.4311111111111111,-0.6,0.008475420469416734,-0.01586001015633701,-0.002181661564992912
1589985639.4306517,-3.702886739012825,-0.27,9.072886739012825,0.2583732368717889,-0.4263689371196612,-0.5936771013447334,0.007635815477475192,-0.011852990957831442,-0.0006297887552445885
1589985639.4406517,-3.7,-0.28150758782447355,9.07,0.26222222222222225,-0.4244444444444445,-0.5911111111111111,0.006380532374353471,-0.004631892309355958,-0.0031382077578043007
1589985639.4506516,-3.7,-0.2643858632676709,8.999561123986096,0.26222222222222225,-0.4244444444444445,-0.5911111111111111,-0.00013398385045727042,0.007683689424041881,-0.008248222793952056
1589985639.4606516,-3.7539396083982073,-0.22303019580089645,9.003151686718565,0.26222222222222225,-0.4244444444444445,-0.5911111111111111,-0.009156390871146235,0.019059816835849255,-0.01217103645193085
1589985639.4706516,-3.8039424607993952,-0.21576984319758186,9.05576984319758,0.26222222222222225,-0.4244444444444445,-0.5911111111111111,-0.01289063289282408,0.02078855039865233,-0.01203052137307085
1589985639.4806516,-3.800036027288755,-0.2549459590668677,9.070036027288754,0.26886487069638565,-0.42776576868152616,-0.59553954342722,-0.007647605380150307,0.00494214324548021,-0.007639745445033564
1589985639.4906516,-3.783450402302226,-0.27,9.053450402302227,0.27555555555555555,-0.4311111111111111,-0.6,0.0006378288172041299,-0.014365627024365734,-0.0036871835822987627
1589985639.5006516,-3.743167589723571,-0.27736648205528586,8.983701661502428,0.27555555555555555,-0.4311111111111111,-0.6,0.00809384357825749,-0.021242071161858913,-0.0013781030265315585
1589985639.5106516,-3.7086392209751526,-0.28,9.016962077399592,0.27555555555555555,-0.4311111111111111,-0.6,0.009817477042468105,-0.016379716746967206,-0.005751029842178094
1589985639.5206516,-3.6943724230511075,-0.2856275769488925,9.051255153897785,0.27555555555555555,-0.4311111111111111,-0.6,0.008589730209124218,-0.009269812839078377,-0.011319055977506851
1589985639.5306516,-3.721889055472264,-0.25811094452773614,9.091889055472263,0.26705180742961854,-0.4311111111111111,-0.5943308345827086,0.002765836610731644,0.0056772263543601155,-0.019746490305875122
1589985639.5406516,-3.752222091102195,-0.24611104555109747,9.08555581779561,0.26222222222222225,-0.4311111111111111,-0.5911111111111111,-0.005332893280300116,0.019331866867873672,-0.02224083477238806
1589985639.5506516,-3.7761677301731993,-0.2419161349134002,9.041706472196902,0.26222222222222225,-0.4311111111111111,-0.5911111111111111,-0.007403926928269929,0.02091193210761802,-0.020934802762127974
1589985639.5606515,-3.803483509458087,-0.23696701891617467,9.006967018916175,0.26222222222222225,-0.4311111111111111,-0.5911111111111111,-0.00355419423848268,0.011042574650247959,-0.01735500247613669
1589985639.5706515,-3.785127390833634,-0.2642129195236377,9.023553229880909,0.26222222222222225,-0.4311111111111111,-0.5911111111111111,0.0011627917594146631,-0.0031727390020239755,-0.011151983124266365
1589985639.5806515,-3.742745434861061,-0.2884311800793937,9.029607795019848,0.26222222222222225,-0.4311111111111111,-0.5911111111111111,0.0031441435678700447,-0.01043769563302704,-0.007849730110174064
1589985639.5906515,-3.72,-0.2867882227586057,9.01,0.2288888888888889,-0.4122222222222222,-0.5911111111111111,0.00471367367812927,-0.017493071658009413,-0.018464565026307514
1589985639.6006515,-3.7238611901076353,-0.2722776197847295,9.006138809892365,0.2288888888888889,-0.4122222222222222,-0.5911111111111111,0.00545415391248228,-0.014429249949654513,-0.025434589448313186
1589985639.6106515,-3.7432379534092117,-0.24676204659078824,9.035301209091232,0.2288888888888889,-0.4122222222222222,-0.5911111111111111,0.004491462774080805,-0.012608623820756733,-0.02993377669660505
1589985639.6206515,-3.7567148708254567,-0.22671487082545685,9.086570258349086,0.2288888888888889,-0.4122222222222222,-0.5911111111111111,0.003989196353103139,-0.010924082599040359,-0.029109853898673224
1589985639.6306515,-3.7544157623236796,-0.22883152464735973,9.108831524647359,0.24066425508536854,-0.4176192650622754,-0.5911111111111111,0.00545415391248228,-0.006799906471628414,-0.023289829097400093
1589985639.6406515,-3.76,-0.2575117820324006,9.073301914580265,0.25555555555555554,-0.4244444444444445,-0.5911111111111111,0.006727646638969674,-0.006273562219716915,-0.015177729542230328
1589985639.6506515,-3.733785963336114,-0.27,8.981018417506256,0.25555555555555554,-0.4244444444444445,-0.5911111111111111,0.006920938524313757,-0.014784585009089541,-0.011999138607461015
1589985639.6606514,-3.707696301412275,-0.27,8.962303698587725,0.25555555555555554,-0.4244444444444445,-0.5911111111111111,0.009229235326588533,-0.016530935328732402,-0.017367639870680608
1589985639.6706514,-3.689933829126896,-0.24986765825379167,8.980066170873105,0.25555555555555554,-0.4244444444444445,-0.5911111111111111,0.007614161109889181,-0.010879435334849879,-0.02292188267748291
1589985639.6806514,-3.709901036757776,-0.2599010367577757,9.055782280867106,0.2628646978741229,-0.4284312493454812,-0.5911111111111111,0.00044928657111305455,-0.0013262692831483769,-0.026393786850376074
1589985639.6906514,-3.7171173277661795,-0.28644133611691025,9.093558663883089,0.2677777777777778,-0.4311111111111111,-0.5911111111111111,-0.002181661564992912,0.006397506195032033,-0.030783973420777336
1589985639.7006514,-3.697319122927649,-0.27731912292764915,9.00757429902972,0.2677777777777778,-0.4311111111111111,-0.5911111111111111,-0.0007983924590355296,0.010801549918907721,-0.034108192580851064
1589985639.7106514,-3.742797564338235,-0.27,9.028636833639705,0.2677777777777778,-0.4311111111111111,-0.5911111111111111,-0.0046074566736787346,0.020062187786398802,-0.036058449208306274
1589985639.7206514,-3.8063845680084647,-0.27,9.103653806673721,0.2677777777777778,-0.4311111111111111,-0.5911111111111111,-0.008726646259971648,0.02816440911948839,-0.03500308763836653
1589985639.7306514,-3.8461265259068584,-0.27,9.136772104922382,0.2677777777777778,-0.4311111111111111,-0.5911111111111111,-0.008726646259971648,0.030331996671100703,-0.029945383351271133
1589985639.7406514,-3.8484860595232497,-0.2680810099205416,9.156567069443792,0.2488888888888889,-0.4244444444444445,-0.5911111111111111,0.006875275269960032,0.0008489083225295662,-0.01385050959747263
1589985639.7506514,-3.785331059078927,-0.26293378818421465,9.038390448131493,0.2488888888888889,-0.4244444444444445,-0.5911111111111111,0.016173185935677025,-0.019504203240639454,-0.0016723591171565297
1589985639.7606514,-3.7583509402070567,-0.27417547010352844,8.931754701035285,0.2488888888888889,-0.4244444444444445,-0.5911111111111111,0.009446184333699502,-0.018628303725703396,0.005369973489218636
1589985639.7706513,-3.764876716288481,-0.28,9.002808209278797,0.2488888888888889,-0.4244444444444445,-0.5911111111111111,0.0026867324559895368,-0.011386482382460114,0.012891226611461299
1589985639.7806513,-3.7467250540436794,-0.26690021617471765,9.04654989191264,0.25507489791749444,-0.4266277417486582,-0.5911111111111111,-0.004682349867109664,-0.001486286417405974,0.02396006276602919
1589985639.7906513,-3.721650650084794,-0.23694177501413227,9.053883550028266,0.2677777777777778,-0.4311111111111111,-0.5911111111111111,-0.010151077637906535,0.004183265137623493,0.02869520094034628
1589985639.8006513,-3.671146805384585,-0.23885319461541515,8.98688083230751,0.2677777777777778,-0.4311111111111111,-0.5911111111111111,-0.013322642127446242,0.011140980562453329,0.026555229964426295
1589985639.8106513,-3.664664268181971,-0.25932853636394204,8.947985609091827,0.2677777777777778,-0.4311111111111111,-0.5911111111111111,-0.016871254468518115,0.02232148386959435,0.01629314092849898
1589985639.8206513,-3.715547721137049,-0.2865628076861998,9.01726631729395,0.2677777777777778,-0.4311111111111111,-0.5911111111111111,-0.016098250984792624,0.03434417576269857,0.005564882677953414
1589985639.8306513,-3.78,-0.3078585369993211,9.076424389002037,0.266588076110734,-0.42825582711020593,-0.5942043354454251,-0.012312021163879718,0.03607670100272998,0.0008572334064246801
1589985639.8406513,-3.78,-0.2943042653567433,9.088608530713486,0.26222222222222225,-0.4177777777777778,-0.6055555555555555,-0.0029689208413639498,0.02028459286377328,0.0
1589985639.8506513,-3.774483205898416,-0.2734496176952485,9.024832058984162,0.26222222222222225,-0.4177777777777778,-0.6055555555555555,0.00011274698284404936,0.006357544697740641,0.0006017888826702527
1589985639.8606513,-3.761318840014051,-0.2556594200070255,8.997362319971899,0.26222222222222225,-0.4177777777777778,-0.6055555555555555,0.001090830782496456,-0.0018939353080899399,0.0034582499176088804
1589985639.8706512,-3.75,-0.2469286443131392,9.029214067060582,0.26222222222222225,-0.4177777777777778,-0.6055555555555555,-0.0002493009483928567,-0.004698356062708152,0.006209951762256407
1589985639.8806512,-3.7446210010973244,-0.24806849835401368,9.052689499451338,0.26371638858407664,-0.4213637770462283,-0.6040613891937011,-0.004446007863900049,-0.0031071228796609187,0.00545415391248228
1589985639.8906512,-3.7356650628589168,-0.2714162657147292,9.054334937141084,0.2677777777777778,-0.4311111111111111,-0.6,-0.007944796725039375,0.003272492347489368,0.005299663288700188
1589985639.9006512,-3.768214341145429,-0.2795535852863573,9.02178565885457,0.2677777777777778,-0.4311111111111111,-0.6,-0.009720084460187944,0.003272492347489368,0.004412019421125905
1589985639.9106512,-3.73,-0.27743606534776316,8.940255738608947,0.2677777777777778,-0.4311111111111111,-0.6,-0.004643005014282754,0.0057617325514704755,0.006796769824584401
1589985639.9206512,-3.73,-0.27020800303301856,8.969167987867927,0.2677777777777778,-0.4311111111111111,-0.6,-0.005431464301355354,0.00970402898683348,0.0044313919633666
1589985639.9306512,-3.7504819579317017,-0.26524097896585086,9.051927831726807,0.26486612279674954,-0.4241231391566433,-0.6,-0.007740962387028905,0.021350060440846176,0.005920709121565223
1589985639.9406512,-3.777406072874494,-0.27580202429149797,9.084197975708502,0.26222222222222225,-0.4177777777777778,-0.6,-0.011716185051855559,0.019742933083446483,0.002464615120598369
1589985639.9506512,-3.786397322414584,-0.27639732241458403,9.036767868975009,0.26222222222222225,-0.4177777777777778,-0.6,-0.011518004746124763,0.014702354393236056,0.0014838219434546332
1589985639.9606512,-3.77833346285359,-0.2733330742928194,8.973332297171279,0.26222222222222225,-0.4177777777777778,-0.6,-0.009272019265814899,0.008908522032729354,0.002181661564992912
1589985639.9706511,-3.77,-0.28658491069048253,9.057075446547588,0.26222222222222225,-0.4177777777777778,-0.6,-0.010881553244322151,0.003618266221226581,0.003299246928131776
1589985639.9806511,-3.77,-0.28198330195629046,9.09,0.26034910370794795,-0.4184388784298746,-0.5991185324638709,-0.008293956894990243,0.0018571445412568582,0.00545415391248228
1589985639.9906511,-3.7747963038717907,-0.29520369612820946,9.109185215487162,0.2433333333333333,-0.4244444444444445,-0.5911111111111111,-0.004363323129985824,-0.00213722196360767,0.00545415391248228
1589985640.0006511,-3.7962630736392744,-0.26831590181430093,9.04868463180363,0.2433333333333333,-0.4244444444444445,-0.5911111111111111,-0.0014066129060313162,-0.0056378605266529744,0.008410864136436788
1589985640.010651,-3.804324745219283,-0.26135050956143363,9.002701019122867,0.2433333333333333,-0.4244444444444445,-0.5911111111111111,-0.00014731774016676067,-0.009493038261470016,0.016479976176949032
1589985640.020651,-3.8,-0.2557917762076898,9.043680372987184,0.2433333333333333,-0.4244444444444445,-0.5911111111111111,-0.0005742051865881053,-0.011941559016781261,0.029508419997874628
1589985640.030651,-3.7784410721758475,-0.2615589278241526,9.062813690725283,0.247724966778994,-0.42204900801953865,-0.5943050263443189,0.0019597618423504155,-0.015833635969248052,0.045541146065393744
1589985640.040651,-3.7231406367839464,-0.3,9.03735547758796,0.25555555555555554,-0.4177777777777778,-0.6,0.007752992958652304,-0.02072578486743266,0.05902203973598573
1589985640.050651,-3.6715336675882106,-0.28861346703528423,8.957374068694063,0.25555555555555554,-0.4177777777777778,-0.6,0.010287268791773429,-0.017620589701477004,0.052861769104431015
1589985640.060651,-3.6386959650722064,-0.2913040349277935,8.932608069855586,0.25555555555555554,-0.4177777777777778,-0.6,0.0067347797260550405,-0.00602353900571119,0.028551787892937993
1589985640.070651,-3.67062810355938,-0.2729145976270801,8.99965657101702,0.25555555555555554,-0.4177777777777778,-0.6,0.0019011905745955253,0.01093936100405765,0.007392806777701429
1589985640.080651,-3.71553958068833,-0.24446041931167004,9.06892083862334,0.25852916843000223,-0.4237250035266712,-0.6,-0.004010168395303257,0.023880558970027842,-0.0026682178337940456
1589985640.090651,-3.7426390587441487,-0.2282406275039008,9.074560156875975,0.26222222222222225,-0.4311111111111111,-0.6,-0.010602789643294159,0.02568250283058228,-0.0038658871806531614
1589985640.100651,-3.78239435474031,-0.2141314515801033,9.03281693577907,0.26222222222222225,-0.4311111111111111,-0.6,-0.01804735540592481,0.026630610235911973,0.0032980916219637014
1589985640.110651,-3.830819961725305,-0.21229500956867364,9.010819961725305,0.26222222222222225,-0.4311111111111111,-0.6,-0.026770076145684774,0.026010043451211683,0.0297297555439171
1589985640.120651,-3.8928880866425994,-0.22577617328519856,9.102960288808665,0.26222222222222225,-0.4311111111111111,-0.6,-0.028515183018255733,0.014625796123436235,0.07516099752609154
1589985640.130651,-3.8425678446508265,-0.35693372331443735,9.202145097093233,0.254261481660167,-0.4283014379715622,-0.5962537691472681,-0.016237208944667125,-0.008392167360345353,0.11495084924962917
1589985640.140651,-3.7093748377044924,-0.4382952479875357,9.19721565827058,0.2433333333333333,-0.4244444444444445,-0.5911111111111111,0.013412318242328539,-0.032979077699665155,0.11063866639552328
1589985640.150651,-3.6446648509608113,-0.34067029807837795,9.091166212740202,0.2433333333333333,-0.4244444444444445,-0.5911111111111111,0.03728857885820907,-0.0522136412043613,0.06399936716213736
1589985640.160651,-3.7195050518710278,-0.21612947472132604,9.028172632961768,0.2433333333333333,-0.4244444444444445,-0.5911111111111111,0.03524435208935925,-0.061755145790457176,-0.019358089629235447
1589985640.170651,-3.733130066093029,-0.12437461030053623,8.886876169098391,0.2433333333333333,-0.4244444444444445,-0.5911111111111111,0.03671388991284431,-0.040532137728518706,-0.027202890205825076
1589985640.180651,-3.483821045162176,-0.17402659830155426,8.878887540916061,0.24630390937553248,-0.42795512522158896,-0.5932715300508924,0.0019244535193386897,0.02353529773889829,-0.01209015145343807
1589985640.190651,-3.0595008396167396,-0.30629679628593065,8.967859471206085,0.25555555555555554,-0.4388888888888889,-0.6,-0.03455204977091216,0.11860905410246761,-0.005368923217185316
1589985640.200651,-2.2163523106904233,-0.4518238446547884,8.978938961581292,0.25555555555555554,-0.4388888888888889,-0.6,-0.053502903927165314,0.18012248394909383,-0.027060468806042022
1589985640.210651,-2.02154565701559,-0.6258841870824053,9.12208017817372,0.25555555555555554,-0.4388888888888889,-0.6,-0.06023718207913169,0.226019166346377,-0.06321959604036254
1589985640.220651,-2.404020896472046,-0.7114434974800328,9.00546439395208,0.25555555555555554,-0.4388888888888889,-0.6,-0.01821822383904903,0.1479489865186751,-0.1230950200160553
1589985640.230651,-2.368057403256036,-0.6526048289294771,8.913885193487927,0.2535859680929689,-0.43763551504906106,-0.602327694273966,0.018683789409757293,0.008907242073251075,-0.1570387029735278
1589985640.240651,-2.405220869478263,-0.45265043373915653,8.892128696782581,0.2433333333333333,-0.4311111111111111,-0.6144444444444445,0.0031935727133666006,0.020555046847652907,-0.21644017810160698
1589985640.250651,-2.217208081071111,-0.4448375756786668,9.147361716902111,0.2433333333333333,-0.4311111111111111,-0.6144444444444445,-0.02870158694580182,0.07074549983326553,-0.2722614025534982
1589985640.2606509,-2.006572399728076,-0.4902828008157716,9.23526580557444,0.2433333333333333,-0.4311111111111111,-0.6144444444444445,-0.016670949572605596,0.08142299110680548,-0.3022063999267921
1589985640.2706509,-2.0082110515288183,-0.44345058418267697,8.92594303774992,0.2433333333333333,-0.4311111111111111,-0.6144444444444445,0.029556946964301056,0.0783691549166727,-0.29018547072705164
1589985640.2806509,-1.9411832806562732,-0.40621293369792966,8.732307255229234,0.2433333333333333,-0.4311111111111111,-0.6144444444444445,0.042555339097615115,0.04018637802506263,-0.2593142894104307
1589985640.2906508,-2.0232715710996603,-0.52836421445017,9.07018528670102,0.2877777777777778,-0.4122222222222222,-0.6,-0.018584546589851633,0.012019350251166957,-0.22866879630383824
1589985640.3006508,-2.060194369015292,-0.51,8.959684150350151,0.2877777777777778,-0.4122222222222222,-0.6,0.0054806568756128205,7.950888939162393e-05,-0.19953457341852068
1589985640.3106508,-2.1636299078019308,-0.51,8.833375701114562,0.2877777777777778,-0.4122222222222222,-0.6,0.013048374918002668,0.024992054229523955,-0.1551552843914444
1589985640.3206508,-2.2219828875228442,-0.5189871656421332,8.905905881375643,0.2877777777777778,-0.4122222222222222,-0.6,0.001643246230061999,0.007529999092173628,-0.13461411860511655
1589985640.3306508,-2.2433980192450633,-0.5366990096225316,9.050097028867595,0.2877777777777778,-0.41313916399374123,-0.600916941771519,-0.007116860605117752,0.0027217848524629827,-0.12202475916644867
1589985640.3406508,-2.2102735978112173,-0.52,9.00013679890561,0.2877777777777778,-0.4177777777777778,-0.6055555555555555,0.006574829586428707,0.005498921249657237,-0.10461529799958487
1589985640.3506508,-2.240035648574057,-0.5266904323827047,8.999964351425943,0.2877777777777778,-0.4177777777777778,-0.6055555555555555,0.005807394423465492,0.007631926821281839,-0.09489450076480496
1589985640.3606508,-2.256617872650217,-0.5366178726502171,9.013821273497829,0.2877777777777778,-0.4177777777777778,-0.6055555555555555,0.0,0.00545415391248228,-0.09090788780955247
1589985640.3706508,-2.240364238410596,-0.5235761589403973,9.060728476821192,0.2877777777777778,-0.4177777777777778,-0.6055555555555555,0.001401464713935844,0.007556350983386046,-0.09057868719425041
1589985640.3806508,-2.1916014947284133,-0.5241992526357934,9.012900373682102,0.28172994795142137,-0.4193554725150882,-0.6042408099411302,0.0030725746413552083,0.010708390118830399,-0.0891317424753913
1589985640.3906507,-2.1082904979343335,-0.57,8.9526927592955,0.26222222222222225,-0.4244444444444445,-0.6,-0.001995183817395888,0.005640631660079304,-0.0943428448344006
1589985640.4006507,-2.126711208437612,-0.57,8.879866374687165,0.26222222222222225,-0.4244444444444445,-0.6,-0.0010762545220403229,0.0069256005930097096,-0.10037100825013008
1589985640.4106507,-2.1607291691934507,-0.57,8.869613098847786,0.26222222222222225,-0.4244444444444445,-0.6,0.003595521145372127,0.011999138607461015,-0.10988821588578392
1589985640.4206507,-2.207385464916362,-0.5752290701672768,8.950458140334554,0.26222222222222225,-0.4244444444444445,-0.6,0.004363323129985824,0.011428735537231068,-0.12787707834190254
1589985640.4306507,-2.201709482432943,-0.5951284472988289,8.99709482432943,0.26450153213281286,-0.4244444444444445,-0.6037988498509843,0.004549798735984934,0.010376903860465437,-0.14883802904550902
1589985640.4406507,-2.207676990162666,-0.62,9.068384950813329,0.27555555555555555,-0.4244444444444445,-0.6222222222222222,0.006214357104064164,0.014103573645399983,-0.18046009767798016
1589985640.4506507,-2.201434822079681,-0.62,9.037174110398404,0.27555555555555555,-0.4244444444444445,-0.6222222222222222,0.008257101832395189,0.016827233283174682,-0.20224937478017774
1589985640.4606507,-2.2144843139894976,-0.6333632354921234,8.94,0.27555555555555555,-0.4244444444444445,-0.6222222222222222,0.012488301381273381,0.02241828365861321,-0.24948230440423594
1589985640.4706507,-2.242721152551501,-0.654540864413626,8.94,0.27555555555555555,-0.4244444444444445,-0.6222222222222222,0.01556846265165502,0.019338122388231568,-0.2818239977432432
1589985640.4806507,-2.2485134389315085,-0.66,9.088107511452067,0.28051075911719436,-0.42345340373211676,-0.6197446204414028,0.008888804917328798,0.01821980598772545,-0.35018660241867683
1589985640.4906507,-2.2452284993754272,-0.6547715006245728,9.014771500624573,0.3088888888888889,-0.4177777777777778,-0.6055555555555555,0.010672988252215024,0.022065869802426308,-0.41630443975814185
1589985640.5006506,-2.26,-0.6354606347236191,8.975033490979905,0.3088888888888889,-0.4177777777777778,-0.6055555555555555,0.012842385421133884,0.03669357357443444,-0.4767716270630633
1589985640.5106506,-2.2645926822211115,-0.6138764237051845,8.89765447036852,0.3088888888888889,-0.4177777777777778,-0.6055555555555555,0.012333127883528531,0.03246906588256601,-0.540241570259043
1589985640.5206506,-2.287932585223054,-0.5903370738847288,8.946202244330838,0.3088888888888889,-0.4177777777777778,-0.6055555555555555,0.014406320140341973,0.03889240634798388,-0.6183760296259831
1589985640.5306506,-2.2960701551508143,-0.6329218463910572,8.978765539173171,0.3127846840769651,-0.41875172657479687,-0.6068541539515809,0.01606844095122321,0.04565553086559659,-0.692630558221881
1589985640.5406506,-2.3827654664060476,-0.6572345335939525,9.015530932812094,0.33555555555555555,-0.4244444444444445,-0.6144444444444445,0.02348786304688345,0.049853635844191876,-0.7944519073272389
1589985640.5506506,-2.37,-0.6798803790585677,8.960358862824297,0.33555555555555555,-0.4244444444444445,-0.6144444444444445,0.029080121786229117,0.059264122975469256,-0.8795888680000861
1589985640.5606506,-2.377630659753108,-0.7152613195062156,8.920348426008289,0.33555555555555555,-0.4244444444444445,-0.6144444444444445,0.030265803291585874,0.06138298612887955,-0.9586464107022542
1589985640.5706506,-2.404231639522865,-0.7631737296421488,8.978942090119284,0.33555555555555555,-0.4244444444444445,-0.6144444444444445,0.030375631657798274,0.06637304748018132,-1.027375555757834
1589985640.5806506,-2.427665446825153,-0.7807490851188648,8.973083638293712,0.33555555555555555,-0.4244444444444445,-0.6144444444444445,0.03548809532908345,0.0714855111514665,-1.074665844717222
1589985640.5906506,-2.44,-0.8527132822981611,9.079748244021781,0.323361306219802,-0.4035400170117241,-0.6370909074965582,0.03561371818229255,0.0758867326798146,-1.1594158102083738
1589985640.6006505,-2.4088502407262085,-0.8631856455067975,8.96451483594562,0.32,-0.3977777777777778,-0.6433333333333333,0.036692415858570304,0.08022898570199745,-1.2617333273470752
1589985640.6106505,-2.35248671109792,-0.8831083888723996,8.837460133293758,0.32,-0.3977777777777778,-0.6433333333333333,0.04008948085109024,0.09449539092527372,-1.3281960140418558
1589985640.6206505,-2.3884938483787805,-0.9269876967575612,8.939456938651464,0.32,-0.3977777777777778,-0.6433333333333333,0.036818894098149584,0.09065743255435926,-1.415071321623364
1589985640.6306505,-2.380572767298138,-0.9131502201397584,8.884295754736035,0.3217819427053179,-0.3974277533178046,-0.6437469986042107,0.04138909051486372,0.1031603301871512,-1.4802312433727536
1589985640.6406505,-2.397514642323383,-1.006330532778608,9.011359817425374,0.37448999833941465,-0.38707438524682125,-0.6559827972335546,0.03954101863578916,0.08929979109409202,-1.5439897232008257
1589985640.6506505,-2.3945892551154118,-1.0830595034102746,8.905523972717804,0.38222222222222224,-0.3855555555555555,-0.6577777777777778,0.04345401003431351,0.09815006794349962,-1.6448214531689296
1589985640.6606505,-2.4157277492188287,-1.0971518328125527,8.792785337499579,0.38222222222222224,-0.3855555555555555,-0.6577777777777778,0.05267741805976435,0.11813411866530976,-1.6993932839861803
1589985640.6706505,-2.475052729680679,-1.2049472703193211,8.98082454505322,0.38222222222222224,-0.3855555555555555,-0.6577777777777778,0.0509992150396511,0.10524791476325729,-1.8010724867361676
1589985640.6806505,-2.4339059204394955,-1.2460940795605042,8.987682346593418,0.38222222222222224,-0.3855555555555555,-0.6577777777777778,0.048755004733561494,0.11871317659979494,-1.8564296742863782
1589985640.6906505,-2.3817392741455676,-1.30695709658227,8.928260725854432,0.4122222222222222,-0.3466666666666667,-0.68,0.06236707998001651,0.13274942619294527,-1.9619465254118964
1589985640.7006505,-2.4094665168242217,-1.4178660672968864,8.90053348317578,0.4122222222222222,-0.3466666666666667,-0.68,0.06539165296277905,0.1448477181239954,-2.0415936139579762
1589985640.7106504,-2.4706962038837026,-1.4223259490290743,8.889525325244065,0.4122222222222222,-0.3466666666666667,-0.68,0.051802379628992146,0.14066711637109147,-2.151857027456255
1589985640.7206504,-2.44,-1.4430286110029,8.722571527507249,0.4122222222222222,-0.3466666666666667,-0.68,0.0643590161672909,0.1568876525054157,-2.2251414860061938
1589985640.7306504,-2.4421315917178905,-1.533197387576836,8.948171101585247,0.4141169704159028,-0.34571929256982636,-0.6812631654624538,0.06362270097778751,0.16885198541454635,-2.2922890457698624
1589985640.7406504,-2.493016823034617,-1.609525234551925,9.14323115496603,0.4593482871418815,-0.3231036342068371,-0.7114173766131061,0.046045428357787355,0.13739791862086181,-2.3551971793572313
1589985640.7506504,-2.4919083727163716,-1.6680916272836284,8.913517316780702,0.4655555555555556,-0.32,-0.7155555555555555,0.07317341671289682,0.17323392324658707,-2.426413769101209
1589985640.7606504,-2.395756330676448,-1.7642436693235521,8.891328384002257,0.4655555555555556,-0.32,-0.7155555555555555,0.07720747853047537,0.18372248397229127,-2.465140762549962
1589985640.7706504,-2.4541332089710437,-1.8941332089710432,8.905533768601348,0.4655555555555556,-0.32,-0.7155555555555555,0.0672532995802292,0.17230746761328328,-2.526203845996419
1589985640.7806504,-2.4574513942895235,-1.921293745139429,8.853764581713143,0.4663921292695874,-0.31442284190645486,-0.7144401239368465,0.07390272510203104,0.1918450920170968,-2.5647012619451086
1589985640.7906504,-2.3652125443516083,-2.0215435504177637,8.882393727824196,0.4722222222222222,-0.27555555555555555,-0.7066666666666667,0.07147260124565584,0.1845651474571802,-2.6134743402025795
1589985640.8006504,-2.35,-2.0983263668282897,8.875428858050494,0.4722222222222222,-0.27555555555555555,-0.7066666666666667,0.06845077149337483,0.18735132678548852,-2.6518940754276663
1589985640.8106503,-2.342482630352524,-2.133758684823738,8.823758684823739,0.4722222222222222,-0.27555555555555555,-0.7066666666666667,0.06429320766165342,0.18503880305211323,-2.686592179215955
1589985640.8206503,-2.306859025242102,-2.1575383394189553,8.843140974757898,0.4722222222222222,-0.27555555555555555,-0.7066666666666667,0.06885939017539511,0.19792004970527285,-2.711542376014854
1589985640.8306503,-2.27356564534053,-2.2374424511827273,8.87643435465947,0.4722222222222222,-0.27555555555555555,-0.7066666666666667,0.07031208792139444,0.20300449181627053,-2.7318801444588443
1589985640.8406503,-2.2411262150668287,-2.3643689246658566,8.899436892466586,0.5089212484811664,-0.21788565714864316,-0.7695792831105711,0.0626687586273412,0.20095856599186948,-2.7617844364977846
1589985640.8506503,-2.2478706765747187,-2.401482706298876,8.860646617126406,0.5111111111111111,-0.21444444444444444,-0.7733333333333333,0.06732870037436428,0.21101555552348045,-2.781104082265755
1589985640.8606503,-2.205357318248786,-2.5083568271521854,8.737428290801944,0.5111111111111111,-0.21444444444444444,-0.7733333333333333,0.06494340893303147,0.21162117180431245,-2.7965083087618754
1589985640.8706503,-2.1672127539606034,-2.577017042870914,8.798459593663036,0.5111111111111111,-0.21444444444444444,-0.7733333333333333,0.06078248244198499,0.21162117180431245,-2.80233360584934
1589985640.8806503,-2.1217296781079718,-2.6557655936932383,8.739801509278506,0.5126486027626412,-0.21412413368370897,-0.7741020791590985,0.0605833808534054,0.2252988290103702,-2.802407173104195
1589985640.8906503,-2.1452918375372168,-2.7343061251240566,8.873320412710896,0.5335927444775262,-0.20976077082644132,-0.7845741500165408,0.05372942650473602,0.21844487466170087,-2.803263917397779
1589985640.9006503,-2.096709691533581,-2.858225771166047,8.733419383067163,0.5377777777777778,-0.2088888888888889,-0.7866666666666666,0.046712185304620714,0.21323629819589765,-2.791298753484796
1589985640.9106503,-2.056331920690177,-2.8848524292417133,8.67065158165582,0.5377777777777778,-0.2088888888888889,-0.7866666666666666,0.04982324608680498,0.2207157485015163,-2.7727434221537486
1589985640.9206502,-1.8487028875066935,-2.7736651975120488,8.48850187420192,0.5377777777777778,-0.2088888888888889,-0.7866666666666666,0.03164505626742416,0.20999451875871633,-2.75762844083231
1589985640.9306502,-1.9782792354903818,-3.006902623882687,9.170937306916011,0.5377777777777778,-0.2088888888888889,-0.7866666666666666,0.001491270867087155,0.18360995653342146,-2.7350131017820583
1589985640.9406502,-1.9256893386277272,-3.039908629008155,8.768073096793476,0.5688888888888889,-0.18666666666666668,-0.8011111111111111,0.06239751416460791,0.20029247891283436,-2.669823733165226
1589985640.9506502,-1.795121841517678,-3.008048608099208,8.796341541773089,0.5688888888888889,-0.18666666666666668,-0.8011111111111111,0.061592066667629036,0.2047037630100746,-2.626108654621183
1589985640.9606502,-1.8422843879009847,-3.0821611809872618,8.762654008642153,0.5688888888888889,-0.18666666666666668,-0.8011111111111111,0.04615815945488064,0.18118542820969608,-2.600385475933269
1589985640.9706502,-1.820057892935276,-3.18,8.73075260815859,0.5688888888888889,-0.18666666666666668,-0.8011111111111111,0.04471143180317706,0.16905982586818424,-2.532568059418975
1589985640.9806502,-1.826300061018261,-3.18,8.81190079323739,0.5688888888888889,-0.18666666666666668,-0.8011111111111111,0.043349601984289714,0.16701708113985322,-2.495798654309016
1589985640.9906502,-1.84539751216874,-3.256987560843699,8.79071119524067,0.5055880055285139,-0.20291959617811428,-0.7189910462111652,0.0442220085421143,0.16580627893946132,-2.4278149940212677
1589985641.0006502,-1.8046891080177945,-3.2875518153303673,8.958795383259188,0.4866666666666667,-0.20777777777777776,-0.6944444444444444,0.043076511557135974,0.15921607683858643,-2.3629344553828764
1589985641.0106502,-1.6449602866123634,-3.2448808598370906,8.664054145401696,0.4866666666666667,-0.20777777777777776,-0.6944444444444444,0.05500110601919594,0.1422589045017702,-2.2627055692668416
1589985641.0206501,-1.6874887619562646,-3.3724662858687937,8.784551492209417,0.4866666666666667,-0.20777777777777776,-0.6944444444444444,0.049588779514789585,0.14612485200491762,-2.2093554937234074
1589985641.0306501,-1.646477837707536,-3.427840720764155,8.766477837707535,0.4866666666666667,-0.20777777777777776,-0.6944444444444444,0.044104312951551344,0.1365584915717166,-2.123600356991104
1589985641.0406501,-1.5938100303036384,-3.3915083585863655,8.821586626261816,0.48495592704828294,-0.08973674410929824,-0.626014859709094,0.0486717753785952,0.13946180376184134,-2.048780056890591
1589985641.0506501,-1.507801936236926,-3.39,8.925930011672351,0.4844444444444445,-0.054444444444444434,-0.6055555555555555,0.04340531849429647,0.12253270498180077,-1.9337900488271493
1589985641.06065,-1.484540738753242,-3.3831759234415526,8.64727036937662,0.4844444444444445,-0.054444444444444434,-0.6055555555555555,0.03399038864614505,0.12492446609304778,-1.846275538461329
1589985641.07065,-1.4100566767750704,-3.290453414200565,8.611360242601693,0.4844444444444445,-0.054444444444444434,-0.6055555555555555,0.05115157971262415,0.11766752753654813,-1.7645190677287883
1589985641.08065,-1.418828610268744,-3.3606288821499533,8.821886646449858,0.4844444444444445,-0.054444444444444434,-0.6055555555555555,0.03297105906649368,0.09565952885965334,-1.6956244631750308
1589985641.09065,-1.386170366739034,-3.346170366739034,8.742254826435092,0.4988888888888889,0.06,-0.6055555555555555,0.05135259641426811,0.10077886567669296,-1.5855947729423125
1589985641.10065,-1.3377982243744957,-3.301100887812752,8.886146892655368,0.4988888888888889,0.06,-0.6055555555555555,0.051519259939872164,0.09187999889224104,-1.4968401127310462
1589985641.11065,-1.2998048967873679,-3.322536341764218,8.819414690362104,0.4988888888888889,0.06,-0.6055555555555555,0.037237223817951685,0.07759796277032056,-1.423970671084022
1589985641.12065,-1.2913248822304442,-3.4327765310042255,8.793974646691332,0.4988888888888889,0.06,-0.6055555555555555,0.04371240645824893,0.0840731454106178,-1.3481185315833975
1589985641.13065,-1.295869183057481,-3.485215098344887,8.848691830574811,0.4988888888888889,0.06,-0.6055555555555555,0.03768154798042685,0.07356068704975072,-1.2914517097277085
1589985641.14065,-1.239949473189456,-3.443277192432729,8.843294034702911,0.5263193764443226,0.1000336845403627,-0.5929523585706266,0.03781975394212136,0.06326634817811835,-1.2024107527961228
1589985641.15065,-1.2295486230376012,-3.5590972460752024,8.837066049744408,0.54,0.12,-0.5866666666666667,0.04889043485830281,0.06617139581846311,-1.083628694191889
1589985641.16065,-1.2125995595336714,-3.525199119067343,8.726897136968866,0.54,0.12,-0.5866666666666667,0.04149501077647324,0.052304975665032664,-1.0179943054656517
1589985641.17065,-1.175353393435585,-3.4922827147484683,8.68921203606135,0.54,0.12,-0.5866666666666667,0.044140097447319615,0.05244583109180741,-0.9557724957964051
1589985641.18065,-1.1448382991032686,-3.4572574486549033,8.778551055828753,0.54,0.12,-0.5866666666666667,0.046641835367509085,0.05427765084498427,-0.8722935163404408
1589985641.19065,-1.0049778850020104,-3.2879734620024124,8.66822677925211,0.5445007371665996,0.16500737166599652,-0.595668140999866,0.03512282129874094,0.04570436236336779,-0.8073709253113777
1589985641.20065,-1.0397309198734261,-3.4295963798101394,9.008116439113982,0.5466666666666666,0.18666666666666668,-0.6,0.051714131612775265,0.058200412130749044,-0.7106199523733884
1589985641.21065,-1.0211683742338076,-3.4017525613507114,8.878178619636653,0.5466666666666666,0.18666666666666668,-0.6,0.007167220005354559,0.00960378128629008,-0.6691103301937463
1589985641.22065,-1.0297503451225916,-3.4399375862806476,8.987940347261379,0.5466666666666666,0.18666666666666668,-0.6,0.02935711519855714,0.04022457333973005,-0.5931191896108986
1589985641.23065,-0.9971295522155899,-3.4317823880538976,8.718818805778616,0.5466666666666666,0.18666666666666668,-0.6,0.016902797430217338,0.022432690813530342,-0.5548666421795692
1589985641.24065,-1.0397074700414382,-3.477952290290066,8.811170119834248,0.5688888888888889,0.2088888888888889,-0.6144444444444445,0.03115544166699448,0.030995891325193564,-0.4840156552030748
1589985641.25065,-1.0303126889909284,-3.4121888229364994,8.848749244036286,0.5688888888888889,0.2088888888888889,-0.6144444444444445,0.015783267119929122,0.010499658595773089,-0.4389239431983498
1589985641.26065,-0.9699899059232042,-3.349994952961602,8.750015141115194,0.5688888888888889,0.2088888888888889,-0.6144444444444445,0.018543572755955265,0.019631100259544825,-0.36867162552012445
1589985641.27065,-0.9530548714014616,-3.3415274357007307,8.775417692897808,0.5688888888888889,0.2088888888888889,-0.6144444444444445,0.017619909908007415,0.013165460323909865,-0.3197174945788884
1589985641.28065,-0.9976267664172901,-3.4749425048489884,8.82762676641729,0.5688888888888889,0.2088888888888889,-0.6144444444444445,0.015721534423985013,0.011999138607461015,-0.25893403013274147
1589985641.29065,-0.9874420882399836,-3.645347470560098,8.862557911760016,0.5697243671022227,0.23896610456891076,-0.6253056612177857,0.015271630954950384,0.004617079246461607,-0.13962740855404437
1589985641.30065,-0.9503551425661914,-3.6504735234215886,8.810710285132384,0.57,0.2488888888888889,-0.6288888888888889,0.015271630954950384,0.002181661564992912,-0.10471975511965977
1589985641.3106499,-1.0194441925831899,-3.65055580741681,8.712223229667241,0.57,0.2488888888888889,-0.6288888888888889,0.002060403197113625,-0.012211340751249767,0.043240130661084814
1589985641.3206499,-1.0067676126575391,-3.6632323873424606,8.762929549369844,0.57,0.2488888888888889,-0.6288888888888889,-0.0007051975228216274,-0.01705114201113646,0.08403274128012977
1589985641.3306499,-1.0203882786429366,-3.622427349833148,8.769611721357062,0.57,0.2488888888888889,-0.6288888888888889,-0.002181661564992912,-0.01889361535340853,0.15251492598839989
1589985641.3406498,-1.0659963622851107,-3.6616287575052318,8.86854413174004,0.7111111111111111,0.2977777777777777,-0.6644444444444444,-0.002261066860654092,-0.021241919289230332,0.2295717394549829
1589985641.3506498,-0.975762844458352,-3.4729586747765544,8.8357319434394,0.7111111111111111,0.2977777777777777,-0.6644444444444444,-0.004050694112624476,-0.03287449642703783,0.26536428449439053
1589985641.3606498,-0.983675940016757,-3.392648119966486,8.67610638989108,0.7111111111111111,0.2977777777777777,-0.6644444444444444,-0.012756917486801737,-0.03361526283114568,0.3013172756426584
1589985641.3706498,-1.0068116215095904,-3.394058107547952,8.685797565663037,0.7111111111111111,0.2977777777777777,-0.6644444444444444,-0.015571992733889282,-0.033467956117031294,0.35820368030119776
1589985641.3806498,-1.0302194130198479,-3.463918434719594,8.82087765207939,0.7111111111111111,0.2977777777777777,-0.6644444444444444,-0.014915998776655915,-0.036756548674198086,0.4105353221804762
1589985641.3906498,-1.022059715012368,-3.552790997456712,8.75235829007421,1.2493196607400698,0.5808356075826375,-1.2176032315630962,-0.01820710322164058,-0.03132964209843216,0.4735947322500905
1589985641.4006498,-1.0815866675693364,-3.6655771444045766,8.775192381468191,1.3111111111111111,0.6133333333333333,-1.2811111111111109,-0.02334273992929748,-0.043019665139730864,0.5182233698561776
1589985641.4106498,-1.1559239731488387,-3.661164579100332,8.751746868650498,1.3111111111111111,0.6133333333333333,-1.2811111111111109,-0.016807087293399716,-0.04369674923642293,0.5759917307408187
1589985641.4206498,-1.1467453901656868,-3.547335816408338,8.716863475414216,1.3111111111111111,0.6133333333333333,-1.2811111111111109,-0.014916608095721928,-0.04363323129985824,0.6161004133696033
1589985641.4306498,-1.133623196903952,-3.5728984402486224,8.8466664712091,1.3111111111111111,0.6133333333333333,-1.2811111111111109,-0.008615989683583767,-0.04919804178872839,0.6745127901461372
1589985641.4406497,-1.1362169034210303,-3.557830965789695,8.811878835000421,1.02651508783727,0.012366002633717232,-1.0814794345913534,-0.00545415391248228,-0.05168171859748313,0.7445119973795087
1589985641.4506497,-1.184660846205507,-3.5289321692411013,8.882914707857623,0.8533333333333334,-0.3533333333333333,-0.96,-0.023966775721538987,-0.06978166858639012,0.8347829813147544
1589985641.4606497,-1.2081983701979044,-3.53,8.718016298020954,0.8533333333333334,-0.3533333333333333,-0.96,-0.019231968938815805,-0.067031996043981,0.9056456597773133
1589985641.4706497,-1.3066033122664575,-3.6002569543756056,8.875642385939013,0.8533333333333334,-0.3533333333333333,-0.96,-0.022376045728307727,-0.07612048379695376,0.9732452929809248
1589985641.4806497,-1.2373596852523514,-3.3846173234155037,8.779795905821603,0.8533333333333334,-0.3533333333333333,-0.96,-0.0220879318942262,-0.076629471019049,1.031738091076972
1589985641.4906497,-1.2960669939358938,-3.329125998652421,8.845192992588315,0.6195711275815232,0.09081485759510594,-0.7177373504026695,-0.03642087530316158,-0.0867897688127751,1.0847990311121753
1589985641.5006497,-1.3318575942535278,-3.4016795870704373,8.921679587070438,0.6088888888888889,0.1111111111111111,-0.7066666666666667,-0.029269216599572687,-0.08118499481781118,1.1099245493823904
1589985641.5106497,-1.366223212802481,-3.446223212802481,8.870071432526718,0.6088888888888889,0.1111111111111111,-0.7066666666666667,-0.03108478126119822,-0.08725867051981492,1.133082943138415
1589985641.5206497,-1.3052001386241554,-3.2556004158724656,8.673700398544447,0.6088888888888889,0.1111111111111111,-0.7066666666666667,-0.022798382256112897,-0.08217229607681391,1.1514591233641225
1589985641.5306497,-1.42042692769339,-3.4502601299615083,8.829072679110965,0.6088888888888889,0.1111111111111111,-0.7066666666666667,-0.033455537652193834,-0.08596314081610998,1.1656731244864913
1589985641.5406497,-1.4649241763497736,-3.469545058098641,8.852158793573981,0.5854376076552033,0.14628803296163956,-0.7125294869750881,-0.031047321915294843,-0.08671277613129742,1.1795062744987326
1589985641.5506496,-1.501036401208075,-3.516210459386425,8.847587029089174,0.5777777777777777,0.15777777777777774,-0.7144444444444444,-0.033477459732409905,-0.08873356151097105,1.1894948748839735
1589985641.5606496,-1.534998245377244,-3.555005263868268,8.77003158320961,0.5777777777777777,0.15777777777777774,-0.7144444444444444,-0.0327264546721049,-0.08781283498922171,1.2037285146907652
1589985641.5706496,-1.5597532322358847,-3.5498766161179423,8.734321388648683,0.5777777777777777,0.15777777777777774,-0.7144444444444444,-0.031593715411413495,-0.08885560194564682,1.2178520027358175
1589985641.5806496,-1.5699762589727118,-3.56,8.810047482054577,0.5777777777777777,0.15777777777777774,-0.7144444444444444,-0.031626323459385,-0.0899870651951141,1.2321153816566148
1589985641.5906496,-1.5653652342444697,-3.5707304684889394,8.819269531511061,0.5920850690963636,0.13989366362954547,-0.7180212672740909,-0.02894685661182502,-0.08726646259971647,1.2501442744847244
1589985641.6006496,-1.5321128477201034,-3.405719099512475,8.93881631775165,0.6044444444444445,0.12444444444444445,-0.7211111111111111,-0.029452431127404314,-0.09305244867524237,1.2668201560513832
1589985641.6106496,-1.4346947582795906,-3.307347379139795,8.69849270232265,0.6044444444444445,0.12444444444444445,-0.7211111111111111,-0.017355465262404276,-0.05302816546757617,1.2492552424389516
1589985641.6206496,0.41467821459317045,-1.2313067070148436,1.2925659353559595,0.6044444444444445,0.12444444444444445,-0.7211111111111111,0.2757371392743111,0.44634730801411054,-0.462543781805028
1589985641.6306496,-0.7827661215964472,-3.5720442955798504,8.88265340684568,0.6044444444444445,0.12444444444444445,-0.7211111111111111,0.08079929322371565,-0.016137472628684757,-1.763555504542432
1589985641.6406496,-0.65,-3.06,9.0,0.4922222222222222,0.03888888888888889,-0.6433333333333333,-0.08835729338221293,-0.05126904677733343,-2.214386488467805
1589985641.6506495,-0.65,-3.06,9.0,0.4922222222222222,0.03888888888888889,-0.6433333333333333,-0.08835729338221293,-0.05126904677733343,-2.214386488467805
1589985641.6606495,3.766383453059203,-3.8527693832053505,-0.9601808273470398,0.4922222222222222,0.03888888888888889,-0.6433333333333333,-1.4599525714635697,-1.3225324818215076,-11.541148831483024
1589985641.6706495,0.6373289771969596,-4.21970929457261,-0.15456394185891453,0.4922222222222222,0.03888888888888889,-0.6433333333333333,-1.4898495259294857,-1.859048906557708,-12.676934365569885
1589985641.6806495,-0.04570844500976695,-5.210229864171172,3.2297764957070827,0.4922222222222222,0.03888888888888889,-0.6433333333333333,-1.490562905601048,-1.2750310858676814,-12.417668669125757
1589985641.6906495,-0.37407490097227225,-5.551060136838315,4.9927670147641345,0.49429208178289924,0.1016746288960909,-0.6388486376185332,-1.086767722618231,-0.2949415530663254,-12.013269835129059
1589985641.7006495,-0.22359265716747828,-4.060751518066494,2.4219184753201466,0.4988888888888889,0.2411111111111111,-0.6288888888888889,-0.09601822688949008,1.1694878818909331,-11.368651313034968
1589985641.7106495,-0.26314076885234383,-4.156570384426172,3.1545667299177733,0.4988888888888889,0.2411111111111111,-0.6288888888888889,0.5381271635680568,2.0425556099167577,-10.832600381531561
1589985641.7206495,-0.2945074354631577,-3.6898985650207523,3.6587342031305257,0.4988888888888889,0.2411111111111111,-0.6288888888888889,1.2473997880470102,2.958336269616343,-10.152345871030324
1589985641.7306495,1.3926746835443038,-1.2465822784810126,14.881855063291141,0.4988888888888889,0.2411111111111111,-0.6288888888888889,1.6170385077428406,3.9629973460794528,-9.363699652700406
1589985641.7406495,0.722604642155642,-0.5744720170415248,4.561772207928733,0.31793214743501075,0.41876270660236137,-0.6181471645103482,0.6767845283561604,3.2141692194032094,-8.146835885040646
1589985641.7506495,-0.8423970527642454,-1.095039627717589,0.8087879008216388,0.25555555555555554,0.48,-0.6144444444444445,0.2638591673527676,1.6521417824329219,-7.412371459742777
1589985641.7606494,-1.2776052814200665,-0.8458400598999234,4.069162131560685,0.25555555555555554,0.48,-0.6144444444444445,0.31346266996100397,0.4496001166117647,-6.924213018536864
1589985641.7706494,3.320744219380635,-1.0497495379276527,16.799986420731017,0.25555555555555554,0.48,-0.6144444444444445,0.1870231454480654,-1.2422367455068106,-6.201537213559794
1589985641.7806494,2.2875058009202816,-1.6127848350178944,10.489069886341289,0.25555555555555554,0.48,-0.6144444444444445,0.08110788262640942,-1.2679043605688587,-5.718776367086092
1589985641.7906494,7.454688689592877,-9.754718691528486,2.1129501903348604,0.12554795649898562,0.5450037995282849,-0.637729387559054,-0.11363551437482904,0.03953453967785259,-4.962104420808527
1589985641.8006494,3.7463708729767635,-1.8036037299571657,13.054719305560821,0.10666666666666667,0.5544444444444444,-0.6411111111111111,-0.002578075450432954,0.90476832049377,-4.0027707045055125
1589985641.8106494,-0.7177820941367785,1.0257514981780949,6.3311575872556975,0.10666666666666667,0.5544444444444444,-0.6411111111111111,0.36103769113599077,1.5694544607234597,-3.4954693019558527
1589985641.8206494,0.003006129293396498,0.944791488377472,8.079874176014803,0.10666666666666667,0.5544444444444444,-0.6411111111111111,0.08350493190234554,0.2346759377912424,-3.2204309945003367
1589985641.8306494,6.140115220183661,-4.279277046068902,8.740787945016391,0.10666666666666667,0.5544444444444444,-0.6411111111111111,-0.1100504609749906,-0.482635623511201,-3.0026367348797067
1589985641.8406494,5.548436365033917,-3.4435154403428196,8.583690693518323,0.03992971083653071,0.5612224165209426,-0.6426752585133799,0.0006594580298879549,-0.36753333738352845,-2.8979424688997244
1589985641.8506494,1.9430064973419965,0.12086084312309947,7.56745203561506,-0.03555555555555556,0.5688888888888889,-0.6444444444444445,0.21856646903623805,0.14332997686501003,-2.84439167729598
1589985641.8606493,3.7206768388106415,-1.0444894366197184,7.784260563380283,-0.03555555555555556,0.5688888888888889,-0.6444444444444445,0.10013344330271995,0.4366415097520717,-2.729387289747026
1589985641.8706493,3.349016034371402,-1.1115161045744293,10.86332256886917,-0.03555555555555556,0.5688888888888889,-0.6444444444444445,-0.17210143027221936,0.45975878548415494,-2.6379349667775136
1589985641.8806493,3.1899577188821286,-0.8976570073218522,9.400169124471486,-0.03555555555555556,0.5688888888888889,-0.6444444444444445,0.0704883445003717,0.2796819481613126,-2.639381450782349
1589985641.8906493,3.6662343115647835,-1.1080269110312029,7.724487646444728,-0.08378301047828945,0.5606213251878488,-0.6582237172795112,0.19667789091090693,0.08350211577853262,-2.655672420822624
1589985641.9006493,3.589288437102922,-1.0666345979306588,7.762911599201307,-0.11333333333333333,0.5555555555555556,-0.6666666666666666,0.07043115571639896,0.10832747645875677,-2.692247990672435
1589985641.9106493,3.7517069563733574,-1.1275871679654172,9.201197884079404,-0.11333333333333333,0.5555555555555556,-0.6666666666666666,0.010968740632094503,0.23573938394344618,-2.7479285083570857
1589985641.9206493,3.0318098358628793,-0.8755846805353775,9.377409044542672,-0.11333333333333333,0.5555555555555556,-0.6666666666666666,0.047059210764343176,0.32895084444998723,-2.833510493480399
1589985641.9306493,3.2676416099839156,-1.0628135961087533,8.74255818460167,-0.11333333333333333,0.5555555555555556,-0.6666666666666666,0.09036280447319187,0.22483763638645754,-2.8846099972390173
1589985641.9406493,3.9088051710629403,-1.3994025855314702,8.428399059806738,-0.15440062679550795,0.534166340210673,-0.6666666666666666,0.08288098953676144,0.14414214884093757,-2.9206779111961367
1589985641.9506493,3.4651677875377436,-1.2224876475432336,8.960819379632172,-0.16666666666666666,0.5277777777777778,-0.6666666666666666,0.06460237952674025,0.18664944115159302,-2.949557441309125
1589985641.9606493,3.2207133073077188,-1.0763533319635643,9.005980069858229,-0.16666666666666666,0.5277777777777778,-0.6666666666666666,0.06919793882890965,0.22578960758429306,-2.9919066661267366
1589985641.9706492,3.419222087128077,-1.1158950242022436,9.085623179096602,-0.16666666666666666,0.5277777777777778,-0.6666666666666666,0.07714126272151717,0.20353962491673364,-3.036395461373043
1589985641.9806492,3.05285408266129,-0.9681224798387096,8.984540070564515,-0.16666666666666666,0.5277777777777778,-0.6666666666666666,0.07133656695003632,0.20394357047024972,-3.0769849840851107
1589985641.9906492,3.326581523785616,-0.9753163047571232,9.065617547382955,-0.20400101808850396,0.5194193408922918,-0.6688955831694628,0.07364915107861993,0.2061538737026599,-3.11219279921907
1589985642.0006492,3.346577712697606,-0.9446714281445179,8.95603771329528,-0.2411111111111111,0.5111111111111111,-0.6711111111111111,0.08671643457494098,0.19648935417231958,-3.160889076231756
1589985642.0106492,3.1517948374120013,-0.8181130852609231,8.898021007933847,-0.2411111111111111,0.5111111111111111,-0.6711111111111111,0.08883063276030996,0.19782119334720943,-3.2230657308469577
1589985642.0206492,3.243795252803517,-0.7570362022428139,8.867867657289144,-0.2411111111111111,0.5111111111111111,-0.6711111111111111,0.08545345005532684,0.22852441995189252,-3.2806236005390357
1589985642.0306492,8.254461994076998,-1.0867423494570583,9.092931885488646,-0.2411111111111111,0.5111111111111111,-0.6711111111111111,0.0659688799578459,0.04417810827512303,-3.1098358020531665
1589985642.0406492,1.4483107204280525,-0.016571119179565663,9.133981145295879,-0.3119857598856261,0.476954653870381,-0.6711111111111111,-0.07120729893001898,-0.5126207752276406,-1.134005210327506
1589985642.0506492,-1.51,0.37,9.09,-0.3333333333333333,0.4666666666666667,-0.6711111111111111,-0.1090830782496456,-0.6446809924554054,-0.5726861608106394
1589985642.0606492,4.644394926082528,1.328796024814049,8.757174778556218,-0.3333333333333333,0.4666666666666667,-0.6711111111111111,0.38339569329699924,0.2200906390776019,0.14199623156019056
1589985642.0706491,5.532971681161504,0.21136275425860707,7.4963548479839,-0.3333333333333333,0.4666666666666667,-0.6711111111111111,-0.016719551423271584,0.308416115380639,0.17278648261479207
1589985642.0806491,3.604564287524032,-0.870438618716187,9.195447337436846,-0.3333333333333333,0.4666666666666667,-0.6711111111111111,-0.29907648174995316,0.22552123713091413,-0.06889544936437395
1589985642.0906491,3.413740737724941,-1.3913166680237765,10.110434818011562,-0.34036641967266507,0.4619779424404455,-0.6731624279600829,-0.3358546381119043,0.1391816052252609,-0.1358616815905919
1589985642.100649,3.934058899293348,-0.71947749503951,9.118211612768476,-0.36,0.4488888888888889,-0.6788888888888889,0.003073783206792316,-0.02919232074831493,0.001285913566813495
1589985642.110649,3.787542461732019,-0.18048395890123714,8.58893772279304,-0.36,0.4488888888888889,-0.6788888888888889,0.13694690842284685,0.0042515638680173246,0.029614923513205417
1589985642.120649,3.887660458713213,-0.49589469856359897,8.833188394503754,-0.36,0.4488888888888889,-0.6788888888888889,-0.0012197221622615578,0.0053015469721844535,0.006080873725413501
1589985642.130649,3.85590050495605,-0.6030436589572554,9.034410157305238,-0.36,0.4488888888888889,-0.6788888888888889,-0.03034680220473075,0.009438067495319634,-0.0017683640220870689
1589985642.140649,3.7938932211241507,-0.5179644070413836,9.093565858554664,-0.35389798229359687,0.4468548829867545,-0.6656678505250154,-0.011924602995778699,0.006045764538767514,-0.0016824414087816904
1589985642.150649,3.7292179168147888,-0.5018746296954616,9.147032823794289,-0.3466666666666667,0.4444444444444444,-0.65,-0.00010224518887957056,-0.004090453858525933,-0.0016873687681844692
1589985642.160649,3.8882759606937833,-0.4888747471858465,8.870798381989419,-0.3466666666666667,0.4444444444444444,-0.65,-0.0017698784601497177,-0.005208661830928398,-0.0015026138873396502
1589985642.170649,3.9043165638348363,-0.5201150925486474,8.794546748932131,-0.3466666666666667,0.4444444444444444,-0.65,-0.002181661564992912,0.0019462295297103945,0.00012399334238628445
1589985642.180649,3.7967214760888663,-0.5356621061880257,9.005232835446215,-0.3466666666666667,0.4444444444444444,-0.65,-0.002181661564992912,0.006487205030084358,0.001090830782496456
1589985642.190649,3.73,-0.5495710481880763,9.206959020652032,-0.33912932415465213,0.4362789900564287,-0.661934125644023,-0.000948366780444217,0.003793467121776868,0.0017074781747708034
1589985642.200649,3.8020489476672066,-0.5319673682218624,9.105922499526923,-0.3333333333333333,0.43,-0.6711111111111111,-0.0013098868326977481,-0.00327471708174437,0.0015267181486440379
1589985642.210649,3.8685511231525105,-0.5185511231525102,8.900142137932429,-0.3333333333333333,0.43,-0.6711111111111111,-0.0006639513511448535,-0.008489574340178396,7.902397326441687e-05
1589985642.220649,3.8759433675639547,-0.5353144558546515,8.857767515343015,-0.3333333333333333,0.43,-0.6711111111111111,0.0016019443611456734,-0.008932457135565711,-6.860362519802094e-05
1589985642.230649,3.868034634595163,-0.538034634595163,8.984017317297582,-0.3333333333333333,0.43,-0.6711111111111111,0.0017434402278671752,-0.002386604552602122,0.0006526094453707192
1589985642.240649,3.864109195402299,-0.5431896551724138,9.014971264367816,-0.3338378033205619,0.43479246487867174,-0.6743901660280971,0.0005955685306733525,0.003419817194550671,0.0
1589985642.250649,3.81882327117253,-0.5155883644137352,9.047060372964822,-0.33555555555555555,0.4511111111111111,-0.6855555555555556,-0.0001283612027655638,0.0037859371585516233,-0.0004812347898654461
1589985642.260649,3.8423798507705844,-0.51,8.934607213841192,-0.33555555555555555,0.4511111111111111,-0.6855555555555556,-0.0002596014478301169,-0.004241839319925125,-0.0019911189360475043
1589985642.270649,3.8817145969993416,-0.48828540300065826,8.853714052250494,-0.33555555555555555,0.4511111111111111,-0.6855555555555556,-0.002181661564992912,-0.008726646259971648,-0.0020881448056700096
1589985642.280649,3.8614545847411015,-0.5085454152588984,8.921373654435452,-0.33555555555555555,0.4511111111111111,-0.6855555555555556,-0.002181661564992912,-0.002186075628424873,-0.0006236471659574006
1589985642.290649,3.814033808835543,-0.543864764657827,9.034033808835543,-0.33824476144591775,0.4452844983486597,-0.6743505310123799,-0.0008616007104378781,0.006544984694978735,0.0004400202848516779
1589985642.300649,3.8092856309365444,-0.5253571845317277,9.072143107190366,-0.3422222222222222,0.43666666666666665,-0.6577777777777778,-7.792557644803032e-05,0.0036230937976175197,0.001090830782496456
1589985642.310649,3.815742538911895,-0.5142574610881051,9.013416035984578,-0.3422222222222222,0.43666666666666665,-0.6577777777777778,-0.0006615196315028753,-0.002772969576445769,0.001090830782496456
1589985642.320649,3.8536270351621287,-0.49545081406485153,8.874549185935148,-0.3422222222222222,0.43666666666666665,-0.6577777777777778,0.0,-0.008132054682811177,0.00019894341675574985
1589985642.330649,3.8817154191376826,-0.5058577095688411,8.880711452155793,-0.3422222222222222,0.43666666666666665,-0.6577777777777778,0.0009037075824697158,-0.0056412771125090196,-0.0003742464000534803
1589985642.340649,3.854883707096544,-0.511337219677592,8.955348878710367,-0.3472609865233743,0.43960594584233864,-0.6628165420789298,0.002181661564992912,-0.001065459606721302,0.002181661564992912
1589985642.3506489,3.8042939925181543,-0.5248587985036309,9.081412014963691,-0.3555555555555556,0.4444444444444444,-0.6711111111111111,-0.0006224288606352189,0.004363323129985824,0.0004992073096160338
1589985642.3606489,3.8153796419983967,-0.5121378573336896,9.03958535933743,-0.3555555555555556,0.4444444444444444,-0.6711111111111111,-0.0028436789856498583,0.0017904429589487647,-0.0006620174206569461
1589985642.3706489,3.872847785176607,-0.5056955703532137,8.922782281412855,-0.3555555555555556,0.4444444444444444,-0.6711111111111111,-0.001871016391734928,-0.0031135970847668637,-0.0006212903465159679
1589985642.3806489,3.883071043850297,-0.510786868449109,8.955431649197624,-0.3555555555555556,0.4444444444444444,-0.6711111111111111,-0.0007558318658664158,-0.004449157162592159,-0.002181661564992912
1589985642.3906488,3.888878473616438,-0.49336457915068604,8.908972211068496,-0.3555555555555556,0.4444444444444444,-0.6711111111111111,-0.0001223395502571383,-0.0025486802157643263,-0.002181661564992912
1589985642.4006488,3.83,-0.5366898849182314,9.03841459721381,-0.3477777777777778,0.4444444444444444,-0.6855555555555556,-0.0012789677087931646,0.00272327787871276,0.0020011227937529624
1589985642.4106488,3.83,-0.5208120078740157,8.982842027559055,-0.3477777777777778,0.4444444444444444,-0.6855555555555556,0.0030510515513378976,0.005321289434791397,0.00113511894172675
