time,acc_x,acc_y,acc_z,mag_x,mag_y,mag_z,gyr_x,gyr_y,gyr_z
1589985685.6862252,-0.18,-4.27,8.78,0.4988888888888889,0.29444444444444445,-0.5733333333333334,0.0,-0.004363323129985824,0.001090830782496456
1589985685.6962252,-0.17000770623819983,-4.2400077062382,8.719976881285401,0.4988888888888889,0.29444444444444445,-0.5733333333333334,-3.3624807382466947e-06,8.406201845616737e-07,-1.6812403691233474e-06
1589985685.7062252,-0.16914085462355866,-4.25,8.697239430250962,0.4988888888888889,0.29444444444444445,-0.5733333333333334,-0.0035736237934374062,0.0014856804507706648,-0.0009971125601702852
1589985685.7162251,-0.16375394637935353,-4.260315459784516,8.737507892758707,0.4988888888888889,0.29444444444444445,-0.5733333333333334,-0.004057065076418478,0.004057065076418478,0.0014659114847815691
1589985685.7262251,-0.18679417270285667,-4.273588345405713,8.79,0.4988888888888889,0.29444444444444445,-0.5683464908711104,-0.007635815477475192,0.007635815477475192,0.0014822585451746422
1589985685.7362251,-0.18318734158342032,-4.26637468316684,8.79,0.4988888888888889,0.29444444444444445,-0.5577777777777778,-0.006592760383417432,0.006592760383417432,0.0003476850313525866
1589985685.746225,-0.1842787380635803,-4.262836214190741,8.721344856762963,0.4988888888888889,0.29444444444444445,-0.5577777777777778,-0.0031151374029914506,0.002491044539494264,0.0017149236459936426
1589985685.756225,-0.17408985641500696,-4.25,8.681820287169986,0.4988888888888889,0.29444444444444445,-0.5577777777777778,-0.00282635822014135,-0.0008432591829488582,0.0015369649098444739
1589985685.766225,-0.16524182265078466,-4.24048364530157,8.694758177349215,0.4988888888888889,0.29444444444444445,-0.5577777777777778,-0.0027534557153792187,-0.0032197348292132113,0.0005717941503863064
1589985685.776225,-0.16,-4.238491236451584,8.716982472903167,0.4965302120967822,0.2968031212365511,-0.5606081899283057,-0.0007922862495663399,-0.0025108227094170613,0.0
1589985685.786225,-0.17163659694597716,-4.238363403054023,8.763273193891955,0.4933333333333334,0.3,-0.5644444444444444,0.0029948645053228763,0.0006346779076088067,-0.0006346779076088067
1589985685.796225,-0.1740919979730041,-4.241816004053992,8.720919979730041,0.4933333333333334,0.3,-0.5644444444444444,0.003718860082575965,0.001090830782496456,-0.001090830782496456
1589985685.806225,-0.1750332035722464,-4.255033203572246,8.720265628577971,0.4933333333333334,0.3,-0.5644444444444444,0.0038215296866071172,0.0016398681216142049,-0.000541793443378707
1589985685.816225,-0.18288182049974502,-4.262881820499745,8.774409102498725,0.4933333333333334,0.3,-0.5644444444444444,0.004048965278910704,0.003124735118218271,-0.0012574314043004786
1589985685.826225,-0.18956575089240182,-4.269565750892402,8.80782875446201,0.4933333333333334,0.3,-0.5644444444444444,0.0033198615768733376,0.005312046224330372,-0.004173846212449947
1589985685.836225,-0.19753752788216145,-4.255075055764323,8.830300223057291,0.5255555555555556,0.31222222222222223,-0.5511111111111111,0.004631937168703577,-0.0016116842323065214,-0.0016280588599319632
1589985685.846225,-0.18814771493023644,-4.2381477149302365,8.751477149302364,0.5255555555555556,0.31222222222222223,-0.5511111111111111,0.006060312784099285,-0.00715114356659574,-0.0034745453046950365
1589985685.856225,-0.17220475586666897,-4.2338976220666655,8.658307133800003,0.5255555555555556,0.31222222222222223,-0.5511111111111111,0.008726646259971648,-0.009392312429582486,-0.0030878292913289664
1589985685.866225,-0.15428846960167716,-4.24,8.649519217330539,0.5255555555555556,0.31222222222222223,-0.5511111111111111,0.008103614942606167,-0.008518969154183154,-0.0012985078882849497
1589985685.876225,-0.13531370903359194,-4.237343145483204,8.697970563550388,0.522308288923916,0.30749892530347384,-0.5546535838001724,0.0051643360433287,-0.006476544000860875,-0.0016020258266857532
1589985685.886225,-0.15712670214431051,-4.239502269525747,8.72,0.5133333333333333,0.29444444444444445,-0.5644444444444444,0.003585920522316081,-0.002754223942376206,0.000259134202556581
1589985685.896225,-0.16981750583754618,-4.259817505837546,8.689452517512638,0.5133333333333333,0.29444444444444445,-0.5644444444444444,0.0016461996862462101,1.990702500305236e-05,-0.0005752759287528067
1589985685.906225,-0.17565022882706843,-4.244783257057644,8.706950686481205,0.5133333333333333,0.29444444444444445,-0.5644444444444444,0.002750719943582234,0.0022289475396751,-0.0010435448078142677
1589985685.916225,-0.18588986334178642,-4.24,8.77466081994928,0.5133333333333333,0.29444444444444445,-0.5644444444444444,0.002824145988784719,0.004617531423603315,-0.00044834635870464896
1589985685.926225,-0.18,-4.237262771371514,8.812737228628487,0.5133333333333333,0.295965127015826,-0.5668775365586549,0.0015844909156561289,0.005052058071636778,-0.0004936601331596729
1589985685.936225,-0.16988342070260543,-4.2350582896486975,8.779533682810422,0.5133333333333333,0.3,-0.5733333333333334,0.0005517738055582183,0.0016426045880546742,0.001090830782496456
1589985685.946225,-0.17061854956015793,-4.234690725219921,8.713453626099605,0.5133333333333333,0.3,-0.5733333333333334,0.001090830782496456,0.0004442054561402413,0.0005116787462122325
1589985685.956225,-0.18,-4.2348590172774045,8.694859017277404,0.5133333333333333,0.3,-0.5733333333333334,-0.0004992789031660521,-0.0016208673443839586,-0.0005300365618875026
1589985685.966225,-0.18,-4.24,8.713130485099816,0.5133333333333333,0.3,-0.5733333333333334,-0.0018951988182730885,-0.0024681243117127354,-0.0016637562759361031
1589985685.976225,-0.18,-4.24,8.742023614344957,0.5133333333333333,0.3,-0.5733333333333334,-0.0012648485226081415,-0.003098474607377683,-0.0029244568672659975
1589985685.986225,-0.1756873629385965,-4.257843681469298,8.757843681469298,0.5133333333333333,0.31222222222222223,-0.5788888888888889,-0.0026520972910243127,-0.0030372744844736677,0.0
1589985685.9962249,-0.16,-4.25,8.718667694521534,0.5133333333333333,0.31222222222222223,-0.5788888888888889,-0.0035088670474234854,0.0003817066826941038,-0.0004272280412811693
1589985686.0062249,-0.16,-4.252486310194878,8.692376791753906,0.5133333333333333,0.31222222222222223,-0.5788888888888889,-0.002995304673615349,0.004634537499526636,-5.973304333206685e-06
1589985686.0162249,-0.16,-4.26,8.761256286871653,0.5133333333333333,0.31222222222222223,-0.5788888888888889,-0.00545415391248228,0.00545415391248228,0.003135452708364878
1589985686.0262249,-0.16202187034893337,-4.257978129651066,8.772021870348933,0.5119854197673778,0.3097510473513037,-0.573272582364074,-0.004792498388032273,0.005674705753965615,0.002181661564992912
1589985686.0362248,-0.17133094812164582,-4.25,8.783992844364937,0.5066666666666667,0.3,-0.5511111111111111,-0.0018912937287934976,0.006254616858779321,0.0018912937287934976
1589985686.0462248,-0.1768625251250409,-4.253137474874959,8.772350301500492,0.5066666666666667,0.3,-0.5511111111111111,-0.0003422454172914604,0.002994341460819982,-0.0003422454172914604
1589985686.0562248,-0.17032720983499278,-4.259672790165007,8.693926518019913,0.5066666666666667,0.3,-0.5511111111111111,-0.0010551377264618879,0.0001427722241382724,-0.0010551377264618879
1589985686.0662248,-0.17188959025884287,-4.26,8.728110409741157,0.5066666666666667,0.3,-0.5511111111111111,0.0005010251422089014,-0.002888809029266938,0.0
1589985686.0762248,-0.15338557624322413,-4.258871474585591,8.75564262707204,0.5066666666666667,0.3,-0.5542459039289113,-0.0015832428868428018,0.0009677277564098695,0.00012310302608658645
1589985686.0862248,-0.17527761514441842,-4.259444769711163,8.76694330601093,0.5066666666666667,0.3,-0.5788888888888889,-0.004423889359029587,-0.0005151322767263464,-0.0004545660476825836
1589985686.0962248,-0.17445382574179258,-4.27,8.698823219807453,0.5066666666666667,0.3,-0.5788888888888889,-0.0023008183036848755,0.0003666802832102828,-0.0007241504992861732
1589985686.1062248,-0.18,-4.27391614147305,8.671748424419151,0.5066666666666667,0.3,-0.5788888888888889,0.0006179082844693499,0.001327292031510009,0.001090830782496456
1589985686.1162248,-0.17304162096634532,-4.270722161288461,8.692319459677885,0.5066666666666667,0.3,-0.5788888888888889,0.004031533752108215,-0.0007590414046188467,0.0008378169809568404
1589985686.1262248,-0.1548823818045373,-4.24650984240605,8.698372539398488,0.5066666666666667,0.3,-0.5788888888888889,0.006012399458549745,-0.0027399071110603777,0.00017752841214299685
1589985686.1362247,-0.17196387113188946,-4.241963871131889,8.757855484527557,0.5255555555555556,0.3,-0.5577777777777778,0.005259634044866034,-0.00023393034908798782,-0.0008766056741443389
1589985686.1462247,-0.17597222222222222,-4.25,8.753749999999998,0.5255555555555556,0.3,-0.5577777777777778,-0.0013180871955165512,0.002833129948983851,0.00043936239850551694
1589985686.1562247,-0.17841051191871826,-4.254205255959359,8.729436791715512,0.5255555555555556,0.3,-0.5577777777777778,-0.002355047817740248,0.002640383829867472,0.001549553047371016
1589985686.1662247,-0.18307535873800249,-4.26,8.787311603154993,0.5255555555555556,0.3,-0.5577777777777778,-0.002979233744079459,0.0025171311628561666,0.0014263003803597109
1589985686.1762247,-0.1685860459886434,-4.258586045988643,8.81575813796593,0.5238273895416753,0.3,-0.5577777777777778,-0.006699223151040949,0.001090830782496456,0.00015423845606221323
1589985686.1862247,-0.16072581098555125,-4.250725810985551,8.792177432956652,0.5142204356490071,0.3,-0.5577777777777778,-0.007556641780943853,0.001090830782496456,0.0010116570859651172
1589985686.1962247,-0.1541062519813792,-4.26,8.661521866083794,0.5133333333333333,0.3,-0.5577777777777778,-0.00022396130309877514,0.0036914392206894983,-0.0008668694793976808
1589985686.2062247,-0.16810288155106537,-4.26,8.598537033020206,0.5133333333333333,0.3,-0.5577777777777778,-0.000987359022389464,0.001401246062817432,-0.00010347176010699205
1589985686.2162247,-0.14616480402959234,-4.25,8.66770600503699,0.5133333333333333,0.3,-0.5577777777777778,-0.0009227118324080186,0.005790391812659154,0.00016811895008843735
1589985686.2262247,-0.17917519282228866,-4.25,8.708968991027861,0.5133333333333333,0.3,-0.5577777777777778,-2.249312647678841e-05,0.007590829224521615,0.0010683376560196676
1589985686.2362247,-0.19,-4.26,8.82,0.5133333333333333,0.3,-0.5733333333333334,-0.004652879301062359,0.0017254836919662379,0.002181661564992912
1589985686.2462246,-0.18631707505206593,-4.26,8.786853675468594,0.5133333333333333,0.3,-0.5733333333333334,-0.005627091526059868,0.005052409122199215,0.002181661564992912
1589985686.2562246,-0.17122982955023472,-4.2570766098500785,8.74461695074961,0.5133333333333333,0.3,-0.5733333333333334,-0.0018627691685147536,0.0030877535440731905,0.0015438767720365953
1589985686.2662246,-0.15005754572529487,-4.250019181908431,8.77990409045784,0.5133333333333333,0.3,-0.5733333333333334,-0.0010929232041148808,8.369686473699324e-06,4.184843236849662e-06
1589985686.2762246,-0.16200009918666933,-4.24,8.768999950406664,0.5118888172540721,0.3,-0.5703331845533294,-0.002181661564992912,0.0022907500530361625,0.0008726538064099549
1589985686.2862246,-0.18,-4.243311056395826,8.756688943604173,0.4988888888888889,0.3,-0.5433333333333333,-0.002362251676950351,0.0027307220116170516,-0.0007296505585815782
1589985686.2962246,-0.18,-4.26,8.696665523229639,0.4988888888888889,0.3,-0.5433333333333333,-0.00264221793142952,-0.0006302744160598479,0.0017211051985563041
1589985686.3062246,-0.18,-4.256211303484306,8.605154786062778,0.4988888888888889,0.3,-0.5433333333333333,-0.0012974721217392867,-0.0019750202257500815,0.0028592096690037067
1589985686.3162246,-0.18,-4.238994832395848,8.677036173229066,0.4988888888888889,0.3,-0.5433333333333333,-0.002181661564992912,-0.0006522436768254064,0.0008715372296609313
1589985686.3262246,-0.18,-4.231572719405929,8.741572719405928,0.4988888888888889,0.3003494932013175,-0.544440061804172,-0.002067290182311812,0.0032153066561488182,-0.0009192737084748061
1589985686.3362246,-0.18,-4.256895011169024,8.766895011169025,0.4988888888888889,0.3059766691486721,-0.5622594523041283,-0.0002258011597423789,0.0022945621448641016,0.001842959825379344
1589985686.3462245,-0.18,-4.262279165221413,8.771766678228696,0.4988888888888889,0.30666666666666664,-0.5644444444444444,-0.003023873989298116,0.001339449140687708,0.003023873989298116
1589985686.3562245,-0.18339552821061547,-4.2666044717893845,8.716791056421231,0.4988888888888889,0.30666666666666664,-0.5644444444444444,-0.002181661564992912,0.001811266895495464,0.0007000828870031201
1589985686.3662245,-0.18627701701883256,-4.26,8.741168948943503,0.4988888888888889,0.30666666666666664,-0.5644444444444444,-0.0015724898992077322,0.0006847163386396696,-0.0017755471211361256
1589985686.3762245,-0.17359813790393278,-4.26,8.779205586288201,0.4988888888888889,0.30666666666666664,-0.5644444444444444,0.0005020868447048847,-0.0006983348239687417,-0.0003924959585277143
1589985686.3862245,-0.16140647857889237,-4.25,8.789296760710553,0.5066666666666667,0.3,-0.5733333333333334,-7.671150643888347e-05,-0.000783984756740922,0.0
1589985686.3962245,-0.17893751306165098,-4.25,8.780531243469174,0.5066666666666667,0.3,-0.5733333333333334,-0.0010328811095788803,0.0030406936558190654,0.0
1589985686.4062245,-0.17,-4.252337814840027,8.667013444520082,0.5066666666666667,0.3,-0.5733333333333334,-0.0023659109781358208,-0.000835814743368583,0.000835814743368583
1589985686.4162245,-0.17,-4.259475833900613,8.688427501701838,0.5066666666666667,0.3,-0.5733333333333334,-0.006259096436802333,-5.717765163528051e-05,5.717765163528051e-05
1589985686.4262245,-0.18,-4.250271894115854,8.73,0.5068479294105696,0.29984894771341425,-0.5725176509857703,-0.004363323129985824,-0.00011863618846142094,2.9659047115355235e-05
1589985686.4362245,-0.18,-4.259402442475564,8.73,0.5129349616503762,0.2947764208469087,-0.5451260059066403,-0.004363323129985824,-0.004102589473199114,0.0010256473682997785
1589985686.4462245,-0.17725275795728515,-4.279011031829141,8.714285853444707,0.5133333333333333,0.29444444444444445,-0.5433333333333333,0.00010787969236826598,0.0014744266351922849,0.0002996776187161805
1589985686.4562244,-0.16706362429071595,-4.2411908728721475,8.62,0.5133333333333333,0.29444444444444445,-0.5433333333333333,0.006475581360151301,-0.004874036853820336,0.0001299040786978757
1589985686.4662244,-0.1578100136345593,-4.226569959096322,8.65503978184705,0.5133333333333333,0.29444444444444445,-0.5433333333333333,0.012747457448051771,-0.00753219398963652,-0.002659442473126963
1589985686.4762244,-0.15057109818608583,-4.248286705441743,8.770862429022626,0.5133333333333333,0.29444444444444445,-0.5433333333333333,0.008009598366201388,-0.0035839780880945332,-0.004238728833743758
1589985686.4862244,-0.1485161232971087,-4.21,8.830838722581506,0.4933333333333334,0.3,-0.5511111111111111,-0.0031106265089950492,0.0017875544904980593,-0.0014849378569913086
1589985686.4962244,-0.18546566164154102,-4.222753210496929,8.763643774427694,0.4933333333333334,0.3,-0.5511111111111111,-0.00932730361212017,0.007145642047127259,0.0012895678480065586
1589985686.5062244,-0.2149731663685152,-4.27005366726297,8.777513416815742,0.4933333333333334,0.3,-0.5511111111111111,-0.023172836390242244,0.018821221640748335,0.001639173268867662
1589985686.5162244,-0.22919795773282492,-4.235989788664125,8.765187746396949,0.4933333333333334,0.3,-0.5511111111111111,-0.026308387929123794,0.015400080104159233,8.748923938978232e-05
1589985686.5262244,-0.22016221805726105,-4.190811090286306,8.710973308343567,0.4933333333333334,0.3,-0.5511111111111111,-0.015466278650321205,0.004557970825356644,0.001073135537462745
1589985686.5362244,-0.3807003391393105,-4.040528135392315,8.577309604556978,0.4988888888888889,0.3,-0.5644444444444444,-0.02314331241473285,-0.01361931198889833,0.007208333077380601
1589985686.5462244,-0.5257075828915743,-3.854090250567976,8.611835138783707,0.4988888888888889,0.3,-0.5644444444444444,-0.03971437924205949,-0.026424227264559827,0.01549386649104392
1589985686.5562243,0.07250804144230599,-4.5293661033214265,8.801148371274724,0.4988888888888889,0.3,-0.5644444444444444,-0.08833424424854927,-0.06432945356944642,0.05886527745166209
1589985686.5662243,-0.18837322954985694,-4.238669829930159,8.622258356880097,0.4988888888888889,0.3,-0.5644444444444444,-0.07776422946947595,-0.012292457734008513,0.07919222894988003
1589985686.5762243,-0.4352510063935591,-3.3155659483779303,8.040502012787117,0.4983735232983398,0.3,-0.5644444444444444,-0.03942586106708583,0.037707473243131846,0.07751582251319698
1589985686.5862243,-0.7497655695003552,-3.3652261425526877,8.66953113900071,0.4937753571710475,0.3,-0.5644444444444444,-0.10894514227099224,0.004302104352943044,0.107309800172014
1589985686.5962243,-0.5696242643730195,-2.8594363965595293,9.132707107288365,0.4933333333333334,0.3,-0.5644444444444444,-0.2132411221809442,-0.035946800088926326,0.3251206579775692
1589985686.6062243,-0.4381735557335376,-2.6622603336003063,8.91362259288923,0.4933333333333334,0.3,-0.5644444444444444,-0.1439357238212331,-0.06064182709066249,0.4709009786652375
1589985686.6162243,-0.44725135995073384,-2.6326552396592424,8.701564199938417,0.4933333333333334,0.3,-0.5644444444444444,-0.019919333658736986,-0.04935105210064793,0.6938301798428397
1589985686.6262243,-0.361152622395566,-2.0371389715693318,8.593940777994458,0.4933333333333334,0.3,-0.5644444444444444,-0.0003528433963910088,-0.04622041365867258,0.8096638021959279
1589985686.6362243,-0.3547649745818905,-2.1733548220732337,9.148589847491342,0.5133333333333333,0.30666666666666664,-0.5733333333333334,-0.14180800172453928,-0.07199483164476607,1.1301006906663285
1589985686.6462243,-0.369637578081514,-2.2801812109592428,9.234201249304224,0.5133333333333333,0.30666666666666664,-0.5733333333333334,-0.1404243082772635,-0.07302271820559951,1.132571571822178
1589985686.6562243,-0.3646208842447574,-2.3265522106118937,8.84445876473542,0.5133333333333333,0.30666666666666664,-0.5733333333333334,-0.05641213094227134,-0.11489564314661613,1.3275920291174643
1589985686.6662242,-0.4139042210865039,-2.4465070351441733,8.642535175720866,0.5133333333333333,0.30666666666666664,-0.5733333333333334,-0.035175751613436154,-0.07951879033709941,1.5288444987182117
1589985686.6762242,-0.4297826992239258,-2.4729711653732096,8.774855826866048,0.5133333333333333,0.30666666666666664,-0.5733333333333334,-0.06288892398383107,-0.11011875149607714,1.575610477093253
1589985686.6862242,-0.45196032952091497,-2.56176197712549,8.961662800927776,0.504695317568228,0.29071956063878,-0.5600440783100945,-0.07811213878269471,-0.11350049360430933,1.659194363836665
1589985686.6962242,-0.49334204583472735,-2.710026137504182,8.836616134158582,0.4988888888888889,0.28,-0.5511111111111111,-0.050898783811202095,-0.10690255714841826,1.751161652119302
1589985686.7062242,-0.4808578327901518,-2.700343133116061,8.731029399348182,0.4988888888888889,0.28,-0.5511111111111111,-0.057870176497136105,-0.12777692161828252,1.8521691633515913
1589985686.7162242,-0.5162712980631217,-2.714508519225249,8.773525557675745,0.4988888888888889,0.28,-0.5511111111111111,-0.0601879823792136,-0.1339577373038225,1.8946622711896786
1589985686.7262242,-0.53,-2.749068512789557,8.722173470157701,0.4988888888888889,0.28,-0.5511111111111111,-0.052630836205870654,-0.13423992590857428,1.9682114223278244
1589985686.7362242,-0.6434891723251973,-2.7411630574417325,8.836978344650396,0.5455555555555556,0.2466666666666667,-0.5733333333333334,-0.054085057771952987,-0.14893633765831316,2.029580856055342
1589985686.7462242,-0.6716537755003384,-2.7516537755003383,8.876769795997294,0.5455555555555556,0.2466666666666667,-0.5733333333333334,-0.058544064410187106,-0.14508049407202864,2.080360952148525
1589985686.7562242,-0.6978422513076148,-2.776861969894163,8.737842251307615,0.5455555555555556,0.2466666666666667,-0.5733333333333334,-0.05529006392373449,-0.14540129041441938,2.1348836670090487
1589985686.7662241,-0.7763996725672772,-2.8410666120945463,8.811066612094546,0.5455555555555556,0.2466666666666667,-0.5733333333333334,-0.061828306610583784,-0.14800393842780382,2.181094082964429
1589985686.7762241,-0.8279003376649954,-2.849650056277499,8.8196500562775,0.5455555555555556,0.2466666666666667,-0.5733333333333334,-0.0590193810702022,-0.1451950128874222,2.220419040529771
1589985686.7862241,-0.8635917177455524,-2.81,8.857183435491105,0.56,0.2,-0.5788888888888889,-0.06089062600585717,-0.14894067986135112,2.272400617020417
1589985686.796224,-0.8792678277769472,-2.81,8.888535655553895,0.56,0.2,-0.5788888888888889,-0.06003562683725482,-0.15150567736715817,2.3066005837645114
1589985686.806224,-0.9936928777274598,-2.839076780568135,8.73184643886373,0.56,0.2,-0.5788888888888889,-0.06516467710751266,-0.15669375521968723,2.3564467644583256
1589985686.816224,-1.0312587557821202,-2.8287412442178796,8.755035023128482,0.56,0.2,-0.5788888888888889,-0.07253642660534967,-0.16417385319638128,2.395769579718491
1589985686.826224,-1.0391777588973852,-2.820822241102615,8.786711035589539,0.56,0.2,-0.5788888888888889,-0.0690811096594232,-0.16762917014230772,2.425139773758866
1589985686.836224,-1.0779569414710992,-2.7896344468231207,8.76722583511734,0.5675913882942198,0.17047793441136738,-0.5746714509476557,-0.06955043130059856,-0.17047221651441968,2.454688265943409
1589985686.846224,-1.1469196803467425,-2.7881313829066774,8.784394148720033,0.57,0.16111111111111112,-0.5733333333333334,-0.06626518496822545,-0.17214742912983053,2.4905927914914927
1589985686.856224,-1.2451433430515064,-2.815543002915452,8.755942662779397,0.57,0.16111111111111112,-0.5733333333333334,-0.06730738654029214,-0.16956495424868287,2.5275610643777164
1589985686.866224,-1.2922594749165959,-2.826610787625106,8.81943513127085,0.57,0.16111111111111112,-0.5733333333333334,-0.06666391297184888,-0.16920200652651574,2.57075502137263
1589985686.876224,-1.3270243892330964,-2.7744634161503554,8.810743902691726,0.57,0.16111111111111112,-0.5733333333333334,-0.06856004490621341,-0.17109813846088026,2.5991970003880978
1589985686.886224,-1.3636594224237786,-2.7290851443940554,8.835489133635667,0.5777777777777777,0.10111111111111112,-0.5933333333333334,-0.06366736644739598,-0.17582334651323017,2.6383412332152982
1589985686.896224,-1.3965965800891296,-2.720850854977718,8.884894870133696,0.5777777777777777,0.10111111111111112,-0.5933333333333334,-0.06726025299432642,-0.17761978978669538,2.6643896606805444
1589985686.906224,-1.4546404184221995,-2.704388451879372,8.804136485336542,0.5777777777777777,0.10111111111111112,-0.5933333333333334,-0.06678003065215996,-0.17865689540954263,2.692625599082444
1589985686.916224,-1.5735782027363185,-2.7164217972636817,8.81,0.5777777777777777,0.10111111111111112,-0.5933333333333334,-0.07556006501906466,-0.18553881336666722,2.719113505701797
1589985686.926224,-1.6061831467661694,-2.683816853233831,8.81,0.5777777777777777,0.10111111111111112,-0.5933333333333334,-0.07822755076476479,-0.18642797528190064,2.736007582091231
1589985686.936224,-1.6364691587449074,-2.6447077883401233,8.81,0.5885615091182956,0.04425143677019883,-0.6011760470355282,-0.0756524790251718,-0.186532063806894,2.7514595048674457
1589985686.946224,-1.717783149751955,-2.5855517951736315,8.802221685024804,0.59,0.03666666666666667,-0.6022222222222222,-0.07272187636898653,-0.18992599397125254,2.7617417204319517
1589985686.956224,-1.7589730430967052,-2.5260119808459085,8.729970047885228,0.59,0.03666666666666667,-0.6022222222222222,-0.0679577775688654,-0.18947828710029815,2.76558556995148
1589985686.966224,-1.830989182898678,-2.4940048076005876,8.809987980998532,0.59,0.03666666666666667,-0.6022222222222222,-0.07057635830661739,-0.18685970636254623,2.7594755482300592
1589985686.976224,-1.832317114023701,-2.451585570118504,8.8123171140237,0.59,0.03666666666666667,-0.6022222222222222,-0.07090400086226964,-0.18485591810262247,2.7469780290036363
1589985686.986224,-1.8885437997724688,-2.407475666793073,8.81,0.5936138148007696,-0.005253585022261552,-0.6210140591862245,-0.06735614647804086,-0.1772546934734435,2.7335054257027456
1589985686.996224,-1.926701292522401,-2.3564935373879945,8.850207755134406,0.5955555555555555,-0.027777777777777776,-0.6311111111111111,-0.06398785171659768,-0.17636608488331584,2.709892846608765
1589985687.006224,-2.021307177389364,-2.3582614354778726,8.833477129044255,0.5955555555555555,-0.027777777777777776,-0.6311111111111111,-0.06625620577756992,-0.17481739715414682,2.673008827128654
1589985687.016224,-2.0722996157718465,-2.318275288171115,8.782587067743327,0.5955555555555555,-0.027777777777777776,-0.6311111111111111,-0.05691133756520404,-0.17350480670873258,2.6242186669035568
1589985687.026224,-2.141243707493476,-2.2665672193798927,8.86014917093016,0.5955555555555555,-0.027777777777777776,-0.6311111111111111,-0.06255181287929502,-0.17538496514676294,2.5819151020478746
1589985687.036224,-2.1812374175996654,-2.2038129120016743,8.878762582400336,0.5822222222222222,-0.09333333333333334,-0.6311111111111111,-0.06858735797642496,-0.1696296767860401,2.5232814823135663
1589985687.0462239,-2.190148058556116,-2.1598963590107187,8.869985194144387,0.5822222222222222,-0.09333333333333334,-0.6311111111111111,-0.0676282783781678,-0.16580143373454262,2.485954901260236
1589985687.0562239,-2.2776131292488637,-2.0986708095257955,8.861238687075113,0.5822222222222222,-0.09333333333333334,-0.6311111111111111,-0.06572008654807025,-0.16293914598939627,2.457332023808773
1589985687.0662239,-2.280194190338629,-2.0594174289841116,8.798834857968224,0.5822222222222222,-0.09333333333333334,-0.6311111111111111,-0.05353543986194249,-0.15288577258873617,2.4321713531288243
1589985687.0762239,-2.287673460653721,-2.036979618038838,8.753959236077677,0.5822222222222222,-0.09333333333333334,-0.6311111111111111,-0.05679888717806788,-0.15941266722098693,2.4174858402062602
1589985687.0862238,-2.31,-2.0290809945470007,8.948078443143729,0.54,-0.14666666666666667,-0.6588888888888889,-0.06961267419229046,-0.1678238984146956,2.3899646772025798
1589985687.0962238,-2.31,-1.9521431787483114,8.78720846465556,0.54,-0.14666666666666667,-0.6588888888888889,-0.052827446630039986,-0.15409053040921797,2.386149852756614
1589985687.1062238,-2.3700024176780623,-1.87,8.730006285962961,0.54,-0.14666666666666667,-0.6588888888888889,-0.05781476991005478,-0.15162600622253783,2.3725560025098376
1589985687.1162238,-2.4203416816441354,-1.8688610611862155,8.860569469406892,0.54,-0.14666666666666667,-0.6588888888888889,-0.07293657568516781,-0.16235985205952808,2.352735639417237
1589985687.1262238,-2.4449234195514573,-1.7869219348284755,8.901539032585763,0.54,-0.14666666666666667,-0.6588888888888889,-0.06221076912654107,-0.14984641107446353,2.3393283812189534
1589985687.1362238,-2.495660465371529,-1.7334716277027769,8.900867906925695,0.5095596897523141,-0.1831950389638898,-0.7187548323760046,-0.05899953621389754,-0.13829674422635366,2.3176325564626654
1589985687.1462238,-2.510484179274443,-1.6895158207255572,8.896126565804458,0.5066666666666667,-0.18666666666666668,-0.7244444444444444,-0.06103370805412063,-0.13547428009228416,2.285940493690322
1589985687.1562238,-2.5190133398405727,-1.6809866601594272,8.827893281275419,0.5066666666666667,-0.18666666666666668,-0.7244444444444444,-0.060103320964681704,-0.13919582845003986,2.258959268096593
1589985687.1662238,-2.550061907673494,-1.6197523693060227,8.840371446040965,0.5066666666666667,-0.18666666666666668,-0.7244444444444444,-0.05345070834232633,-0.12869777309580568,2.227240100072042
1589985687.1762238,-2.5580760852950166,-1.587695658819933,8.888456511770102,0.5066666666666667,-0.18666666666666668,-0.7244444444444444,-0.05345070834232633,-0.12607513960202044,2.1966427093112135
1589985687.1862237,-2.562912152370437,-1.5156317714443448,8.877087847629564,0.4722222222222222,-0.2344444444444445,-0.7244444444444444,-0.05023116041898684,-0.12371937611479744,2.1418731527563883
1589985687.1962237,-2.6195735529290665,-1.429466941161333,8.8193603293936,0.4722222222222222,-0.2344444444444445,-0.7244444444444444,-0.051234158157927444,-0.11120659211562853,2.0882431760925932
1589985687.2062237,-2.588734812418433,-1.390918515523041,8.773102218627649,0.4722222222222222,-0.2344444444444445,-0.7244444444444444,-0.048711169599745974,-0.10700161118532607,2.037783404928964
1589985687.2162237,-2.5949917718047177,-1.3050411409764124,8.842454744925945,0.4722222222222222,-0.2344444444444445,-0.7244444444444444,-0.052084925972031126,-0.0984515171262195,1.9613478540896823
1589985687.2262237,-2.6162451196740792,-1.2583398404345612,8.88624511967408,0.4722222222222222,-0.2344444444444445,-0.7244444444444444,-0.05049726224135562,-0.09599310885968812,1.890970067564887
1589985687.2362237,-2.6056106324772363,-1.154637213670328,8.973168102568291,0.4471553722682709,-0.290675486233038,-0.7461238822424564,-0.05132213853727527,-0.08867682382333944,1.778455793253951
1589985687.2462237,-2.5660696076258036,-1.046156617158058,8.95419142097096,0.4311111111111111,-0.32666666666666666,-0.76,-0.05149290769440194,-0.07746796809247913,1.6497972857420946
1589985687.2562237,-2.5342458754241584,-0.9706146885603962,8.80759819025703,0.4311111111111111,-0.32666666666666666,-0.76,-0.04588194498518401,-0.05504132418672013,1.4579416093222886
1589985687.2662237,-2.5111928378204302,-0.96,8.845825067628494,0.4311111111111111,-0.32666666666666666,-0.76,-0.0436982905105108,-0.04812667285114919,1.234662083517294
1589985687.2762237,-2.0851662715184,-0.9109807236367384,8.964378311514277,0.4311111111111111,-0.32666666666666666,-0.76,-0.06502192553695688,-0.04532296765020673,1.0508205576885257
1589985687.2862236,-2.278001493125402,-1.044000746562701,9.298573028348644,0.39149185808856907,-0.3853336374885078,-0.7714286306795795,-0.039893084926808445,0.009132091192981834,0.8746585744530734
1589985687.2962236,-2.005400577882847,-0.8461308116627266,8.692370633044392,0.37333333333333335,-0.4122222222222222,-0.7766666666666666,0.03906303140996634,-0.0707648891352137,0.6216059242715324
1589985687.3062236,-2.22921552230308,-0.9189621550451044,9.053089158941694,0.37333333333333335,-0.4122222222222222,-0.7766666666666666,-0.020347527459107964,-0.012283496413883363,0.4381050707163494
1589985687.3162236,-2.0863096944965256,-0.8022543288849675,8.466586522554318,0.37333333333333335,-0.4122222222222222,-0.7766666666666666,0.0034978288486050488,0.008333720999617237,0.19002291480335554
1589985687.3262236,-2.196310802393401,-0.9263108023934011,8.974505370052285,0.37333333333333335,-0.4122222222222222,-0.7766666666666666,-0.025799767399405413,0.020111012495289373,0.015276799012603565
1589985687.3362236,-2.3814927871871423,-0.9258559111582354,9.076242082647395,0.29168748507987885,-0.44230227157875807,-0.8041684260783566,0.007135979457771599,0.044495206459887804,-0.17029722430977212
1589985687.3462236,-2.4268081637582273,-0.8487265261759556,9.046808163758227,0.2677777777777778,-0.4511111111111111,-0.8122222222222222,-0.0037818453117454583,0.044979627775011306,-0.3212323093730375
1589985687.3562236,-2.4644254181926164,-0.794180936355538,9.058606354548154,0.2677777777777778,-0.4511111111111111,-0.8122222222222222,-0.01714924624819134,0.008745325239024583,-0.49713876010356695
1589985687.3662236,-2.4155478562148116,-0.7083217843222174,8.824040710264184,0.2677777777777778,-0.4511111111111111,-0.8122222222222222,0.012245744786960003,0.06069063114083572,-0.6111007423751804
1589985687.3762236,-2.5533228840125393,-0.7656896551724138,8.949294670846395,0.2677777777777778,-0.4511111111111111,-0.8122222222222222,0.014620210064462687,0.06198073149886995,-0.6884304878512038
1589985687.3862236,-2.686401598625481,-0.8221338662084936,9.025732267583013,0.2347466975435451,-0.4167318235203791,-0.7185218109455214,0.00822460252554064,0.05559586356207901,-0.7989854909976151
1589985687.3962235,-2.6343880129979538,-0.7827425081237213,8.773712540618606,0.21333333333333332,-0.3944444444444444,-0.6577777777777778,0.027045290940563075,0.07097768346868147,-0.9338204016207653
1589985687.4062235,-2.686148909370814,-0.9163616370434052,9.297425275406361,0.21333333333333332,-0.3944444444444444,-0.6577777777777778,0.03623646646930197,0.042245337397054994,-1.0188289500983223
1589985687.4162235,-2.7,-0.955806907549016,9.325475664117711,0.21333333333333332,-0.3944444444444444,-0.6577777777777778,0.03817907738737596,0.06087743441275541,-1.0954800864868257
1589985687.4262235,-2.7111392180094787,-0.9989872630331753,9.272278436018956,0.21333333333333332,-0.3944444444444444,-0.6577777777777778,-0.010424930203336985,0.11486855262550816,-1.1974006848496983
1589985687.4362235,-2.4563335759990803,-0.9317713322349516,8.990144066822484,0.2684792520786237,-0.38238127471891215,-0.6428424247842617,0.013511271902987246,0.10736986495509293,-1.279565865565184
1589985687.4462235,-2.667094415427883,-1.0551032543190035,8.94526918441141,0.32,-0.3711111111111111,-0.6288888888888889,0.03019935877007554,0.09984038006263918,-1.369105659457241
1589985687.4562235,-2.852799097065463,-1.147599699021821,8.985598194130926,0.32,-0.3711111111111111,-0.6288888888888889,0.0057594880367025075,0.08259698455485392,-1.4406394484394598
1589985687.4662235,-2.7776325337278522,-1.1175568001690797,8.663200535418648,0.32,-0.3711111111111111,-0.6288888888888889,0.028570283355219536,0.09210498049834978,-1.4989936556610066
1589985687.4762235,-2.7819993676889028,-1.2199968384445148,8.995321108652124,0.32,-0.3711111111111111,-0.6288888888888889,0.018690096210819348,0.09344806694866598,-1.5489058625102665
1589985687.4862235,-2.327526315789474,-1.1732861842105262,8.706796052631578,0.40136111111111117,-0.3400654239766082,-0.635312134502924,0.04352917178442271,0.08528394941771224,-1.5936395433884842
1589985687.4962234,-2.482833324131839,-1.2827173853033733,9.020637663556561,0.4044444444444445,-0.3388888888888889,-0.6355555555555555,0.027510278976754045,0.09738036039586688,-1.623484242519153
1589985687.5062234,-2.5040274755856906,-1.3847505439457573,8.870997824216971,0.4044444444444445,-0.3388888888888889,-0.6355555555555555,0.03280379799739468,0.09202967790291419,-1.6573024423094398
1589985687.5162234,-2.617998340593238,-1.4579993777224642,8.88999844430616,0.4044444444444445,-0.3388888888888889,-0.6355555555555555,0.044069473106257986,0.0944658665709191,-1.704313528099494
1589985687.5262234,-2.4681320666496642,-1.5427471733401343,9.08731849868231,0.4044444444444445,-0.3388888888888889,-0.6355555555555555,0.03629231014256827,0.1015479487810198,-1.754959684431825
1589985687.5362234,-2.1831526271893242,-1.5092827356130107,8.97652210175146,0.4507052173107219,-0.2974469465295153,-0.6249541284403669,0.04786372599427735,0.08281307087301076,-1.8281350445968985
1589985687.5462234,-2.271862506094588,-1.604453576652504,9.08056697081563,0.4577777777777778,-0.2911111111111111,-0.6233333333333333,0.03403654928796301,0.1328031962742967,-1.893929626101234
1589985687.5562234,-2.1634293611793614,-1.6051093366093367,8.586272113022114,0.4577777777777778,-0.2911111111111111,-0.6233333333333333,0.060871841889388836,0.11878885904429909,-1.9600722233678862
1589985687.5662234,-2.190049659252998,-1.8101489777589943,9.180546251782978,0.4577777777777778,-0.2911111111111111,-0.6233333333333333,0.03269783855399066,0.10617058484020131,-2.0554211690185524
1589985687.5762234,-2.3159929234851835,-1.8770661948990122,8.990160695857291,0.4577777777777778,-0.2911111111111111,-0.6233333333333333,0.05033630042048846,0.13401024218131533,-2.131668772541082
1589985687.5862234,-2.3876240533291258,-1.9241984853266014,8.681879733354371,0.47987702044107855,-0.2776060183724273,-0.6233333333333333,0.06820398814404484,0.15942991864636818,-2.2080278339520474
1589985687.5962234,-2.4508365857797387,-1.8864941455964706,8.839521466146275,0.4977777777777778,-0.26666666666666666,-0.6233333333333333,0.04635817953490496,0.14700578356273722,-2.3468027573887604
1589985687.6062233,-2.4232587890625,-1.7720234375000001,8.7652822265625,0.4977777777777778,-0.26666666666666666,-0.6233333333333333,0.053052246180028684,0.15516748301681277,-2.4269753464858095
1589985687.6162233,-2.42610029158717,-1.866601749523021,8.869227114006984,0.4977777777777778,-0.26666666666666666,-0.6233333333333333,0.05468054848333238,0.14725379151460277,-2.51970519057556
1589985687.6262233,-2.4824700776009467,-1.9971889751121632,8.866184254753241,0.4977777777777778,-0.26666666666666666,-0.6233333333333333,0.05950507664082254,0.15603707283696427,-2.574494380151153
1589985687.6362233,-2.5090866885455854,-2.056971103818138,8.817387336908668,0.5117199854140542,-0.25711367254551437,-0.6266897907272517,0.06492019198087488,0.17258203812880796,-2.613114783034709
1589985687.6462233,-2.2645382789134523,-1.9606860296611475,8.808390528165758,0.5577777777777778,-0.2255555555555556,-0.6377777777777778,0.0554222623040061,0.17248653701054464,-2.655867867165383
1589985687.6562233,-2.2901411837716235,-2.0017960851239884,8.893592170247976,0.5577777777777778,-0.2255555555555556,-0.6377777777777778,0.044889183055662536,0.16579087817905372,-2.6521629753361116
1589985687.6662233,-2.2122164957907673,-2.319869412908314,9.00170790308677,0.5577777777777778,-0.2255555555555556,-0.6377777777777778,0.03329807829500553,0.15153588831446407,-2.638630072406384
1589985687.6762233,-2.2378102437117167,-2.521897823537078,8.986131369738041,0.5577777777777778,-0.2255555555555556,-0.6377777777777778,0.044684255928425454,0.14638630651871004,-2.5890828674234614
1589985687.6862233,-2.241902140672783,-2.501902140672783,8.769633027522936,0.6125558953448862,-0.21486714237172952,-0.6417859327217126,0.0595673668217927,0.16759297302846773,-2.4722982487626077
1589985687.6962233,-2.2453702842527465,-2.6327033075626347,8.96125850142417,0.6488888888888888,-0.20777777777777776,-0.6444444444444445,0.04365751707499606,0.15715645308831339,-2.327582613203915
1589985687.7062232,-2.1177833090687077,-2.4604771521157187,8.581013948245902,0.6488888888888888,-0.20777777777777776,-0.6444444444444445,0.06294180192942013,0.16604157625707772,-2.2159012949961316
1589985687.7162232,-2.14898363143133,-2.516426272472297,8.819278817416894,0.6488888888888888,-0.20777777777777776,-0.6444444444444445,0.023433175811345422,0.12457286031446164,-2.170023645903385
1589985687.7262232,-2.2359024696525744,-2.5824227710339054,8.880617831728758,0.6488888888888888,-0.20777777777777776,-0.6444444444444445,0.010461336601446023,0.12613729747369024,-2.147797912807902
1589985687.7362232,-2.2625629347724363,-2.7089930436410143,8.916681847958325,0.9761197589016786,-0.3118966909636654,-0.7303838648518438,0.0368960232811024,0.15151563686770617,-2.131817842762056
1589985687.7462232,-2.110332015491367,-2.634347466516056,8.75951347426174,1.0888888888888888,-0.3477777777777778,-0.76,0.043981960061190054,0.14856778168534684,-2.1367227076447284
1589985687.7562232,-2.1520106456043955,-2.714412774725275,8.786491071428571,1.0888888888888888,-0.3477777777777778,-0.76,0.039723322173695806,0.1421480622274068,-2.1441199043842087
1589985687.7662232,-2.229673645320197,-2.864918411330049,8.933770397167487,1.0888888888888888,-0.3477777777777778,-0.76,0.04765646744673893,0.14881767260838244,-2.144001203166978
1589985687.7762232,-2.1136798834096346,-3.0725616614127076,8.956320116590366,1.0888888888888888,-0.3477777777777778,-0.76,0.0705025878523469,0.1604655332742508,-2.130950988601618
1589985687.7862232,-2.066904230688276,-3.4080753525573564,8.954979583245633,1.0529621366262072,-0.4053033513412381,-0.7854481161860661,0.06510769665888519,0.14578807611907088,-2.1183889253632895
1589985687.7962232,-1.9069703683190253,-3.409004233097282,8.822987300708153,0.9022222222222224,-0.6466666666666666,-0.8922222222222222,0.046367234645330324,0.12752319782593838,-2.0640552303427677
1589985687.8062232,-1.8804690565364723,-3.339249509541644,8.759718566078117,0.9022222222222224,-0.6466666666666666,-0.8922222222222222,0.05775263211526635,0.13631291490735978,-2.0053030789355093
1589985687.8162231,-1.89422083363696,-3.26,8.76577916636304,0.9022222222222224,-0.6466666666666666,-0.8922222222222222,0.04736614517324683,0.13087540993804644,-1.9780637783073889
1589985687.8262231,-1.8472042008977725,-3.2557347336325906,8.761612602693319,0.9022222222222224,-0.6466666666666666,-0.8922222222222222,0.04735537837915164,0.13166993665672497,-1.9674090768918024
1589985687.8362231,-1.842655043295109,-3.279528434355254,8.74374678212029,0.7906703591023742,-0.4104391918246353,-0.8087926775359493,0.04729822360711552,0.13141128409103808,-1.9633248784297996
1589985687.846223,-1.8053466666666667,-3.4566333333333334,8.799108888888888,0.6377777777777778,-0.08666666666666667,-0.6944444444444444,0.04185117741151986,0.12812401437180235,-1.968063929014136
1589985687.856223,-1.5221322882508197,-3.699884827641366,8.70106614412541,0.6377777777777778,-0.08666666666666667,-0.6944444444444444,0.05234731420442082,0.13426335781930343,-1.9627157824940695
1589985687.866223,-1.4253150354675692,-3.876849645324308,8.682027446798646,0.6377777777777778,-0.08666666666666667,-0.6944444444444444,0.06043801331287251,0.13795572894724142,-1.935904808903461
1589985687.876223,-1.313554861638967,-3.673279372188097,8.852798446905108,0.6377777777777778,-0.08666666666666667,-0.6944444444444444,0.0498829698712182,0.12897321014176563,-1.913154543818311
1589985687.886223,-1.2956108336534768,-3.451583749519785,8.62312235881675,0.6090598454774405,0.03411757800828105,-0.6944444444444444,0.060785424351025616,0.1398484455436121,-1.897956719390207
1589985687.896223,-1.2637970496200268,-3.6148118015198927,8.758715243629862,0.6,0.07222222222222223,-0.6944444444444444,0.057300750970901454,0.13584056731064628,-1.9303036269985383
1589985687.906223,-1.2328363064577346,-3.6871636935422654,8.761345225830938,0.6,0.07222222222222223,-0.6944444444444444,0.05360540486196086,0.12980488554455086,-1.9686719899470533
1589985687.916223,-1.210094344737841,-3.709905655262159,8.670377378951363,0.6,0.07222222222222223,-0.6944444444444444,0.05236502326704005,0.12546354996232806,-2.0058834377946777
1589985687.926223,-1.0968251582001887,-3.5348811313498585,8.754470859700032,0.6,0.07222222222222223,-0.6944444444444444,0.056164818740302644,0.1381632547440412,-2.0690680008462135
1589985687.936223,-1.010233502538071,-3.603035532994924,8.738131979695432,0.5998443316412859,0.07333784545967288,-0.694107163000564,0.06331912773605824,0.14325542896588228,-2.100740747452795
1589985687.946223,-1.062386661671038,-3.7865155488947173,8.782450355938554,0.5933333333333334,0.12,-0.68,0.06236740192858531,0.15508801844078407,-2.151385595451596
1589985687.956223,-1.0332857751882905,-3.85,8.80787920989058,0.5933333333333334,0.12,-0.68,0.06341082890988373,0.15677515494423605,-2.174114448303804
1589985687.966223,-0.9616198888016964,-3.8867602223966076,8.70702486100212,0.5933333333333334,0.12,-0.68,0.0650369584012225,0.1563422068108155,-2.1849935409751438
1589985687.976223,-0.9117937718982284,-3.882989619830381,8.723876354824977,0.5933333333333334,0.12,-0.68,0.06326818538479445,0.15230921703081915,-2.1901115655077565
1589985687.986223,1.9711802931842217,-3.2411228653468336,3.1261290992897077,0.5642762329353685,0.13761036387755443,-0.651383158698974,-0.10918893433491242,0.42783674910967984,-2.4066851846136927
1589985687.996223,5.159771353278561,-6.021473414974423,-3.317937529065261,0.52,0.16444444444444445,-0.6077777777777778,-1.2809099486633604,0.47911854826844136,-7.826070502270802
1589985688.006223,2.034555771982827,-11.823452456670378,-0.35109834631896963,0.52,0.16444444444444445,-0.6077777777777778,-2.613452269332719,0.5877859239087593,-18.26155604632292
1589985688.016223,-4.4446012593351885,-11.826815932054474,-3.531492165763655,0.52,0.16444444444444445,-0.6077777777777778,-2.918200221226681,2.0217679115594196,-18.81657887223181
1589985688.026223,-3.8299286636608034,-5.779084905061282,-2.940458076670689,0.52,0.16444444444444445,-0.6077777777777778,-4.100384859524278,2.639125552308658,-11.002334270362931
1589985688.036223,0.5149779360297027,-1.2646973431936457,5.883426762835143,0.44604035424084726,0.3287992127981172,-0.6118866469866195,-3.530686373399773,1.0388533380786682,-4.6147108086902
1589985688.046223,-0.6668790058862001,-1.5204634837584479,8.542070634401568,0.4,0.4311111111111111,-0.6144444444444445,-2.2989176696940157,0.7870087975207734,-3.680533974845318
1589985688.056223,-0.9430719415702983,-1.154513937918442,8.12218405356056,0.4,0.4311111111111111,-0.6144444444444445,-1.126246386492109,1.0622365955175102,-3.2670654145519813
1589985688.066223,-0.4858052173913044,-0.9097309565217391,7.686771478260869,0.4,0.4311111111111111,-0.6144444444444445,0.13132506099183794,0.9105911428591951,-2.9355773275751256
1589985688.076223,-0.12756140975436098,-0.8442755428978284,6.775368458526166,0.4,0.4311111111111111,-0.6144444444444445,1.2097732778827346,0.7736452286761044,-2.6515195465975765
1589985688.086223,-0.0006423994304022573,-0.821878070487718,6.013854396582413,0.4,0.4311111111111111,-0.6144444444444445,2.217179989989851,0.6294972997812298,-2.3558941331013084
1589985688.0962229,0.1476941613050917,-1.4484949034916503,6.925340128677799,0.2411111111111111,0.6533333333333333,-0.5155555555555555,4.043320997598105,0.4327938355264374,-1.789848390662136
1589985688.1062229,4.3794804839191475,-0.7754537986657373,13.373816339739122,0.2411111111111111,0.6533333333333333,-0.5155555555555555,5.275186059035528,0.2909271113068909,-1.384011459179752
1589985688.1162229,6.773158701763354,0.6859304150998503,14.853435069913475,0.2411111111111111,0.6533333333333333,-0.5155555555555555,5.463610620072787,0.20044723507499057,-0.9814182367916758
1589985688.1262228,-0.5637463631696047,0.9998901249358206,-1.674605510867705,0.2411111111111111,0.6533333333333333,-0.5155555555555555,3.9572979904823646,0.14502056652091083,-0.5346477358127094
1589985688.1362228,0.06635875964935235,0.7681525578961141,-0.9386278293863666,0.21681316963961214,0.6231250817741725,-0.5707184497070668,0.937867419684555,0.02314033445144148,0.16769232579056625
1589985688.1462228,-0.023954364664015085,0.62069709022399,-0.6080196776219384,0.2,0.6022222222222222,-0.6088888888888889,-0.449635790192943,-0.022564920543008644,0.556808259031421
1589985688.1562228,3.010252078160424,-2.099378711000756,11.280709273453525,0.2,0.6022222222222222,-0.6088888888888889,-1.536235668066527,-0.09842195317459576,0.805132685379027
1589985688.1662228,4.580982953640273,-3.872204874940258,18.389051298390953,0.2,0.6022222222222222,-0.6088888888888889,-2.211187592876153,-0.16259322009963703,0.9956877292003461
1589985688.1762228,0.8556962117887963,-1.2458918385256692,6.3069160450489985,0.2,0.6022222222222222,-0.6088888888888889,-1.4413615043997308,-0.10833493697526007,0.9959473311023612
1589985688.1862228,1.0614279109702134,-1.9150161812297735,9.172201968165908,0.20619069634326223,0.5790071109349888,-0.6212702815754133,-0.11510040660415777,-0.10623867628651616,0.871766226957621
1589985688.1962228,1.7060927306230185,-3.861851790368366,13.600657215425223,0.21333333333333332,0.5522222222222222,-0.6355555555555555,1.0603428235831147,0.047168385718433,0.7789138417799004
1589985688.2062228,1.3772214129643117,-3.7841114348142755,12.851008739985431,0.21333333333333332,0.5522222222222222,-0.6355555555555555,1.4660420114865707,0.1757580243011151,0.9317144821469521
1589985688.2162228,-1.040944061475873,-0.48617290089275633,7.327673183410555,0.21333333333333332,0.5522222222222222,-0.6355555555555555,0.25835145524715686,-0.18709169241875717,1.8465934317200354
1589985688.2262228,0.49504350560855426,-2.0320767376035223,12.242433798092044,0.21333333333333332,0.5522222222222222,-0.6355555555555555,-0.5938097861532062,-0.24549874628615143,2.237603607796656
1589985688.2362227,1.3338263873893328,-2.5828309220470738,12.318300583027424,0.21811271863528395,0.556205043307181,-0.6383435303150268,-0.7837731058357027,-0.11519488699795817,2.188313018164178
1589985688.2462227,1.252228984170893,-4.709412017826955,7.366821884124788,0.22666666666666666,0.5633333333333334,-0.6433333333333333,-0.1245591289150888,-0.071698914248537,2.122748019007577
1589985688.2562227,2.0485870296793243,-6.657798258755075,8.546169695390695,0.22666666666666666,0.5633333333333334,-0.6433333333333333,0.143856112956644,-0.0849077680965538,2.171630843191209
1589985688.2662227,0.7937951384010118,-3.2445061121258956,10.15359983138963,0.22666666666666666,0.5633333333333334,-0.6433333333333333,-0.17693223179901135,-0.2186213718181073,2.408600042555207
1589985688.2762227,0.37307538633292203,-2.8436271226276517,7.850846700746224,0.22666666666666666,0.5633333333333334,-0.6433333333333333,-0.11860937224699461,-0.19358532090948755,2.612593948348475
1589985688.2862227,0.6207838062834805,-4.299401151006225,8.791153720862892,0.2480493219439216,0.5532359683412963,-0.6433333333333333,0.010948165710983455,-0.16808352836186063,2.6594204748557235
1589985688.2962227,0.7298630136986302,-4.335068493150684,9.372191780821916,0.30666666666666664,0.5255555555555556,-0.6433333333333333,-0.11465677526157954,-0.19579665401439816,2.7268677558171
1589985688.3062227,0.22144129595947576,-3.757362355300957,9.530133607574495,0.30666666666666664,0.5255555555555556,-0.6433333333333333,-0.08738967684013682,-0.20258008354448404,2.957293261487154
1589985688.3162227,0.24995988373081304,-4.249307994356525,9.829578779173538,0.30666666666666664,0.5255555555555556,-0.6433333333333333,-0.014283636316527848,-0.19635829286162368,3.0716186652847126
1589985688.3262227,0.0019343672648514856,-3.6133102568069306,8.944916460396039,0.30666666666666664,0.5255555555555556,-0.6433333333333333,-0.10675822826897378,-0.2276080909129539,3.221323794172891
1589985688.3362226,-0.02488479262672811,-3.3228264208909373,8.498402457757296,0.3189691073562041,0.5235654548557774,-0.6433333333333333,-0.06636473728349407,-0.2277054800703393,3.3713055303996575
1589985688.3462226,-0.17662061729474515,-4.254061029990382,9.18829360846376,0.38222222222222224,0.5133333333333333,-0.6433333333333333,-0.09801098843467466,-0.24831478507478105,3.5184726192537656
1589985688.3562226,1.1013320991629105,-6.868157598197038,8.119888924661945,0.38222222222222224,0.5133333333333333,-0.6433333333333333,-0.09358711755795356,-0.25311743188594943,3.633511768146039
1589985688.3662226,2.7878616652729664,-7.490211683191973,6.674210488591566,0.38222222222222224,0.5133333333333333,-0.6433333333333333,-0.2645081821656421,-0.38667622587476524,3.2342307052490726
1589985688.3762226,-1.0088680136137396,-1.2756451771556727,10.739128287855836,0.38222222222222224,0.5133333333333333,-0.6433333333333333,-0.3664829829009361,-0.3464135721027415,1.5567360671686703
1589985688.3862226,-1.4152331703207994,-1.6687757680698225,10.25655146594286,0.40079920339648445,0.489754857227539,-0.6479775786268989,0.020248863858214727,0.03169573380758384,0.027160708904571007
1589985688.3962226,-0.6369589262054266,-0.8808767786162798,4.559422777809782,0.44,0.44,-0.6577777777777778,0.723529539230913,0.4404341295728128,0.12692984026348839
1589985688.4062226,0.172608776670083,-4.936232181123637,6.836721326749278,0.44,0.44,-0.6577777777777778,0.22969625718061581,0.19249438448658784,0.22097835138904026
1589985688.4162226,0.22597648087856537,-7.752847806015842,8.204462072987026,0.44,0.44,-0.6577777777777778,-0.3694618522975779,-0.2521484322058874,-0.03682737271907091
1589985688.4262226,-0.37045901369637635,-5.1503858018344095,8.831635750421585,0.44,0.44,-0.6577777777777778,-0.3362049227209408,-0.2637871827162104,-0.32351228798362963
1589985688.4362226,0.18039460838345983,-3.9313497937202784,8.598367713286933,0.44836771328693353,0.43488639743576285,-0.6456910808077627,0.05121768810193796,0.0803878698132559,-0.15266543182491474
1589985688.4462225,-0.04673648620789178,-4.5586890281614645,8.871338803446996,0.46,0.42777777777777776,-0.6288888888888889,0.07200857216363192,0.03405159193553388,0.02955437183447264
1589985688.4562225,0.13941772151898735,-4.352622061482822,8.756799276672695,0.46,0.42777777777777776,-0.6288888888888889,-0.027916983241156133,-0.0118827570230717,0.0063437826338311075
1589985688.4662225,0.09177855772762519,-4.301660817042811,8.595300575439742,0.46,0.42777777777777776,-0.6288888888888889,-0.006786540742231145,0.0029577037720891126,0.002375672116766962
1589985688.4762225,0.024745345112808417,-4.422231882017528,8.95186336278202,0.46,0.42777777777777776,-0.6288888888888889,-0.012351908774986885,-0.0014282430846533267,0.0008396912890499275
1589985688.4862225,-0.1524099820492063,-4.525572489528704,8.508975044876985,0.46,0.42777777777777776,-0.6288888888888889,0.01099870805999282,0.0009873379672411253,3.449760508511014e-05
1589985688.4962225,-0.02084619968579013,-4.477461400942629,8.689644076060459,0.46,0.4388888888888889,-0.6711111111111111,-0.004271017063445954,0.002419754485664575,0.0013750767364380538
1589985688.5062225,-0.07211370204679521,-4.300788629795321,8.503406706520447,0.46,0.4388888888888889,-0.6711111111111111,0.0018375569023011285,0.00012903924850941884,0.002138648482156439
1589985688.5162225,0.06263857108705304,-4.362266316041119,8.742448345343396,0.46,0.4388888888888889,-0.6711111111111111,-0.002593093386375066,0.003272492347489368,0.001090830782496456
1589985688.5262225,-0.06669367404175756,-4.459098274738661,8.546612651916485,0.46,0.4388888888888889,-0.6711111111111111,0.006217108137504377,0.0032397046917419323,0.0009924678152541482
1589985688.5362225,0.019689239060394822,-4.405175736629372,8.750972995137953,0.46,0.4348768867279792,-0.6668483588151446,-0.0031324562828276034,0.002181661564992912,-0.0016893148261296238
1589985688.5462224,-0.01663702216165818,-4.334827990150375,8.734827990150375,0.46,0.4211111111111111,-0.6522222222222223,-0.0009310227298263399,0.0025860322674574714,0.0
1589985688.5562224,0.024977157970666027,-4.363755710507334,8.692397210867997,0.46,0.4211111111111111,-0.6522222222222223,-0.0031342697405223967,0.002043438958025941,0.00040968446315447566
1589985688.5662224,0.0040316514803503374,-4.386126605921401,8.620316514803504,0.46,0.4211111111111111,-0.6522222222222223,-0.004169325459840943,-0.00043978495390635536,0.0015306157364028113
1589985688.5762224,0.006642259414225941,-4.383138075313807,8.669926778242678,0.46,0.4211111111111111,-0.6522222222222223,-0.006529010185611633,-0.001090830782496456,0.0018153888859329095
1589985688.5862224,0.0072587213891081295,-4.3499614838200475,8.66270276243094,0.4612097868981847,0.4243372095062703,-0.6532303779707095,-0.0023796124833130265,-0.001090830782496456,0.0012887817008165705
1589985688.5962224,0.03265085119074933,-4.4216271279768735,8.697952553572248,0.4666666666666667,0.4388888888888889,-0.6577777777777778,0.0007358465256495396,0.0005125047667591067,0.0017808276776790212
1589985688.6062224,0.012757187129935246,-4.371892967824838,8.649135780694904,0.4666666666666667,0.4388888888888889,-0.6577777777777778,0.004870576346790344,0.002877458185962961,0.0014858649440228629
1589985688.6162224,0.0,-4.358341974627689,8.641005184776613,0.4666666666666667,0.4388888888888889,-0.6577777777777778,0.0008003196214260815,0.0017815017542798712,0.0009811821328537895
1589985688.6262224,0.002633253146185809,-4.376833734269071,8.683699278315672,0.4666666666666667,0.4388888888888889,-0.6577777777777778,0.0004582014110138396,0.001378074141492968,-0.000803587423499944
1589985688.6362224,0.01,-4.346373561907245,8.740439657139133,0.4666666666666667,0.4380036719573271,-0.6565384740735912,-0.003668075377728851,0.0018340376888644255,0.00034762387612848636
1589985688.6462224,0.004600982915984086,-4.369201965831968,8.711596068336064,0.4666666666666667,0.43333333333333335,-0.65,0.0,0.0,0.002181661564992912
1589985688.6562223,-0.0094216174651466,-4.341156765069707,8.767686469860585,0.4666666666666667,0.43333333333333335,-0.65,0.0,0.0,0.002181661564992912
1589985688.6662223,0.0025296097339977995,-4.352529609733998,8.637707268137984,0.4666666666666667,0.43333333333333335,-0.65,-0.005178216295927533,-0.0005389555493869617,0.0
1589985688.6762223,0.00931606368519837,-4.359316063685199,8.685212445796388,0.4666666666666667,0.43333333333333335,-0.65,-0.004437929008531105,0.0009416190254058949,0.0
1589985688.6862223,0.002347477574909345,-4.37234747757491,8.646259940199759,0.4650147380028416,0.43289861526390566,-0.6506086052971988,-0.001840234791668746,-0.0029310655741652024,0.0008347607025033316
1589985688.6962223,0.029030472676378902,-4.39903047267638,8.717414593803678,0.4462378155240296,0.4279573198747446,-0.6575264188420242,0.0020406495317826056,0.0009498187492861495,-0.0020759025400851824
1589985688.7062223,0.01,-4.36431055061367,8.69724220245468,0.4455555555555555,0.42777777777777776,-0.6577777777777778,0.0017114534351029297,0.003272492347489368,-0.0007805194561932192
1589985688.7162223,0.01273357703472745,-4.358200731104182,8.637266422965274,0.4455555555555555,0.42777777777777776,-0.6577777777777778,0.0014833703620057172,0.002676118352328151,0.0
1589985688.7262223,0.017457320712884795,-4.369829282851539,8.650341434296923,0.4455555555555555,0.42777777777777776,-0.6577777777777778,-0.003272492347489368,0.001368194066136597,0.0
1589985688.7362223,0.010304084591114522,-4.3412163383644575,8.707567323271086,0.4455555555555555,0.42777777777777776,-0.6577777777777778,-0.003272492347489368,0.002148491081745855,0.0
1589985688.7462223,0.02,-4.356285114554955,8.706857442722523,0.46,0.42777777777777776,-0.65,-0.0015584932404739793,0.0,0.0007480309610933783
1589985688.7562222,0.017147210442113817,-4.375705579115772,8.668619314863252,0.46,0.42777777777777776,-0.65,0.0003145151655568896,0.0009335731997180112,0.0
1589985688.7662222,0.0042243616575973215,-4.375560904143993,8.613102553369611,0.46,0.42777777777777776,-0.65,-0.004993347539231788,0.002327455733620421,0.0
1589985688.7762222,-0.007344873013490754,-4.346637817466273,8.67,0.46,0.42777777777777776,-0.65,-0.006110540557730535,0.0002896294248321339,0.0002896294248321339
1589985688.7862222,0.0066438207680891165,-4.3816095519202225,8.67,0.46,0.42777777777777776,-0.65,-0.0038216458901509237,0.0018155592032185416,0.0018155592032185416
1589985688.7962222,0.01,-4.380752275025278,8.73,0.46,0.4211111111111111,-0.6577777777777778,-0.0030263109211463865,0.002017540614097591,0.0010087703070487954
1589985688.8062222,0.01,-4.388463094034378,8.73,0.46,0.4211111111111111,-0.6577777777777778,-0.0005029513011308227,0.00033530086742054855,0.00016765043371027427
1589985688.8162222,0.015707094738423782,-4.364292905261577,8.640732263153941,0.46,0.4211111111111111,-0.6577777777777778,0.000234141660283417,0.003038350687205951,-0.001479236584142661
1589985688.8262222,0.0020183853679934393,-4.375963229264013,8.684036770735986,0.46,0.4211111111111111,-0.6577777777777778,0.0006504874044269198,0.00240183325402768,0.0013110024715312241
1589985688.8362222,0.00997882899289747,-4.360042342014205,8.7,0.459985885995265,0.4211252251158461,-0.6577965964507578,-0.0010954495797452345,0.0032701829488649787,0.0021793521663685225
1589985688.8462222,0.0004307047896558013,-4.3791385904206885,8.7,0.4536204698597705,0.42749064125134056,-0.6662838179647503,-0.003178527138944327,0.0022286441692654325,0.0011378133867689768
1589985688.8562222,0.02263649025069638,-4.362636490250696,8.68099860724234,0.4533333333333333,0.42777777777777776,-0.6666666666666666,-5.955510678810742e-05,0.0,-0.0005156378378541743
1589985688.8662221,0.027492702072856617,-4.364985404145713,8.61504378756286,0.4533333333333333,0.42777777777777776,-0.6666666666666666,-0.003272492347489368,0.0002735037759817558,0.0008173270065147001
1589985688.8762221,0.02,-4.356306035516052,8.67471408287079,0.4533333333333333,0.42777777777777776,-0.6666666666666666,-0.003272492347489368,0.000861536860615597,0.000458587843761718
1589985688.8862221,0.02,-4.379509303140386,8.728855040660902,0.4533333333333333,0.42777777777777776,-0.6666666666666666,-0.003272492347489368,1.7842241311371177e-05,0.0021459770823701696
1589985688.896222,-0.002116468378209142,-4.39,8.703650594865373,0.46,0.4388888888888889,-0.6711111111111111,-0.0030416214617762795,0.00046174177142617673,-0.0006290890110702792
1589985688.906222,-0.009620359602826728,-4.39,8.68113892119152,0.46,0.4388888888888889,-0.6711111111111111,-0.0022230739081444905,0.002098836878689755,0.0010080060961932989
1589985688.916222,0.017780009810562707,-4.37,8.653319941136624,0.46,0.4388888888888889,-0.6711111111111111,0.001090830782496456,0.003636833039342322,0.0007264900906435018
1589985688.926222,0.011610953589016565,-4.368389046410983,8.701610953589016,0.46,0.4388888888888889,-0.6711111111111111,0.001090830782496456,0.001090830782496456,0.002745309018267644
1589985688.936222,0.019434972392180273,-4.36056502760782,8.709434972392181,0.46,0.4388888888888889,-0.6711111111111111,0.001090830782496456,0.001090830782496456,0.00018490485227102855
1589985688.946222,0.0028194260485651206,-4.368590286975717,8.727180573951435,0.45427314201618835,0.43411650723571255,-0.6548850134903116,-0.0035944439492990284,0.00296494067521465,0.0
1589985688.956222,0.03355494361395227,-4.362148352128683,8.70421977445581,0.4533333333333333,0.43333333333333335,-0.6522222222222223,-0.003038143484128494,0.0015595285092182046,-0.0008564819191355817
1589985688.966222,0.012873928307023618,-4.37,8.615747856614046,0.4533333333333333,0.43333333333333335,-0.6522222222222223,-0.001868164618593983,0.0029589954010904394,0.00015674847319946446
1589985688.976222,0.0275154087921956,-4.368757704396098,8.65496918241561,0.4533333333333333,0.43333333333333335,-0.6522222222222223,-0.0002710268571393088,0.0013618576396357649,0.0012263442110661104
1589985688.986222,0.010395118168088496,-4.360197559084044,8.689209763663822,0.4533333333333333,0.43333333333333335,-0.6522222222222223,-0.002138560858945458,0.003229391641441915,0.002160111211969185
1589985688.996222,0.03,-4.371009323841711,8.732934733108028,0.4533333333333333,0.42777777777777776,-0.6288888888888889,-0.004143122826776765,0.00283209174107125,0.0020715614133883825
1589985689.006222,0.026758673637260994,-4.38,8.665138010455891,0.4533333333333333,0.42777777777777776,-0.6288888888888889,-0.0019164811720484383,-0.0008256503895519824,0.001267617711126105
1589985689.016222,-0.003909260410192669,-4.38,8.61913610938471,0.4533333333333333,0.42777777777777776,-0.6288888888888889,0.0005925333150415806,0.0016833640975380366,0.0029402940358527847
1589985689.026222,0.0012781265908705245,-4.35872187340913,8.650225012726965,0.4533333333333333,0.42777777777777776,-0.6288888888888889,0.0027148044157898395,0.0020422395820680296,0.0009514087995715738
1589985689.036222,0.008395554047174614,-4.351604445952825,8.707164432377397,0.4533333333333333,0.42777777777777776,-0.6288888888888889,-0.00039075916881894024,0.001265848685915835,0.00017501790341937888
1589985689.046222,0.014435943909186302,-4.367217971954593,8.738608985977297,0.4533333333333333,0.4388888888888889,-0.6577777777777778,-0.00045520827445473587,-0.0003034721829698239,0.002029925473508
1589985689.056222,-0.01757245063436039,-4.35121377468282,8.73060688734141,0.4533333333333333,0.4388888888888889,-0.6577777777777778,-0.003073888929434161,-0.002049259286289441,0.0011570319218481915
1589985689.066222,-0.009275823430950767,-4.355362088284525,8.703189558577376,0.4533333333333333,0.4388888888888889,-0.6577777777777778,-0.0026875792515670613,0.0007429039146186218,0.001090830782496456
1589985689.076222,0.004752028006248706,-4.36,8.681584009335415,0.4533333333333333,0.4388888888888889,-0.6577777777777778,-0.001663295722142777,0.003272492347489368,0.0007452535539296994
1589985689.086222,0.028434812068284052,-4.36,8.689478270689428,0.4533333333333333,0.4388888888888889,-0.6577777777777778,0.0009200952648656842,0.003272492347489368,-0.0009770071040759414
1589985689.096222,0.01,-4.35255649288435,8.726165260673476,0.46,0.4455555555555555,-0.6666666666666666,-0.0051752837991340395,0.0004183051700223598,0.00013943505667411991
1589985689.106222,0.009035611405669436,-4.37,8.688427336868033,0.46,0.4455555555555555,-0.6666666666666666,-0.0029568969179940884,0.0029568969179940884,0.0009856323059980294
1589985689.116222,0.00028034066713981433,-4.37,8.583364088005677,0.46,0.4455555555555555,-0.6666666666666666,-9.174126879051133e-05,9.174126879051133e-05,3.058042293017037e-05
1589985689.126222,0.0010139881374116885,-4.3679720237251765,8.673041964412235,0.46,0.4455555555555555,-0.6666666666666666,-0.0007590039404839811,0.003051274452814385,0.0
1589985689.136222,0.00950464584303326,-4.350990708313933,8.6985139375291,0.46,0.4455555555555555,-0.6666666666666666,0.002019557296195842,0.001198900295027836,0.0
1589985689.1462219,0.02691808171661356,-4.367945387811075,8.736918081716613,0.4533333333333333,0.43333333333333335,-0.6433333333333333,0.0007546456492307995,0.0022937232760814642,0.0009787690714079039
1589985689.1562219,0.0015421691606501836,-4.351028112773767,8.711542169160651,0.4533333333333333,0.43333333333333335,-0.6433333333333333,-0.0020134370057675183,0.0032164174944142366,5.607485307513151e-05
1589985689.1662219,0.006929951095943426,-4.363859902191887,8.640700489040565,0.4533333333333333,0.43333333333333335,-0.6433333333333333,-0.0014257211673278979,0.0017606115521593398,-0.0007559403976650141
1589985689.1762218,0.0012460235193194422,-4.37,8.680031811845444,0.4533333333333333,0.43333333333333335,-0.6433333333333333,-0.0030006521853717253,0.001090830782496456,-0.00013592008105882143
1589985689.1862218,0.019457121173792054,-4.37,8.69648570705793,0.4533333333333333,0.43333333333333335,-0.6433333333333333,-0.0018575305664803045,0.0025057925635055198,-0.0007074808905045317
1589985689.1962218,0.021596320777255713,-4.37,8.733614716890978,0.4533333333333333,0.43333333333333335,-0.6433333333333333,-0.001090830782496456,0.001439093951010296,0.0007425676139826156
1589985689.2062218,0.006118490869835694,-4.363059245434918,8.719177736304754,0.4533333333333333,0.43333333333333335,-0.6433333333333333,-0.001090830782496456,0.002605068529165339,0.00033371190916201454
1589985689.2162218,0.0,-4.369026266819353,8.61973733180647,0.4533333333333333,0.43333333333333335,-0.6433333333333333,-0.00010621781273879405,0.0013032664079740438,-0.001969225939515324
1589985689.2262218,0.009011045679874905,-4.362966862960375,8.681977908640249,0.4533333333333333,0.43333333333333335,-0.6433333333333333,0.001090830782496456,0.0019659052020178504,0.0008750744195213942
1589985689.2362218,0.0020338024420268157,-4.383898592673919,8.695932395115946,0.4533333333333333,0.43333333333333335,-0.6433333333333333,0.001090830782496456,0.0004437068618558628,-0.0006471239206405932
1589985689.2462218,0.0,-4.3675619148293565,8.7,0.4533333333333333,0.43333333333333335,-0.6538044397463002,0.0025594000227613543,0.0009790461601765987,-0.0001117846223198573
1589985689.2562218,0.0010363286533442554,-4.342072657306688,8.69274569942659,0.4533333333333333,0.43333333333333335,-0.6666666666666666,0.003911139451645419,0.001729477886652507,0.0007516930237411522
1589985689.2662218,0.009026536871582879,-4.358053073743166,8.63681424189892,0.4533333333333333,0.43333333333333335,-0.6666666666666666,0.00042475341844107947,-0.0017569081465518325,-0.0018630965011621032
1589985689.2762218,0.02,-4.360462097714207,8.662772586285241,0.4533333333333333,0.43333333333333335,-0.6666666666666666,-0.002181661564992912,-0.0020808474827573305,0.00010081408223558134
1589985689.2862217,0.02,-4.368748444198589,8.712490665191536,0.4533333333333333,0.43333333333333335,-0.6666666666666666,-0.002181661564992912,-0.0002730471188381392,0.0019086144461547727
1589985689.2962217,0.00910231355985627,-4.360897686440144,8.74,0.44,0.43333333333333335,-0.6522222222222223,-0.0020837391647990674,0.0009929083823026117,0.0018878943644113789
1589985689.3062217,0.00028872218369791446,-4.369711277816302,8.74,0.44,0.43333333333333335,-0.6522222222222223,-0.001122325487053184,3.149470455672803e-05,-0.000996346668826272
1589985689.3162217,0.0,-4.360581338657628,8.61755740254916,0.44,0.43333333333333335,-0.6522222222222223,-0.0021182473547133604,0.0,0.000964002361937353
1589985689.3262217,0.039349450610279266,-4.351951648169162,8.68,0.44,0.43333333333333335,-0.6522222222222223,-0.0030596005575368687,-0.002323589424961245,-0.000948902922528123
1589985689.3362217,0.03354515512994381,-4.369364534610169,8.68,0.44,0.43333333333333335,-0.6522222222222223,-0.001160149303340381,-0.0035898902610922365,0.00031739791360286835
1589985689.3462217,0.01832844784442697,-4.368328447844427,8.709178880388933,0.44324209782099244,0.4404659485395168,-0.6554643200432148,0.0,-0.004363323129985824,0.001090830782496456
1589985689.3562217,0.01605371487950122,-4.36,8.693677710722993,0.4455555555555555,0.4455555555555555,-0.6577777777777778,0.0013207157078033507,-0.001061533860477447,-0.00022988492530689477
1589985689.3662217,0.011042095491786738,-4.38687371352464,8.607294668442506,0.4455555555555555,0.4455555555555555,-0.6577777777777778,0.00022734996814835137,-0.001840636612770385,0.0028177924111926654
1589985689.3762217,0.01,-4.35,8.65060371425764,0.4455555555555555,0.4455555555555555,-0.6577777777777778,-0.0021651978125912753,-0.0011072945348980926,0.0
1589985689.3862216,0.01,-4.35,8.683574530804755,0.4455555555555555,0.4455555555555555,-0.6577777777777778,-0.001266058272250333,-0.002006434075239035,0.0
1589985689.3962216,0.017169791290685577,-4.364339582581371,8.711509373872056,0.4559119207532125,0.43679247731138426,-0.6522012734405779,-0.0018729336868919383,-0.0013995586605974296,0.0007821029043954823
1589985689.4062216,0.02,-4.37,8.72,0.46,0.43333333333333335,-0.65,-0.0011067591584229806,-0.002165733189066387,0.001090830782496456
1589985689.4162216,0.01232947827372155,-4.354658956547443,8.658635826189773,0.46,0.43333333333333335,-0.65,-0.001090830782496456,-0.002181661564992912,-0.0014193415825532608
1589985689.4262216,0.0296794568732389,-4.369679456873239,8.680320543126761,0.46,0.43333333333333335,-0.65,-0.001090830782496456,-0.0010791755055035003,-0.0021466957340140454
1589985689.4362216,0.005883810208211198,-4.345883810208211,8.70411618979179,0.46,0.43333333333333335,-0.65,-0.001090830782496456,-0.0002139413764494553,0.00044900665314809036
1589985689.4462216,0.009516517964793827,-4.368549553894382,8.71,0.46,0.43333333333333335,-0.6436556546901374,-5.2739708678692983e-05,0.001038091073817763,5.2739708678692983e-05
1589985689.4562216,0.02977311367766899,-4.389773113677669,8.709319341033007,0.46,0.43333333333333335,-0.6433333333333333,0.0010660813240438484,-0.0032642425280051657,0.0010825809630122534
1589985689.4662216,0.0051832092396083725,-4.365183209239609,8.635549627718824,0.46,0.43333333333333335,-0.6433333333333333,-0.0016162611459244259,-0.002370128371349074,0.00018846680635616205
1589985689.4762216,0.0,-4.3752578935238535,8.681031574095414,0.46,0.43333333333333335,-0.6433333333333333,-0.0005172835718056483,-0.0005172835718056483,0.0
1589985689.4862216,0.0052729332200623,-4.374727066779938,8.7,0.46,0.43333333333333335,-0.6433333333333333,-0.0005751877870492115,0.001150375574098423,0.001150375574098423
1589985689.4962215,0.01,-4.37,8.721319398059014,0.4564467669901641,0.43333333333333335,-0.6510320048546444,-0.0016722271741731846,0.001600265173316183,0.001600265173316183
1589985689.5062215,0.01931826636904762,-4.37,8.712045200892858,0.4533333333333333,0.43333333333333335,-0.6577777777777778,-0.002181661564992912,-0.002975029935446994,7.436560301059356e-05
1589985689.5162215,0.011188755376224893,-4.37,8.630698798386023,0.4533333333333333,0.43333333333333335,-0.6577777777777778,0.0007018114953231758,-0.0003890192871732804,0.0
1589985689.5262215,0.01,-4.37,8.645988206876954,0.4533333333333333,0.43333333333333335,-0.6577777777777778,0.0001458729143875506,0.0009449578681089054,0.0009449578681089054
1589985689.5362215,0.0176578686414752,-4.362342131358525,8.695947211848852,0.4533333333333333,0.43333333333333335,-0.6577777777777778,-0.0008353438842435463,-0.0022505447544777296,0.001090830782496456
1589985689.5462215,0.007400114388430428,-4.3537000571942155,8.728899828417354,0.4484333778177229,0.42563340323737414,-0.6577777777777778,-0.001090830782496456,-0.003272492347489368,0.0017780479365481696
1589985689.5562215,0.008534130792923143,-4.35,8.731465869207078,0.4455555555555555,0.4211111111111111,-0.6577777777777778,0.0007710277316578344,-0.00047970457625793207,0.0003198030508386215
1589985689.5662215,0.016608583301323462,-4.363217166602647,8.657305583685442,0.4455555555555555,0.4211111111111111,-0.6577777777777778,0.0018117153918740245,-0.0007208846093775686,0.0007208846093775686
1589985689.5762215,0.00414880512441488,-4.37,8.675479182064548,0.4455555555555555,0.4211111111111111,-0.6577777777777778,0.0004525644340290791,0.0006382663484673769,-0.0006382663484673769
1589985689.5862215,0.03075000533128612,-4.37,8.682312498667178,0.4455555555555555,0.4211111111111111,-0.6577777777777778,0.0008385763094324257,0.0019294070919288818,-0.00025225447306403026
