time,acc_x,acc_y,acc_z,mag_x,mag_y,mag_z,gyr_x,gyr_y,gyr_z
1589986047.074107,-4.02,-0.3,9.02,0.3233333333333333,-0.3911111111111111,-0.6022222222222222,-0.00545415391248228,-0.001090830782496456,0.009817477042468105
1589986047.084107,-4.035158568098447,-0.32273785214767164,9.065475704295343,0.3233333333333333,-0.37174182965198344,-0.61317007695999,-0.0013202957373933868,-0.00026405914747867736,-0.005064412387851913
1589986047.094107,-4.04,-0.32411317097313014,9.05645268389252,0.3233333333333333,-0.3655555555555556,-0.6166666666666667,-0.0012843068627606594,-0.0019264602941409894,-0.014312551062130412
1589986047.104107,-4.04,-0.3366127935956499,9.001236814943484,0.3233333333333333,-0.3655555555555556,-0.6166666666666667,-0.0015776033437464164,-0.00025220124125689,-0.02349387473240825
1589986047.114107,-4.025080092003122,-0.3301067893374954,8.99486651332813,0.3233333333333333,-0.3655555555555556,-0.6166666666666667,0.0005366787090045509,0.001639158401159243,-0.02998910983640886
1589986047.124107,-4.023126409138734,-0.31,9.028750939425823,0.3233333333333333,-0.3655555555555556,-0.6166666666666667,0.002658951270065388,0.001090830782496456,-0.032111382397469704
1589986047.1341069,-4.049982075181808,-0.31,9.04998207518181,0.3233333333333333,-0.3655555555555556,-0.619994025060603,0.002728054603413817,0.0005463930384209049,-0.03218048573081813
1589986047.1441069,-4.048519107463452,-0.32722133880482174,9.071480892536549,0.3233333333333333,-0.3655555555555556,-0.6233333333333333,0.002181661564992912,0.0006261855494700097,-0.034138834890277255
1589986047.1541069,-4.0666465428385115,-0.3240120742968931,9.021377605755275,0.3233333333333333,-0.3655555555555556,-0.6233333333333333,0.0016003241814857344,-0.0012345187515322542,-0.039485440123426106
1589986047.1641068,-4.110903868046914,-0.31,9.0065817690821,0.3233333333333333,-0.3655555555555556,-0.6233333333333333,0.0005207662140260012,-0.0009922340736075491,-0.04881311077053678
1589986047.1741068,-4.110282026965736,-0.3198589865171319,9.054788479775697,0.3233333333333333,-0.3655555555555556,-0.6233333333333333,0.0005377242988552501,0.0005531064836412059,-0.06260740360765155
1589986047.1841068,-4.084325526625671,-0.3186510532513411,9.064325526625671,0.31639786587581953,-0.3617725733060026,-0.6195503510837803,0.001090830782496456,-0.0030949451155875504,-0.07709389109344474
1589986047.1941068,-4.084761660006964,-0.324284980020891,9.04571501997911,0.3111111111111111,-0.3588888888888889,-0.6166666666666667,0.001090830782496456,-0.0033764877879309744,-0.0838899748117855
1589986047.2041068,-4.092160542797495,-0.34,9.01271565762004,0.3111111111111111,-0.3588888888888889,-0.6166666666666667,0.0013265094415372874,-0.0008551521234556246,-0.08452588120393421
1589986047.2141068,-4.09657530508012,-0.33828765254006005,8.95513704237982,0.3111111111111111,-0.3588888888888889,-0.6166666666666667,0.002181661564992912,0.0,-0.0766719350201127
1589986047.2241068,-4.073496604627766,-0.33325169768611673,9.006013581488935,0.3111111111111111,-0.3588888888888889,-0.6166666666666667,0.002891071951270631,-0.00035470519313885953,-0.06372975139025282
1589986047.2341068,-4.060310299295774,-0.3398448503521127,9.058758802816902,0.3111111111111111,-0.3588888888888889,-0.6166666666666667,0.0043294747276240286,-0.001073906581315558,-0.055818536120309126
1589986047.2441068,-4.0233572987768955,-0.3332854024462077,9.08,0.3111111111111111,-0.3655555555555556,-0.6166666666666667,0.007277433665353942,0.002547886050180515,-0.04507460122140959
1589986047.2541068,-4.028565336946559,-0.3228693261068824,9.069957358625912,0.3111111111111111,-0.3655555555555556,-0.6166666666666667,0.007787661487249237,0.0034289898096097698,-0.03988659511366131
1589986047.2641068,-4.015332861674692,-0.34,9.033335691626538,0.3111111111111111,-0.3655555555555556,-0.6166666666666667,0.0011634499347100299,0.004363323129985824,-0.029015944464476445
1589986047.2741067,-4.005680703141349,-0.3443192968586509,9.072957890575953,0.3111111111111111,-0.3655555555555556,-0.6166666666666667,-0.00047116219721566645,0.003420998735554491,-0.025857282970764398
1589986047.2841067,-3.995185969156335,-0.3596280616873299,9.085185969156335,0.32394852669421764,-0.3655555555555556,-0.6097130665591506,-4.0572176065033e-05,0.0016565322617772005,-0.024523406518137742
1589986047.2941067,-3.9743443457024625,-0.359562897134975,9.027814485674876,0.3377777777777778,-0.3655555555555556,-0.6022222222222222,0.001090830782496456,-4.7680526028664886e-05,-0.025089107997418484
1589986047.3041067,-3.9723442477000694,-0.3582294984667128,8.959426253833218,0.3377777777777778,-0.3655555555555556,-0.6022222222222222,0.00019313175729668188,0.0020511158057027537,-0.026884506047818033
1589986047.3141067,-4.001072174307762,-0.35892782569223786,8.955835073384778,0.3377777777777778,-0.3655555555555556,-0.6022222222222222,-0.001090830782496456,0.004934602219768958,-0.029049835508601865
1589986047.3241067,-4.028947803771024,-0.33552609811448814,9.004473901885511,0.3377777777777778,-0.3655555555555556,-0.6022222222222222,-0.001090830782496456,0.002181661564992912,-0.02689751937653226
1589986047.3341067,-4.045105562518076,-0.34021112503615153,9.045738937626531,0.3241629443962424,-0.3695265486251701,-0.5948475208072238,-0.0022046917338318906,0.0016247310893251947,-0.023975247046083052
1589986047.3441067,-4.05,-0.35,9.074897713598075,0.3111111111111111,-0.37333333333333335,-0.5877777777777777,-0.003829065454322698,0.001647403889329786,-0.020681154005092253
1589986047.3541067,-4.0563591503969105,-0.3563591503969105,9.038204248015449,0.3111111111111111,-0.37333333333333335,-0.5877777777777777,-0.0040164852798120956,0.0018348237148191836,-0.015769420501049923
1589986047.3641067,-4.077584831786543,-0.3624151682134571,8.975056554524363,0.3111111111111111,-0.37333333333333335,-0.5877777777777777,-0.0043756614131985165,0.001090830782496456,-0.0076111389110498084
1589986047.3741066,-4.096919689268799,-0.33691968926879984,9.005401553656,0.3111111111111111,-0.37333333333333335,-0.5877777777777777,-0.007635815477475192,0.0007548210059717233,0.002605276759275605
1589986047.3841066,-4.09086346309345,-0.3308634630934504,9.035682684532746,0.3111111111111111,-0.37333333333333335,-0.5877777777777777,-0.007635815477475192,9.418921218852972e-05,0.009872226490890734
1589986047.3941066,-4.083588524231142,-0.3228229515377155,9.090765572693426,0.33,-0.3655555555555556,-0.6022222222222222,-0.005146217668998704,-0.0008664055650357452,0.023157979510494173
1589986047.4041066,-4.073522814564449,-0.33883507451221384,9.052329850975573,0.33,-0.3655555555555556,-0.6022222222222222,-0.005646293640878683,-0.00481266865703585,0.03035112218150437
1589986047.4141066,-4.040103155870268,-0.3635052597837806,8.973298948043244,0.33,-0.3655555555555556,-0.6022222222222222,-0.0036436043149004507,-0.005094294504939593,0.030554514469769162
1589986047.4241066,-4.02,-0.33374779942636734,8.994991197705469,0.33,-0.3655555555555556,-0.6022222222222222,-0.0005463755726312978,-0.004772144628076227,0.025499849858275025
1589986047.4341066,-4.022345239175819,-0.3446904783516384,9.029380956703276,0.32843650721612055,-0.3655555555555556,-0.6110820146642059,0.002181661564992912,-0.005198328003952261,0.019958307141842605
1589986047.4441066,-4.022465355318303,-0.35748845177276756,9.052465355318303,0.3233333333333333,-0.3655555555555556,-0.64,0.0024556289767918627,-0.0035414208945889715,0.016905357696345394
1589986047.4541066,-4.0,-0.35,9.01431696540824,0.3233333333333333,-0.3655555555555556,-0.64,0.001903889395837505,-6.437856875755876e-05,0.01629808316868928
1589986047.4641066,-4.0,-0.3514825858778626,8.984447757633587,0.3233333333333333,-0.3655555555555556,-0.64,-0.0006056556885163409,0.001534761439686092,0.01919102342774657
1589986047.4741066,-3.97420814479638,-0.36368455074337425,9.03579185520362,0.3233333333333333,-0.3655555555555556,-0.64,0.0025835837020471977,-0.002181661564992912,0.024515134980642717
1589986047.4841065,-3.93,-0.3725494182762905,9.08,0.325032945517527,-0.36753843643711487,-0.6266863712238162,0.002160098774194665,-0.002181661564992912,0.027826966349058752
1589986047.4941065,-3.919928400954654,-0.36992840095465396,9.069928400954653,0.33,-0.37333333333333335,-0.5877777777777777,-0.0005415102691151858,-0.0016323410516116419,0.02670582856049796
1589986047.5041065,-3.916662799946971,-0.3566686000265146,9.026686000265148,0.33,-0.37333333333333335,-0.5877777777777777,-0.0003633993639885698,-0.0003640320545193164,0.02181788103099061
1589986047.5141065,-3.9312984932290673,-0.34870150677093265,8.964544726301737,0.33,-0.37333333333333335,-0.5877777777777777,-0.0011616526017529491,0.0010200089632399628,0.017028361604404338
1589986047.5241065,-3.954993983152828,-0.332496991576414,9.027503008423585,0.33,-0.37333333333333335,-0.5877777777777777,-0.002181661564992912,-0.0002723795275186698,0.007367373967221852
1589986047.5341065,-3.9670113460546674,-0.3385056730273337,9.021494326972666,0.33,-0.37333333333333335,-0.5877777777777777,-0.002181661564992912,-0.0009278249964065394,-0.0011534171283204518
1589986047.5441065,-3.9819555863477247,-0.35391117269544925,9.054355309218204,0.34444444444444444,-0.37333333333333335,-0.5877777777777777,-0.0030833948584291235,0.001755018807807345,-0.015223183175885304
1589986047.5541065,-3.9943098066418106,-0.37,8.964141160149138,0.34444444444444444,-0.37333333333333335,-0.5877777777777777,0.002181661564992912,-0.0018805079005978097,-0.026819039065818746
1589986047.5641065,-3.993803968018952,-0.37,8.96098015990524,0.34444444444444444,-0.37333333333333335,-0.5877777777777777,0.0015057793235669172,-0.002673617526420837,-0.02885355630633578
1589986047.5741065,-3.981774529740722,-0.36290188103711235,9.033549059481443,0.34444444444444444,-0.37333333333333335,-0.5877777777777777,-0.0003871423331269832,0.001090830782496456,-0.023927680998037534
1589986047.5841064,-3.9959114272790823,-0.33394095151938813,9.055911427279083,0.3402845511739792,-0.37574169259518164,-0.5893103700353176,-0.0023966071264766497,0.001090830782496456,-0.01574983100315116
1589986047.5941064,-4.014455745758808,-0.35221770169647654,9.076673447455285,0.3233333333333333,-0.3855555555555555,-0.5955555555555555,-0.003272492347489368,0.0008489170548053328,-0.002911840763839085
1589986047.6041064,-3.961021897810219,-0.372992700729927,9.026058394160584,0.3233333333333333,-0.3855555555555555,-0.5955555555555555,-0.002946039339588969,-0.002396642814098053,0.011338270323174842
1589986047.6141064,-3.9409681892072803,-0.37967727026424,8.97258183788608,0.3233333333333333,-0.3855555555555555,-0.5955555555555555,-0.002216865918012313,-0.005313336500404676,0.017171657695788087
1589986047.6241064,-3.9217472927602026,-0.36206317680994937,8.986505414479597,0.3233333333333333,-0.3855555555555555,-0.5955555555555555,-0.004588380807388388,0.0,0.013921284890534995
1589986047.6341064,-3.89,-0.35188629692569134,9.044824656264483,0.3218957378512453,-0.3786550972415332,-0.5990057847125667,-0.004607340273976998,-0.000564542425670188,0.004492578067445237
1589986047.6441064,-3.9114748803827752,-0.25705023923444975,9.025705023923445,0.31777777777777777,-0.3588888888888889,-0.6088888888888889,-0.00452420762218895,-0.00030762471923608176,-0.017005999706259343
1589986047.6541064,-3.932734135030415,-0.19273413503041498,9.00546827006083,0.31777777777777777,-0.3588888888888889,-0.6088888888888889,-0.011598730062618206,0.0029742444820215147,-0.03698196883917604
1589986047.6641064,-3.906329127459367,-0.21281009409751925,9.004607570573139,0.31777777777777777,-0.3588888888888889,-0.6088888888888889,-0.01943887981789423,0.004065070958167664,-0.053160737713018574
1589986047.6741064,-3.855861903849837,-0.32423673625742194,9.082118368128711,0.31777777777777777,-0.3588888888888889,-0.6088888888888889,-0.020054070451472863,0.003272492347489368,-0.06262875086845075
1589986047.6841063,-3.815694311434591,-0.3930954661121296,9.116547733056066,0.31777777777777777,-0.3588888888888889,-0.6088888888888889,-0.015046522306864677,0.003272492347489368,-0.06701035549498292
1589986047.6941063,-3.7538639180243627,-0.4706136081975637,9.126931959012182,0.33,-0.3855555555555555,-0.6255555555555555,-0.004363323129985824,-0.005654956725570676,-0.07673987795490371
1589986047.7041063,-3.6393467495522076,-0.48458961121062055,9.066231166368139,0.33,-0.3855555555555555,-0.6255555555555555,-0.005364620967632976,-0.008225997341148072,-0.1072759839083547
1589986047.7141063,-3.566677991228612,-0.496677991228612,9.015016986842918,0.33,-0.3855555555555555,-0.6255555555555555,-0.008545458788593986,-0.005276672395335101,-0.14286918487319186
1589986047.7241063,-3.5187090357030675,-0.48938728928907965,8.99938728928908,0.33,-0.3855555555555555,-0.6255555555555555,-0.009001141360238843,0.001090830782496456,-0.20632928910696693
1589986047.7341063,-3.4444120436951136,-0.5072060218475567,9.000442152932896,0.33217309411856705,-0.3765527370643493,-0.6208989253014834,-0.013827793032045661,0.0007860550450656816,-0.26839156917496565
1589986047.7441063,-3.421543837064963,-0.49577191853248126,8.941543837064962,0.3377777777777778,-0.3533333333333333,-0.6088888888888889,-0.02269503257654475,0.0018448485662688901,-0.34493607970114004
1589986047.7541063,-3.407503411045856,-0.49,8.922510233137569,0.3377777777777778,-0.3533333333333333,-0.6088888888888889,-0.030267949602602238,0.008176021645374607,-0.3986785582838235
1589986047.7641063,-3.401282998161001,-0.49,8.903848994483004,0.3377777777777778,-0.3533333333333333,-0.6088888888888889,-0.03501774210084839,0.017675606641866924,-0.43531981469886527
1589986047.7741063,-3.3105929889216967,-0.43843216482028285,8.989407011078303,0.3377777777777778,-0.3533333333333333,-0.6088888888888889,-0.02849097045880116,0.02692872098722813,-0.5051149297600074
1589986047.7841063,-3.2473494873523254,-0.41172703728669247,9.041405612516408,0.3377777777777778,-0.3533333333333333,-0.6070147388670112,-0.01729996397982725,0.02462912237707035,-0.5534060063359464
1589986047.7941062,-3.0685588562455015,-0.2130504482104299,9.078983183929857,0.3377777777777778,-0.3533333333333333,-0.5955555555555555,-0.01984019415004571,0.026558978030745764,-0.611401481845787
1589986047.8041062,-2.8284219394098016,-0.007218805208401513,9.1475937315972,0.3377777777777778,-0.3533333333333333,-0.5955555555555555,-0.028072868863988278,0.03778535264066746,-0.6488227305455261
1589986047.8141062,-2.5738183057153985,0.11890938000259593,9.045418487431315,0.3377777777777778,-0.3533333333333333,-0.5955555555555555,-0.021804793164271037,0.043922728812938905,-0.7054025648741189
1589986047.8241062,-2.5057673170942762,-0.03987626011335613,8.877559382165881,0.3377777777777778,-0.3533333333333333,-0.5955555555555555,0.020754951718277757,0.08153366615100528,-0.715795060717532
1589986047.8341062,-2.4632182971541643,-0.273543327707618,8.76203049525694,0.3404703938647371,-0.3518646336495373,-0.6002064378875762,0.05899678584050697,0.09937853771198231,-0.7271954246632363
1589986047.8441062,-2.5207608155146692,-0.6471738770097796,8.868695508039117,0.35,-0.3466666666666667,-0.6166666666666667,0.05799194917328623,0.0593198227464097,-0.7413143519036598
1589986047.8541062,-2.5506004042325525,-0.6882677446201403,8.902332659612412,0.35,-0.3466666666666667,-0.6166666666666667,0.023343337796112487,0.05863536441079155,-0.7540915404144558
1589986047.8641062,-2.5981155275950814,-0.7329711181012296,8.929745496139548,0.35,-0.3466666666666667,-0.6166666666666667,-0.0005019006946058902,0.04124600568406031,-0.7704228690862988
1589986047.8741062,-2.62296089271507,-0.7169956547461188,9.130130357616434,0.35,-0.3466666666666667,-0.6166666666666667,-0.002176921628301593,0.047233446875765674,-0.7875893048358238
1589986047.8841062,-2.546188284141168,-0.7192078105725547,9.277847278635257,0.3561385403817031,-0.3466666666666667,-0.6148762590553366,0.01348948448203345,0.05126090747372422,-0.8088779538445549
1589986047.8941061,-2.493111246815052,-0.7224449872602077,8.977001832003202,0.37666666666666665,-0.3466666666666667,-0.6088888888888889,0.052383881395827885,0.07006754183081797,-0.814753913045699
1589986047.9041061,-2.475056774016552,-0.6947161299172395,8.864261937784823,0.37666666666666665,-0.3466666666666667,-0.6088888888888889,0.06250572939897976,0.07681672566443228,-0.781288898050263
1589986047.9141061,-2.4558787398454527,-0.7906063007727362,9.113576382009114,0.37666666666666665,-0.3466666666666667,-0.6088888888888889,0.012995086347850099,0.044739407631306,-0.7568822430250582
1589986047.9241061,-2.4490516056878096,-0.7871548170634287,8.951938648346381,0.37666666666666665,-0.3466666666666667,-0.6088888888888889,0.0017069872209751213,0.04124009600559848,-0.6955970834090112
1589986047.934106,-2.4356491452308675,-0.7469474356926027,8.838017734462374,0.37666666666666665,-0.3466666666666667,-0.6088888888888889,0.025829684326554473,0.05366693996907876,-0.6597785331613327
1589986047.944106,-2.471096168828969,-0.7546577012973815,8.89685003895532,0.3721004256856701,-0.3247487099578831,-0.6152816262622841,0.01447951214175379,0.045456172454415335,-0.6141972955745141
1589986047.954106,-2.488650522294796,-0.8205536560635713,9.015155745242755,0.3711111111111111,-0.32,-0.6166666666666667,0.0013248466390163634,0.02744439091122535,-0.575509475437486
1589986047.964106,-2.5112926855934985,-0.8210884143008127,8.938911585699186,0.3711111111111111,-0.32,-0.6166666666666667,0.015509086119637557,0.03272492347489368,-0.5327484522295138
1589986047.974106,-2.4501490579102736,-0.8287313677612157,8.931268632238783,0.3711111111111111,-0.32,-0.6166666666666667,0.017176519900396654,0.03272492347489368,-0.5127392468604046
1589986047.984106,-2.4201492452616047,-0.8597761321075927,9.078880660537964,0.3711111111111111,-0.32,-0.6166666666666667,0.008791766790171754,0.02514608846134358,-0.49209492396630183
1589986047.994106,-2.411341379811787,-0.8686586201882128,9.01938965868251,0.39420076494634526,-0.32577241345880853,-0.5983873573804396,0.015338208864645098,0.02981165271504238,-0.4730745040354061
1589986048.004106,-2.432919287343073,-0.875621068985391,9.071242137970781,0.3977777777777778,-0.32666666666666666,-0.5955555555555555,0.017883507411709448,0.030678758143364446,-0.4545342652599694
1589986048.014106,-2.4537658387027235,-0.8443512419459148,9.02,0.3977777777777778,-0.32666666666666666,-0.5955555555555555,0.006814236921705747,0.02611608119213029,-0.4461497900410505
1589986048.024106,-2.4779469218626677,-0.8263575374901342,9.008874309392265,0.3977777777777778,-0.32666666666666666,-0.5955555555555555,0.003792617167122889,0.030716636849778607,-0.44632316498092833
1589986048.034106,-2.5193271507498025,-0.8594617205998422,8.950941988950275,0.3977777777777778,-0.32666666666666666,-0.5955555555555555,0.006500946814533042,0.03161941339891533,-0.44722594153006495
1589986048.044106,-2.51,-0.8320275672911533,8.951397657012691,0.4033333333333333,-0.3055555555555556,-0.6322222222222222,0.005232980631004976,0.027491942843888697,-0.4553037472390867
1589986048.054106,-2.512145639920424,-0.8207281996021221,8.915019479442972,0.4033333333333333,-0.3055555555555556,-0.6322222222222222,0.007167709462804755,0.026961532056100232,-0.4660230468885256
1589986048.064106,-2.5237682713602982,-0.8618841356801492,8.97,0.4033333333333333,-0.3055555555555556,-0.6322222222222222,0.005762444892228277,0.03319917229789814,-0.48123827769399685
1589986048.074106,-2.5575470889051233,-0.8809811644379506,8.97,0.4033333333333333,-0.3055555555555556,-0.6322222222222222,0.009101245790034235,0.027698883311054356,-0.5050876201035505
1589986048.084106,-2.5242410189626145,-0.8943035924149542,8.97,0.4033333333333333,-0.3055555555555556,-0.6322222222222222,0.014187625877251812,0.03351188912501729,-0.5203467603652031
1589986048.094106,-2.529795522941831,-0.9,9.12836418353465,0.42202910500061835,-0.30005679918282463,-0.6168257043785758,0.013123426870362194,0.03491773753335483,-0.5527835468824654
1589986048.104106,-2.53,-0.9379059238517764,9.069350521837158,0.4222222222222222,-0.3,-0.6166666666666667,0.01308996938995747,0.03242564812529753,-0.5704177651278265
1589986048.114106,-2.5792236013540566,-0.9596118006770283,8.940388199322971,0.4222222222222222,-0.3,-0.6166666666666667,0.030331532024279892,0.045560817002106097,-0.5985374963962931
1589986048.124106,-2.5639566119462747,-0.9519783059731373,8.948021694026862,0.4222222222222222,-0.3,-0.6166666666666667,0.02616810652376585,0.04056470640148926,-0.6135258281981436
1589986048.134106,-2.550626263235693,-1.0343636308787596,9.024989894114452,0.4222222222222222,-0.3,-0.6166666666666667,0.012818915265989227,0.03722487604796754,-0.6378605441120428
1589986048.144106,-2.5731443997213406,-0.9937112005573187,8.991426000464433,0.43765182203644937,-0.2948568000619243,-0.632953466470573,0.014523800973305094,0.037929800726827535,-0.6543748127379877
1589986048.154106,-2.5868011072474375,-1.0121325951683748,8.924668512079062,0.44222222222222224,-0.2933333333333333,-0.6377777777777778,0.01601351666900687,0.0485058100982739,-0.6847211102077947
1589986048.164106,-2.5655355903816246,-1.030691948797703,8.884843641583922,0.44222222222222224,-0.2933333333333333,-0.6377777777777778,0.01361832872386962,0.043557751395013646,-0.7018984403644613
1589986048.174106,-2.6377236563769446,-1.0411381718115278,8.95455268724611,0.44222222222222224,-0.2933333333333333,-0.6377777777777778,0.02072578486743266,0.04272863344452941,-0.7246485945701021
1589986048.1841059,-2.606316853553979,-1.0568415732230105,9.017366292892042,0.44222222222222224,-0.2933333333333333,-0.6377777777777778,0.02072578486743266,0.045298096491960975,-0.7443478112670774
1589986048.1941059,-2.589270096724376,-1.077416077379501,9.04887588393075,0.4622222222222222,-0.2733333333333333,-0.6522222222222223,0.024120899256065868,0.05365295047959971,-0.7773642474393253
1589986048.2041059,-2.6295506189587927,-1.110898762082415,8.995506189587926,0.4622222222222222,-0.2733333333333333,-0.6522222222222223,0.02950145099468625,0.05459055899210473,-0.8008534801192324
1589986048.2141058,-2.62,-1.1314676921284157,8.903913845675776,0.4622222222222222,-0.2733333333333333,-0.6522222222222223,0.030436528326373856,0.055525636323792336,-0.8294348340841868
1589986048.2241058,-2.62,-1.1559057274369282,8.96908193983181,0.4622222222222222,-0.2733333333333333,-0.6522222222222223,0.028659344247823137,0.053748452245241614,-0.8543154111838968
1589986048.2341058,-2.6558177108711822,-1.213726566306773,9.015817710871183,0.4622222222222222,-0.2733333333333333,-0.6522222222222223,0.026408047266065687,0.048566825645220926,-0.8858335689285011
1589986048.2441058,-2.6119913785816924,-1.2280014369030512,8.939985630969487,0.4835593872970257,-0.2519961682585299,-0.6762265329313761,0.024434296044304648,0.058470410843505835,-0.9143389074009609
1589986048.2541058,-2.649348051750766,-1.2382246752917943,9.002246752917943,0.4888888888888889,-0.2466666666666667,-0.6822222222222222,0.0195124127227584,0.06018935092136881,-0.9484735402784231
1589986048.2641058,-2.6686979824426302,-1.3,8.89520807022948,0.4888888888888889,-0.2466666666666667,-0.6822222222222222,0.018021404852315084,0.06945809987204081,-0.9949284614012619
1589986048.2741058,-2.6557785307253967,-1.3,8.946885877098413,0.4888888888888889,-0.2466666666666667,-0.6822222222222222,0.023658579102769275,0.06593486596550693,-1.0174771584030788
1589986048.2841058,-2.624195235975067,-1.3258047640249333,8.97,0.4888888888888889,-0.2466666666666667,-0.6822222222222222,0.028994801873260374,0.06998874235398177,-1.0575878034406796
1589986048.2941058,-2.5669198817075647,-1.3753798225613472,8.988459940853783,0.4888888888888889,-0.2222222222222222,-0.7111111111111111,0.035997415822383035,0.07585643713331836,-1.1045972605271057
1589986048.3041058,-2.548440787981365,-1.3585756661024935,8.976101969953412,0.4888888888888889,-0.2222222222222222,-0.7111111111111111,0.035997415822383035,0.08431942462485902,-1.1342383141676418
1589986048.3141057,-2.533803807297028,-1.4390790598663432,8.939509518242572,0.4888888888888889,-0.2222222222222222,-0.7111111111111111,0.035997415822383035,0.07713451353288296,-1.1525997536249142
1589986048.3241057,-2.531750622259097,-1.4629177037651613,8.948832918493935,0.4888888888888889,-0.2222222222222222,-0.7111111111111111,0.03413402636551452,0.08758473470784087,-1.1927149206051266
1589986048.3341057,-2.556607206352969,-1.504345343921615,8.932261862431353,0.4888888888888889,-0.2222222222222222,-0.7111111111111111,0.038653080878399124,0.09210378922072547,-1.214406382266973
1589986048.3441057,-2.5471338574478053,-1.5882803144686835,9.004267714895612,0.4955555555555556,-0.17555555555555555,-0.6966666666666667,0.030480732379441634,0.08698851571318877,-1.2528712048458315
1589986048.3541057,-2.510738272504816,-1.5664429635028896,8.931476545009632,0.4955555555555556,-0.17555555555555555,-0.6966666666666667,0.029686703891386085,0.09731088605791091,-1.2743099740233312
1589986048.3641057,-2.5106305196138834,-1.6412610392277673,8.863152598069417,0.4955555555555556,-0.17555555555555555,-0.6966666666666667,0.03129019759050113,0.09722149768294301,-1.3122199194099993
1589986048.3741057,-2.5192448141302117,-1.658489628260423,8.906224070651058,0.4955555555555556,-0.17555555555555555,-0.6966666666666667,0.026591828776550745,0.09910084520852316,-1.3413498060564917
1589986048.3841057,-2.4720546286048406,-1.6839726856975796,8.902009104767474,0.4955555555555556,-0.17555555555555555,-0.6966666666666667,0.03576832472919352,0.09926560120717748,-1.3691819960837317
1589986048.3941057,-2.4468022294359035,-1.7031977705640962,8.932994426410241,0.5087533261196518,-0.15429248075784488,-0.7201293698917267,0.036019597228629685,0.10574404168341632,-1.3964125915959114
1589986048.4041057,-2.4307299725022915,-1.7841602199816682,8.968540054995417,0.5155555555555555,-0.14333333333333334,-0.7322222222222222,0.033895381904977685,0.11009428138455449,-1.4364966003327864
1589986048.4141057,-2.487979876160991,-1.876969814241486,8.883030185758514,0.5155555555555555,-0.14333333333333334,-0.7322222222222222,0.036978065941477185,0.1217690518737946,-1.4693748150590002
1589986048.4241056,-2.4559555712270806,-1.8663822284908322,8.907235543018336,0.5155555555555555,-0.14333333333333334,-0.7322222222222222,0.03411730973463881,0.12217304763960307,-1.496435592419829
1589986048.4341056,-2.388592559390408,-1.86,8.875936479477492,0.5155555555555555,-0.14333333333333334,-0.7322222222222222,0.03352602088441227,0.1285818269157518,-1.5310496996591192
1589986048.4441056,-2.2374221329930952,-1.8221206094265987,8.834747072951066,0.527480548884219,-0.15455685646619302,-0.7644898512291938,0.026240419959783545,0.13227702740823044,-1.5598222367323356
1589986048.4541056,-2.21599698589831,-1.91199397179662,8.668008181133159,0.5344444444444445,-0.16111111111111112,-0.7833333333333333,0.010472586117305492,0.1339539731209233,-1.592829981329929
1589986048.4641056,-2.3614076291746247,-2.005703814587312,8.845883962215455,0.5344444444444445,-0.16111111111111112,-0.7833333333333333,0.04859109746563513,0.1270050118991361,-1.618544737351388
1589986048.4741056,-2.289924788726574,-2.0199731388309194,8.930088641857965,0.5344444444444445,-0.16111111111111112,-0.7833333333333333,0.002189279822415558,0.1548935759659837,-1.6471591697280625
1589986048.4841056,-2.0472642932413163,-1.933308676157613,9.216081368679877,0.5344444444444445,-0.16111111111111112,-0.7833333333333333,0.02676870836688051,0.14071313642110006,-1.6622849719092716
1589986048.4941056,-1.67,-1.8,8.66,0.5688888888888889,-0.2088888888888889,-0.8044444444444444,0.009817477042468105,0.13962634015954636,-1.6831518973920316
1589986048.5041056,-1.8147422402159243,-1.815508097165992,8.804742240215925,0.5688888888888889,-0.2088888888888889,-0.8044444444444444,-0.021196490862983593,0.11255960453297034,-1.6972491555308733
1589986048.5141056,-2.0492198396419914,-1.975013611784449,8.932367704642923,0.5688888888888889,-0.2088888888888889,-0.8044444444444444,-0.023536479301705555,0.17052188976575217,-1.6954366900645563
1589986048.5241055,-2.153341300585181,-2.1446802109948075,9.025343690760735,0.5688888888888889,-0.2088888888888889,-0.8044444444444444,0.07193158269928795,0.10834629771205732,-1.693187801318706
1589986048.5341055,-2.0940694436214966,-2.1040694436214964,8.664719440658885,0.5688888888888889,-0.2088888888888889,-0.8044444444444444,0.03988865101995469,0.15415878250016835,-1.698746990019732
1589986048.5441055,-2.1463526893229865,-2.297352154134332,9.130821514583891,0.5108302857312759,-0.24759462432729756,-0.8237973121636487,-0.001308880178944101,0.12165988721262186,-1.7167045036830257
1589986048.5541055,-1.93024788814448,-2.1302263326536557,9.01024788814448,0.4988888888888889,-0.25555555555555554,-0.8277777777777777,0.0021710805381775517,0.08184522743732643,-1.7256884195611626
1589986048.5641055,-2.017557515960534,-2.2564719674985487,8.834884968078931,0.4988888888888889,-0.25555555555555554,-0.8277777777777777,0.014916386051482936,0.11895525510616344,-1.7140208004634443
1589986048.5741055,-2.02,-2.334048869077101,8.856926861482581,0.4988888888888889,-0.25555555555555554,-0.8277777777777777,0.023349109534785542,0.11999138607461016,-1.7048833644875667
1589986048.5841055,-2.113661793136781,-2.483732177380377,8.963661793136781,0.4988888888888889,-0.25555555555555554,-0.8277777777777777,0.02946010885735603,0.11488292771973936,-1.6925776124971779
1589986048.5941055,-2.0011674097280796,-2.4437950355464517,8.671677913001567,0.4755555555555556,-0.14888888888888888,-0.6466666666666666,0.02399827721492203,0.10581058590215622,-1.6635169433070949
1589986048.6041055,-2.1443635779411174,-2.6206844198096158,8.949646945415111,0.4755555555555556,-0.14888888888888888,-0.6466666666666666,0.02399827721492203,0.10581058590215622,-1.6635169433070949
1589986048.6141055,-2.029825455420913,-2.609127277104566,8.818603643367306,0.4755555555555556,-0.14888888888888888,-0.6466666666666666,0.03188161087211865,0.11319888319990996,-1.6478645151525733
1589986048.6241055,-2.021410601075355,-2.5670530053767755,8.751284808602842,0.4755555555555556,-0.14888888888888888,-0.6466666666666666,0.04381454766758521,0.10126594640444342,-1.6295061508518556
1589986048.6341054,-1.9157539564048969,-2.648208190734318,9.30934377655787,0.4755555555555556,-0.14888888888888888,-0.6466666666666666,0.03969178860985853,0.12463274740643264,-1.6071846547579534
1589986048.6441054,-1.7866911981159848,-2.3404136002355016,8.83469679128643,0.5188888888888888,-0.045555555555555564,-0.6166666666666667,0.08662832498637645,0.17063032313662016,-1.5682908198239138
1589986048.6541054,-1.6879146305563733,-2.3527606711804534,8.377855166323226,0.5188888888888888,-0.045555555555555564,-0.6166666666666667,0.0024497933587475512,0.054127235363981785,-1.5911873804266288
1589986048.6641054,-1.8512745757908533,-2.642739735732757,8.810702823337703,0.5188888888888888,-0.045555555555555564,-0.6166666666666667,-0.024109373552010746,0.04146911329557428,-1.580474769186636
1589986048.6741054,-1.854362747238353,-2.691144609876435,8.571813736191766,0.5188888888888888,-0.045555555555555564,-0.6166666666666667,0.047146079825309814,0.09485281609545904,-1.5320517825051416
1589986048.6841054,-1.9268654088050314,-2.842901747030049,8.896308874912648,0.5188888888888888,-0.045555555555555564,-0.6166666666666667,0.022751970648779186,0.07957551862315661,-1.505472226487933
1589986048.6941054,-1.947599516681211,-2.91,9.010398066724845,0.5346521919650737,0.0042232962639756,-0.6009033635904818,0.04319768981537888,0.09072843648408171,-1.467050291493682
1589986048.7041054,-1.9007712016397642,-2.9884575967204716,9.146722393031002,0.54,0.021111111111111112,-0.5955555555555555,0.023538384298550548,0.07140875115516962,-1.429493075363257
1589986048.7141054,-1.890698391270109,-2.9713967825402183,8.51749060636742,0.54,0.021111111111111112,-0.5955555555555555,0.055376186046194306,0.08307977821743291,-1.3884024005531463
1589986048.7241054,-1.8712896232777725,-2.979355188361114,8.834852346083437,0.54,0.021111111111111112,-0.5955555555555555,0.04148614756774338,0.06256362262748058,-1.3496378477292548
1589986048.7341053,-1.8626642628953614,-3.0606931081510265,8.97737179367422,0.54,0.021111111111111112,-0.5955555555555555,0.045962172444597854,0.07068898123505123,-1.3159680297835616
1589986048.7441053,-1.7900274890201902,-3.0287740528926665,8.923787797402762,0.5691552129082541,0.0833088986487198,-0.6072176407188572,0.04895065654116091,0.0760846974323927,-1.2655154293017705
1589986048.7541053,-1.7276718962225153,-2.9751473396192987,8.880098226412866,0.5733333333333334,0.09222222222222222,-0.6088888888888889,0.04174838581932132,0.06983459975873485,-1.2272917787033213
1589986048.7641053,-1.7695512314839161,-3.0791024629678323,8.835970724866334,0.5733333333333334,0.09222222222222222,-0.6088888888888889,0.04205392173151075,0.0629914859120497,-1.1735881145384275
1589986048.7741053,-1.7017629566694987,-3.043100332123272,8.773100332123272,0.5733333333333334,0.09222222222222222,-0.6088888888888889,0.041766551651939786,0.06605659892940799,-1.1319607564101435
1589986048.7841053,-1.6791911864868545,-3.0705515256777005,8.855698644598828,0.5733333333333334,0.09222222222222222,-0.6088888888888889,0.03292944495946779,0.06011198665413539,-1.098049493763814
1589986048.7941053,-1.667661996497373,-3.0897915936952716,8.917453590192645,0.5797865343452033,0.10959622494648764,-0.602932087954855,0.029242861710872155,0.054680424234958516,-1.0486393200084192
1589986048.8041053,-1.585515895147797,-3.0157848422879097,8.924753051992315,0.5877777777777777,0.13111111111111112,-0.5955555555555555,0.03576751463311178,0.05692376429715704,-0.9829756240066201
1589986048.8141053,-1.5343627400636746,-2.953088220191024,8.800171510732259,0.5877777777777777,0.13111111111111112,-0.5955555555555555,0.03234794436602025,0.0522208490088308,-0.9149663872497836
1589986048.8241053,-1.5712062488622636,-3.069505353567114,8.755886606980324,0.5877777777777777,0.13111111111111112,-0.5955555555555555,0.026497059013521035,0.04741627151817628,-0.8616629169034191
1589986048.8341053,-1.594704989154013,-3.239425162689805,8.887080260303687,0.5877777777777777,0.13111111111111112,-0.5955555555555555,0.025795426844653174,0.042991273835018134,-0.7946957803034425
1589986048.8441052,-1.4552607884370463,-3.1197799366170065,9.00792583597429,0.5992262075184209,0.15488861903398526,-0.6360653838686003,0.0257678765875754,0.034534973048645466,-0.7006534089813835
1589986048.8541052,-1.5081188368515297,-3.2021782552772944,8.913069279463318,0.6022222222222222,0.16111111111111112,-0.6466666666666666,0.021244198407201223,0.040414742655328205,-0.6100659943985377
1589986048.8641052,-1.4717657727684934,-3.1637267348965756,8.747258280433563,0.6022222222222222,0.16111111111111112,-0.6466666666666666,0.014587323886792763,0.030928493768054066,-0.5412030895583546
1589986048.8741052,-1.4679755837095287,-3.1739267511285862,8.845584923061988,0.6022222222222222,0.16111111111111112,-0.6466666666666666,0.01308996938995747,0.026621597901161625,-0.46771118485841645
1589986048.8841052,-1.47,-3.2132199703410778,8.939795946613941,0.6022222222222222,0.16111111111111112,-0.6466666666666666,0.009466232765790797,0.019657212856414925,-0.4092099352460291
1589986048.8941052,-1.4049250014478485,-3.0636972259222794,8.832619447501013,0.6640836405989589,0.19324691286526,-0.6297953707457384,0.011579471677008478,0.01320753677782021,-0.33755485967212245
1589986048.9041052,-1.4369529188734926,-3.0822653272617115,8.90023393984404,0.6877777777777778,0.20555555555555555,-0.6233333333333333,0.004116214259035475,0.007857405470112402,-0.28262756796527716
1589986048.9141052,-1.4248518133367996,-2.9870307422331988,8.8420801377876,0.6877777777777778,0.20555555555555555,-0.6233333333333333,0.0021924380032445337,0.0021708851267412898,-0.22732506554886905
1589986048.9241052,-1.4172036263667078,-2.9688145054668316,8.857629010933664,0.6877777777777778,0.20555555555555555,-0.6233333333333333,0.0024866986088485556,0.001090830782496456,-0.17826639547953932
1589986048.9341052,-1.4329216459468408,-3.0101505072092953,8.811084554950183,0.6877777777777778,0.20555555555555555,-0.6233333333333333,0.0017118172596817596,0.001090830782496456,-0.13872286919297733
1589986048.9441051,-1.4447072429005867,-3.025300466869405,8.75352079496295,0.7636406295360336,0.22947097652327444,-0.6644992218843249,0.00012858038777702695,-6.386969116685881e-05,-0.09734278242862525
1589986048.9541051,-1.469233512640145,-2.936854643258261,8.901048452247247,1.1177777777777778,0.3411111111111111,-0.8566666666666667,-0.006316247897923953,-0.0064306162964513445,-0.037308321408961814
1589986048.9641051,-1.508170545069262,-2.9590852725346313,8.82996899894047,1.1177777777777778,0.3411111111111111,-0.8566666666666667,-0.003964197979258007,-0.007040509442385987,0.014194326936464
1589986048.9741051,-1.4972022863648222,-3.130057159120556,8.837618290918577,1.1177777777777778,0.3411111111111111,-0.8566666666666667,-0.007070828103992338,-0.006544984694978735,0.08392191741610888
1589986048.984105,-1.4814358142780901,-3.212376123814607,8.773367133297755,1.1177777777777778,0.3411111111111111,-0.8566666666666667,-0.0044173743124840065,-0.01127007458371482,0.1605891979019959
1589986048.994105,-1.5155603423068675,-3.2518922396148073,8.829344821536482,1.1324583325211017,-0.02235917529256576,-0.9852480771771596,-0.006557679405931198,-0.022132579988359005,0.24704213717575696
1589986049.004105,-1.5528968883465528,-3.158876143990238,8.874484441732765,1.15,-0.4566666666666666,-1.1388888888888888,-0.010602422634216926,-0.03349975275920263,0.3629621959792277
1589986049.014105,-1.5669582402474653,-3.0707832960989863,8.885483072692903,1.15,-0.4566666666666666,-1.1388888888888888,-0.00813850869389425,-0.040787960700660576,0.43822206157259685
1589986049.024105,-1.504801464376232,-3.101299633905942,8.90207582371163,1.15,-0.4566666666666666,-1.1388888888888888,-0.0047315284374118485,-0.04291060582478781,0.504050449021294
1589986049.034105,-1.4357573870598397,-3.1315147741196796,8.831213064700801,1.15,-0.4566666666666666,-1.1388888888888888,-0.005949862583964861,-0.04412893997134082,0.5756268221842998
1589986049.044105,-1.466963644015669,-3.187186377027421,8.823481822007835,0.8024685882424883,-0.12037010658235037,-0.8550216366128178,-0.01460920084008527,-0.05205295890494702,0.6477040935313745
1589986049.054105,-1.5057474606732497,-3.1713788089901254,8.875058056178187,0.6344444444444445,0.042222222222222223,-0.7177777777777777,-0.018857598653618184,-0.05875445752584746,0.6995740046111749
1589986049.064105,-1.513102449825418,-3.1706926505237463,8.775844096857524,0.6344444444444445,0.042222222222222223,-0.7177777777777777,-0.01963495408493621,-0.05807689979810239,0.7512865003497116
1589986049.074105,-1.553242306543173,-3.1429351658201377,8.787952195996414,0.6344444444444445,0.042222222222222223,-0.7177777777777777,-0.023004242590896277,-0.06480949310411988,0.7890913442343449
1589986049.084105,-1.547857596948506,-3.168213604577241,8.824642932824752,0.6344444444444445,0.042222222222222223,-0.7177777777777777,-0.01982981959662184,-0.06513824705684283,0.8203824172533803
1589986049.094105,-1.5132248033656484,-3.2642015730748124,8.867426376440461,0.5900292665081398,0.13255817734690975,-0.6982049875007621,-0.018966927478058917,-0.06256464242904496,0.8540528620078279
1589986049.104105,-1.4717686494392979,-3.2441223793271576,8.874707459775719,0.5688888888888889,0.17555555555555555,-0.6888888888888889,-0.0215598635483932,-0.06910673615151823,0.8736901718071838
1589986049.114105,-1.4898410351201479,-3.2359682070240297,8.804349722735674,0.5688888888888889,0.17555555555555555,-0.6888888888888889,-0.023769706831366026,-0.07090400086226964,0.8750748579457137
1589986049.124105,-1.4853749235474005,-3.2584688073394497,8.809250152905198,0.5688888888888889,0.17555555555555555,-0.6888888888888889,-0.020388294499649278,-0.06418855300831362,0.8630107402133316
1589986049.134105,-1.464241521270339,-3.206656733973731,8.863033914918644,0.5688888888888889,0.17555555555555555,-0.6888888888888889,-0.01996590286340935,-0.0650209137242372,0.8336886711685234
1589986049.144105,-1.4323197803481715,-3.116502511975698,8.88,0.5877817372226766,0.16852565850112292,-0.7060242629590684,-0.017934473921896253,-0.06484019756924386,0.7967588492878961
1589986049.154105,-1.3862704090364537,-3.0723775457812765,8.876270409036454,0.6166666666666667,0.15777777777777774,-0.7322222222222222,-0.01281280913329236,-0.057684356466061605,0.7393189172229934
1589986049.164105,-1.4563062788235506,-3.1778278033987117,8.831846860588223,0.6166666666666667,0.15777777777777774,-0.7322222222222222,-0.012331083776043118,-0.05054564981718953,0.6624891715130532
1589986049.174105,-1.5804283588803156,-3.2665952735199473,8.803833085360367,0.6166666666666667,0.15777777777777774,-0.7322222222222222,-0.013160059447848062,-0.04326183325481602,0.586932219846902
1589986049.184105,-1.6246749479017693,-3.2693498958035385,8.835975156294692,0.6166666666666667,0.15777777777777774,-0.7322222222222222,-0.012495546175992175,-0.03846273885510805,0.4849838205407544
1589986049.194105,-1.5923503708972666,-3.2423503708972663,8.825378518443248,0.571845679639603,0.11116395126963158,-0.6939749799591279,-0.003189912433561936,-0.03146893286454236,0.3874706092691362
1589986049.204105,-12.98414568747207,-9.045528292651785,-1.9919239854440196,0.5333333333333333,0.07111111111111111,-0.6611111111111111,-0.3503503059085825,0.9526459147097021,0.005296881699688061
1589986049.214105,-1.4373055529367385,-5.3520653027874685,-2.8561434272964386,0.5333333333333333,0.07111111111111111,-0.6611111111111111,-1.3773712998111056,-0.27889976548593864,-5.529702848456503
1589986049.224105,-0.20400000000000063,-2.0825839793281653,-0.2925426356589147,0.5333333333333333,0.07111111111111111,-0.6611111111111111,-1.620437865319482,-1.426728304084813,-9.028540866672232
1589986049.2341049,-1.0104826169278491,-1.9448245578697176,-0.1107017685211296,0.5333333333333333,0.07111111111111111,-0.6611111111111111,-1.6901753043054786,-1.1614095072256216,-9.386204197136465
1589986049.2441049,-1.0182301483328402,-3.605479440476693,4.857141951569962,0.5262805035521935,0.13241647767024936,-0.6394100963999118,-1.68828741789503,-0.779183475053591,-9.142003947948805
1589986049.2541049,-1.0465076834356661,-2.9489490823976388,4.095474744733538,0.5188888888888888,0.19666666666666666,-0.6166666666666667,-0.9007866646715316,0.4279197907764889,-8.565838619936272
1589986049.2641048,-1.1901098901098899,-2.346175824175824,3.5279780219780226,0.5188888888888888,0.19666666666666666,-0.6166666666666667,0.04334793709520535,1.7954619168136339,-7.891885006878371
1589986049.2741048,-1.040886075949367,-2.3325316455696203,3.992784810126582,0.5188888888888888,0.19666666666666666,-0.6166666666666667,0.7099237196363644,2.6755731737258013,-7.340738846817606
1589986049.2841048,-4.708394731509625,-2.3171647416413377,8.925814792299898,0.5188888888888888,0.19666666666666666,-0.6166666666666667,1.3554997736325056,3.4183984689451417,-6.789070073964536
1589986049.2941048,2.734674632171422,0.5682192817879597,16.314018959217933,0.4200404858299595,0.3533775495649693,-0.6166666666666667,3.5536730921312043,1.9817599393105167,-5.802948500363067
1589986049.3041048,1.1790119780588828,0.6037823799395501,4.758013657226016,0.38222222222222224,0.4133333333333333,-0.6166666666666667,2.4209436801552515,0.42717402354483835,-4.840618269729922
1589986049.3141048,-0.797185445046851,0.6190505262198733,-0.07072106550032659,0.38222222222222224,0.4133333333333333,-0.6166666666666667,1.1396033281713636,0.22867886484233532,-4.379838994202441
1589986049.3241048,0.01859736173302684,0.9106236637218121,3.4799645003832347,0.38222222222222224,0.4133333333333333,-0.6166666666666667,-0.01618631120203462,0.30873485857663413,-3.9738283774621297
1589986049.3341048,1.1403736117946632,-0.536492200372328,13.851641880469904,0.38222222222222224,0.4133333333333333,-0.6166666666666667,-1.2043422607216054,0.2545543134959834,-3.3337661889868175
1589986049.3441048,-0.041632019933067865,-1.6400395730024184,12.294658621784693,0.34612594420152376,0.44367513224928273,-0.6208517423792114,-0.7899988009117054,0.16299557171205067,-2.8803392007900768
1589986049.3541048,0.7011724295855277,-1.6046141515914816,10.998605449965652,0.3055555555555556,0.4777777777777778,-0.6255555555555555,0.27514539143505584,0.22463520518376412,-2.475792457791473
1589986049.3641047,0.6675652390283351,-0.7329065969954278,6.668945600447886,0.3055555555555556,0.4777777777777778,-0.6255555555555555,0.6603441567135193,0.3735961243376704,-2.1084984101857165
1589986049.3741047,0.5972023224961664,-0.7958012439482434,5.640881790458469,0.3055555555555556,0.4777777777777778,-0.6255555555555555,0.14970652171568127,0.12172089817689052,-1.8753182945485607
1589986049.3841047,0.6485891991205084,-1.3720463239059064,7.89089394897744,0.3055555555555556,0.4777777777777778,-0.6255555555555555,-0.3079191455424917,-0.02172264932247092,-1.6372589073382404
1589986049.3941047,0.29021810036546547,-1.3477368648563681,7.653503752898181,0.27118837409343166,0.4970233993965672,-0.6255555555555555,-0.05873538846620491,0.10278496330262918,-1.3577504777769138
1589986049.4041047,0.49477433172047275,-1.3774823510747998,7.1812128182755615,0.2222222222222222,0.5244444444444445,-0.6255555555555555,0.19776726611082038,0.07870828207572647,-1.094430169322907
1589986049.4141047,0.5748247534409884,-2.018364365449225,9.358749539395253,0.2222222222222222,0.5244444444444445,-0.6255555555555555,-0.08136531278514045,0.07374035005133417,-0.7588429655875344
1589986049.4241047,0.4125230192860723,-1.597124765849669,7.416956705273989,0.2222222222222222,0.5244444444444445,-0.6255555555555555,0.0719518925758933,0.05526022171724296,-0.4756465416550929
1589986049.4341047,0.4787146007767824,-1.882782559478502,8.377357768799891,0.2222222222222222,0.5244444444444445,-0.6255555555555555,0.05780355683982025,0.017083146258755413,-0.22496847225713532
1589986049.4441047,0.5791707169811321,-2.370843169811321,10.39752603773585,0.20731629350104822,0.5387022893081761,-0.6326844779874213,-0.0559957276991401,-0.011725484153044545,0.05788934407607277
1589986049.4541047,0.5119159974736083,-2.2619159974736083,9.499098619507354,0.19666666666666666,0.5488888888888889,-0.6377777777777778,-0.003807868512912947,-0.027545150462339622,0.3356500244706832
1589986049.4641047,0.5460747663551402,-2.4409345794392525,8.706822429906541,0.19666666666666666,0.5488888888888889,-0.6377777777777778,-0.01248848325755288,-0.04597800774821511,0.5527045875985548
1589986049.4741046,10.114043488473541,-13.677794369316466,7.851822086507164,0.19666666666666666,0.5488888888888889,-0.6377777777777778,-0.11863554355206221,-0.17904339573204409,0.9611365991834634
1589986049.4841046,14.34420611188097,-18.40584275399314,8.427128582889651,0.19666666666666666,0.5488888888888889,-0.6377777777777778,-0.3147375783163104,-0.33286274494887735,1.9786006819862272
1589986049.4941046,-0.5229064254977764,-0.8956879877470634,10.37270133469477,0.19666666666666666,0.5488888888888889,-0.6377777777777778,-0.5062776461660867,-0.3201823920250245,3.0791218383774512
1589986049.5041046,-1.7808762672674452,-1.2568186399478272,7.800575680322524,0.1988888888888889,0.5644444444444444,-0.6377777777777778,0.5002487106874594,0.06157628853882956,3.543313029384207
1589986049.5141046,-1.1550228421757933,-1.0981171955899374,5.226508497289395,0.1988888888888889,0.5644444444444444,-0.6377777777777778,0.09821397309031255,-0.10391404067313774,3.5760916771859352
1589986049.5241046,-0.763156451680938,-2.049079596743578,8.651548487788418,0.1988888888888889,0.5644444444444444,-0.6377777777777778,-0.442631611146839,-0.4190065915903137,3.5608502462312113
1589986049.5341046,0.0477306532062961,-2.477776350766106,9.898711806696335,0.1988888888888889,0.5644444444444444,-0.6377777777777778,-0.35325516058989187,-0.4446166777295558,3.6004200404747584
1589986049.5441046,-0.6916250279057496,-2.1774850323706696,7.675100156272197,0.2252049916902879,0.5538394477931344,-0.6483827744290879,0.09672288268945722,-0.12744993850588462,3.6947862109320906
1589986049.5541046,-0.33254291889246834,-2.3314362027484403,8.168654324511683,0.2733333333333333,0.5344444444444445,-0.6677777777777778,-0.10463497252897194,-0.2527766252190261,3.6997879750584644
1589986049.5641046,-0.27433364310505054,-2.653054033038102,8.7979128340319,0.2733333333333333,0.5344444444444445,-0.6677777777777778,-0.17307235353001377,-0.304443119497361,3.7184502330727702
1589986049.5741045,-0.31923446648606135,-2.5925619738413586,8.168447085554487,0.2733333333333333,0.5344444444444445,-0.6677777777777778,-0.062484340421567364,-0.23497557637086938,3.756121829980198
1589986049.5841045,-0.16004726814869857,-2.76033087704089,9.11132350816356,0.2733333333333333,0.5344444444444445,-0.6677777777777778,-0.1047713166712918,-0.27331240679973906,3.764467342705596
1589986049.5941045,-0.23675025732197996,-2.8522500857739934,9.228686878138548,0.3289585477683167,0.5091040689796187,-0.6640694301487788,-0.0889298766216201,-0.2584927017291807,3.775133569426673
1589986049.6041045,11.476916081112448,-17.57864510139056,7.304551075098647,0.37333333333333335,0.4888888888888889,-0.6611111111111111,-0.12504772545661438,-0.28200529538917785,3.7091831147888894
1589986049.6141045,8.345838404500128,-14.446256200460239,7.054863206341089,0.37333333333333335,0.4888888888888889,-0.6611111111111111,-0.38318589930818747,-0.35018217387722533,1.3396677759503715
1589986049.6241045,-6.9197346729078655,-7.200487955246032,8.712647334170567,0.37333333333333335,0.4888888888888889,-0.6611111111111111,-0.2618774234845373,0.04521252611878668,-1.796382897364949
1589986049.6341045,-7.745585974357551,-5.707862019204084,8.982882277848699,0.37333333333333335,0.4888888888888889,-0.6611111111111111,0.21659706934455547,0.3606779581034514,-2.1271173770449363
1589986049.6441045,-0.3950269190209248,1.043245268357662,8.284491868790587,0.37333333333333335,0.4888888888888889,-0.6611111111111111,0.6959124410801092,0.36194766769745285,-0.8656608954044795
1589986049.6541045,-0.5589061780030483,-0.6506447382412364,5.030513593024493,0.4266666666666667,0.4244444444444445,-0.6755555555555556,0.3597401243129933,0.09795844468023457,0.10679543833513924
1589986049.6641045,-0.8871775183676651,-3.574615399606338,8.293939352600706,0.4266666666666667,0.4244444444444445,-0.6755555555555556,-0.4350518788066363,-0.15801474589564254,0.22215930761798142
1589986049.6741045,-1.3004158215010142,-5.7706845841784995,9.272882860040568,0.4266666666666667,0.4244444444444445,-0.6755555555555556,-0.47798329677862517,-0.15014273438948111,0.45667641772406653
1589986049.6841044,0.49922895096048203,-4.559341478842761,9.509737323967109,0.4266666666666667,0.4244444444444445,-0.6755555555555556,0.015005178730987393,-0.04736861039215234,0.9383090916559909
1589986049.6941044,4.789788616967162,-7.9942335010079315,6.76139075717327,0.42235338939233136,0.4297530933974726,-0.6712422782812203,0.12187748200509856,-0.05260988144967463,0.9051465946026997
1589986049.7041044,-0.60764098889287,-3.2945309924758153,9.716596918667143,0.4122222222222222,0.44222222222222224,-0.6611111111111111,-0.07897865002035644,-0.046674894317307335,-0.12926465932576758
1589986049.7141044,0.2189235278903353,-3.637203207173032,8.334273126993706,0.4122222222222222,0.44222222222222224,-0.6611111111111111,0.04451157625857915,0.09237404097985494,-0.20287148445961697
1589986049.7241044,1.2017277817206844,-4.698747732828641,9.284801277501774,0.4122222222222222,0.44222222222222224,-0.6611111111111111,-0.05874757307526484,-0.0718644670007417,0.19372293628125722
1589986049.7341044,-0.4292430858806405,-4.417001455604075,8.534963609898108,0.4122222222222222,0.44222222222222224,-0.6611111111111111,-0.0013544085261564462,0.00042871078788070307,0.02059082036013689
1589986049.7441044,-0.20202769913535848,-4.166221593082868,8.745453362919886,0.4172418190629224,0.44045059980785745,-0.6649496263422348,0.025119323066916055,0.010191158993132778,-0.02433348085885085
1589986049.7541044,-0.18418286113511426,-3.9816342777297717,8.804765861999227,0.4311111111111111,0.4355555555555555,-0.6755555555555556,0.005197345099078093,0.0003565440909566286,0.008170631613910134
1589986049.7641044,-0.20022596440150864,-4.027947131608549,8.91433170118441,0.4311111111111111,0.4355555555555555,-0.6755555555555556,0.0038436032167081333,-0.0025534881233221975,0.004735149688315109
1589986049.7741044,-0.21466039428696138,-4.156018817139116,8.693981182860885,0.4311111111111111,0.4355555555555555,-0.6755555555555556,-0.009235016414650457,-0.003272492347489368,0.00312431140121169
1589986049.7841043,-0.21,-4.17,8.68,0.4311111111111111,0.4355555555555555,-0.6755555555555556,-0.008726646259971648,-0.003272492347489368,0.001090830782496456
1589986049.7941043,-0.19371407575125624,-4.080427416631909,8.647428151502513,0.4311111111111111,0.4355555555555555,-0.6755555555555556,-0.008726646259971648,-0.003272492347489368,0.003755608906286732
1589986049.8041043,-0.14429946812091834,-4.076775398909311,8.845700531879082,0.4388888888888889,0.4355555555555555,-0.6755555555555556,0.00631048508624574,-0.007284066064375699,0.004363323129985824
1589986049.8141043,-0.1929797480599777,-4.056489874029989,8.761325944775084,0.4388888888888889,0.4355555555555555,-0.6755555555555556,0.004009355411664015,-0.00294745225669859,0.004363323129985824
1589986049.8241043,-0.2109114462848154,-4.075453132229111,8.663635421486074,0.4388888888888889,0.4355555555555555,-0.6755555555555556,0.0012896775153101894,0.00019828148321791785,0.004165041646767906
1589986049.8341043,-0.17210049042287406,-4.098739705746275,8.67915980383085,0.4388888888888889,0.4355555555555555,-0.6755555555555556,-0.0071775595551531865,0.0010450051902642554,0.0033183179397215687
1589986049.8441043,-0.17,-4.130050733032397,8.816632844645069,0.4368621863584513,0.4362925382938964,-0.679056223562675,0.000723531111435751,0.00018088277785893774,0.003815140681066181
1589986049.8541043,-0.17019268030139936,-4.079614639397201,8.849871546465733,0.4266666666666667,0.44,-0.6966666666666667,0.004412365504240149,0.0010768186755666486,0.0065379786415138315
1589986049.8641043,-0.19761700135435653,-4.024765997291286,8.801404016252278,0.4266666666666667,0.44,-0.6966666666666667,0.00887980067468268,-0.001090830782496456,0.0051942090847507515
1589986049.8741043,-0.19060394268229472,-4.03879211463541,8.717247312187537,0.4266666666666667,0.44,-0.6966666666666667,-0.00030027166004379345,-0.001090830782496456,0.004429203056856879
1589986049.8841043,-0.16801449940350557,-4.087942002385978,8.764043498210516,0.4266666666666667,0.44,-0.6966666666666667,-0.009592984327700135,-0.0017405843332928216,0.0030559078305572463
1589986049.8941042,-0.16031641736257685,-4.118734330549692,8.74094925208773,0.4266666666666667,0.44,-0.6966666666666667,-0.0129519062702714,-0.004259775790221271,0.002216177344914429
1589986049.9041042,-0.18250752730492964,-4.092477418085211,8.80247741808521,0.4266666666666667,0.4155555555555556,-0.6755555555555556,-0.0013610751733426213,-0.00027352879721676357,0.0024551903622096758
1589986049.9141042,-0.18731743666169895,-4.07,8.774634873323397,0.4266666666666667,0.4155555555555556,-0.6755555555555556,0.0015297641823087409,-0.001090830782496456,0.003272492347489368
1589986049.9241042,-0.18142857142857144,-4.07,8.74,0.4266666666666667,0.4155555555555556,-0.6755555555555556,0.0022855502109449554,-0.0015063853663046297,0.003272492347489368
1589986049.9341042,-0.19715419164638612,-4.0813832334144555,8.757074850121684,0.4266666666666667,0.4155555555555556,-0.6755555555555556,-0.002332548923779496,-0.001871232029672152,0.0038933514181308877
1589986049.9441042,-0.19,-4.11184030539208,8.790798473039606,0.43014279907392683,0.4167824258169415,-0.674124206917272,-0.00485191538122012,-0.0014923231366712293,0.005052661558307506
1589986049.9541042,-0.19728292693829202,-4.1017926826542705,8.779131707753168,0.4455555555555555,0.4222222222222222,-0.6677777777777778,0.0009961147913917306,-0.0020808262138451274,0.003669714392037448
1589986049.9641042,-0.203439171448021,-4.066719585724011,8.787354614412136,0.4455555555555555,0.4222222222222222,-0.6677777777777778,0.0061871470078197184,-0.0007156753743180337,0.00364764775566779
1589986049.9741042,-0.18309285817760396,-4.056546429088802,8.731082138200781,0.4455555555555555,0.4222222222222222,-0.6677777777777778,0.0035705231827477067,-0.002181661564992912,0.002935113856886741
1589986049.9841042,-0.17281086511486846,-4.066865190689211,8.781567404655394,0.4455555555555555,0.4222222222222222,-0.6677777777777778,-0.00214632473492076,-0.0027948972035417006,0.004363323129985824
1589986049.9941041,-0.18074127397234988,-4.11,8.75925872602765,0.44415537138556127,0.42321058751868873,-0.6699192359201219,-0.007635815477475192,-0.004525044023446361,0.00460590447017663
1589986050.0041041,-0.1884831201432342,-4.11,8.751516879856766,0.42953188417389093,0.4335330490798678,-0.6922845693026766,-0.007635815477475192,-0.006214052846756949,0.0071394177051425116
1589986050.0141041,-0.18114590377113132,-4.116562288686606,8.756562288686606,0.4266666666666667,0.4355555555555555,-0.6966666666666667,-0.002397501372359181,-0.0028974962152907165,0.007010821923810772
1589986050.024104,-0.18841820546163848,-4.094745383615084,8.734745383615085,0.4266666666666667,0.4355555555555555,-0.6966666666666667,0.003155494008165171,-0.0005176410522088515,0.0030443966520076636
1589986050.034104,-0.19208075974254818,-4.071040379871274,8.762080759742547,0.4266666666666667,0.4355555555555555,-0.6966666666666667,0.0008638551046813604,-0.0005674391945377387,0.004476810968893371
1589986050.044104,-0.20764027229054216,-4.078820136145271,8.777640272290542,0.4266666666666667,0.4355555555555555,-0.6966666666666667,-0.0008334244201178105,-0.004810638006535666,0.005325450731292957
1589986050.054104,-0.19151227741330834,-4.091512277413308,8.783024554826616,0.4122222222222222,0.42777777777777776,-0.6611111111111111,-0.0038684315037525677,-0.002181661564992912,0.0003299277508221708
1589986050.064104,-0.19937413308341145,-4.099374133083411,8.798748266166823,0.4122222222222222,0.42777777777777776,-0.6611111111111111,-0.0012956452520047406,-0.002181661564992912,0.002045118585320722
1589986050.074104,-0.20547941702889286,-4.062260291485553,8.751301457427768,0.4122222222222222,0.42777777777777776,-0.6611111111111111,0.004856442235957118,0.00035115212353951366,0.003765611453460663
1589986050.084104,-0.1911802608028637,-4.0694098695985685,8.78704934799284,0.4122222222222222,0.42777777777777776,-0.6611111111111111,0.006416238213464963,-0.001988541842722254,0.005325407430968507
1589986050.094104,-0.18,-4.070446829435157,8.789821268225937,0.41228179948024307,0.42784728457880206,-0.661170688369132,-0.007665060395618831,-0.004363323129985824,0.003272492347489368
1589986050.104104,-0.18,-4.115282635652285,8.771886945739086,0.4182599069758603,0.4348217433236888,-0.6671487958647492,-0.01059955705040026,-0.004363323129985824,0.003272492347489368
1589986050.114104,-0.1754895327744276,-4.105489532774428,8.746468598323283,0.4188888888888889,0.4355555555555555,-0.6677777777777778,-0.002395260532747525,-0.0038713074806762493,0.00545415391248228
1589986050.124104,-0.17077403570870855,-4.084612982145646,8.705387017854354,0.4188888888888889,0.4355555555555555,-0.6677777777777778,0.004657139375055207,-0.0015940290748541466,0.005160337667412897
1589986050.134104,-0.1922931599711063,-4.075137893352596,8.730275786705192,0.4188888888888889,0.4355555555555555,-0.6677777777777778,0.005173925301172509,0.0,0.004363323129985824
1589986050.144104,-0.17157317599654628,-4.088951216002302,8.762097567995395,0.4188888888888889,0.4355555555555555,-0.6669620568906798,0.0039057047824345693,0.00011440458688781365,0.004306120836541917
1589986050.154104,-0.198200893569491,-4.077196425722036,8.80179910643051,0.4188888888888889,0.4355555555555555,-0.6522222222222223,-0.003774566927369857,0.00139665329483829,0.003664996482566679
1589986050.164104,-0.1905002722158369,-4.108749319460408,8.807748775028735,0.4188888888888889,0.4355555555555555,-0.6522222222222223,-0.0010635451658633252,-0.00209980471509352,0.0053995826792160185
1589986050.174104,-0.20358431545324374,-4.062138561515585,8.728554246062343,0.4188888888888889,0.4355555555555555,-0.6522222222222223,0.0006998426194388542,0.0006242690362038865,0.0035057732206356528
1589986050.184104,-0.18094168648583556,-4.0681166270283295,8.764708432429178,0.4188888888888889,0.4355555555555555,-0.6522222222222223,0.0030670482262472984,-0.001090830782496456,0.004363323129985824
1589986050.194104,-0.18725517054520277,-4.055489658909594,8.796275852726014,0.4188888888888889,0.4355555555555555,-0.6522222222222223,0.0016896596748956153,-0.001090830782496456,0.004363323129985824
1589986050.204104,-0.17054009685627514,-4.069459903143725,8.819729951571862,0.4264566290003375,0.42798781544410697,-0.6673577024451194,-0.005277407629575935,-0.0021522038511751877,0.004363323129985824
1589986050.214104,-0.18690483989845222,-4.086904839898452,8.75238064040619,0.4266666666666667,0.42777777777777776,-0.6677777777777778,-0.00822020187264317,-0.003103677551713209,0.0034413071432655273
1589986050.224104,-0.18839166285704612,-4.108391662857047,8.688041685714769,0.4266666666666667,0.42777777777777776,-0.6677777777777778,-0.0016553344657429584,-0.0018307768321596096,0.004363323129985824
1589986050.234104,-0.18129002218045748,-4.101290022180457,8.723549889097713,0.4266666666666667,0.42777777777777776,-0.6677777777777778,0.000668672011132587,-0.00028143918090924643,0.004363323129985824
1589986050.244104,-0.19979184085339485,-4.050520397866513,8.819063283840277,0.4266666666666667,0.42777777777777776,-0.6677777777777778,0.005408740631527259,-0.0010794774622577008,0.0011248907432127209
1589986050.254104,-0.1818466777263599,-4.1044599668209205,8.84722998341046,0.4307007382830311,0.42777777777777776,-0.6486159376000465,0.0005036032273159881,-0.00010072064546319775,0.004061161193596231
1589986050.264104,-0.1822746936703966,-4.0790987746815865,8.777253063296035,0.4311111111111111,0.42777777777777776,-0.6466666666666666,-0.0018352225454219928,0.0,0.002083353133063838
1589986050.2741039,-0.19,-4.102762922489242,8.719298873362023,0.4311111111111111,0.42777777777777776,-0.6466666666666666,-0.0027844377451761476,-0.00026314756413494604,0.0044015636559424955
1589986050.2841039,-0.18794375961519738,-4.084112480769606,8.786168721154407,0.4311111111111111,0.42777777777777776,-0.6466666666666666,0.002405962595788419,-0.0017637338748829768,0.00153943284408747
1589986050.2941039,-0.18032746308572078,-4.0990176107428375,8.810327463085722,0.4311111111111111,0.42803247128889393,-0.6464483579428527,0.0031653303032787147,-0.0042561610857751704,0.0033082130288929193
1589986050.3041039,-0.18825180980042688,-4.073496380399146,8.816503619600853,0.4311111111111111,0.4355555555555555,-0.64,-0.0009534898416764959,-0.001090830782496456,0.0039819271933152255
1589986050.3141038,-0.18111426134082698,-4.087771477318346,8.78217181854677,0.4311111111111111,0.4355555555555555,-0.64,-0.005818795083578232,-0.001090830782496456,0.002181661564992912
1589986050.3241038,-0.1870837614473978,-4.074374357828903,8.651664954210409,0.4311111111111111,0.4355555555555555,-0.64,-0.007931365564401303,-0.001090830782496456,0.0026588299823351183
1589986050.3341038,-0.17173557594610228,-4.09768589873853,8.723471151892205,0.4311111111111111,0.4355555555555555,-0.64,-0.002956955736261242,-0.001090830782496456,0.005327939267991029
1589986050.3441038,-0.19140465508886562,-4.0714604598815125,8.762809310177731,0.4311111111111111,0.4355555555555555,-0.64,0.0006189837624529702,-0.001090830782496456,0.0038975634685053445
1589986050.3541038,-0.19102845636563962,-4.104857718171802,8.842800805440522,0.4380889783822803,0.4355555555555555,-0.6718988218110592,0.002181661564992912,-0.0030481179750705464,0.006208423136350502
1589986050.3641038,-0.19,-4.100707654414551,8.794245926487305,0.4388888888888889,0.4355555555555555,-0.6755555555555556,0.001168023904372626,-0.002258854686869082,0.004517709373738164
1589986050.3741038,-0.19140691046496733,-4.074220731394902,8.685627641859869,0.4388888888888889,0.4355555555555555,-0.6755555555555556,-0.004993743539461448,-0.0026420719380137437,0.004209853005645547
1589986050.3841038,-0.19812251825285002,-4.094367554758549,8.7124900730114,0.4388888888888889,0.4355555555555555,-0.6755555555555556,-0.0027960660300028442,-0.004839749447472347,0.003477293835826012
1589986050.3941038,-0.2086621373695677,-4.0566893131521615,8.79795923632611,0.4388888888888889,0.4355555555555555,-0.6755555555555556,-0.001236768956499178,-0.0026194760870010786,0.003272492347489368
1589986050.4041038,-0.17992476349920328,-4.057518809125199,8.81,0.4388888888888889,0.4388972485000885,-0.6855806343891545,-0.001090830782496456,-0.0030018364091411644,0.003272492347489368
1589986050.4141037,-0.19937443216232587,-4.0712511356753485,8.791867618110237,0.4388888888888889,0.44,-0.6888888888888889,-0.0034089700782643072,-0.0019769449688305037,0.004363323129985824
1589986050.4241037,-0.19143549364021806,-4.087129012719564,8.688661417322834,0.4388888888888889,0.44,-0.6888888888888889,-0.005140977782316731,0.0006210665872481338,0.004363323129985824
1589986050.4341037,-0.17,-4.0790148894052844,8.744925552973578,0.4388888888888889,0.44,-0.6888888888888889,-0.005024318328130634,-0.0020742026689050007,0.0031650334514014564
1589986050.4441037,-0.17,-4.071795163094931,8.781024184525346,0.4388888888888889,0.44,-0.6888888888888889,-0.001874118447917269,-0.0012866526988516594,0.0023774834813481156
1589986050.4541037,-0.19809898985453026,-4.07,8.797148484781795,0.4266666666666667,0.4355555555555555,-0.6822222222222222,0.00394858705308253,-0.0033761763667151915,0.00545415391248228
1589986050.4641037,-0.18,-4.07,8.768455495978552,0.4266666666666667,0.4355555555555555,-0.6822222222222222,0.0,-0.004363323129985824,0.005430085447763926
1589986050.4741037,-0.18,-4.073986677039775,8.703986677039774,0.4266666666666667,0.4355555555555555,-0.6822222222222222,-0.0004348790034857747,-0.004218363462157232,0.004508282797814416
1589986050.4841037,-0.1808656856390241,-4.097402943082927,8.73605979947317,0.4266666666666667,0.4355555555555555,-0.6822222222222222,-0.0029891973845855803,-0.0031780606931881054,0.005265290603879754
1589986050.4941037,-0.18665020893957993,-4.08004937318126,8.77655146257706,0.4266666666666667,0.4355555555555555,-0.6822222222222222,-0.0010962165610913029,-0.0025470670853566793,0.004003303388216903
1589986050.5041037,-0.2031496033667275,-4.083149603366728,8.813149603366728,0.4266666666666667,0.4224059521888281,-0.668342085335121,0.0007171996065022694,-0.0007472623519883732,0.0039896919539916375
1589986050.5141037,-0.2016205634739886,-4.073241126947978,8.82,0.4266666666666667,0.4155555555555556,-0.6611111111111111,0.001090830782496456,-0.004570273651274207,0.003449268399730983
1589986050.5241036,-0.17895522636484687,-4.082089547270306,8.706268641810919,0.4266666666666667,0.4155555555555556,-0.6611111111111111,0.00029306091312042773,-0.002181661564992912,0.00643101757078216
1589986050.5341036,-0.171974034620506,-4.096051930758987,8.748155792276965,0.4266666666666667,0.4155555555555556,-0.6611111111111111,-0.005037648284145583,-0.002181661564992912,0.005669487685458444
1589986050.5441036,-0.17821513421994045,-4.083569731560119,8.784645402659821,0.4266666666666667,0.4155555555555556,-0.6611111111111111,-0.005648852566033628,-0.003973925822883127,0.0036618896545920652
1589986050.5541036,-0.17366034019695614,-4.08,8.796339659803044,0.4266666666666667,0.42330402864816474,-0.6653375509798071,-0.0026879554869960113,-0.003671773523614257,0.003272492347489368
1589986050.5641036,-0.19288451303885046,-4.07237182898705,8.82288451303885,0.4266666666666667,0.42777777777777776,-0.6677777777777778,0.002237586719532822,-0.004104596722996687,0.003272492347489368
1589986050.5741036,-0.20734556969936874,-4.084691139398737,8.741853163607576,0.4266666666666667,0.42777777777777776,-0.6677777777777778,0.0024712149931849026,-0.0019594910670724273,0.003272492347489368
1589986050.5841036,-0.18058670729087323,-4.09911993906369,8.76088006093631,0.4266666666666667,0.42777777777777776,-0.6677777777777778,-0.0011228307011564367,-0.0033364921848093297,0.004363323129985824
1589986050.5941036,-0.19697037167242828,-4.074544442491358,8.78545555750864,0.4266666666666667,0.42777777777777776,-0.6677777777777778,-0.002016420973030987,-0.00512367272855843,0.004363323129985824
1589986050.6041036,-0.19943342294211727,-4.089433422942117,8.828866845884235,0.4188888888888889,0.42777777777777776,-0.6677777777777778,0.0,-0.0010290268129569795,0.0030252764693314616
1589986050.6141036,-0.19229710416170415,-4.082297104161704,8.814594208323408,0.4188888888888889,0.42777777777777776,-0.6677777777777778,0.0,-0.00025057519301876087,-8.853001042141229e-05
1589986050.6241035,-0.18054470760016827,-4.088910584799663,8.721089415200337,0.4188888888888889,0.42777777777777776,-0.6677777777777778,-0.00017825514531700197,0.0,-0.003094237202172366
1589986050.6341035,-0.19069885736726946,-4.071397714734539,8.742795429469078,0.4188888888888889,0.42777777777777776,-0.6677777777777778,-0.0030437918088517795,-7.623351287919616e-05,7.623351287919616e-05
1589986050.6441035,-0.1985426289903316,-4.087085257980663,8.774170515961325,0.4188888888888889,0.42777777777777776,-0.6677777777777778,-0.00047692354765927966,-0.0009318562666100296,0.0009318562666100296
1589986050.6541035,-0.18561226854289986,-4.09,8.787193865728549,0.4188888888888889,0.4333730066777611,-0.6781689171634612,0.002354187054554611,-0.00030610176431158584,0.00030610176431158584
1589986050.6641035,-0.20064823250728864,-4.088055302478134,8.81481413994169,0.4188888888888889,0.4355555555555555,-0.6822222222222222,0.0030603587555397796,0.001232253177129515,-0.001090830782496456
1589986050.6741035,-0.20977384815884292,-4.060678455523471,8.740452303682314,0.4188888888888889,0.4355555555555555,-0.6822222222222222,-2.4669338985239148e-05,0.003272492347489368,-0.001090830782496456
1589986050.6841035,-0.19929546581245472,-4.09,8.761409068375091,0.4188888888888889,0.4355555555555555,-0.6822222222222222,-0.0008602725087677977,0.003349345105398921,-0.0012445362983155616
1589986050.6941035,-0.19129809709034054,-4.09,8.777403805819318,0.4188888888888889,0.4355555555555555,-0.6822222222222222,0.0017568602855491486,0.0042217227035045695,-0.0029892914945268594
1589986050.7041035,-0.1905448031543342,-4.089455196845666,8.779182795268499,0.4311111111111111,0.4355555555555555,-0.6822222222222222,-0.0010314019773815639,0.003213063542374476,0.00106111637993901
1589986050.7141035,-0.2073344274763325,-4.072665572523667,8.753998358785502,0.4311111111111111,0.4355555555555555,-0.6822222222222222,0.0008000619263171273,0.0013815996386757846,0.00014538442808966433
1589986050.7241035,-0.17517224360872571,-4.078706939097819,8.715172243608727,0.4311111111111111,0.4355555555555555,-0.6822222222222222,0.0001410510635742135,0.0001410510635742135,-0.001899559437844485
1589986050.7341034,-0.1895317031636644,-4.08,8.739297554745496,0.4311111111111111,0.4355555555555555,-0.6822222222222222,0.0010652891522754285,0.0,-0.0011163724127174835
1589986050.7441034,-0.20331247669838387,-4.086656238349192,8.766624953396768,0.4311111111111111,0.4355555555555555,-0.6822222222222222,-0.0010874181235831332,0.0,-0.001090830782496456
1589986050.7541034,-0.19324753409046252,-4.098376232954768,8.796752465909538,0.4311111111111111,0.439278325757675,-0.6645390637621549,0.0005594542595339824,0.0027411158245268944,-0.002004536057338754
1589986050.7641034,-0.17689257115124624,-4.080338856726869,8.8,0.4311111111111111,0.44,-0.6611111111111111,0.0032355288126368602,0.0018426936607290982,-0.001466762221612777
1589986050.7741034,-0.18611218639301758,-4.078056093196509,8.73555125442793,0.4311111111111111,0.44,-0.6611111111111111,0.0061208900190682335,0.0028483976715788666,-0.001969614227037661
1589986050.7841034,-0.18208507143320293,-4.08,8.759574642833986,0.4311111111111111,0.44,-0.6611111111111111,0.003091445606209616,0.003272492347489368,-0.000454892020608352
1589986050.7941034,-0.18808006004503378,-4.0880800600450335,8.786160120090067,0.4311111111111111,0.44,-0.6611111111111111,0.0004188659206844033,0.0006282988810266052,0.0008813978221542543
1589986050.8041034,-0.19,-4.09,8.813065377366957,0.41658846610228645,0.4306029944060546,-0.6662367505259904,-0.001677361576118238,-0.000838680788059119,0.00025214999443733696
1589986050.8141034,-0.19995885934598115,-4.079917718691962,8.829547452805793,0.4122222222222222,0.42777777777777776,-0.6677777777777778,-0.0010953185316780363,0.0011042940300411968,-0.0010818552841332955
1589986050.8241034,-0.19009850248019372,-4.060197004960387,8.721083527282131,0.4122222222222222,0.42777777777777776,-0.6677777777777778,-0.0021709166112381566,0.004331088268721559,0.0010693408749869457
1589986050.8341033,-0.1711348871019036,-4.06,8.757730225796193,0.4122222222222222,0.42777777777777776,-0.6677777777777778,-0.00012379697854146337,0.004363323129985824,-0.0009670338039549926
1589986050.8441033,-0.17,-4.0685008943772765,8.777001788754552,0.4122222222222222,0.42777777777777776,-0.6677777777777778,-0.0018546074530968173,0.0025087156768890066,-0.001090830782496456
1589986050.8541033,-0.18942696909964185,-4.089426969099642,8.809140453649464,0.4305699152607729,0.42777777777777776,-0.6753327102054163,-0.0043008151554425915,0.002181661564992912,0.0010283228079532236
1589986050.8641033,-0.1736011624411264,-4.106398837558874,8.81,0.4311111111111111,0.42777777777777776,-0.6755555555555556,-0.0007856517687101442,0.001287243724673992,0.00019641294217753605
1589986050.8741033,-0.17969097324316377,-4.11,8.751854160541017,0.4311111111111111,0.42777777777777776,-0.6755555555555556,0.0010571211925992558,0.001090830782496456,0.0
1589986050.8841033,-0.18972137694941044,-4.100278623050589,8.75972137694941,0.4311111111111111,0.42777777777777776,-0.6755555555555556,0.002151268504963294,0.001090830782496456,0.0
1589986050.8941033,-0.19,-4.115415823801872,8.821663295207486,0.4311111111111111,0.42777777777777776,-0.6755555555555556,0.0005000560509305994,0.0027724362965587685,-0.0008408027570311563
1589986050.9041033,-0.19833911292577885,-4.1033217741484425,8.848339112925778,0.42740483869965384,0.43797002690928527,-0.6635101702183195,-0.00181931221563073,-0.00036613208377209204,-0.00018117467468109093
1589986050.9141033,-0.1868747038022675,-4.119687944296598,8.830312055703402,0.4266666666666667,0.44,-0.6611111111111111,-0.0007499138528058826,0.00034091692969057336,0.0
1589986050.9241033,-0.18963360180277927,-4.120366398197221,8.752564787380544,0.4266666666666667,0.44,-0.6611111111111111,0.0,-0.0010108950960605434,-0.0010508629392784997
1589986050.9341033,-0.17144458000090373,-4.12,8.796388549997742,0.4266666666666667,0.44,-0.6611111111111111,0.0,-0.001090830782496456,-0.001090830782496456
1589986050.9441032,-0.1851141971094771,-4.104885802890522,8.830228394218954,0.4266666666666667,0.44,-0.6611111111111111,-0.0008243515729868285,-0.00026647920950962744,0.0013822239364640295
1589986050.9541032,-0.18380686722384793,-4.106193132776152,8.846193132776152,0.4294191701227343,0.43724749654393236,-0.6652398662952125,-0.001090830782496456,0.0006755659872314423,0.0008305295905300274
1589986050.9641032,-0.19918546214771038,-4.119592731073856,8.763665420335304,0.4311111111111111,0.4355555555555555,-0.6677777777777778,-0.0021372354168536075,4.442614813930418e-05,-0.0020928092687143036
1589986050.9741032,-0.1863089762673312,-4.106308976267331,8.739463464400997,0.4311111111111111,0.4355555555555555,-0.6677777777777778,5.852695472978583e-05,0.003733647532871163,-0.0006882025518444466
1589986050.9841032,-0.18971178524845375,-4.109711785248454,8.778558926242269,0.4311111111111111,0.4355555555555555,-0.6677777777777778,0.002150222212697289,0.004394762482281447,-0.0010593914302008329
1589986050.9941032,-0.19,-4.102548403409911,8.794903193180177,0.4311111111111111,0.4355555555555555,-0.6677777777777778,0.0013688184710715355,0.0011119507543003175,0.00216054159318905
