time,acc_x,acc_y,acc_z,mag_x,mag_y,mag_z,gyr_x,gyr_y,gyr_z
1589986079.4908931,-3.97,-0.43,9.17,0.31222222222222223,-0.38666666666666666,-0.64,-0.016362461737446838,0.01854412330243975,0.014180800172453925
1589986079.500893,-3.9438188968186263,-0.3863648280310439,9.047821518486922,0.31222222222222223,-0.38666666666666666,-0.64,-0.007794715756459349,0.006168490218791156,0.017036715499449757
1589986079.510893,-3.9520605856880153,-0.36,9.07,0.31222222222222223,-0.38666666666666666,-0.64,-0.0056458845755952254,0.0008330113859176462,0.016812011797138593
1589986079.520893,-3.96,-0.36238085742771686,9.069404785643071,0.31268516672205604,-0.38712961116650046,-0.6381482220006647,-0.0020518059364484685,-0.004493178758530268,0.01854412330243975
1589986079.530893,-3.946993574955673,-0.4130064250443271,9.054797429982269,0.32,-0.3944444444444444,-0.6088888888888889,-0.00028375617617169634,-0.006828740871150432,0.017409098597752963
1589986079.540893,-3.9127708891703237,-0.45,9.02522192442494,0.32,-0.3944444444444444,-0.6088888888888889,-0.0013930879026839698,-0.007535063104079354,0.014281552545849762
1589986079.550893,-3.933408897928556,-0.4434088979285559,8.895379238166703,0.32,-0.3944444444444444,-0.6088888888888889,-0.005321960067333473,-0.006544984694978735,0.014552653251939647
1589986079.560893,-3.91,-0.4204353673187613,8.952612203912567,0.32,-0.3944444444444444,-0.6088888888888889,-0.008774137467271428,-0.006355019865779618,0.011856664985561677
1589986079.570893,-3.91,-0.42795621223260233,8.997737273395614,0.32,-0.3944444444444444,-0.6088888888888889,-0.009594534381511397,-0.003073432208819741,0.009395474242841768
1589986079.580893,-3.9483223247232475,-0.4111184501845018,9.137203874538747,0.3,-0.38666666666666666,-0.6088888888888889,-0.009390463080987897,-0.005759163884968143,0.004180317146494306
1589986079.590893,-3.9251066420664205,-0.42659557195571957,9.098511070110701,0.3,-0.38666666666666666,-0.6088888888888889,-0.0034814407826162727,-0.009979894098090731,0.001647879018620753
1589986079.600893,-3.922843895965115,-0.4328902600872128,9.025734156052327,0.3,-0.38666666666666666,-0.6088888888888889,0.005604206834371734,-0.013555300779102187,0.0006254993933517398
1589986079.610893,-3.937302263051759,-0.39674434237060274,9.004046605422362,0.3,-0.38666666666666666,-0.6088888888888889,0.011912859587469697,-0.015921045561513924,-0.0017402453890599972
1589986079.620893,-3.949403726162229,-0.399105589243343,9.040894410756657,0.3003643895675269,-0.38689855093691106,-0.6088888888888889,0.009784955349616192,-0.01857664499529166,-0.0011233524753483694
1589986079.630893,-3.9309737235257933,-0.3714605852886897,9.06853941471131,0.31162716895645975,-0.39406577418441374,-0.6088888888888889,0.008779754639750455,-0.019581845705157405,-0.0021285531852141054
1589986079.640893,-3.9410568590685653,-0.37403790604571024,9.027208483251407,0.31222222222222223,-0.3944444444444444,-0.6088888888888889,0.0049190757916099115,-0.023557809993773104,-0.0014160125631702209
1589986079.650893,-3.9233712067414666,-0.3701136202243999,8.953371206741467,0.31222222222222223,-0.3944444444444444,-0.6088888888888889,0.0007230891737213168,-0.024353624779868206,-0.0010784367386674947
1589986079.660893,-3.9197905222295466,-0.38489526111477335,8.972761847213068,0.31222222222222223,-0.3944444444444444,-0.6088888888888889,-0.0005568406312611916,-0.021515344854272596,0.001090830782496456
1589986079.670893,-3.891503136465854,-0.3715031364658539,9.012254704698782,0.31222222222222223,-0.3944444444444444,-0.6091811654239161,-0.002632570134985677,-0.01692040057358821,0.0011318224706776164
1589986079.680893,-3.897507763356955,-0.44749104228043635,9.10499163946174,0.31222222222222223,-0.3944444444444444,-0.6166666666666667,-0.014726085278952273,-0.0013639944747451506,0.004362801990986303
1589986079.690893,-3.764104671753055,-0.47923551144437404,9.099322737905254,0.31222222222222223,-0.3944444444444444,-0.6166666666666667,-0.0111416978708359,0.005342216354975375,0.012866094274943661
1589986079.700893,-3.6662812326485286,-0.32658337960392375,8.881156302054414,0.31222222222222223,-0.3944444444444444,-0.6166666666666667,0.005330872671215965,0.006139330104985953,0.00099195342256167
1589986079.710893,-3.7064309881682287,-0.4323610228228105,9.01823610228228,0.31222222222222223,-0.3944444444444444,-0.6166666666666667,0.017710840157273134,0.0016680649607953783,-0.06820274801123062
1589986079.720893,-4.095757594429725,-0.35693860784192905,9.015843038182677,0.31222222222222223,-0.39347060474733153,-0.616707243320713,0.00848763003823541,0.005319388016930774,-0.12856462550385178
1589986079.730893,-3.7597794072339643,-0.5206202887834535,9.153680243186066,0.31222222222222223,-0.3704977372467667,-0.6176644461332366,0.0028492400560739886,0.02787294794557646,-0.04774770242620474
1589986079.740893,-4.012420918160435,-0.3825425825289967,9.095020277394761,0.31222222222222223,-0.36777777777777776,-0.6177777777777778,-0.014176376331175251,0.022364242961816688,0.004351821142661257
1589986079.7508929,-3.956949793384973,-0.4261872417312164,9.018474896692487,0.31222222222222223,-0.36777777777777776,-0.6177777777777778,0.000499088890296841,-0.0085413402561661,-0.002856584938908667
1589986079.7608929,-3.9288816020611312,-0.3911020025764141,9.004440801030565,0.31222222222222223,-0.36777777777777776,-0.6177777777777778,0.005091735956053839,-0.0269119285191941,0.0009706209492221663
1589986079.7708929,-3.881754151937571,-0.4564916961248583,9.095614620156072,0.31222222222222223,-0.36777777777777776,-0.6177777777777778,0.008630972113437742,-0.030638936056434675,9.567414653390525e-05
1589986079.7808928,-3.8891442718883638,-0.41427864055818137,9.081711456223273,0.29494970865531295,-0.3789541100857779,-0.6228579288268687,0.006731675608102819,-0.02056840865055663,0.001994970651868828
1589986079.7908928,-3.88,-0.4265676600886025,9.070597731239092,0.2933333333333333,-0.38,-0.6233333333333333,-0.002230462660209309,-0.0017584502666421588,0.00573096192518384
1589986079.8008928,-3.88,-0.36322241240434955,8.979099040139618,0.2933333333333333,-0.38,-0.6233333333333333,-0.007604825134563953,0.010525806817597027,0.0018921315863590941
1589986079.8108928,-3.963053135452342,-0.36610627090468467,9.037632838630856,0.2933333333333333,-0.38,-0.6233333333333333,-0.024073105379516763,0.037995688303110786,-0.0016820934448109745
1589986079.8208928,-3.9798541929539946,-0.39970838590798935,9.079635482384987,0.2933333333333333,-0.38,-0.6233333333333333,-0.03048759412497015,0.04899195472388802,0.0010669731603833326
1589986079.8308928,-3.932696876374835,-0.4018257809062913,9.029045314562252,0.32,-0.38666666666666666,-0.6233333333333333,-0.02438748256670585,0.026655047655705307,0.002181661564992912
1589986079.8408928,-3.900639190079674,-0.40968040496016295,8.976484454561792,0.32,-0.38666666666666666,-0.6233333333333333,-0.016397324148185583,0.004467910362202057,0.0020422119220379347
1589986079.8508928,-3.92,-0.3956430802661959,8.893963058535922,0.32,-0.38666666666666666,-0.6233333333333333,-0.01935435738494323,0.01001214655872511,-0.00194402845686792
1589986079.8608928,-3.9255957136636437,-0.3869946420795547,9.000983926238664,0.32,-0.38666666666666666,-0.6233333333333333,-0.026027339362056475,0.01854412330243975,-0.00170122845393032
1589986079.8708928,-3.9573592835911318,-0.42669910448891496,9.120097313466745,0.32,-0.38666666666666666,-0.6233333333333333,-0.025161122366084403,0.01854412330243975,-0.005166096437818606
1589986079.8808928,-3.910956277764788,-0.3973041851765256,9.121826046294132,0.32544930247057907,-0.37667627880393845,-0.6115265113137454,-0.016172707680356033,0.006952802890258564,-0.009912354071013506
1589986079.8908927,-3.9353128824667376,-0.4035153381499467,9.077110426783529,0.32666666666666666,-0.3744444444444445,-0.6088888888888889,-0.00012782130216153347,-0.0030168497431663013,-0.016234640435285306
1589986079.9008927,-3.9021943227130955,-0.42835425796517823,8.986034387461013,0.32666666666666666,-0.3744444444444445,-0.6088888888888889,-0.001030989913442059,-0.0012105125206052503,-0.01533147182400478
1589986079.9108927,-3.9133133369690363,-0.439171665757741,9.024141671211295,0.32666666666666666,-0.3744444444444445,-0.6088888888888889,-0.007816529975405587,0.007906887224370784,-0.005544511161447477
1589986079.9208927,-3.947200508998364,-0.430699872750409,9.066500636247955,0.32666666666666666,-0.3744444444444445,-0.6088888888888889,-0.009664788494472783,0.010679275002971575,-0.006468640420981074
1589986079.9308927,-3.988848793881153,-0.42230241223769366,9.051941557168073,0.3055555555555556,-0.38666666666666666,-0.6166666666666667,-0.008224337831397088,0.0028957610260584485,-0.01028042228924636
1589986079.9408927,-3.980623063345754,-0.43875387330849186,8.994361443420278,0.3055555555555556,-0.38666666666666666,-0.6166666666666667,-0.004635185800783333,0.00020389700309813175,-0.005793982250979165
1589986079.9508927,-3.955850741309855,-0.42390049420657006,8.90950247103285,0.3055555555555556,-0.38666666666666666,-0.6166666666666667,0.0009052278207502054,-0.004390459125613357,-0.006332245737604951
1589986079.9608927,-3.94,-0.4319312021299172,8.960621611714544,0.3055555555555556,-0.38666666666666666,-0.6166666666666667,0.006123661748871447,-0.006544984694978735,-0.004047330920405358
1589986079.9708927,-3.94,-0.4481151004186522,9.049633052302587,0.3055555555555556,-0.38666666666666666,-0.6166666666666667,0.0025928828620426832,-0.006544984694978735,-0.0013992467552837833
1589986079.9808927,-3.948524038286567,-0.44,9.112951923426866,0.31222222222222223,-0.3744444444444445,-0.6233333333333333,0.003755499688729064,-0.003272492347489368,-0.002950487453329571
1589986079.9908926,-3.9408916548385924,-0.44,9.128216690322816,0.31222222222222223,-0.3744444444444445,-0.6233333333333333,0.006253191331389226,-0.003272492347489368,-0.001285359691556129
1589986080.0008926,-3.9664442517209606,-0.41762950114730696,9.047629501147307,0.31222222222222223,-0.3744444444444445,-0.6233333333333333,0.008411559412992212,-0.0030866961564294353,-0.00012929065591950334
1589986080.0108926,-3.9437096861618515,-0.4024731241079011,9.0324731241079,0.31222222222222223,-0.3744444444444445,-0.6233333333333333,0.013371472200704157,-0.008873261075426709,-0.0009559427872048278
1589986080.0208926,-3.94,-0.4088053485863375,9.021194651413662,0.31222222222222223,-0.3744444444444445,-0.6233333333333333,0.017062343759030513,-0.01846210780219787,0.0008301982752212686
1589986080.0308926,-3.9482826910224995,-0.4265653820449989,9.061413455112497,0.3067004282072226,-0.3845677334719438,-0.6178115393183338,0.01564628965409341,-0.01963495408493621,-0.0007161720833534317
1589986080.0408926,-3.9251796786166357,-0.4187949196541589,9.043128875158224,0.3055555555555556,-0.38666666666666666,-0.6166666666666667,0.007767269351137688,-0.020331423246445175,0.002050207691330416
1589986080.0508926,-3.8907213804287237,-0.41,8.922404601429077,0.3055555555555556,-0.38666666666666666,-0.6166666666666667,0.00856926546446324,-0.017243451459265417,0.001090830782496456
1589986080.0608926,-3.9206875238305474,-0.4093124761694527,9.022062571491642,0.3055555555555556,-0.38666666666666666,-0.6166666666666667,0.0021066643491868303,-0.007676685238686504,0.0008658391350782107
1589986080.0708926,-3.929104573458289,-0.400895426541711,9.047313720374868,0.3055555555555556,-0.38666666666666666,-0.6166666666666667,0.0011885066660127248,0.0051775223257509734,-0.001888633914444106
1589986080.0808926,-3.9727690685075987,-0.4127690685075986,9.135846397238602,0.3055555555555556,-0.38,-0.6233333333333333,0.004665381646678835,0.0020306323066464063,-0.0015775445316068887
1589986080.0908926,-3.99,-0.43,9.097231667923944,0.3055555555555556,-0.38,-0.6233333333333333,0.006798222688973251,7.787880651839328e-05,0.002055042567995654
1589986080.1008925,-3.99,-0.43,9.007989516238226,0.3055555555555556,-0.38,-0.6233333333333333,0.008568187891791444,-0.007001982004754374,0.0011700599665865582
1589986080.1108925,-3.98746108906687,-0.4091536963556232,9.039576848177811,0.3055555555555556,-0.38,-0.6233333333333333,0.022139726573247906,-0.03283421897900987,0.0012293068924902225
1589986080.1208925,-3.9506134969325157,-0.3968711656441718,9.033435582822085,0.3055555555555556,-0.38,-0.6233333333333333,0.02682908347870118,-0.05025183034212201,0.0032390312805416236
1589986080.1308925,-3.905811771892316,-0.3658117718923164,9.03,0.3055555555555556,-0.37552069849857717,-0.6063119876279264,0.031211448713664797,-0.07406783372738894,0.004363323129985824
1589986080.1408925,-3.860017413244727,-0.3400087066223636,9.003344942163151,0.3055555555555556,-0.3744444444444445,-0.6022222222222222,0.030180284812514335,-0.07817588949718982,0.005817131009868714
1589986080.1508925,-3.6945030145704236,-0.3687991961145537,8.844503014570424,0.3055555555555556,-0.3744444444444445,-0.6022222222222222,0.0178135078264895,-0.05843622154725561,0.006544984694978735
1589986080.1608925,-3.978015165031222,-0.4296030330062444,9.089603033006245,0.3055555555555556,-0.3744444444444445,-0.6022222222222222,-0.001090830782496456,0.00538920034001873,0.004276718366701092
1589986080.1708925,-3.892979482604817,-0.4125958965209634,9.072595896520964,0.3055555555555556,-0.3744444444444445,-0.6022222222222222,-0.001090830782496456,0.002606414139979266,0.0005663367666484723
1589986080.1808925,-3.928569203017383,-0.40028615939652346,9.118569203017381,0.3120314492912066,-0.386316916293138,-0.6227292190517838,0.0010284004868107782,-0.005235647877582407,0.0
1589986080.1908925,-3.883967316488299,-0.3809918291220747,9.108098050535103,0.31222222222222223,-0.38666666666666666,-0.6233333333333333,0.002947917026288715,0.0006580636875622521,0.002947917026288715
1589986080.2008924,-3.92,-0.39034228120946013,9.000342281209461,0.31222222222222223,-0.38666666666666666,-0.6233333333333333,0.0,-0.0031978181715795217,3.73370879549231e-05
1589986080.2108924,-3.9175826272375285,-0.3993956568093822,9.011208686381236,0.31222222222222223,-0.38666666666666666,-0.6233333333333333,-0.0002636944622072124,-0.0012886016291518653,0.0009589835513928497
1589986080.2208924,-3.886201672184501,-0.3915504180461254,9.026899163907748,0.31222222222222223,-0.38666666666666666,-0.6233333333333333,-0.003686825637805204,-0.003855950010850359,-0.000752582036406146
1589986080.2308924,-3.9094440248405506,-0.38027798757972475,9.068610062101376,0.31222222222222223,-0.4011111111111111,-0.6311111111111111,-0.004454294352720454,-0.006484337213155648,-0.0009695358188502824
1589986080.2408924,-3.8918445787176905,-0.38907771064115476,9.024611446794227,0.31222222222222223,-0.4011111111111111,-0.6311111111111111,-0.007333996990575997,-0.004564535454585288,0.0028700676982904407
1589986080.2508924,-3.9068100823782235,-0.39,8.96956975286533,0.31222222222222223,-0.4011111111111111,-0.6311111111111111,-0.00671896771175182,-0.0006959320670923397,0.002355644581765997
1589986080.2608924,-3.91,-0.4,9.020848764299036,0.31222222222222223,-0.4011111111111111,-0.6311111111111111,-0.0043448059654963905,-0.0010723136180070228,-3.703432897886615e-05
1589986080.2708924,-3.91,-0.4,9.051644370695605,0.31222222222222223,-0.4011111111111111,-0.6311111111111111,-0.003672950057035931,-0.000400457709546563,-0.001380746145899786
1589986080.2808924,-3.91,-0.41242109893332357,9.082421098933324,0.29152039066668295,-0.3879999511259362,-0.6262806837481519,-0.0005626289337087218,0.0020323975603354846,-0.0008267298581025888
1589986080.2908924,-3.9160054724761055,-0.42,9.083994527523895,0.2788888888888889,-0.38,-0.6233333333333333,0.0017459262065335566,0.001962301499415167,-0.0006550954240371006
1589986080.3008924,-3.895779338555937,-0.40385289237062477,8.999264461853125,0.2788888888888889,-0.38,-0.6233333333333333,0.0004202853599523256,-0.0006705454225441304,0.0006705454225441304
1589986080.3108923,-3.896453534065704,-0.3870929318685925,8.999360602197111,0.2788888888888889,-0.38,-0.6233333333333333,-0.0007039713614759163,-0.001090830782496456,0.001090830782496456
1589986080.3208923,-3.9066471076157416,-0.36670578476851706,9.023294215231482,0.2788888888888889,-0.38,-0.6233333333333333,-0.001815917742678196,-0.003266091663041676,0.00036574382231471597
1589986080.3308923,-3.91,-0.379719733079123,9.076012710517952,0.2832710517953607,-0.39387684920382726,-0.609456484129506,-0.005766810209213073,-0.004363323129985824,0.0
1589986080.3408923,-3.91,-0.41008860108952616,9.049202590194266,0.2855555555555556,-0.4011111111111111,-0.6022222222222222,-0.007626150597893406,-0.004363323129985824,2.8994638745357544e-05
1589986080.3508923,-3.91,-0.418710864425943,8.971602220166513,0.2855555555555556,-0.4011111111111111,-0.6022222222222222,-0.006685607571677991,-0.004363323129985824,0.0028506237173916023
1589986080.3608923,-3.91,-0.39,9.021617316925296,0.2855555555555556,-0.4011111111111111,-0.6022222222222222,-0.005365942958124045,-0.0032136850445838782,0.0020934506106346767
1589986080.3708923,-3.91,-0.39,9.062854474249102,0.2855555555555556,-0.4011111111111111,-0.6022222222222222,-0.0031168049285511252,-0.0017142596915352647,-0.00015568741893824288
1589986080.3808923,-3.91,-0.39,9.08,0.30887604092315013,-0.3952809897692124,-0.6206842731382346,0.0016341439302666396,-0.001090830782496456,-0.001090830782496456
1589986080.3908923,-3.919719987858552,-0.38028001214144785,9.099439975717104,0.31222222222222223,-0.3944444444444444,-0.6233333333333333,-0.0009991970234872302,-0.003211403174816551,-0.0021511169786565033
1589986080.4008923,-3.910134563815138,-0.3898654361848622,9.001345638151378,0.31222222222222223,-0.3944444444444444,-0.6233333333333333,-0.004319287224457073,-0.004348644494809574,0.0010467948769677057
1589986080.4108922,-3.890852225409457,-0.3804261127047284,9.028721661885815,0.31222222222222223,-0.3944444444444444,-0.6233333333333333,-0.004363323129985824,-0.005407672226969222,4.6481685513057903e-05
1589986080.4208922,-3.89,-0.38,9.04703140041905,0.31222222222222223,-0.3944444444444444,-0.6233333333333333,-0.005601881519727326,-0.004834874717611529,0.0
1589986080.4308922,-3.89,-0.3756104505752434,9.064389549424757,0.31222222222222223,-0.39103035044741147,-0.6169928730531293,-0.004629682441453079,-0.001969195313078754,0.000478825563381414
1589986080.4408922,-3.9002373959405108,-0.3802373959405107,9.034169114208213,0.31222222222222223,-0.38666666666666666,-0.6088888888888889,-0.004973478221121247,0.001090830782496456,0.001090830782496456
1589986080.4508922,-3.921466396585401,-0.3957331982927006,8.971334008536497,0.31222222222222223,-0.38666666666666666,-0.6088888888888889,-0.007010420559491801,0.000465435864513065,0.001090830782496456
1589986080.4608922,-3.9059146743363895,-0.3939786685840973,8.97408532566361,0.31222222222222223,-0.38666666666666666,-0.6088888888888889,-0.007858635426994661,0.0006568253660079625,0.0017476561485044186
1589986080.4708922,-3.9089668140322673,-0.39,9.040578170752713,0.31222222222222223,-0.38666666666666666,-0.6088888888888889,-0.008036993440228884,-0.0002884748569890725,0.0014920087452501476
1589986080.4808922,-3.92,-0.3959265588444716,9.099632794222357,0.31222222222222223,-0.38666666666666666,-0.6049378496592411,-0.005049866348744707,-0.00044434350031383456,0.00044434350031383456
1589986080.4908922,-3.8944462578689674,-0.3744462578689671,9.068892515737934,0.31222222222222223,-0.38666666666666666,-0.6022222222222222,-0.00048501149503864336,-0.0009291602841502415,0.0
1589986080.5008922,-3.8836067003135533,-0.3955731987457871,9.00246030282198,0.31222222222222223,-0.38666666666666666,-0.6022222222222222,-0.0027896032398804387,-0.001090830782496456,0.0006974008099701097
1589986080.5108922,-3.857240188616196,-0.37206698102699287,9.000346415178406,0.31222222222222223,-0.38666666666666666,-0.6022222222222222,-0.009328743702239212,0.011322720648137016,0.001090830782496456
1589986080.5208921,-3.8726665956086124,-0.3751110637390748,9.04022212747815,0.31222222222222223,-0.38666666666666666,-0.6022222222222222,-0.018325933892246522,0.031755244437799195,0.001090830782496456
1589986080.5308921,-3.8805265493270227,-0.41,9.070131637331755,0.31222222222222223,-0.3944444444444444,-0.6233333333333333,-0.03278236109633559,0.05675191950053665,0.003243773536768414
1589986080.5408921,-3.9159760813066535,-0.41,9.078994020326663,0.31222222222222223,-0.3944444444444444,-0.6233333333333333,-0.036649305167183,0.05868539153596038,0.0013103015013447086
1589986080.550892,-3.9729143046891675,-0.4364571523445839,9.009447593747776,0.31222222222222223,-0.3944444444444444,-0.6233333333333333,-0.03035418215945642,0.0492847701899185,0.00301484919547448
1589986080.560892,-3.98,-0.44,9.035487711213516,0.31222222222222223,-0.3944444444444444,-0.6233333333333333,-0.021710213568994365,0.028641010533819195,-0.0005986164317156048
1589986080.570892,-3.9553100087839965,-0.4276550043919983,9.058517493412003,0.31222222222222223,-0.3944444444444444,-0.6233333333333333,-0.015339264379835928,0.012040322499973518,-0.001090830782496456
1589986080.580892,-3.9110478618825266,-0.3910478618825264,9.064209572376505,0.3051450329046176,-0.3860804934327298,-0.6111090972392889,-0.01326241394656618,0.0013775793388316176,-0.0029857437911542063
1589986080.590892,-3.872536099687703,-0.3525360996877029,9.025072199375405,0.3,-0.38,-0.6022222222222222,-0.012275784168143613,0.006667556015086095,-0.012935895149382228
1589986080.600892,-3.985324234310716,-0.3911872265395416,8.962337882844642,0.3,-0.38,-0.6022222222222222,-0.0093034409341618,0.014824342606273098,-0.012383668390254449
1589986080.610892,-3.907962013867953,-0.37449050346698826,8.958503165511004,0.3,-0.38,-0.6022222222222222,-0.014291955072810818,0.02192777055028601,-0.0008685209817826771
1589986080.620892,-3.918570294357,-0.41999801512474944,9.074281177427999,0.3,-0.38,-0.6022222222222222,-0.019167300523650385,0.03225705339730557,-0.006700508354903551
1589986080.630892,-3.93,-0.44525575715948335,9.12,0.3105115143189667,-0.38759164923036477,-0.609813871452587,-0.02072578486743266,0.04001061500880643,-0.009244162872979049
1589986080.640892,-3.916391744362101,-0.43639174436210054,9.1063917443621,0.32,-0.3944444444444444,-0.6166666666666667,-0.02369464569661299,0.048086522543628725,-0.007984431052676565
1589986080.650892,-3.91,-0.4387113507960966,9.039020544427324,0.32,-0.3944444444444444,-0.6166666666666667,-0.027939890879070624,0.05492952079759054,-0.014287642201330185
1589986080.660892,-3.9175505071159824,-0.46265152134794696,9.105505071159824,0.32,-0.3944444444444444,-0.6166666666666667,-0.01930164220077858,0.04080698385328953,-0.016918896072064798
1589986080.670892,-3.875368374015528,-0.44210523375970506,9.096526280511647,0.32,-0.3944444444444444,-0.6166666666666667,-0.004799643256973319,0.023217458554491255,-0.02049613948848896
1589986080.680892,-3.782600820078403,-0.3954003514621728,9.045400351462172,0.32,-0.3880667577864892,-0.6175777647606603,0.004363323129985824,0.00682869015510443,-0.03811341028849725
1589986080.690892,-3.744342123056119,-0.32585530764029746,8.950197430696416,0.32,-0.38666666666666666,-0.6177777777777778,-0.0033334874155843347,0.01035212425966329,-0.05754490087560293
1589986080.700892,-3.7373389266496746,-0.20927180685358254,8.855966440101954,0.32,-0.38666666666666666,-0.6177777777777778,-0.024447422387366673,0.01789328564992647,-0.08815560090214428
1589986080.710892,-3.6775015885118822,-0.11750158851188207,8.87749904689287,0.32,-0.38666666666666666,-0.6177777777777778,-0.04690530777590936,0.029861232751191576,-0.1150821623700315
1589986080.720892,-3.5570680993294648,-0.03635163122603399,8.948013205651362,0.32,-0.38666666666666666,-0.6177777777777778,-0.06481740801476357,0.04647227236055086,-0.1446293047900606
1589986080.730892,-2.934449099595737,-0.4689761117236311,9.15881881661154,0.30937008452774717,-0.383123361509249,-0.624864388092613,-0.04569895451046013,0.07506976375351446,-0.1830620112206636
1589986080.740892,-2.585321067821068,-0.5111222111222111,8.998341658341658,0.3,-0.38,-0.6311111111111111,0.051948772751940986,0.01942481568744231,-0.21225703570200147
1589986080.750892,-2.60272210818768,-0.43455578362463976,8.711663245630405,0.3,-0.38,-0.6311111111111111,0.06237118056083077,0.0008908078213221353,-0.2485341834585838
1589986080.760892,-2.9248042083791836,-0.6101355377224296,8.985737942510534,0.3,-0.38,-0.6311111111111111,0.006006141984443103,0.03289988267283777,-0.286016159072682
1589986080.770892,-3.1611422672593594,-0.6741142267259359,9.153514020266712,0.3,-0.38,-0.6311111111111111,-0.020594840131117648,0.05793863350114684,-0.28804479894722185
1589986080.780892,-3.3304551736240597,-0.6247724131879703,9.21681839120802,0.3,-0.38,-0.6229292463982178,-0.012370940408378599,0.043608321679910036,-0.28111202432337257
1589986080.790892,-3.5279813107246736,-0.48460362646203353,9.112018689275327,0.3,-0.38,-0.6177777777777778,-0.0018996886595849228,0.031364473400034405,-0.2839103299675317
1589986080.8008919,-3.156593064678561,-0.4806227359497362,8.942405266876099,0.3,-0.38,-0.6177777777777778,-0.009441886537054729,0.0399851484469555,-0.30027282832197244
1589986080.8108919,-2.435617375900801,-0.5401751278231812,8.902981601513748,0.3,-0.38,-0.6177777777777778,-0.014161696690414154,0.054991195567593486,-0.31950810858196416
1589986080.8208919,-1.9720280243512567,-0.5719929939121858,8.994982484780463,0.3,-0.38,-0.6177777777777778,0.004041041491801059,0.049353405758743626,-0.33423284449378987
1589986080.8308918,-2.1238934444395197,-0.5414808740747308,8.961297814813173,0.31372525843515603,-0.38,-0.6111517909470128,0.013129906725463082,0.025573722905133656,-0.3470057898009391
1589986080.8408918,-2.188001783106019,-0.5245004457765048,8.968001783106018,0.3322222222222222,-0.38,-0.6022222222222222,0.00016396500408790132,0.027815698686926155,-0.36411853717054343
1589986080.8508918,-2.1150996346103135,-0.5268625456737108,8.895099634610313,0.3322222222222222,-0.38,-0.6022222222222222,0.007207734146550866,0.022993284587570606,-0.37871058529174595
1589986080.8608918,-2.1764572437799004,-0.5415276325039867,8.933401978771927,0.3322222222222222,-0.38,-0.6022222222222222,0.013256608245926553,0.026088941133232985,-0.38870685688532003
1589986080.8708918,-2.3083685880486517,-0.5454420941300899,9.048368588048652,0.3322222222222222,-0.38,-0.6022222222222222,0.018655513796411227,0.03312566390038299,-0.3992590069105017
1589986080.8808918,-2.3616922873045323,-0.5521318768694862,9.154263753738972,0.3299755783575025,-0.3719120820870092,-0.6080634962704934,0.019587002302024602,0.030936437618278904,-0.41064145349286874
1589986080.8908918,-2.315425703687541,-0.5791485926249181,9.199148592624919,0.32666666666666666,-0.36,-0.6166666666666667,0.010595077777012272,0.029579912900719846,-0.42527286453497826
1589986080.9008918,-2.243867780380972,-0.59,9.125831720484873,0.32666666666666666,-0.36,-0.6166666666666667,0.011570673343398029,0.04474372970469369,-0.44333198645407607
1589986080.9108918,-2.171586268220649,-0.5544828352758107,8.83558671282035,0.32666666666666666,-0.36,-0.6166666666666667,0.022704307821845397,0.06444174041730207,-0.46027038303321993
1589986080.9208918,-2.251054790448826,-0.5334960863965125,8.733496086396514,0.32666666666666666,-0.36,-0.6166666666666667,0.013409534282227908,0.027954622004021226,-0.48243058625694446
1589986080.9308918,-2.206117192530586,-0.5612942691564713,9.08988409529942,0.3475295127709809,-0.3713007083065036,-0.6053659583601632,-0.033565699036161065,-0.0005197777070491813,-0.5150069905812372
1589986080.9408917,-2.2614506997790174,-0.5996184362832789,8.88641102809639,0.3533333333333333,-0.3744444444444445,-0.6022222222222222,0.0005081207557401657,0.026896170259496643,-0.527878854438748
1589986080.9508917,-2.381097832260507,-0.6240150511170012,8.822045153351002,0.3533333333333333,-0.3744444444444445,-0.6022222222222222,0.019420071572784074,0.04243906381671966,-0.5400809922581236
1589986080.9608917,-2.4368505205038247,-0.6468505205038247,8.95233680335883,0.3533333333333333,-0.3744444444444445,-0.6022222222222222,0.013986060496324117,0.03614623106458018,-0.5553532003457273
1589986080.9708917,-2.4438014716631744,-0.66,9.024503679157934,0.3533333333333333,-0.3744444444444445,-0.6022222222222222,0.016840500879154875,0.030804740230601518,-0.5663260554812628
1589986080.9808917,-2.4301754300472687,-0.66,8.990438575118171,0.3533333333333333,-0.3744444444444445,-0.6022222222222222,0.03467694764500405,0.033777481358243044,-0.5715283524546355
1589986080.9908917,-2.4942531013537863,-0.7185062027075719,9.234253101353787,0.3588888888888889,-0.36,-0.6233333333333333,0.007798763484414231,0.042617108416477006,-0.5921332642555981
1589986081.0008917,-2.5069432546284824,-0.7161134907430351,9.146266062515487,0.3588888888888889,-0.36,-0.6233333333333333,0.012225421604573452,0.038162434388782876,-0.5985326603960038
1589986081.0108917,-2.530302113485287,-0.6951510567426434,8.974415191493694,0.3588888888888889,-0.36,-0.6233333333333333,0.021623119287908665,0.0534177528733705,-0.6009201757314384
1589986081.0208917,-2.615714555848085,-0.7378572779240425,9.011020523934894,0.3588888888888889,-0.36,-0.6233333333333333,0.010975059706475021,0.04410070073961607,-0.6089062204175136
1589986081.0308917,-2.6272227106128025,-0.7463427960886677,8.997222710612801,0.3646552638736737,-0.358179039478489,-0.625457787275096,0.007539831692585999,0.03956786213845866,-0.6184100711975606
1589986081.0408916,-2.5591509217057307,-0.717979550710721,8.92915092170573,0.3766308563665845,-0.35439727342809607,-0.6298698476672211,0.01187136185355304,0.04018665216145395,-0.629548291611476
1589986081.0508916,-2.537856741632952,-0.7335758420375281,8.929289325303433,0.38,-0.3533333333333333,-0.6311111111111111,0.016129281252062255,0.040126945732206966,-0.6441377216358779
1589986081.0608916,-2.534874467616129,-0.7663808562225809,8.956129791454838,0.38,-0.3533333333333333,-0.6311111111111111,0.020358384441269063,0.03980163010226798,-0.6600781875028882
1589986081.0708916,-2.531892193599306,-0.7991858704076336,8.982970257606246,0.38,-0.3533333333333333,-0.6311111111111111,0.024587487630475878,0.039476314472329,-0.6760186533698984
1589986081.0808916,-2.5575056238700506,-0.8348107205454118,9.014810720545412,0.38329127123231377,-0.3495718804964033,-0.6329918375295761,0.026116770285133685,0.040654707302605675,-0.693056557853937
1589986081.0908916,-2.6327563173656827,-0.8753303247353675,9.055330324735367,0.39229562771897064,-0.33928118736879553,-0.63813718409338,0.022959625174778252,0.04444328143503219,-0.7119994285160696
1589986081.1008916,-2.685598882596051,-0.9155988825960508,9.018802234807898,0.3955555555555556,-0.33555555555555555,-0.64,0.021258134667263416,0.04860729777817965,-0.7266762194224842
1589986081.1108916,-2.700699371923273,-0.943100209358909,8.991701465512364,0.3955555555555556,-0.33555555555555555,-0.64,0.01869670258690369,0.050254505637068944,-0.7388636419413491
1589986081.1208916,-2.6789493591502374,-0.9478987183004742,9.038424038725354,0.3955555555555556,-0.33555555555555555,-0.64,0.014123496603440446,0.04828307227491145,-0.7503749082482943
1589986081.1308916,-2.670729432054247,-0.9314588641084937,9.02609414808137,0.3955555555555556,-0.33555555555555555,-0.64,0.013675169128131302,0.05052470965145717,-0.7579964753285499
1589986081.1408916,-2.6625095049582566,-0.9150190099165132,9.013764257437385,0.3955555555555556,-0.33555555555555555,-0.64,0.013226841652822159,0.05276634702800289,-0.7656180424088053
1589986081.1508915,-2.575681686647375,-0.9220454733360893,8.97386357999173,0.4042550640760645,-0.32819443296127876,-0.6440151577786964,0.01440392670043212,0.054764665652800984,-0.7975089103631846
1589986081.1608915,-2.5275138188598474,-0.9500368502929267,8.970036850292926,0.41,-0.3233333333333333,-0.6466666666666666,0.015818051282045324,0.05535915974377178,-0.8290535032859342
1589986081.1708915,-2.541396559903792,-0.9870574930767788,9.007057493076777,0.41,-0.3233333333333333,-0.6466666666666666,0.0168276327004561,0.05485436903456639,-0.8512642944909713
1589986081.1808915,-2.5790934516933177,-1.0536401775399769,9.083337994771084,0.4159264438634536,-0.316329354221979,-0.6639072306330772,0.022213697421365024,0.05612834075863004,-0.8972937770737702
1589986081.1908915,-2.6268638694009714,-1.1252958041014571,9.114704195898543,0.4222222222222222,-0.3088888888888889,-0.6822222222222222,0.0272707695624114,0.06425250122141506,-0.9453662091429083
1589986081.2008915,-2.669889445275411,-1.1674585419782793,9.04519347076803,0.4222222222222222,-0.3088888888888889,-0.6822222222222222,0.0280843702806563,0.07037366003311288,-0.973786420106391
1589986081.2108915,-2.726274796780127,-1.1862747967801268,8.943725203219872,0.4222222222222222,-0.3088888888888889,-0.6822222222222222,0.029324192006913045,0.06705363421424888,-1.017915041218754
1589986081.2208915,-2.6922530009233614,-1.2021975992613112,8.95,0.4222222222222222,-0.3088888888888889,-0.6822222222222222,0.025454732719529485,0.07375395995652054,-1.0551239527135468
1589986081.2308915,-2.645385633896061,-1.2752313803376365,8.929691492883151,0.4323764757806466,-0.29647813453970356,-0.6856069734083636,0.02515641380935405,0.07147465593299371,-1.102562142186903
1589986081.2408915,-2.651710637435395,-1.308289362564605,8.90542765935885,0.44222222222222224,-0.28444444444444444,-0.6888888888888889,0.03094872610323252,0.07807331234668989,-1.1372412233499134
1589986081.2508914,-2.640341628005061,-1.3265527906649797,8.889658371994939,0.44222222222222224,-0.28444444444444444,-0.6888888888888889,0.03159682685798887,0.08098571260714761,-1.1727887806597723
1589986081.2608914,-2.6491640118131294,-1.3579259586540473,8.897089970467176,0.44222222222222224,-0.28444444444444444,-0.6888888888888889,0.031816477022005615,0.08413249609701035,-1.2245539583098068
1589986081.2708914,-2.6310767378874513,-1.4033848931688233,8.915538368943725,0.44222222222222224,-0.28444444444444444,-0.6888888888888889,0.03235568890849223,0.09114309728006967,-1.2644746953801629
1589986081.2808914,-2.6081414392059554,-1.4358114143920595,8.917905707196029,0.44485745795423215,-0.2708290598290598,-0.6976730079955886,0.03701110348502554,0.09226371270057245,-1.3046820671585817
1589986081.2908914,-2.5799094828673,-1.4549547414336501,8.940090517132699,0.4488888888888889,-0.25,-0.7111111111111111,0.04470431430741628,0.09710368741712298,-1.350115381919952
1589986081.3008914,-2.5915662942001645,-1.5093073090504523,8.923042132249794,0.4488888888888889,-0.25,-0.7111111111111111,0.04077801219901822,0.09808934232828177,-1.3968811327409523
1589986081.3108914,-2.618005806124412,-1.568005806124412,8.904002903062207,0.4488888888888889,-0.25,-0.7111111111111111,0.0405798551337535,0.10188707850974854,-1.4348917949692712
1589986081.3208914,-2.6321001921493274,-1.592601152895965,8.94360307438924,0.4488888888888889,-0.25,-0.7111111111111111,0.04093873254541112,0.10885398282508123,-1.4715643518015193
1589986081.3308914,-2.614638947755574,-1.6492222008161548,9.049250048163652,0.45554936725611195,-0.24385186612256335,-0.7131604890702566,0.035158081553202235,0.10975272306035867,-1.517672846671962
1589986081.3408914,-2.5338338266458833,-1.6786058812196787,8.983136767255724,0.47677091421421247,-0.22426274585354747,-0.7196901958265952,0.035959397130382265,0.11536193210061894,-1.5465202074504434
1589986081.3508914,-2.5505643762508337,-1.7420747164776518,8.864904603068712,0.4777777777777778,-0.22333333333333333,-0.72,0.03731456306475702,0.12007376235518293,-1.5987469189837311
1589986081.3608913,-2.47563309510452,-1.736201429372881,8.83310071468644,0.4777777777777778,-0.22333333333333333,-0.72,0.03715024225634709,0.12360211392487035,-1.6401048842008144
1589986081.3708913,-2.47,-1.8006251269344815,8.888281408668101,0.4777777777777778,-0.22333333333333333,-0.72,0.04228674051431517,0.12711588154599213,-1.671263596479132
1589986081.3808913,-2.4552321457101773,-1.861075890717367,8.953691963572455,0.4851617049226891,-0.20446329729633772,-0.7347678542898226,0.04282776979732019,0.13343343987849945,-1.7028696354075774
1589986081.3908913,-2.4005015611506013,-1.8763126951438251,8.919439646582077,0.4977777777777778,-0.17222222222222222,-0.76,0.04788713076136804,0.1408330078520156,-1.7315570876275288
1589986081.4008913,-2.366026894865526,-1.8860268948655257,8.85641075794621,0.4977777777777778,-0.17222222222222222,-0.76,0.05593281510939316,0.14342331141505021,-1.750399214771803
1589986081.4108913,-2.45,-2.004466409547079,8.88138339761323,0.4977777777777778,-0.17222222222222222,-0.76,0.04130066446477096,0.1471112503669272,-1.7858926370545465
1589986081.4208913,-2.4408648588821253,-2.0591351411178747,8.879135141117874,0.4977777777777778,-0.17222222222222222,-0.76,0.04054942189059636,0.14802082331505712,-1.8040002285389163
1589986081.4308913,-2.4003375474870774,-2.07781528305412,8.90218471694588,0.5050601675973788,-0.170522997930982,-0.774564779639202,0.0348058375745791,0.14869204953438628,-1.822704596113686
1589986081.4408913,-2.3190698942318178,-2.0715614436811687,8.902192781594156,0.5311111111111111,-0.16444444444444445,-0.8266666666666667,0.03071358899315613,0.15397746741525567,-1.8394124851725713
1589986081.4508913,-2.2866948608900186,-2.1200422913350283,9.06910974363848,0.5311111111111111,-0.16444444444444445,-0.8266666666666667,0.029692787626177677,0.15780992871382607,-1.850659124898939
1589986081.4608912,-2.120951111807896,-2.043773875780617,8.90762796895822,0.5311111111111111,-0.16444444444444445,-0.8266666666666667,0.06275276919394802,0.1243722099257805,-1.8560327431105244
1589986081.4708912,-1.87864653784219,-1.8876046698872786,8.146465378421901,0.5311111111111111,-0.16444444444444445,-0.8266666666666667,0.0813014099221954,0.11244585836238508,-1.8551282208807003
1589986081.4808912,-1.649704707204395,-1.7784448745161694,7.864209327007117,0.5522550325328449,-0.18307123236359096,-0.8296872268697715,-0.012367765591207641,0.18818155549113907,-1.8587581175438639
1589986081.4908912,-1.7387860493575362,-1.9141085049969406,8.413387721802978,0.5777777777777777,-0.20555555555555555,-0.8333333333333334,-0.029165651425458974,0.22476493741764494,-1.8533670193427962
1589986081.5008912,-1.9953757256217712,-2.1638480587953346,8.636895137668425,0.5777777777777777,-0.20555555555555555,-0.8333333333333334,0.05689344511693963,0.13147618957354307,-1.8483717756328444
1589986081.5108912,-1.9623170761401543,-2.2223170761401545,8.500503055832867,0.5777777777777777,-0.20555555555555555,-0.8333333333333334,0.012246898950764404,0.1113961101681954,-1.8542859533450218
1589986081.5208912,-2.042256264204137,-2.3055067460659933,8.74602312936912,0.5777777777777777,-0.20555555555555555,-0.8333333333333334,-0.01744908748197389,0.16179542585777676,-1.8437209270641193
1589986081.5308912,-2.1206859699088056,-2.389969506055637,9.035609735047899,0.5777777777777777,-0.20555555555555555,-0.8333333333333334,0.03519924313020511,0.13612936468433948,-1.8279264278804657
1589986081.5408912,-2.0621032048836323,-2.4168256390690575,9.100078214421977,0.4544444444444444,-0.2644444444444444,-0.8544444444444445,0.012566299862267215,0.13216365921298245,-1.8122767542553775
1589986081.5508912,-2.070421068807868,-2.482315878443275,8.800210534403934,0.4544444444444444,-0.2644444444444444,-0.8544444444444445,0.03885652483441793,0.12876396381629895,-1.793027251793012
1589986081.5608912,-2.0522423319919096,-2.5419447861715216,8.83402760691424,0.4544444444444444,-0.2644444444444444,-0.8544444444444445,0.022255959410113893,0.12415996592054637,-1.7720308489405232
1589986081.5708911,-1.98,-2.4764188163884677,8.88240171058077,0.4544444444444444,-0.2644444444444444,-0.8544444444444445,0.025960839646335852,0.11100275383142338,-1.7510836138542638
1589986081.5808911,-1.9934898281950733,-2.5792711831358193,8.8688016985506,0.4548726929585737,-0.24324614299504346,-0.8114054687744485,0.026020935605864718,0.11017390903214204,-1.7203081835537024
1589986081.5908911,-2.036983160821875,-2.658553684535764,8.804587362892013,0.4566666666666666,-0.15444444444444444,-0.6311111111111111,0.04315992567098143,0.11017390903214204,-1.6837152264727868
1589986081.600891,-1.969680901622649,-2.6790427048679475,8.875779754226356,0.4566666666666666,-0.15444444444444444,-0.6311111111111111,0.0396567239195485,0.10735784890086054,-1.6438780640384079
1589986081.610891,-1.9840167322344504,-2.7489749016483245,8.722991633882776,0.4566666666666666,-0.15444444444444444,-0.6311111111111111,0.04111610708373706,0.10634231226610556,-1.608247414105502
1589986081.620891,-1.967095395498663,-2.7816184180053476,8.82585194854412,0.4566666666666666,-0.15444444444444444,-0.6311111111111111,0.04482812242880797,0.11147286050754507,-1.5682931598690564
1589986081.630891,-1.9229117417651647,-2.7778568428631427,9.013021539569209,0.46408431831363367,-0.12587274921168243,-0.6269901935294627,0.03493053920478691,0.0941051148846071,-1.535434154482138
1589986081.640891,-1.845728797224364,-2.7319691595990747,8.88624036237471,0.4866666666666667,-0.03888888888888889,-0.6144444444444445,0.033676246504077405,0.09012884210193611,-1.4948566952800828
1589986081.650891,-1.8990154182347943,-2.833704625470438,8.861243171057424,0.4866666666666667,-0.03888888888888889,-0.6144444444444445,0.04472406208235469,0.0922091033523842,-1.4527859037238038
1589986081.660891,-1.8313660070015003,-2.847886690005001,8.674098021004502,0.4866666666666667,-0.03888888888888889,-0.6144444444444445,0.04141782466600621,0.08369595375495867,-1.4030529406231906
1589986081.670891,-1.8312735394242312,-2.8975156929494874,8.767452921151538,0.4866666666666667,-0.03888888888888889,-0.6144444444444445,0.037699699125987626,0.07860927714007854,-1.3613078977780864
1589986081.680891,-1.809607934874146,-2.909215869748292,8.85,0.4924764251478952,-0.023880346145715284,-0.6149285909845469,0.04097625998060079,0.07612049989761964,-1.317084247704367
1589986081.690891,-1.8303968500334928,-3.008664041694577,8.866534383322168,0.5133333333333333,0.03,-0.6166666666666667,0.03776689031175425,0.07316309899089003,-1.2660173471452794
1589986081.700891,-1.7070491937196726,-2.9058743280997272,8.90765026876011,0.5133333333333333,0.03,-0.6166666666666667,0.034029350854645674,0.06793054375093804,-1.2323794920313023
1589986081.710891,-1.612830383480826,-2.81805063913471,8.752683546378236,0.5133333333333333,0.03,-0.6166666666666667,0.047198453146911346,0.06627998311902347,-1.164847101274698
1589986081.720891,-1.674693215339233,-2.921155358898722,8.787051786299573,0.5133333333333333,0.03,-0.6166666666666667,0.05094744655155318,0.06852937916180857,-1.1348551540375633
1589986081.730891,-1.6748437400140601,-2.97484374001406,8.981371508915446,0.5168885054288007,0.039917059003145794,-0.6187249241956215,0.041830331391496195,0.05419686810873904,-1.083827491316903
1589986081.740891,-1.570838981498443,-2.8671938541857482,8.865515891188862,0.5344444444444445,0.08888888888888889,-0.6288888888888889,0.04471354642565404,0.060484833429630326,-1.022963658329283
1589986081.750891,-1.5325447553374885,-2.8539066436812095,8.859820978650047,0.5344444444444445,0.08888888888888889,-0.6288888888888889,0.0370882466048795,0.05563236990731925,-0.9791653529500159
1589986081.760891,-1.5625326850602523,-2.9727941655422696,8.800653701205043,0.5344444444444445,0.08888888888888889,-0.6288888888888889,0.03570688119183352,0.054527277576882464,-0.9286641419464782
1589986081.770891,-1.568248803657517,-3.031244018287585,8.92198085852027,0.5344444444444445,0.08888888888888889,-0.6288888888888889,0.03106101502942451,0.05031391733904557,-0.8793400920075244
1589986081.780891,-1.560787362353904,-2.9939368117695198,8.802597797662461,0.5344444444444445,0.08888888888888889,-0.6288888888888889,0.028619264072693024,0.04624433241115977,-0.8427138276565522
1589986081.790891,-1.5648008490448246,-3.0644025471344736,8.859601698089648,0.5511111111111111,0.12555555555555556,-0.6222222222222222,0.027314217560865182,0.042498952518908,-0.7624061363786911
1589986081.800891,-1.5376518397699943,-3.0147079313299976,8.819415862659994,0.5511111111111111,0.12555555555555556,-0.6222222222222222,0.029003861534347756,0.03715323265348703,-0.7050016157357482
1589986081.810891,-1.4709711695645713,-2.9779615594194286,8.745923118838856,0.5511111111111111,0.12555555555555556,-0.6222222222222222,0.024442995961637532,0.028583959718265606,-0.6342499602477393
1589986081.820891,-1.45,-2.974985927618291,8.751329095063078,0.5511111111111111,0.12555555555555556,-0.6222222222222222,0.028313273084652226,0.030890763083981043,-0.5665976122799734
1589986081.830891,-1.45,-3.051369656633886,8.93881642991954,0.5511111111111111,0.12555555555555556,-0.6222222222222222,0.021496041211663916,0.0286183524596516,-0.5113022870879571
1589986081.840891,-1.3889128381412488,-2.9217825676282496,8.897130270513,0.5788888888888889,0.16,-0.6144444444444445,0.022172388536253623,0.028760107191371037,-0.39646515973126195
1589986081.8508909,-1.4213860113655719,-2.9282772022731147,8.923108809092458,0.5788888888888889,0.16,-0.6144444444444445,0.011545567448724278,0.010340283972986836,-0.34262259955444657
1589986081.8608909,-1.4543837179596355,-3.0550857532146813,8.60404070510091,0.5788888888888889,0.16,-0.6144444444444445,0.012553908223336458,0.01739542080253758,-0.24327222657632167
1589986081.8708909,-1.3972358000510943,-3.0050813250447077,8.746910499872264,0.5788888888888889,0.16,-0.6144444444444445,0.007099271272442446,0.005706913050621841,-0.18794662321725383
1589986081.8808908,-1.393565288579615,-3.052742529676627,8.926708964388046,0.5808391322144904,0.16115795697457588,-0.6152672033474326,-0.004183824982395331,-0.011670058670211777,-0.0937792983727387
1589986081.8908908,-1.5136842105263157,-3.1042105263157893,8.828947368421053,0.65,0.20222222222222225,-0.6444444444444445,-5.741214644718181e-05,-0.0024113101507816396,-0.007176518305897739
1589986081.9008908,-1.4780598788443615,-2.869700605778192,8.879556849953401,0.65,0.20222222222222225,-0.6444444444444445,-0.009882794729118054,-0.015694899730618977,0.04467442572358918
1589986081.9108908,-1.4718984399214794,-2.881523401177808,8.696578158900714,0.65,0.20222222222222225,-0.6444444444444445,-0.0029546198170594417,-0.017867467860957293,0.08796954637248268
1589986081.9208908,-1.477863059641183,-2.7557261192823663,8.81,0.65,0.20222222222222225,-0.6444444444444445,-0.010208995727837619,-0.019401850052560562,0.1275254044900126
1589986081.9308908,-1.4616291944760558,-2.731629194476056,8.817440716021284,0.691233967951281,0.21937720638240432,-0.6714170400215982,-0.008447471685458284,-0.018949951406431294,0.16230500502441914
1589986081.9408908,-1.3684894081112056,-2.6615105918887942,8.864676697844653,1.0933333333333333,0.38666666666666666,-0.9344444444444444,-0.014353484464318684,-0.02114959131843844,0.20152885976673499
1589986081.9508908,-1.3314398796087283,-2.701889841986456,8.780539954853273,1.0933333333333333,0.38666666666666666,-0.9344444444444444,-0.0076947154149860615,-0.015359980861216689,0.23383045370431407
1589986081.9608908,-1.4987540289697487,-2.9275080579394976,8.83124597103025,1.0933333333333333,0.38666666666666666,-0.9344444444444444,-0.016472599597510167,-0.026235007709946606,0.2877660827376956
1589986081.9708908,-1.5394738068424527,-3.008947613684905,8.790526193157547,1.0933333333333333,0.38666666666666666,-0.9344444444444444,-0.027133012515901417,-0.031565214169142236,0.3375146763568547
1589986081.9808908,-1.526935253665499,-2.999247004887332,8.855026382941913,1.0797196872492059,0.27583103864211944,-0.9655246553157543,-0.015271630954950384,-0.03213843857124706,0.4111725777064362
1589986081.9908907,-1.579665643779568,-3.0693312875591356,8.966322081575246,0.9755555555555556,-0.5722222222222222,-1.2033333333333334,-0.015125740531923752,-0.036216251456922983,0.4709538119728222
1589986082.0008907,-1.5510299420606946,-3.0168023986062154,8.824431141363801,0.9755555555555556,-0.5722222222222222,-1.2033333333333334,-0.009614987628343574,-0.042801064556685975,0.5394896312474742
1589986082.0108907,-1.4807904703070023,-2.9169071472697485,8.71230238242325,0.9755555555555556,-0.5722222222222222,-1.2033333333333334,-0.006207606798590062,-0.044637835148001945,0.5891197898003944
1589986082.0208907,-1.418775454474526,-3.0156323632675353,8.759836545213389,0.9755555555555556,-0.5722222222222222,-1.2033333333333334,-0.011999138607461015,-0.05178552540755733,0.6413550096540814
1589986082.0308907,-1.4596810876180073,-3.228341655613638,8.898915697901225,0.9755555555555556,-0.5722222222222222,-1.2033333333333334,-0.011999138607461015,-0.049108257978932326,0.6868685559407064
1589986082.0408907,-1.3405696918292338,-3.209544246536613,8.829202431439073,0.5955555555555555,0.008888888888888889,-0.7322222222222222,-0.01633760424209224,-0.05559508366428735,0.7411712512221855
1589986082.0508907,-1.3935726723343234,-3.156900201440814,8.74928198299703,0.5955555555555555,0.008888888888888889,-0.7322222222222222,-0.01612939065148068,-0.05456828010272687,0.7853465808704327
1589986082.0608907,-1.4150532623169108,-3.078138038171327,8.684840213049268,0.5955555555555555,0.008888888888888889,-0.7322222222222222,-0.027845235041076312,-0.06784623707760193,0.7915950312115504
1589986082.0708907,-1.4627281494876432,-3.119548523206751,8.867723327305606,0.5955555555555555,0.008888888888888889,-0.7322222222222222,-0.024444669630977994,-0.05826042388836813,0.7868347855654269
1589986082.0808907,-1.4795828812537672,-3.1785400843881857,8.791877034358047,0.5955555555555555,0.008888888888888889,-0.7322222222222222,-0.02720251866715936,-0.0610182729245495,0.7620141442397946
1589986082.0908906,-1.5383580888271018,-3.2519389770981197,8.897013243579424,0.59,0.12222222222222222,-0.7177777777777777,-0.020904889592384887,-0.05472064384977502,0.6968608873259451
1589986082.1008906,-1.530685775956684,-3.167543535523524,8.789600863393575,0.59,0.12222222222222222,-0.7177777777777777,-0.021741809097584434,-0.05555756335497457,0.6399503609723759
1589986082.1108906,-1.5225193470033327,-3.1213370615149976,8.78992261198667,0.59,0.12222222222222222,-0.7177777777777777,-0.01826930517613719,-0.04417442582974957,0.5353760879154708
1589986082.1208906,-1.5383144099870079,-3.1924148449415357,8.726742360051968,0.59,0.12222222222222222,-0.7177777777777777,-0.016546331084730883,-0.04072847764693696,0.46559563721351527
1589986082.1308906,-1.5046003401360544,-3.1469005102040817,8.773099489795918,0.59,0.12222222222222222,-0.7177777777777777,-0.012500957870497225,-0.030706979284994836,0.37705734744256963
1589986082.1408906,-1.5411010842331656,-3.2961841200860293,8.870422385312965,0.5854332128629816,0.10486843110155233,-0.7524853600191176,-0.010205765492440348,-0.02496899833985264,0.2956809048754928
1589986082.1508906,-1.5351739648423255,-3.306895621094605,8.793104378905394,0.5844444444444444,0.10111111111111112,-0.76,-0.0013165875871989732,-0.0178668528883322,0.18664199824715383
1589986082.1608906,-1.5854469273743017,-3.2527653631284914,8.821361731843576,0.5844444444444444,0.10111111111111112,-0.76,-0.0026783247424982818,-0.011256429101222157,0.0903576576523496
1589986082.1708906,-2.796459218478846,-2.4420196277900788,9.79575010472144,0.5844444444444444,0.10111111111111112,-0.76,0.0015164752036800212,-0.005055229220836258,-0.0052127407209358306
1589986082.1808906,-7.2816840994724945,0.13772599849284098,13.19203737754333,0.5799150967093695,0.09802049736247176,-0.754458209830026,0.013107495020916647,0.019766873093206773,-0.1256590699072592
1589986082.1908906,2.6752399192144303,-0.45992826798523573,0.598975555400794,0.49,0.03666666666666667,-0.6444444444444445,0.07692685449184702,0.5468595512297906,-1.570188959143524
1589986082.2008905,9.580456058479914,-0.2832216166824396,-1.1554826550925172,0.49,0.03666666666666667,-0.6444444444444445,-0.6194252322271918,0.8355718050439658,-4.509888792143912
1589986082.2108905,2.989862937701922,-5.799335900531933,4.093722873086838,0.49,0.03666666666666667,-0.6444444444444445,-1.8982556611841526,-0.09686205705016371,-9.942491846154304
1589986082.2208905,-0.20309300659424212,-5.165804833828023,1.8349146842513122,0.49,0.03666666666666667,-0.6444444444444445,-2.213790425595824,-1.375764768805061,-14.045468014555533
1589986082.2308905,-0.6262455222025646,-5.662549091281271,2.9633213925401725,0.49,0.03666666666666667,-0.6444444444444445,-1.8251201272984163,-0.057229212963081366,-13.66616326561469
1589986082.2408905,-0.7232137232367087,-5.076995275188354,3.751001574937215,0.48032137232367084,0.2280884140429537,-0.6433690413692967,-1.1752232799953595,1.2105883826352608,-12.973044894616898
1589986082.2508905,-0.7426553041992072,-4.476873738932277,3.033557101146533,0.48,0.2344444444444445,-0.6433333333333333,-0.36426314007205995,2.3916913258479173,-12.228826238470045
1589986082.2608905,-0.5489784946236559,-3.8941666666666666,2.205913978494624,0.48,0.2344444444444445,-0.6433333333333333,0.3011543338526036,3.2536989752178096,-11.570579929958129
1589986082.2708905,-0.7177199912222954,-2.2297619047619044,0.027614658766732525,0.48,0.2344444444444445,-0.6433333333333333,0.9177835367465652,3.9255487037440666,-10.917137043309301
1589986082.2808905,8.959660476151518,1.2066734844146279,14.939775014317272,0.48,0.2344444444444445,-0.6433333333333333,4.022873620124344,1.8049835863027583,-9.712143287857028
1589986082.2908905,0.6828100722233064,-0.730694710130783,1.3576796798750728,0.2883599453445247,0.46585885006615046,-0.6098867200208211,3.6862654367105496,0.8029909451318389,-8.94702459063619
1589986082.3008904,-0.6945233641397959,-0.9731004019039505,2.1909197488563334,0.24444444444444444,0.5188888888888888,-0.6022222222222222,0.31962154095343076,0.22158896057277788,-7.9944586092027645
1589986082.3108904,-2.0850363936065786,-1.462498842442539,12.709102105828533,0.24444444444444444,0.5188888888888888,-0.6022222222222222,-0.12186466616304081,0.2453156665214558,-7.735159608477928
1589986082.3208904,0.5411354170878654,-0.47734098904209293,5.163912902834499,0.24444444444444444,0.5188888888888888,-0.6022222222222222,-0.4459589354538578,1.1815927907478987,-7.127779179873198
1589986082.3308904,1.948789373660588,-0.7656556548461445,9.268156968986293,0.24444444444444444,0.5188888888888888,-0.6022222222222222,0.4586982916906851,0.39903653904617764,-6.804026593471778
1589986082.3408904,0.91,-1.2,7.2,0.054444444444444434,0.5466666666666666,-0.6411111111111111,0.07853981633974483,0.382881604656256,-6.194828013797372
1589986082.3508904,0.8527335624178409,-1.1118977883351397,7.150075413389913,0.054444444444444434,0.5466666666666666,-0.6411111111111111,0.08318487222343046,0.39105049603791003,-6.119385899272685
1589986082.3608904,0.9861727076303076,-0.8691306353329611,7.424693743778981,0.054444444444444434,0.5466666666666666,-0.6411111111111111,0.11738224786445063,0.4050934945228719,-5.657193666741903
1589986082.3708904,4.223960739985112,-2.6726055250751286,11.401250310165146,0.054444444444444434,0.5466666666666666,-0.6411111111111111,0.17325578312974935,0.16549576012748266,-5.510119687866556
1589986082.3808904,2.928816961208679,-1.44106255686361,10.233308152518541,0.054444444444444434,0.5466666666666666,-0.6411111111111111,0.1959612194062369,0.20333815392162857,-5.713207201228474
1589986082.3908904,1.5033294940027009,-0.1684160775280007,8.876559694971801,-0.05763333951156653,0.5459144667743444,-0.6433677107880778,0.19245468833861265,0.3897424268444589,-5.866255727557617
1589986082.4008904,1.0581867047164832,-0.40848712886769223,7.647146263755595,-0.1111111111111111,0.5455555555555556,-0.6444444444444445,0.01620446920215044,0.5579388689147995,-5.661902156340386
1589986082.4108903,1.1811602587908758,-0.46587478743574207,12.090590684310314,-0.1111111111111111,0.5455555555555556,-0.6444444444444445,0.19953369809918164,0.4434698869693361,-5.5250759513587
1589986082.4208903,1.575740265796223,-0.4548729307530893,9.709818139426439,-0.1111111111111111,0.5455555555555556,-0.6444444444444445,0.15165803328791191,0.3189089190925119,-5.375806371281627
1589986082.4308903,1.7086382866208356,-0.6141274457958752,10.170296139608674,-0.1111111111111111,0.5455555555555556,-0.6444444444444445,0.0716839073762491,0.3681251042612048,-5.1810657816910295
1589986082.4408903,1.3914190618510682,-0.4445071515904283,8.613323888446834,-0.20523729738238636,0.5286611118658395,-0.6355949739403075,0.13878925397229128,0.3557269318200505,-5.057141638406241
1589986082.4508903,1.644155616325267,-0.3285566620229435,7.938356465954629,-0.2411111111111111,0.5222222222222223,-0.6322222222222222,0.12713479585032586,0.2838562214863158,-4.821078280410063
1589986082.4608903,4.0030571177957786,-1.0715745661558571,8.984352544588344,-0.2411111111111111,0.5222222222222223,-0.6322222222222222,0.08621600585784284,-0.07969148960074485,-4.080605561507631
1589986082.4708903,0.6597080190275263,1.8051095675019404,8.290986008001115,-0.2411111111111111,0.5222222222222223,-0.6322222222222222,0.1478633142767633,-1.0746236853885007,0.867222369767321
1589986082.4808903,0.7765804191628685,0.9035224807435862,1.320382142786059,-0.2411111111111111,0.5222222222222223,-0.6322222222222222,0.06317484936716108,0.07914282042296139,1.3926551036688313
1589986082.4908903,9.4,-0.02,7.23,-0.3388888888888889,0.43,-0.6444444444444445,-0.016362461737446838,0.839939702522271,0.34143003492139073
1589986082.5008903,8.778499086687647,-0.022227601839829223,7.307966064394023,-0.3388888888888889,0.43,-0.6444444444444445,-0.020250360390297165,0.7736834296466133,0.300121111734856
1589986082.5108902,1.052472765685863,-0.049919452452738836,8.277180835845858,-0.3388888888888889,0.43,-0.6444444444444445,-0.06858175730686543,-0.049964126139903864,-0.21339998050368175
1589986082.5208902,8.743753459893199,-0.38538121732323094,8.620263930438671,-0.3388888888888889,0.43,-0.6444444444444445,0.028678294136543804,-0.12336144231264681,0.3538882026368942
1589986082.5308902,5.800343892414796,-0.18016341879386025,8.631990661783208,-0.3388888888888889,0.43,-0.6444444444444445,0.04274936161809768,-0.07922945793868241,0.13194909281420356
1589986082.5408902,3.232360538915488,-0.03506513751252645,8.911417436811046,-0.3531451582971458,0.42561345556669017,-0.6510242610944093,0.0044502883721935435,0.0068968538383806025,-0.028247913938893303
1589986082.5508902,3.728620755315773,-0.33532021580450644,9.531240241193272,-0.36777777777777776,0.4211111111111111,-0.6577777777777778,-0.01925532697097695,-0.0042106552864184105,-0.0037829776130778384
1589986082.5608902,3.6822140160501724,-0.1542751634930786,8.938805107998267,-0.36777777777777776,0.4211111111111111,-0.6577777777777778,-0.0024176147916237217,-0.0006689504639797329,0.003486211736455779
1589986082.5708902,3.5701908759527226,-0.23,9.419512205898597,-0.36777777777777776,0.4211111111111111,-0.6577777777777778,-0.003272492347489368,0.015255436582127285,0.0010896740415805202
1589986082.5808902,3.736980669391362,-0.23,8.993271622666521,-0.36777777777777776,0.4211111111111111,-0.6577777777777778,-0.003272492347489368,0.0011045911796422753,7.889936997444811e-05
1589986082.5908902,3.7644586737460037,-0.1721653050159846,8.822642599412964,-0.35894192159966437,0.43235674624689185,-0.6585810374303336,-0.0016952957078679334,-0.010251778157539321,0.0007885983198107172
1589986082.6008902,3.6869704081632655,-0.1407744897959184,9.00063775510204,-0.3555555555555556,0.43666666666666665,-0.6588888888888889,-0.0020971778339811966,-0.004117329657606521,0.0020971778339811966
1589986082.6108902,3.706937860780985,-0.16020339558573854,8.993062139219015,-0.3555555555555556,0.43666666666666665,-0.6588888888888889,-0.002181661564992912,0.0018698210095485094,0.002181661564992912
1589986082.6208901,3.747108750149218,-0.17,8.799274999005211,-0.3555555555555556,0.43666666666666665,-0.6588888888888889,-0.0002102576224747455,0.011263236928799405,-0.0007754443487843379
1589986082.6308901,3.7659529335782187,-0.18595293357821865,8.891670535047531,-0.3555555555555556,0.43666666666666665,-0.6588888888888889,-0.0008700975509121125,0.005908455751076228,0.0015194618702398814
1589986082.6408901,3.580911559699466,-0.19995202317371233,9.209232370779398,-0.3555555555555556,0.43333333333333335,-0.6522222222222223,1.0466919792217285e-05,-0.004410424269050802,-0.0010803638627042388
1589986082.65089,3.7251891011134246,-0.19235846836245135,9.087735493799222,-0.3555555555555556,0.43333333333333335,-0.6522222222222223,0.0016671235871317251,-0.011865379272078584,0.0005762928046352692
1589986082.66089,3.779834036185553,-0.16049789144334103,8.695974697320093,-0.3555555555555556,0.43333333333333335,-0.6522222222222223,3.6207687515866626e-05,-0.006671711601284268,-0.0010546230949805893
1589986082.67089,3.8256522696738102,-0.16913045393476203,8.772174085412857,-0.3555555555555556,0.43333333333333335,-0.6522222222222223,0.00199195604204086,0.0024188174942051345,-9.485276147602598e-05
1589986082.68089,3.6457449186134774,-0.17,9.036354895842118,-0.3555555555555556,0.43333333333333335,-0.6522222222222223,-0.001313836080360284,0.007641864404180862,0.001747748822676598
1589986082.69089,3.6137164314494865,-0.1905746471742295,9.182298588696918,-0.35022138776964423,0.4348573812721651,-0.662128533824629,-0.002181661564992912,0.0004973781518654609,0.0006854309998826961
1589986082.70089,3.645732496194825,-0.18284500253678335,9.091337519025876,-0.3477777777777778,0.4355555555555555,-0.6666666666666666,-0.002181661564992912,-0.008886452139446967,0.0
1589986082.71089,3.76698244810427,-0.18,8.859431593412314,-0.3477777777777778,0.4355555555555555,-0.6666666666666666,-0.0030323819343524606,-0.008116036303749007,0.0
1589986082.72089,3.7450182774161243,-0.1642909364046069,8.862836254381573,-0.3477777777777778,0.4355555555555555,-0.6666666666666666,-0.004129288854191829,0.0035025391096568086,0.0008567965067024616
1589986082.73089,3.647889957503914,-0.167464549317826,9.096471930216953,-0.3477777777777778,0.4355555555555555,-0.6666666666666666,-0.005177579147320575,0.007359240712313487,0.0019050867998312072
1589986082.74089,3.669184704335302,-0.20891293911373646,9.178097643449039,-0.3688888888888889,0.42777777777777776,-0.6666666666666666,0.0,0.0028871075174045193,-0.001090830782496456
1589986082.75089,3.6429205368511135,-0.1738940491348181,9.116814585985932,-0.3688888888888889,0.42777777777777776,-0.6666666666666666,0.0,-0.009527789508900247,-0.001090830782496456
1589986082.76089,3.7870934648581995,-0.17,8.8158130702836,-0.3688888888888889,0.42777777777777776,-0.6666666666666666,-0.0010028379960711562,-0.011911145821035715,0.002920521201788169
1589986082.77089,3.728020846258841,-0.193993051247053,8.917962939984282,-0.3688888888888889,0.42777777777777776,-0.6666666666666666,-0.0045804786313365055,-0.005892254871990928,0.0006552564608593306
1589986082.78089,3.715529066977446,-0.2,8.98870346884212,-0.3688888888888889,0.42777777777777776,-0.6666666666666666,-0.0036447709752375672,0.0022710809732447894,-0.0006031276457482375
1589986082.79089,3.6856585929321737,-0.17138216077681118,9.077235678446376,-0.35362604130318814,0.43222944165694044,-0.6615790508047664,-0.0034303503631204655,0.005762782280283861,0.0007822024146948742
1589986082.80089,3.667381174277726,-0.18690587138863002,9.127381174277726,-0.3422222222222222,0.4355555555555555,-0.6577777777777778,-0.0035581619186743673,-0.0020779665605058307,0.0013765003536814551
1589986082.81089,3.70327833954231,-0.1750412453432677,8.897051623203831,-0.3422222222222222,0.4355555555555555,-0.6577777777777778,-0.0014574404893333435,-0.007993426846297872,0.0001833048534184439
1589986082.82089,3.743329591378536,-0.17,8.909993264481365,-0.3422222222222222,0.4355555555555555,-0.6577777777777778,-0.0018179696673711703,-0.0029095351809739333,0.0007271388848747143
1589986082.83089,3.7498630079421775,-0.1649315039710888,8.965342480144557,-0.3422222222222222,0.4355555555555555,-0.6577777777777778,-0.0027345487139226513,0.002211548595718957,0.0016437179314261951
1589986082.84089,3.697500215696989,-0.18124989215150558,9.074999568606023,-0.34517359613215354,0.43142363208165163,-0.6660416247255855,-0.003272492347489368,0.005522324954165429,0.0016021606529031092
1589986082.85089,3.6845193778684346,-0.2,9.060095614482407,-0.3477777777777778,0.42777777777777776,-0.6733333333333333,-0.0023809426092710126,0.0020872360038869586,0.00019928104427810065
1589986082.86089,3.682295531914894,-0.18459106382978724,8.97836425531915,-0.3477777777777778,0.42777777777777776,-0.6733333333333333,0.00033961972000575835,-0.008994294357498224,0.0008404270949995568
1589986082.87089,3.7684478891633306,-0.18,8.871552110836669,-0.3477777777777778,0.42777777777777776,-0.6733333333333333,-0.002768436423351381,-0.012963955408922975,0.00012601398103449682
1589986082.88089,3.723321486026413,-0.17291518575330167,8.99461147068727,-0.3477777777777778,0.42777777777777776,-0.6733333333333333,-0.003272492347489368,-0.00458880257453268,0.0007728333468567993
1589986082.89089,3.70497696461614,-0.17,9.025115176919302,-0.3582847030785175,0.42777777777777776,-0.6589554355533738,-0.003272492347489368,0.0021665849415121634,0.001633733403164559
1589986082.9008899,3.6685437417960003,-0.18776696780171417,9.094757161609142,-0.3688888888888889,0.42777777777777776,-0.6444444444444445,-0.0013344168085160494,0.00545415391248228,0.001535636385335139
1589986082.9108899,3.6773952197746076,-0.19465782574648463,9.06918303769024,-0.3688888888888889,0.42777777777777776,-0.6444444444444445,-0.0029137040605972967,0.0013749682276460633,0.0016735715946159155
1589986082.9208899,3.6986781319150586,-0.17867813191505882,8.995660934042471,-0.3688888888888889,0.42777777777777776,-0.6444444444444445,-0.0048366418013613775,-0.0034166857872347163,-0.0002883868794906967
1589986082.9308898,3.7371814882341914,-0.15951522483684633,8.963303286928962,-0.3688888888888889,0.42777777777777776,-0.6444444444444445,-0.0037914673552097073,-0.0009321884813291229,-0.0016098057902167952
1589986082.9408898,3.7439780353874315,-0.16350823672971324,8.993038438071995,-0.36288522812012747,0.43328113348247577,-0.6479465798928886,-0.001798972303287322,0.005128701653397004,-0.00010848408636175851
1589986082.9508898,3.6948249911401114,-0.18,9.02859992912089,-0.3555555555555556,0.44,-0.6522222222222223,-0.0016935176892175377,0.005904116777942418,-3.818101031523584e-05
1589986082.9608898,3.67445032674332,-0.16445032674332039,8.98222516337166,-0.3555555555555556,0.44,-0.6522222222222223,-0.0015762861228745626,0.0007281830105671603,-0.00024272767018905332
1589986082.9708898,3.7062017069644946,-0.16724034139289887,8.958278975821303,-0.3555555555555556,0.44,-0.6522222222222223,-0.001090830782496456,-0.0063183898137258825,-0.0007897987267157353
1589986082.9808898,3.738785717479766,-0.15121428252023433,8.94373809417341,-0.3555555555555556,0.44,-0.6522222222222223,0.00027530514405088753,-0.005994374406876961,-0.0004077628192227842
1589986082.9908898,3.728516310365386,-0.16148368963461374,8.982967379269226,-0.3513781714599363,0.43343553927831246,-0.6522222222222223,-0.0006667994656312977,-0.001433939383106235,0.0011717534987518358
1589986083.0008898,3.702786703798915,-0.18,9.056066481005427,-0.3477777777777778,0.42777777777777776,-0.6522222222222223,-0.0029685101189337827,0.004238224998259938,0.0006079644571111711
1589986083.0108898,3.6838838663991504,-0.19611613360084976,9.0377677327983,-0.3477777777777778,0.42777777777777776,-0.6522222222222223,-0.001514494884826131,0.0019381589871558056,0.0026369961939948557
1589986083.0208898,3.712323658413825,-0.2,8.973433597775808,-0.3477777777777778,0.42777777777777776,-0.6522222222222223,-0.0028538128625314736,-0.0024351333775735782,0.000628019227436842
1589986083.0308897,3.7138165518749315,-0.18763310374986333,8.984733792500274,-0.3477777777777778,0.42777777777777776,-0.6522222222222223,-0.0019234732361304624,-0.005296021014527726,-0.0006745095556794528
1589986083.0408897,3.720246937679957,-0.18,8.994876531160022,-0.355178343879969,0.42777777777777776,-0.6522222222222223,-0.0016497145348774544,-0.0043094496854547415,0.0005858204746465399
1589986083.0508897,3.7096704008888066,-0.18,9.030659198222388,-0.3622222222222222,0.42777777777777776,-0.6522222222222223,-0.002736065377650471,0.0005903574982948838,0.0016272577523353529
1589986083.0608897,3.69,-0.18632490908535282,9.00042600006112,-0.3622222222222222,0.42777777777777776,-0.6522222222222223,-0.0012026706894510634,0.0018926112421304981,0.001090830782496456
1589986083.0708897,3.6777785040238573,-0.1838892520119286,8.984442991952285,-0.3622222222222222,0.42777777777777776,-0.6522222222222223,-0.0013331584018933156,-0.002242065222236833,-0.00024232761939685962
1589986083.0808897,3.685264947010598,-0.17618376324735052,8.988551289742052,-0.3622222222222222,0.42777777777777776,-0.6522222222222223,-0.002181661564992912,-0.00477960998229426,-0.0006745439301880205
1589986083.0908897,3.717516621952642,-0.17375831097632102,8.97187915548816,-0.3609694518967819,0.43007452337441837,-0.6534749925476626,-0.002181661564992912,-0.005044185782165754,0.0
1589986083.1008897,3.732331396446477,-0.1855828491116192,8.984417150888381,-0.3555555555555556,0.44,-0.6588888888888889,-0.0026634979809906437,0.00010036256449475487,0.0
1589986083.1108897,3.7041483432585127,-0.19755497022446175,8.972445029775539,-0.3555555555555556,0.44,-0.6588888888888889,-0.004549125807932808,0.004363323129985824,0.0
1589986083.1208897,3.6838990017615973,-0.1938990017615972,8.992201996476807,-0.3555555555555556,0.44,-0.6588888888888889,-0.004283256278657546,0.003777874313073457,0.0011708976338247338
1589986083.1308897,3.6869925530420122,-0.184248138260503,9.011503723478993,-0.3555555555555556,0.44,-0.6588888888888889,-0.0028090923492036035,0.000492092357774782,0.0012548615684213832
1589986083.1408896,3.71,-0.18592110011586166,9.008157799768277,-0.36099408873440675,0.44,-0.6588888888888889,-0.00307153947546078,-0.002827553392255434,0.00044493895523393403
1589986083.1508896,3.7177833188782885,-0.17610834056085575,9.016108340560855,-0.3688888888888889,0.44,-0.6588888888888889,-0.004787837321106969,-0.0009081189916294757,0.001090830782496456
1589986083.1608896,3.6991024407097557,-0.18853853557414674,9.003820488141951,-0.3688888888888889,0.44,-0.6588888888888889,-0.004105993561369955,0.002438991133608781,0.001090830782496456
1589986083.1708896,3.6935772190867113,-0.18642278091328887,9.006788609543355,-0.3688888888888889,0.44,-0.6588888888888889,-0.003272492347489368,0.0010509250694169295,0.001090830782496456
1589986083.1808896,3.6943182915290893,-0.18,9.032726833883643,-0.3688888888888889,0.44,-0.6588888888888889,-0.0020329358480412913,-0.0037186694983442287,-0.0013882822163996968
1589986083.1908896,3.707989341827203,-0.17400355272426574,9.014021316345595,-0.3688888888888889,0.4373349123218958,-0.6635527923255711,-0.0023990526372940496,-0.006544984694978735,-0.0013101595652929778
1589986083.2008896,3.72,-0.18484446501105456,8.975155534988946,-0.3688888888888889,0.4355555555555555,-0.6666666666666666,-0.000843572439926883,-0.001687144879853766,0.0008096399691874949
1589986083.2108896,3.7001731135591815,-0.19,8.950173113559181,-0.3688888888888889,0.4355555555555555,-0.6666666666666666,-0.002162777805070626,0.002162777805070626,0.000369904847472914
1589986083.2208896,3.69,-0.19,8.980361512352987,-0.3688888888888889,0.4355555555555555,-0.6666666666666666,-0.002722147596204995,0.003822837098773741,0.0005503447512843731
1589986083.2308896,3.69,-0.19,9.030720756579472,-0.3688888888888889,0.4355555555555555,-0.6666666666666666,-0.002766388129419836,0.0034862332833454374,0.0005061042180695319
1589986083.2408895,3.69,-0.19,9.057432215128406,-0.3688888888888889,0.4355555555555555,-0.6666666666666666,-0.004223272190947606,0.0013009071910537826,-0.000950779843458238
1589986083.2508895,3.718279780199311,-0.1582797801993108,9.017580329701033,-0.3422222222222222,0.4477777777777778,-0.6733333333333333,-0.0006392388268108133,-0.003911731174300181,-0.00018764687112517045
1589986083.2608895,3.7140829423130004,-0.17,8.962860198730334,-0.3422222222222222,0.4477777777777778,-0.6733333333333333,0.0,-0.003272492347489368,0.001090830782496456
1589986083.2708895,3.695963106686913,-0.174036893313087,8.97036893313087,-0.3422222222222222,0.4477777777777778,-0.6733333333333333,-0.00044035674915694057,-0.0019514221000185461,0.001090830782496456
1589986083.2808895,3.6930504801179977,-0.18,9.026949519882002,-0.3422222222222222,0.4477777777777778,-0.6733333333333333,-0.001090830782496456,-0.000665511522821052,0.001423586543906982
1589986083.2908895,3.7067334440337816,-0.1732665559662185,9.02336672201689,-0.34409262334271706,0.44104433374399626,-0.6710888519887395,-0.00219258798613635,-0.003650671169846103,0.0014471567625663163
1589986083.3008895,3.718228793199039,-0.163542413601922,9.024686379597117,-0.3477777777777778,0.42777777777777776,-0.6666666666666666,-0.0037836970597892225,-0.006544984694978735,0.0
1589986083.3108895,3.705982853643601,-0.18401714635639926,8.967862829148807,-0.3477777777777778,0.42777777777777776,-0.6666666666666666,-0.0015290334728318357,-0.004792173933637216,0.0
1589986083.3208895,3.7,-0.18547382752319874,8.95620937981441,-0.3477777777777778,0.42777777777777776,-0.6666666666666666,-0.00020674625915969528,-0.0007004750856179993,-0.0004937288264583042
1589986083.3308895,3.6948930343018023,-0.17489303430180222,9.035748759887385,-0.3477777777777778,0.42777777777777776,-0.6666666666666666,0.000510410948368623,0.0022049978602459823,-0.000533747243621693
1589986083.3408895,3.695115763854219,-0.18534729156265603,9.07511576385422,-0.3517567052199479,0.4317567052199478,-0.6473404476618406,-0.000532787513680012,0.0010403192722235922,0.0
1589986083.3508894,3.7186944464196827,-0.18130555358031716,9.023916660740952,-0.3555555555555556,0.4355555555555555,-0.6288888888888889,-0.0006797492538773573,-0.0031300785441285284,0.0006797492538773573
1589986083.3608894,3.723877762106253,-0.18224447578749414,8.92877762106253,-0.3555555555555556,0.4355555555555555,-0.6288888888888889,-0.001758663337723012,-0.0030276580195327113,-0.0002448343279566564
1589986083.3708894,3.710249070774419,-0.18512453538720924,8.924128252289536,-0.3555555555555556,0.4355555555555555,-0.6288888888888889,-0.002181661564992912,-5.433881355118922e-05,-0.0005590000946360253
1589986083.3808894,3.6961452995789155,-0.17229059915783065,8.998547004210847,-0.3555555555555556,0.4355555555555555,-0.6288888888888889,-0.0030226267403171544,0.002181661564992912,0.0008409651753242426
1589986083.3908894,3.69,-0.16737962345884705,9.063689811729423,-0.3555555555555556,0.4371954718797437,-0.6452880521307712,-0.0035583310867714907,0.0013766695217785787,0.0009741735001714122
1589986083.4008894,3.696062688743101,-0.18303134437155055,9.06696865562845,-0.3555555555555556,0.44,-0.6733333333333333,-0.0025123299402763843,-0.0009920051258504167,-0.001090830782496456
1589986083.4108894,3.716959572565296,-0.1760808548694077,9.007803205760279,-0.3555555555555556,0.44,-0.6733333333333333,-0.0025133207487650806,-0.0036520781468515114,-0.0003316591837721688
1589986083.4208894,3.72711580340749,-0.1557683931850207,8.924420982962552,-0.3555555555555556,0.44,-0.6733333333333333,-0.0007762137399082877,-0.003734089044809487,0.0007762137399082877
1589986083.4308894,3.713043314399548,-0.17463779040030153,8.980870056801358,-0.3555555555555556,0.44,-0.6733333333333333,-0.0010118089062830884,-0.00015804375242673514,0.0002529522265707721
1589986083.4408894,3.6853190449595083,-0.19,9.064042865121476,-0.3555555555555556,0.43427883272828816,-0.6733333333333333,-0.0038527101450208188,0.00603437171001373,0.0005802177975314506
1589986083.4508893,3.6952768773120783,-0.18490770756264063,9.018892490751687,-0.3555555555555556,0.42777777777777776,-0.6733333333333333,-0.004383458216318469,0.0004548075027513256,0.0016664488032436518
1589986083.4608893,3.706695620259359,-0.17339124051871788,8.943478101296796,-0.3555555555555556,0.42777777777777776,-0.6733333333333333,-0.004372798171037603,-0.0032819673885411474,0.0021911366060446916
1589986083.4708893,3.7031846799580275,-0.16,8.929108079748165,-0.3555555555555556,0.42777777777777776,-0.6733333333333333,-0.002181661564992912,-0.001438225475558024,-0.00034739469306156804
1589986083.4808893,3.70078967334468,-0.1692103266553202,9.00223614329362,-0.3555555555555556,0.42777777777777776,-0.6733333333333333,-0.0016793161733693672,0.00033006539312481226,-0.001090830782496456
1589986083.4908893,3.69,-0.18,9.049412118840491,-0.35869292850238643,0.431438046215747,-0.6660127964573948,-0.0005774793345102547,0.0027591408995031666,-6.412788652405336e-05
1589986083.5008893,3.69,-0.17173924840591506,9.043478496811831,-0.3622222222222222,0.4355555555555555,-0.6577777777777778,-0.0018022164250769013,0.0003794451399160106,0.001090830782496456
1589986083.5108893,3.6958718462154585,-0.16293592310772928,8.990640768922708,-0.3622222222222222,0.4355555555555555,-0.6577777777777778,-0.004363323129985824,-0.0028221806251836623,0.0007705712524010808
1589986083.5208893,3.7155133614627287,-0.1810267229254571,8.9585935302391,-0.3622222222222222,0.4355555555555555,-0.6577777777777778,-0.003160494250271026,-0.003761908690128425,0.0006014144398573991
1589986083.5308893,3.7156263935752483,-0.18125278715049625,9.01186803212376,-0.3622222222222222,0.4355555555555555,-0.6577777777777778,-0.004567093824314717,-0.002318319443760646,0.00013665787876773424
1589986083.5408893,3.704513625035748,-0.17548637496425218,9.045486374964252,-0.36039343056747153,0.43890834025593184,-0.6580825763869029,-0.006438874138410364,-0.0004923601129640416,-0.0004923601129640416
1589986083.5508893,3.6876651629802097,-0.19233483701979046,9.064669674039582,-0.3555555555555556,0.4477777777777778,-0.6588888888888889,-0.0027631099288294254,0.001090830782496456,0.001090830782496456
1589986083.5608892,3.6938534545695894,-0.19538218181013695,9.001497090772329,-0.3555555555555556,0.4477777777777778,-0.6588888888888889,-0.0020982824283913935,0.0005871049595489874,8.33791366015189e-05
1589986083.5708892,3.705413118766763,-0.19,8.946695049865896,-0.3555555555555556,0.4477777777777778,-0.6588888888888889,-0.003772843471976389,-0.0020014044979480847,0.00041022259096460756
1589986083.5808892,3.7043314018959483,-0.18566859810405192,8.998662803791897,-0.3555555555555556,0.4477777777777778,-0.6588888888888889,-0.0038908404780394566,-0.0024733925222003546,0.002181661564992912
1589986083.5908892,3.705426637582601,-0.18,9.028293449669597,-0.3555555555555556,0.4421881126009566,-0.6558399806106228,-0.003272492347489368,0.000498876450441136,0.002680538015434048
1589986083.6008892,3.7,-0.18472153045053202,9.035835408648405,-0.3555555555555556,0.4355555555555555,-0.6522222222222223,-0.003272492347489368,0.0005757917069029855,0.001212336045115486
1589986083.6108892,3.7,-0.1863729156926913,8.987356241234222,-0.3555555555555556,0.4355555555555555,-0.6522222222222223,-0.0024811853048649322,-0.0011869605639366534,-0.0006951772611842382
1589986083.6208892,3.709379496160582,-0.17062050383941801,8.93468974808029,-0.3555555555555556,0.4355555555555555,-0.6522222222222223,-0.0016024029393099629,-0.002760920190675861,0.000511572156813507
1589986083.6308892,3.72,-0.16830975650776447,8.97739390428494,-0.3555555555555556,0.4355555555555555,-0.6522222222222223,-0.0026348884746788988,-0.003994569203736858,0.0006376038728104693
1589986083.6408892,3.7130207140286005,-0.1765103570143002,9.0369792859714,-0.36020841286982197,0.4371065079936443,-0.6495080554555669,-0.00441447534410662,-0.0042610187017442305,-0.00038066099887241746
1589986083.6508892,3.704032408508148,-0.17403240850814786,9.066129634032592,-0.3688888888888889,0.44,-0.6444444444444445,-0.0034659119651769357,0.0004398675328288286,-0.00021109571683879873
1589986083.6608891,3.703130255199882,-0.183434872400059,9.048781531199293,-0.3688888888888889,0.44,-0.6444444444444445,0.001090830782496456,0.00034145787291008697,0.001090830782496456
1589986083.6708891,3.6988936781609194,-0.1944468390804598,8.97444683908046,-0.3688888888888889,0.44,-0.6444444444444445,0.0015759056778738311,-0.0015759056778738311,0.0006057558871190808
1589986083.6808891,3.7071759636102466,-0.1915278908307398,8.985648072779506,-0.3688888888888889,0.44,-0.6444444444444445,0.0012574978175429578,-0.0012574978175429578,0.000616109164966636
1589986083.6908891,3.7,-0.16742878625134267,9.012856068743288,-0.3634607709750567,0.43885723833393003,-0.6464442773600668,3.107285966896453e-05,0.001090830782496456,0.0019011856544515569
1589986083.700889,3.7,-0.1624416290793314,9.037791854603343,-0.3477777777777778,0.4355555555555555,-0.6522222222222223,0.0027398115156547363,0.001090830782496456,0.0008244903665791401
1589986083.710889,3.704432538764175,-0.1832976162925249,8.968972228650776,-0.3477777777777778,0.4355555555555555,-0.6522222222222223,0.0015743457553535406,-0.0003597141360747978,0.0004835149728570845
1589986083.720889,3.701196968205532,-0.18679545230829808,8.95200757948617,-0.3477777777777778,0.4355555555555555,-0.6522222222222223,0.000741268855887812,-0.0031419233710629785,0.0006106998794614227
1589986083.730889,3.7013754272280064,-0.17758361815200427,8.976208190923998,-0.3477777777777778,0.4355555555555555,-0.6522222222222223,0.0005636580420845725,-0.0031224565115500523,0.0
1589986083.740889,3.713252509702043,-0.19,8.993616216042849,-0.3504018017825389,0.4355555555555555,-0.6540965250827658,0.002904473841408986,0.0003812432418250707,0.00036801850608038166
1589986083.750889,3.703996807511737,-0.18200638497652583,9.043996807511737,-0.3555555555555556,0.4355555555555555,-0.6577777777777778,0.0017456774984413238,0.0028365082809377797,0.001090830782496456
1589986083.760889,3.7067398692810456,-0.17978039215686276,9.020658823529413,-0.3555555555555556,0.4355555555555555,-0.6577777777777778,2.3955499537177015e-05,0.003248536847952191,-0.0003316695947825825
1589986083.770889,3.7,-0.1949245309970479,8.96,-0.3555555555555556,0.4355555555555555,-0.6577777777777778,-0.0010743660001875626,0.003793210565274256,-0.0016115490002813443
1589986083.780889,3.7,-0.1715057767260579,8.993289601893096,-0.3555555555555556,0.4355555555555555,-0.6577777777777778,0.0012104440827347053,0.0017781802040813435,0.0
1589986083.790889,3.7,-0.1458652697676006,9.048044910077467,-0.3568589488372446,0.43642448441001486,-0.6595156354866964,0.0030592251204845495,0.0008775635554916375,0.00021326722700481848
1589986083.800889,3.7062901071807692,-0.17314505359038457,9.043145053590385,-0.3622222222222222,0.44,-0.6666666666666666,0.0018385894380936654,0.0,0.001090830782496456
1589986083.810889,3.7192343844145412,-0.17923438441454106,9.042343844145412,-0.3622222222222222,0.44,-0.6666666666666666,0.0012578621921319848,0.0003340628192710576,0.001090830782496456
1589986083.820889,3.7136318693952632,-0.17726373879052656,8.968159346976316,-0.3622222222222222,0.44,-0.6666666666666666,0.004064843334361363,0.003174796649677832,0.0006946552890604587
1589986083.830889,3.717997654848945,-0.19,9.002002345151055,-0.3622222222222222,0.44,-0.6666666666666666,0.00545415391248228,0.0006539868369057246,0.0
1589986083.840889,3.712219947897283,-0.18334015630815037,9.01,-0.3622222222222222,0.44295993052971094,-0.6634600752594798,0.004969836412103318,-0.0006065132821174936,0.0002421587501894812
1589986083.850889,3.7080725960517937,-0.16795160263213754,9.021927403948206,-0.3622222222222222,0.4533333333333333,-0.6522222222222223,0.0019714144092920455,0.002391908720693779,0.0006571381364306818
1589986083.860889,3.693101433379978,-0.17689856662002193,9.00898566620022,-0.3622222222222222,0.4533333333333333,-0.6522222222222223,0.00033831390007421,0.0036866953298374037,0.0
1589986083.870889,3.7,-0.17176901152999094,8.947076046119964,-0.3622222222222222,0.4533333333333333,-0.6522222222222223,0.001283800005646982,0.002181661564992912,-0.0005789076694515782
1589986083.880889,3.7118474715980363,-0.18,8.997771207397054,-0.3622222222222222,0.4533333333333333,-0.6522222222222223,0.0012123925614511465,0.0018585718971456566,-0.001657044008253092
1589986083.890889,3.73632719132082,-0.18,9.04,-0.3628343570020856,0.45210906377360655,-0.6535485142452596,-0.0008905101442229549,0.0008905101442229549,0.002181661564992912
1589986083.900889,3.7,-0.18607149818720517,9.04,-0.3688888888888889,0.44,-0.6666666666666666,0.001090830782496456,-0.0014219796384201979,0.0011882149972216862
1589986083.910889,3.7,-0.19799354317998386,9.023948345439871,-0.3688888888888889,0.44,-0.6666666666666666,0.0015285717551011678,-0.0010873091334811325,-0.0006530898098917441
1589986083.920889,3.7071303193144804,-0.17930452102827976,8.9778257982862,-0.3688888888888889,0.44,-0.6666666666666666,0.002105796577899771,0.003272492347489368,0.001090830782496456
1589986083.930889,3.7156933443669464,-0.16430665563305355,9.01,-0.3688888888888889,0.44,-0.6666666666666666,0.0007046748801219864,0.002567817467367382,0.0008559391557891272
1589986083.940889,3.702214631766059,-0.17926178941131365,9.010738210588686,-0.3669203273190586,0.4390977426138278,-0.6666666666666666,0.0030309134972581987,-0.0001610525668207796,-0.0001610525668207796
1589986083.9508889,3.7224131236014215,-0.17252895879952615,9.012413123601421,-0.3422222222222222,0.42777777777777776,-0.6666666666666666,0.0008275998318565155,-0.0016299283437552349,-0.0016299283437552349
1589986083.9608889,3.70170939186521,-0.17943020271159668,8.99170939186521,-0.3422222222222222,0.42777777777777776,-0.6666666666666666,0.0030860266208973634,-0.00012431048439466965,-0.00012431048439466965
1589986083.9708889,3.704486899563319,-0.17673034934497817,8.943460698689956,-0.3422222222222222,0.42777777777777776,-0.6666666666666666,0.001090830782496456,0.0008461083744145545,-0.0006013859663326531
1589986083.9808888,3.718362445414847,-0.19754366812227075,8.985087336244542,-0.3422222222222222,0.42777777777777776,-0.6666666666666666,0.001090830782496456,8.931474747514651e-05,0.000912201287546163
1589986083.9908888,3.692610762543095,-0.17,9.026526906357738,-0.3448329847653174,0.4293732437763359,-0.6666666666666666,0.0020392665576030662,0.0028453073253198314,-0.002702912317929986
1589986084.0008888,3.7095356090798823,-0.17,9.067213654479293,-0.3622222222222222,0.44,-0.6666666666666666,0.0009895164003411794,0.0,0.0011414879735740942
1589986084.0108888,3.7,-0.17488935578975906,8.992887254735843,-0.3622222222222222,0.44,-0.6666666666666666,-2.4138822087166074e-05,0.000533345980204645,0.0016483155847882669
1589986084.0208888,3.7,-0.18910298552983834,8.943139550645565,-0.3622222222222222,0.44,-0.6666666666666666,0.0030767941482099537,0.0020838124653532047,9.784909963970719e-05
