time,acc_x,acc_y,acc_z,mag_x,mag_y,mag_z,gyr_x,gyr_y,gyr_z
1589986273.4430387,-3.68,-0.57,8.98,0.2933333333333333,-0.3422222222222222,-0.6222222222222222,0.003272492347489368,0.003272492347489368,0.0
1589986273.4530387,-3.664434263668696,-0.5555657363313039,8.97330279100609,0.29086985351739103,-0.35109074955961445,-0.6197587424062799,0.003395916868481944,0.0004837031307519398,0.001090830782496456
1589986273.4630387,-3.684167806565819,-0.5547226021886065,8.99,0.2877777777777778,-0.3622222222222222,-0.6166666666666667,0.002181661564992912,6.051881433306286e-05,0.001090830782496456
1589986273.4730387,-3.690911300121507,-0.5645443499392466,8.949100850546781,0.2877777777777778,-0.3622222222222222,-0.6166666666666667,0.0011902382049596809,-0.0005951191024798404,0.001090830782496456
1589986273.4830387,-3.68,-0.5744762661909563,8.931333863336695,0.2877777777777778,-0.3622222222222222,-0.6166666666666667,0.0009765697903486653,-0.0009765697903486653,0.0015791156776707887
1589986273.4930387,-3.6829653789364656,-0.5740692421270688,8.984826894682328,0.2877777777777778,-0.3622222222222222,-0.6166666666666667,0.00282860689012557,-0.0015347162398602538,0.002181661564992912
1589986273.5030386,-3.6863671294450286,-0.5708986116649146,9.038164352774858,0.2849522117905777,-0.3549564811122791,-0.6219141463571811,0.0031744690209294405,-0.0015851388120751778,0.002181661564992912
1589986273.5130386,-3.68,-0.586193257233873,9.05857977170162,0.28,-0.3422222222222222,-0.6311111111111111,0.001090830782496456,-0.00353282069191844,0.0009359079078918356
1589986273.5230386,-3.68,-0.5782540168324407,9.03476205049732,0.28,-0.3422222222222222,-0.6311111111111111,0.0011860593917411733,-0.0018007471280140424,-0.001090830782496456
1589986273.5330386,-3.6754098984771573,-0.5645901015228426,8.975409898477158,0.28,-0.3422222222222222,-0.6311111111111111,0.002682363968582973,0.0011802567578127897,-0.001591533186086517
1589986273.5430386,-3.6781646546605975,-0.5659176726697012,8.982246981990897,0.28,-0.3422222222222222,-0.6311111111111111,0.002827179515877714,0.0008906256632233087,-0.0008457230701579487
1589986273.5530386,-3.687352811854197,-0.5626471881458032,9.005294376291607,0.27823520790279793,-0.3436928823032239,-0.6249343387709039,0.002181661564992912,0.0024704249966430863,0.0013795942141466302
1589986273.5630386,-3.6864567108612243,-0.57,9.013543289138775,0.2733333333333333,-0.3477777777777778,-0.6077777777777778,0.0025338205130480303,0.0029203333994342498,0.001477343668882675
1589986273.5730386,-3.705141444072566,-0.564858555927434,8.958868447419471,0.2733333333333333,-0.3477777777777778,-0.6077777777777778,0.002711647801405471,0.0027425061110768092,0.000560844546083897
1589986273.5830386,-3.699607965490111,-0.56,8.945980086274723,0.2733333333333333,-0.3477777777777778,-0.6077777777777778,0.0027484591218005336,0.00043850456345125976,0.001090830782496456
1589986273.5930386,-3.685461423220974,-0.5645385767790262,8.988154307116105,0.2733333333333333,-0.3477777777777778,-0.6077777777777778,0.0007970827178466612,-0.0026767434909214533,0.00010066693063937341
1589986273.6030385,-3.68,-0.5741131030931153,9.022339309279346,0.279274482245611,-0.3537189266900555,-0.6054927205038249,-0.002181661564992912,-0.003272492347489368,-0.001090830782496456
1589986273.6130385,-3.68,-0.5744163263379051,9.034416326337904,0.2877777777777778,-0.3622222222222222,-0.6022222222222222,-0.0009634929429873562,-0.003272492347489368,-0.001090830782496456
1589986273.6230385,-3.6902589575468574,-0.57,8.999223127359429,0.2877777777777778,-0.3622222222222222,-0.6022222222222222,0.0022381573376872776,-0.0015938743442239097,0.0011473265551908216
1589986273.6330385,-3.6949843584439175,-0.57,8.995078207780413,0.2877777777777778,-0.3622222222222222,-0.6022222222222222,0.004363323129985824,0.0010942432406686534,0.0016311274864863879
1589986273.6430385,-3.6870150820025023,-0.5610452460075074,9.025969835994994,0.2877777777777778,-0.3622222222222222,-0.6022222222222222,0.004037719086496024,0.0012048494345235116,0.0006512080869796002
1589986273.6530385,-3.681372045151829,-0.5441161354554873,9.037255909696341,0.2877777777777778,-0.3622222222222222,-0.6022222222222222,0.0034221592561483865,-0.0006418300565194011,0.0018823277476748752
1589986273.6630385,-3.687403381175287,-0.5787016905876435,9.03610507176293,0.2933333333333333,-0.3622222222222222,-0.6222222222222222,0.0009492071952761339,0.0009492071952761339,0.0001416235872203221
1589986273.6730385,-3.6711772215559595,-0.5705886107779797,9.01176583233394,0.2933333333333333,-0.3622222222222222,-0.6222222222222222,6.420747555295589e-05,6.420747555295589e-05,0.0010266233069435
1589986273.6830385,-3.68,-0.57,8.897146374985685,0.2933333333333333,-0.3622222222222222,-0.6222222222222222,-0.0003897742908822951,0.001090830782496456,7.849209015042932e-05
1589986273.6930385,-3.676241639198905,-0.5662416391989051,8.936308525607664,0.2933333333333333,-0.3622222222222222,-0.6222222222222222,-0.0006808572171402252,0.0006808572171402252,0.002591635130349143
1589986273.7030385,-3.6739750571606735,-0.56,8.989937642901683,0.2933333333333333,-0.35824716506154874,-0.6211180396775907,0.0006504172069568352,0.0004336114713045567,0.002622075140532533
1589986273.7130384,-3.691321217310087,-0.56,9.031321217310087,0.2933333333333333,-0.3422222222222222,-0.6166666666666667,0.0034166147987103935,0.0020375391137718865,0.0004323673536630762
1589986273.7230384,-3.696703754048566,-0.563296245951434,9.000445048582792,0.2933333333333333,-0.3422222222222222,-0.6166666666666667,0.003644193819885121,0.00037170147239575326,0.002193798382338314
1589986273.7330384,-3.6892210123716973,-0.57,8.926231901026421,0.2933333333333333,-0.3422222222222222,-0.6166666666666667,0.0019267384597519651,-0.0014307282561510516,0.0
1589986273.7430384,-3.68,-0.5732944816173825,9.006588963234766,0.2933333333333333,-0.3422222222222222,-0.6166666666666667,-0.0007314585864354968,-0.00545415391248228,0.0003593721960609592
1589986273.7530384,-3.68,-0.5784461328268186,9.03087707021227,0.29022559898697053,-0.3442940451197974,-0.6152854514016166,-0.0006780024577667999,-0.00494565206915718,0.0004128283247296561
1589986273.7630384,-3.676646054359907,-0.5733539456400929,9.053106597958978,0.2733333333333333,-0.3555555555555556,-0.6077777777777778,-0.003997464415282506,-0.0029133789943995474,-0.0018090574886760972
1589986273.7730384,-3.67,-0.5770752583979327,8.965376291989664,0.2733333333333333,-0.3555555555555556,-0.6077777777777778,-0.003272492347489368,-0.0034062036788709586,0.001728910416573033
1589986273.7830384,-3.6745736327946683,-0.5837208983840043,8.95286816397334,0.2733333333333333,-0.3555555555555556,-0.6077777777777778,-0.002274680459437511,0.0004058870495813299,0.002274680459437511
1589986273.7930384,-3.6828229390012743,-0.5887082439949038,8.996937634007644,0.2733333333333333,-0.3555555555555556,-0.6077777777777778,-0.0004749610305565502,0.002489596440962865,0.0004749610305565502
1589986273.8030384,-3.6893396724775487,-0.5626413100898046,9.036038034865292,0.2733333333333333,-0.3555555555555556,-0.6077777777777778,0.0009467696648925922,0.0032004617886874365,-0.0009467696648925922
1589986273.8130383,-3.68,-0.553686377351042,9.013686377351041,0.28,-0.3477777777777778,-0.5933333333333334,0.003674613736530796,0.0017795401759514837,0.0012063641671242848
1589986273.8230383,-3.68,-0.5642023254314513,8.973774420254035,0.28,-0.3477777777777778,-0.5933333333333334,0.004363323129985824,0.001090830782496456,0.0009804793781419499
1589986273.8330383,-3.68,-0.5739514745095968,8.937660321567177,0.28,-0.3477777777777778,-0.5933333333333334,0.0035012451237221567,0.001090830782496456,-0.002181661564992912
1589986273.8430383,-3.68,-0.5764505240386408,8.994197903845437,0.28,-0.3477777777777778,-0.5933333333333334,0.002181661564992912,0.000316455254420105,-0.001407286036916561
1589986273.8530383,-3.68,-0.57,9.023386911067103,0.2822579407114018,-0.3477777777777778,-0.5984136999339873,0.001996934222514237,-0.000721376097539106,-0.00018472734247867493
1589986273.8630383,-3.678035337817488,-0.5739293243650235,9.041964662182512,0.2933333333333333,-0.3477777777777778,-0.6233333333333333,0.00044789658672929474,0.00023358518814024093,-0.0008765193839074023
1589986273.8730383,-3.67,-0.5843464758091214,9.01607885485473,0.2933333333333333,-0.3477777777777778,-0.6233333333333333,-0.0018733096541429764,-0.002655788525789497,0.0
1589986273.8830383,-3.67,-0.5711221288603723,8.936732773162234,0.2933333333333333,-0.3477777777777778,-0.6233333333333333,-0.0011520334176375478,-0.0012132360527786394,0.0
1589986273.8930383,-3.675175537466082,-0.5577633061991234,8.985526612398248,0.2933333333333333,-0.3477777777777778,-0.6233333333333333,0.0011291271167932423,0.0024639433441912225,0.002181661564992912
1589986273.9030383,-3.69,-0.5781162858816637,9.031883714118335,0.29228682548981316,-0.35049869817093016,-0.6193566035279567,0.004363323129985824,0.0030670110129189312,0.001976180230422475
1589986273.9130383,-3.69,-0.5736718689539533,9.02898439313814,0.2877777777777778,-0.3622222222222222,-0.6022222222222222,0.005965478203691956,0.002181661564992912,0.001491369550922989
1589986273.9230382,-3.681780783119734,-0.5676711746796006,8.964794307158536,0.2877777777777778,-0.3622222222222222,-0.6022222222222222,0.006485202564719425,0.0026299503040433567,0.002181661564992912
1589986273.9330382,-3.6737445438913627,-0.5425109122172744,8.903744543891364,0.2877777777777778,-0.3622222222222222,-0.6022222222222222,0.003272492347489368,0.0028640259731786055,0.0013647288163713873
1589986273.9430382,-3.6827460227502735,-0.5327460227502733,8.93471420475246,0.2877777777777778,-0.3622222222222222,-0.6022222222222222,0.002673403118402641,0.0018821169504495484,0.0
1589986273.9530382,-3.6882936374818294,-0.5451190875545119,9.006825450072682,0.2877777777777778,-0.36108464721010847,-0.6022222222222222,0.001090830782496456,0.001090830782496456,0.00018613527609186983
1589986273.9630382,-3.6740421297869243,-0.5729789351065379,9.04,0.2877777777777778,-0.3555555555555556,-0.6022222222222222,0.0004409279598422796,0.0014157821938235442,0.0014157821938235442
1589986273.9730382,-3.6626545892241467,-0.5853091784482934,9.010799518534386,0.2877777777777778,-0.3555555555555556,-0.6022222222222222,-0.001380401546554719,0.002760803093109438,0.002181661564992912
1589986273.9830382,-3.67,-0.5961888257758095,8.939527935560475,0.2877777777777778,-0.3555555555555556,-0.6022222222222222,-0.00197379425693271,0.00394758851386542,0.0017659269488725078
1589986273.9930382,-3.6730252587392345,-0.5769747412607656,8.992101034956937,0.2877777777777778,-0.3555555555555556,-0.6022222222222222,-0.00010081717516450552,0.0015216524934382784,0.0006600090715546336
1589986274.0030382,-3.681256895338936,-0.5693715523305319,9.021256895338935,0.28687002003299067,-0.3555555555555556,-0.6025713598163711,0.002181661564992912,6.855300630438466e-05,0.002113108558688527
1589986274.0130382,-3.6967850135130136,-0.5616074932434935,9.036785013513013,0.2756552680183793,-0.3555555555555556,-0.606884725975837,0.002181661564992912,0.0009154804712306898,0.0012661810937622223
1589986274.0230381,-3.6888012931657275,-0.5511987068342725,8.991609052160092,0.2733333333333333,-0.3555555555555556,-0.6077777777777778,-0.000829313519693791,0.002181661564992912,0.0
1589986274.0330381,-3.6812259789047825,-0.5587740210952175,8.938581852333478,0.2733333333333333,-0.3555555555555556,-0.6077777777777778,0.0008233636768908374,0.002181661564992912,0.0
1589986274.0430381,-3.66,-0.616934779455609,8.978391323266345,0.2733333333333333,-0.3555555555555556,-0.6077777777777778,0.0017595581674888846,0.009729737337460291,0.00016718184624810715
1589986274.0530381,-3.66,-0.6034158998243381,9.059504601053971,0.2733333333333333,-0.3555555555555556,-0.6077777777777778,0.0047089201768198445,0.014153780351456731,0.0009045223485808472
1589986274.063038,-3.63797285138677,-0.5751891405547079,9.070378281109416,0.3,-0.3555555555555556,-0.5866666666666667,0.008899106167160142,0.028279072209190285,0.0028376407616414576
1589986274.073038,-3.555934358252161,-0.5423737433008645,9.00474748660173,0.3,-0.3555555555555556,-0.5866666666666667,0.0026347982109002728,0.04259749039492713,0.00731214644468422
1589986274.083038,-3.4057811225876597,-0.6105471935308507,8.88789056129383,0.3,-0.3555555555555556,-0.5866666666666667,-0.024697243568791993,0.09900177003956397,0.043539814644949215
1589986274.093038,-3.391530307148682,-0.6461742321282957,8.880765153574341,0.3,-0.3555555555555556,-0.5866666666666667,-0.041796994540956214,0.13864210183867193,0.08007110081275459
1589986274.103038,-3.316568647521915,-0.6132843237609573,8.938235283169865,0.2959477148511412,-0.3565686268427703,-0.5900435709573824,-0.07583412722719468,0.21228956475907096,0.16368343140690575
1589986274.113038,-3.1448342669967055,-0.527417133498353,9.03190858163816,0.275131426302631,-0.36177269897989783,-0.6073904780811409,-0.08434927034946094,0.28296525267388095,0.20881368995491692
1589986274.123038,-1.6513877279635258,-0.42547349924012157,9.0555390387538,0.2733333333333333,-0.3622222222222222,-0.6088888888888889,-0.01728502606945182,0.3000155066003497,0.1910779518911692
1589986274.133038,-1.5768232993035016,-0.4247008873199122,8.352649556340044,0.2733333333333333,-0.3622222222222222,-0.6088888888888889,0.05058299737264675,0.014174555553910867,0.12172551664401728
1589986274.143038,-1.2682042481950404,-0.6173474939834676,8.425880715705764,0.2733333333333333,-0.3622222222222222,-0.6088888888888889,-0.013963227541126656,-0.10563638626416877,0.05868206203638935
1589986274.153038,-1.3827567305023591,-0.6824791840133222,8.885124895920066,0.27500462577481727,-0.36528625836494283,-0.6033179140839424,-0.06674450838016495,-0.017957835816926462,0.03435965586736929
1589986274.163038,-1.66,-0.66,9.02,0.28,-0.3744444444444445,-0.5866666666666667,0.007635815477475192,0.02617993877991494,0.03272492347489368
1589986274.173038,-1.6109666292315097,-0.5864499438472646,8.750316460773304,0.28,-0.3744444444444445,-0.5866666666666667,0.039728081599773854,0.004785094698382494,0.018461694087205383
1589986274.183038,-1.7722477514472867,-0.614934196029727,8.95211614350674,0.28,-0.3744444444444445,-0.5866666666666667,-0.009462221201002027,0.004901560421595621,-0.01495465831155595
1589986274.193038,-1.8859477455767644,-0.6579738727883823,9.217167860993088,0.28,-0.3744444444444445,-0.5866666666666667,0.0011360024801925842,-0.00871239607662494,-0.04950091723198437
1589986274.203038,-1.9615919512326698,-0.6456816097534661,9.022383341425257,0.28,-0.3744444444444445,-0.5866666666666667,0.018110486142369816,0.0143918812544421,-0.06766893465588551
1589986274.213038,-2.0287634827087735,-0.5915456466140331,8.949690870677193,0.28,-0.362600046950097,-0.6082019348382075,0.011312957162272264,0.009198737153497304,-0.10588979334138343
1589986274.223038,-2.0737832829208025,-0.6425399395049631,9.046323222425766,0.28,-0.3622222222222222,-0.6088888888888889,0.0013562772712119916,0.007771443204596391,-0.14033352362278667
1589986274.233038,-2.0624079359313647,-0.6456940480514763,8.770509919914206,0.28,-0.3622222222222222,-0.6088888888888889,0.00898931132359286,0.020463119803811453,-0.18287020602208778
1589986274.243038,-2.033388165291543,-0.6674588760313425,8.73423520661443,0.28,-0.3622222222222222,-0.6088888888888889,0.005823745412102444,0.023628685715301866,-0.2105689077476289
1589986274.253038,-2.0490725029307155,-0.6509274970692841,8.772782491207852,0.28024046220314774,-0.36242833268206315,-0.6093354615518776,0.0012257297630098368,0.01840922432192637,-0.252071446053677
1589986274.263038,-2.0240712114287986,-0.6759287885712015,8.847786365713604,0.28672227851845966,-0.3679841752380448,-0.621373120423171,0.0048620202126709745,0.01477293387226523,-0.2838889874882119
1589986274.273038,-2.107974156857005,-0.6979741568570054,9.007974156857005,0.2877777777777778,-0.3688888888888889,-0.6233333333333333,0.00853385154977777,0.017025417355713182,-0.33586765778639927
1589986274.283038,-2.092622292393773,-0.69,8.996838125311617,0.2877777777777778,-0.3688888888888889,-0.6233333333333333,0.017052275785543733,0.020439737141049255,-0.37439039558694454
1589986274.293038,-2.0414023405177506,-0.6880996099137081,8.987103510776628,0.2877777777777778,-0.3688888888888889,-0.6233333333333333,0.02187094442998647,0.02747806996289922,-0.4223387837871331
1589986274.303038,-2.0907829527967086,-0.68,9.058956062937723,0.28722681099490877,-0.36871489937850915,-0.6227823665504643,0.017538699421132443,0.028532414147286148,-0.4616401626984047
1589986274.3130379,-2.0996878773803997,-0.68,9.00730492336275,0.26666666666666666,-0.3622222222222222,-0.6022222222222222,0.02044882125979138,0.036014439470451735,-0.5240800229827643
1589986274.3230379,-2.0629517396184065,-0.6914758698092032,8.958524130190797,0.26666666666666666,-0.3622222222222222,-0.6022222222222222,0.017882401598804137,0.039770637451624444,-0.5774792051579722
1589986274.3330379,-2.14,-0.73,8.895307799560587,0.26666666666666666,-0.3622222222222222,-0.6022222222222222,0.012206331009975499,0.042694724149952235,-0.6323952273211426
1589986274.3430378,-2.142086008725523,-0.7310430043627614,8.792086008725523,0.26666666666666666,-0.3622222222222222,-0.6022222222222222,0.012976195263439643,0.048224102682879716,-0.6758300589000001
1589986274.3530378,-2.166403258301567,-0.7432016291507834,8.816403258301566,0.26666666666666666,-0.3622222222222222,-0.6022222222222222,0.01164989504427976,0.050876703121199476,-0.7083244142694172
1589986274.3630378,-2.132264865330006,-0.7579558557783324,8.877735134669994,0.2834623621987016,-0.3622222222222222,-0.6305097094340705,0.016115403255428883,0.04975632984459772,-0.7716214615399971
1589986274.3730378,-2.1536338212803146,-0.7812112737601049,8.91,0.2877777777777778,-0.3622222222222222,-0.6377777777777778,0.027535028503121922,0.05563236990731925,-0.8357392532740326
1589986274.3830378,-2.2086169980336465,-0.7995389993445489,8.91,0.2877777777777778,-0.3622222222222222,-0.6377777777777778,0.03153351795125379,0.05563236990731925,-0.8877196160997469
1589986274.3930378,-2.21,-0.8309037658484969,8.971807531696994,0.2877777777777778,-0.3622222222222222,-0.6377777777777778,0.031634092692397225,0.056475139384384324,-0.9303227921108005
1589986274.4030378,-2.2289886035363957,-0.8589886035363956,9.018482905304593,0.2877777777777778,-0.3622222222222222,-0.6377777777777778,0.0357767633432215,0.06500854199146429,-0.9973681822003597
1589986274.4130378,-2.2376163690588546,-0.8676163690588546,9.02,0.32247457015700437,-0.3571446428496525,-0.6267763558038766,0.035166598840357825,0.06877311487788823,-1.045986761560637
1589986274.4230378,-2.225652166292765,-0.8824223569826136,8.963540381379698,0.3333333333333333,-0.3555555555555556,-0.6233333333333333,0.03154601330696955,0.07269946672818743,-1.1264826487611619
1589986274.4330378,-2.2771105580482334,-0.9044759534492429,8.90473079080202,0.3333333333333333,-0.3555555555555556,-0.6233333333333333,0.030744121910617744,0.07911459789900194,-1.1729923497495667
1589986274.4430377,-2.284013942501584,-0.9440139425015843,8.876689904169307,0.3333333333333333,-0.3555555555555556,-0.6233333333333333,0.0272707695624114,0.08145123324472092,-1.2522273783642812
1589986274.4530377,-2.3081788327475947,-0.9681788327475946,8.916964721245991,0.3333333333333333,-0.3555555555555556,-0.6233333333333333,0.0272707695624114,0.08584453426738699,-1.2979177090000085
1589986274.4630377,-2.303408804771831,-1.0136352190873255,8.860226414315493,0.36,-0.33555555555555555,-0.6444444444444445,0.03493128301038046,0.0889150577587081,-1.3641079048021845
1589986274.4730377,-2.32163132137031,-1.0812234910277325,8.90836867862969,0.36,-0.33555555555555555,-0.6444444444444445,0.04058317589822867,0.09158529834053035,-1.4110438917739556
1589986274.4830377,-2.3591152942239897,-1.110176941155202,8.871238588086413,0.36,-0.33555555555555555,-0.6444444444444445,0.04593070058012206,0.09061616009071978,-1.4515383895836687
1589986274.4930377,-2.3117242158546505,-1.11965515682907,8.93758609780349,0.36,-0.33555555555555555,-0.6444444444444445,0.05213417823223932,0.09475181185879795,-1.4908270813804112
1589986274.5030377,-2.3226376186232667,-1.183188093116333,8.927362381376733,0.36,-0.33555555555555555,-0.6444444444444445,0.05373842790100085,0.09972720427129005,-1.5163811414256436
1589986274.5130377,-2.3940068810886035,-1.234223751353023,8.984006881088604,0.38291604384653716,-0.31659055375152484,-0.6547171537549611,0.051438397961132164,0.10641702000928016,-1.5552607171520527
1589986274.5230377,-2.404311584805112,-1.3286231696102242,8.927065245584663,0.3922222222222223,-0.3088888888888889,-0.6588888888888889,0.048303516974547135,0.1059673595497149,-1.601986437546275
1589986274.5330377,-2.4237602305688477,-1.3851998078592938,8.853119884715577,0.3922222222222223,-0.3088888888888889,-0.6588888888888889,0.04351978909033854,0.10735518552273146,-1.627379825691074
1589986274.5430377,-2.3772662442034473,-1.423944796497127,8.876366877898278,0.3922222222222223,-0.3088888888888889,-0.6588888888888889,0.04267450456486606,0.11073632362462137,-1.6425949471495787
1589986274.5530376,-2.307853487205218,-1.4477561465127948,8.924390366281987,0.3922222222222223,-0.3088888888888889,-0.6588888888888889,0.04447929563682914,0.10835939713543748,-1.6624048760798618
1589986274.5630376,-2.351170916326889,-1.5157911781345714,8.856898690961588,0.41740156200212,-0.2804606020406173,-0.6759458609978518,0.045521473663753566,0.1143715401183401,-1.6797585941361703
1589986274.5730376,-2.328096179081436,-1.5247595522964106,8.839048089540718,0.4266666666666667,-0.27,-0.6822222222222222,0.04898354788922399,0.1102258276937003,-1.7050198928137457
1589986274.5830376,-2.3021954457738327,-1.5895113855654188,8.826097722886916,0.4266666666666667,-0.27,-0.6822222222222222,0.04757088203016575,0.11093216062322943,-1.7205592172633868
1589986274.5930376,-2.335869587682133,-1.6811594502428437,8.850579725121422,0.4266666666666667,-0.27,-0.6822222222222222,0.056078982655097594,0.12210586409652487,-1.739551016393341
1589986274.6030376,-2.264321276907307,-1.6657285107629227,8.84286425538146,0.4266666666666667,-0.27,-0.6822222222222222,0.0626433017969886,0.12357632021600246,-1.7655782276824166
1589986274.6130376,-2.29,-1.7509161371877182,8.947329097501745,0.4577777777777778,-0.2311111111111111,-0.6966666666666667,0.05622352536713927,0.11553658280748073,-1.8095137628147246
1589986274.6230376,-2.29,-1.7578924520142378,9.003139616113902,0.4577777777777778,-0.2311111111111111,-0.6966666666666667,0.05241853588656238,0.12314656176863455,-1.8331046975943015
1589986274.6330376,-2.23,-1.8653835183864724,8.756921666496893,0.4577777777777778,-0.2311111111111111,-0.6966666666666667,0.05999591527032586,0.1308996938995747,-1.8739627246645052
1589986274.6430376,-2.23,-1.915229194254864,8.821008964041967,0.4577777777777778,-0.2311111111111111,-0.6966666666666667,0.04989803571388915,0.1308996938995747,-1.9034796033679353
1589986274.6530375,-2.186981693097015,-1.9902256296641792,8.90022562966418,0.4577777777777778,-0.2311111111111111,-0.6966666666666667,0.04221315430928202,0.1308996938995747,-1.950705430288425
1589986274.6630375,-2.135310933803777,-2.0,8.857862756104407,0.46357080487728825,-0.18145659311530768,-0.7231490762644285,0.04713886079044922,0.1373994551059563,-1.98944922983055
1589986274.6730375,-2.1,-2.0515385562339965,8.740512852077998,0.4655555555555556,-0.16444444444444445,-0.7322222222222222,0.048388158813327926,0.15156953528365255,-2.04088858485336
1589986274.6830375,-2.09941066675884,-2.08412533268812,8.75117866648232,0.4655555555555556,-0.16444444444444445,-0.7322222222222222,0.055760942475440396,0.15098465197293495,-2.082528608446922
1589986274.6930375,-2.092161867892572,-2.134866924751996,8.765676264214855,0.4655555555555556,-0.16444444444444445,-0.7322222222222222,0.05734238506333051,0.15651970103055035,-2.1109945750289443
1589986274.7030375,-2.023258127604093,-2.1833709361979534,8.778342734049488,0.4655555555555556,-0.16444444444444445,-0.7322222222222222,0.06509444036140276,0.15635036123971346,-2.1504259481692487
1589986274.7130375,-2.0592441046384993,-2.2830235814460025,8.953952837107995,0.5111111111111111,-0.13333333333333333,-0.7622222222222222,0.059069773040542874,0.16512772512130047,-2.1926145068602962
1589986274.7230375,-2.0495306357144765,-2.3215019657136744,8.87859190714343,0.5111111111111111,-0.13333333333333333,-0.7622222222222222,0.061066043939367404,0.17020032189009834,-2.2200556811248466
1589986274.7330375,-1.9926289678278424,-2.4768409862119323,8.747901078132383,0.5111111111111111,-0.13333333333333333,-0.7622222222222222,0.05729675249637639,0.17378668936517197,-2.245389983415852
1589986274.7430375,-1.9302947586922676,-2.4501768552153607,8.89899782044629,0.5111111111111111,-0.13333333333333333,-0.7622222222222222,0.04367824575954901,0.1767338786757219,-2.2679465176408096
1589986274.7530375,-1.9738266735858847,-2.4762960041515307,8.750989309807991,0.5111111111111111,-0.13333333333333333,-0.7622222222222222,0.05032627914972529,0.1795830358429403,-2.2840917415883806
1589986274.7630374,-1.9987368950001143,-2.5888417349992006,8.704947580000457,0.5244444444444445,-0.14222222222222222,-0.7911111111111111,0.03695046322333944,0.17767907043520628,-2.299264614430219
1589986274.7730374,-1.9891567118156277,-2.6559030172906057,8.666626847262512,0.5244444444444445,-0.14222222222222222,-0.7911111111111111,0.03590542735138017,0.18499432153892117,-2.2976970606222804
1589986274.7830374,-1.979701223147954,-2.718804892591817,8.62940244629591,0.5244444444444445,-0.14222222222222222,-0.7911111111111111,0.03506954253354108,0.19198621771937624,-2.2960358396613856
1589986274.7930374,-1.972942001192529,-2.691768004770116,8.615884002385057,0.5244444444444445,-0.14222222222222222,-0.7911111111111111,0.03875612622089293,0.19198621771937624,-2.2923492559740337
1589986274.8030374,-1.933307825763678,-2.7753996530144374,8.764107131792553,0.5244444444444445,-0.14222222222222222,-0.7911111111111111,0.031555249262954124,0.18398122709263556,-2.2867421479291874
1589986274.8130374,-1.9107327489881558,-2.8373274898815586,8.76512924291709,0.5644444444444444,-0.12777777777777774,-0.7655555555555555,0.0272707695624114,0.1719516110583783,-2.2691913567925246
1589986274.8230374,-1.9181174122056546,-2.9356477633830362,8.821528354925446,0.5644444444444444,-0.12777777777777774,-0.7655555555555555,0.02798952421329979,0.16576763812770456,-2.242465448717518
1589986274.8330374,-1.9010299030391917,-2.986910290882425,8.744634563676364,0.5644444444444444,-0.12777777777777774,-0.7655555555555555,0.03451337756153865,0.1555158685804721,-2.220097951523556
1589986274.8430374,-1.8123341017775831,-2.9890487168251187,8.741460171089985,0.5644444444444444,-0.12777777777777774,-0.7655555555555555,0.039150448201922455,0.1490854372981646,-2.181318876160008
1589986274.8530374,-1.6445205479452056,-2.749315068493151,8.773424657534246,0.5644444444444444,-0.12777777777777774,-0.7655555555555555,0.03653535976991554,0.14124017200214387,-2.149937814975926
1589986274.8630373,-1.6168405193904316,-2.8778177364462074,8.73488608527888,0.4688888888888889,-0.17333333333333334,-0.7744444444444445,0.027430666329254543,0.12738915352608565,-2.0958269847977236
1589986274.8730373,-1.7441306279941904,-3.0232921462790747,8.825807591424422,0.4688888888888889,-0.17333333333333334,-0.7744444444444445,0.030406065660089483,0.14325794995720528,-2.0412779970657495
1589986274.8830373,-1.6239618820458586,-2.9579782183119194,8.595929209513738,0.4688888888888889,-0.17333333333333334,-0.7744444444444445,0.036435530145570626,0.12434876917063264,-1.9975168548361868
1589986274.8930373,-1.6695046697467828,-3.0838855069302613,8.741075925522,0.4688888888888889,-0.17333333333333334,-0.7744444444444445,0.03140866312694784,0.12217304763960307,-1.9548134934120556
1589986274.9030373,-1.656389762791685,-3.1075931751944568,8.794398293798613,0.4688888888888889,-0.17333333333333334,-0.7744444444444445,0.03311873926278806,0.1197288422160139,-1.9117372764047245
1589986274.9130373,-1.587987278841936,-3.153019081737096,8.754989399034946,0.4898952494679209,-0.0924199444363211,-0.6826388685805267,0.04592698254644193,0.1246840399339657,-1.843926940655564
1589986274.9230373,-1.5763135244367936,-3.1863135244367937,8.771567622183968,0.4988888888888889,-0.057777777777777775,-0.6433333333333333,0.0460460239138181,0.12005151607021741,-1.7912136637882499
1589986274.9330373,-1.5111583997523794,-3.2072104000619053,8.772789599938095,0.4988888888888889,-0.057777777777777775,-0.6433333333333333,0.04081718617486749,0.10530256415299157,-1.7198816968160808
1589986274.9430373,-1.4495104204392057,-3.146888025549007,8.77,0.4988888888888889,-0.057777777777777775,-0.6433333333333333,0.043802963176132505,0.10638270371617424,-1.669518362207023
1589986274.9530373,-1.2709970216475375,-2.762326383844254,8.5997108818829,0.4988888888888889,-0.057777777777777775,-0.6433333333333333,0.07367838465979731,0.17455503342174272,-1.5861498928819917
1589986274.9630373,-1.0418382907234702,-2.671179650649379,7.5722093949902,0.5078250183673518,0.02021026130698965,-0.6173373203050775,0.14171068709141987,0.11168080568569387,-1.524584939060774
1589986274.9730372,-1.4006167904054825,-3.288210546354464,10.080194174757281,0.5111111111111111,0.048888888888888885,-0.6077777777777778,-0.1566022254895107,-0.03157740188645365,-1.517937860864845
1589986274.9830372,-1.2473279498613956,-3.118484994576353,8.972452693744726,0.5111111111111111,0.048888888888888885,-0.6077777777777778,-0.04570379825098958,0.01736310209969591,-1.4376819716284601
1589986274.9930372,-1.0367384446878423,-2.8183638554216865,7.894854764512596,0.5111111111111111,0.048888888888888885,-0.6077777777777778,0.10713389626149623,0.13049693480124006,-1.330328618831876
1589986275.0030372,-1.1698743208745173,-3.163698370098841,8.735233357334556,0.5111111111111111,0.048888888888888885,-0.6077777777777778,0.05852199685873964,0.0918897657571337,-1.2773936926015785
1589986275.0130372,-1.2220267976596977,-3.3081071906387907,9.196217775914057,0.5244444444444445,0.12777777777777774,-0.6077777777777778,-0.004687834342223132,0.025678556105510432,-1.2152742977295317
1589986275.0230372,-1.2639036322610275,-3.47561452904411,8.911455300625011,0.5244444444444445,0.12777777777777774,-0.6077777777777778,0.033683819473357295,0.06039576670055938,-1.1494943197599652
1589986275.0330372,-1.0627190030497424,-3.2173440950678307,8.427172415606268,0.5244444444444445,0.12777777777777774,-0.6077777777777778,0.052630864521229836,0.06133878345706199,-1.0751689176983716
1589986275.0430372,-1.2701936696054343,-3.5542245989304813,8.964844630726985,0.5244444444444445,0.12777777777777774,-0.6077777777777778,0.04196316763762599,0.05377627064408311,-1.013758124888018
1589986275.0530372,-1.2223346183816592,-3.520572530041422,8.874669236763319,0.5244444444444445,0.12777777777777774,-0.6077777777777778,0.04414742002145209,0.052552091580130744,-0.9572831296424792
1589986275.0630372,-1.1690160576765525,-3.4621854006226447,8.774862772407014,0.5123010541263859,0.1680027582063466,-0.6237159775702296,0.04472406208235469,0.05161476846192196,-0.8988084152562277
1589986275.0730371,-1.1552744953470298,-3.492744953470299,8.77692146742921,0.5066666666666667,0.18666666666666668,-0.6311111111111111,0.04127191295034999,0.04839225583399618,-0.8425064578071035
1589986275.0830371,-1.1397403030415292,-3.512987070722039,8.701948282888157,0.5066666666666667,0.18666666666666668,-0.6311111111111111,0.03375909717010603,0.0428682393866712,-0.7688516267437538
1589986275.0930371,-1.1478218832250093,-3.529703138708349,8.762871927091727,0.5066666666666667,0.18666666666666668,-0.6311111111111111,0.029042004849210896,0.03821145993088241,-0.7126687089487568
1589986275.103037,-1.1178833492692255,-3.4815604425624915,8.734708373173063,0.5066666666666667,0.18666666666666668,-0.6311111111111111,0.024973662608772366,0.03427458560715377,-0.6596003868347758
1589986275.113037,-1.0956371723590153,-3.4981858617950756,8.858920413026212,0.5275162298120202,0.2170722795869738,-0.6137364751566499,0.028024699120550493,0.03272492347489368,-0.5902760367813791
1589986275.123037,-1.0863897565234262,-3.4723641478319918,8.790702686972548,0.5333333333333333,0.2255555555555556,-0.6088888888888889,0.022771518483721054,0.026786334458286334,-0.5432511042505535
1589986275.133037,-1.0904620123203286,-3.5023100616016425,8.703844969199178,0.5333333333333333,0.2255555555555556,-0.6088888888888889,0.023629253864991248,0.025139505723509183,-0.4949168697053479
1589986275.143037,-1.07766614962415,-3.5351107664161,8.67255538320805,0.5333333333333333,0.2255555555555556,-0.6088888888888889,0.022398279266081924,0.020495366767530554,-0.4219323314590214
1589986275.153037,-1.0348661303086257,-3.541711289897125,8.763690319176998,0.5333333333333333,0.2255555555555556,-0.6088888888888889,0.021364536643558835,0.01854412330243975,-0.36791602352748154
1589986275.163037,-1.0401949510376427,-3.7160722307070344,8.769610097924716,0.5492695574920892,0.23981428243444236,-0.6147601293684305,0.018522857443145732,0.01113316733717713,-0.2876390728303601
1589986275.173037,-0.9469593704108145,-3.5913962420454117,8.811824377753512,0.5544444444444444,0.24444444444444444,-0.6166666666666667,0.017453292519943295,0.010974644072045622,-0.20983009313312379
1589986275.183037,-0.9484435797665369,-3.5988132295719844,8.67852140077821,0.5544444444444444,0.24444444444444444,-0.6166666666666667,0.009526730316394146,0.004072576403911865,-0.11259113911242115
1589986275.193037,-0.9100743933810749,-3.4369394423972746,8.5734325245081,0.5544444444444444,0.24444444444444444,-0.6166666666666667,0.004912796050738575,-0.0032643772884803214,-0.02882529633351824
1589986275.203037,-0.9954009308902375,-3.474957874270901,8.730358805161138,0.5544444444444444,0.24444444444444444,-0.6166666666666667,-0.002326651504621263,-0.013283289309461939,0.025611547367648473
1589986275.213037,-1.029518337408313,-3.51,8.762832518337408,0.6179167345829938,0.27181323010051617,-0.6312245313773431,-0.0031674098711315184,-0.018024978530280986,0.07159330456822613
1589986275.223037,-0.9823937677053824,-3.525042492917847,8.825297450424928,0.6755555555555556,0.2966666666666667,-0.6444444444444445,-0.005193034362564572,-0.021005445450480623,0.12552897463617857
1589986275.233037,-0.9632302632822393,-3.414914475798068,8.812611842975674,0.6755555555555556,0.2966666666666667,-0.6444444444444445,-0.00211420237430081,-0.020339688209703145,0.15889385607317616
1589986275.243037,-0.9461672047200267,-3.394581988199933,8.644755649560281,0.6755555555555556,0.2966666666666667,-0.6444444444444445,-0.0007544619449683269,-0.022652801864809516,0.19431238430843362
1589986275.253037,-1.0227016943562683,-3.4608933503730883,8.75812672630581,0.6755555555555556,0.2966666666666667,-0.6444444444444445,-0.006642434103630665,-0.023304326799780256,0.22311889790301992
1589986275.263037,-1.0544062138913852,-3.4822031069456925,8.782031069456925,1.066266529721402,0.4430749917975493,-0.9164693798947232,-0.01066798613761523,-0.027159991908161207,0.2581025512135083
1589986275.273037,-1.0639067176752761,-3.570393664889294,8.79476679418819,1.1766666666666667,0.4844444444444445,-0.9933333333333332,-0.008632826466412764,-0.02836160034490785,0.29465313780781216
1589986275.283037,-1.0652975632200181,-3.5770829425401263,8.725356137960325,1.1766666666666667,0.4844444444444445,-0.9933333333333332,-0.01122650943211867,-0.028874556624142636,0.3312102695088006
1589986275.293037,-1.0882728307366274,-3.6436670460343,8.672409246104941,1.1766666666666667,0.4844444444444445,-0.9933333333333332,-0.014757616387019966,-0.030994474831195565,0.38143716678363676
1589986275.303037,-1.1140347826086958,-3.7182434782608693,8.714034782608696,1.1766666666666667,0.4844444444444445,-0.9933333333333332,-0.010927278795094931,-0.033375627750365476,0.4457115606310389
1589986275.313037,-1.1042417320236555,-3.6957582679763448,8.773340947739792,1.0730178430924644,0.008427625066626143,-1.0054896768389496,-0.009354775856217672,-0.04009705021985037,0.5114391921982145
1589986275.323037,-1.08604299964966,-3.6674336658492064,8.773476665498867,0.9966666666666668,-0.3422222222222222,-1.0144444444444445,-0.008295004481121613,-0.04624653464370118,0.5765764278829936
1589986275.333037,-1.065368454958663,-3.6068422747933147,8.729263090082675,0.9966666666666668,-0.3422222222222222,-1.0144444444444445,-0.009576323835944336,-0.05052267038064872,0.6467131679223282
1589986275.343037,-1.1571368974042027,-3.524493201483313,8.746938349814586,0.9966666666666668,-0.3422222222222222,-1.0144444444444445,-0.01308996938995747,-0.054207564898074226,0.7245760885111661
1589986275.3530369,-1.2,-3.487678241974499,8.780804395063754,0.9966666666666668,-0.3422222222222222,-1.0144444444444445,-0.015778159979695366,-0.060589967951733055,0.7735166901496997
1589986275.3630369,-1.1789884148916911,-3.4379768297833824,8.771984553188922,0.7102865437089778,-0.01926637703895895,-0.7957683179468613,-0.014397281343251661,-0.0643590161672909,0.8270872766243809
1589986275.3730369,-1.17,-3.459767447638451,8.799767447638452,0.5877777777777777,0.11888888888888888,-0.7022222222222222,-0.020030698354011545,-0.06522660728779765,0.8742222355460141
1589986275.3830369,-1.2116526270261363,-3.490826313513068,8.698926327930304,0.5877777777777777,0.11888888888888888,-0.7022222222222222,-0.02181661564992912,-0.06923617759411681,0.9105009498076707
1589986275.3930368,-1.2173501400560225,-3.474700280112045,8.732224089635855,0.5877777777777777,0.11888888888888888,-0.7022222222222222,-0.02526632980521903,-0.07573360067967551,0.9407813555995093
1589986275.4030368,-1.2256443073248406,-3.4443556926751593,8.722637539808916,0.5877777777777777,0.11888888888888888,-0.7022222222222222,-0.02272002502887244,-0.07569560100628299,0.9637189898041417
1589986275.4130368,-1.2993545772702155,-3.43,8.775519248480384,0.5657946010110313,0.172381285687972,-0.6970928143099814,-0.027896294408988664,-0.0795602424241041,0.9838354928809537
1589986275.4230368,-1.2917176707485543,-3.3764047390479757,8.722809478095952,0.5544444444444444,0.2,-0.6944444444444444,-0.025208205703728188,-0.07789199428895366,0.9958094067129546
1589986275.4330368,-1.2979596198189078,-3.365986539939636,8.767825019215268,0.5544444444444444,0.2,-0.6944444444444444,-0.022907446432425576,-0.07635815477475191,1.000069256598297
1589986275.4430368,-1.2784838996838261,-3.3195742394941217,8.693935598735303,0.5544444444444444,0.2,-0.6944444444444444,-0.020844722490277846,-0.07635815477475191,0.9965696358000683
1589986275.4530368,-1.2644493385515096,-3.267753307242452,8.713436109581702,0.5544444444444444,0.2,-0.6944444444444444,-0.0201203016303097,-0.07538745968400494,0.9888933674005363
1589986275.4630368,-1.2543978040855959,-3.191459834932965,8.81786495873324,0.5581042187947367,0.19768856356823644,-0.7031123310635579,-0.019023849309635413,-0.07379828530802629,0.9803801836680441
1589986275.4730368,-1.2182741097134466,-3.0059289316561357,8.782964465828067,0.5755555555555556,0.18666666666666668,-0.7444444444444445,-0.009238284743041595,-0.06573224508755496,0.9649001829225261
1589986275.4830368,-1.2652253583567312,-3.0873873208216347,8.760901433426925,0.5755555555555556,0.18666666666666668,-0.7444444444444445,-0.008156648085461899,-0.05603528575494004,0.9540052676429353
1589986275.4930367,-1.1608118433619867,-2.987816778096148,8.739188156638013,0.5755555555555556,0.18666666666666668,-0.7444444444444445,-0.002990060595224088,-0.05528351937531744,0.9414312444809324
1589986275.5030367,-1.1328463676061928,-3.0456173084557365,8.799269551409289,0.5755555555555556,0.18666666666666668,-0.7444444444444445,-0.0010111512017186286,-0.051738896479202684,0.9364026610838284
1589986275.5130367,-1.165521846105004,-3.043643200126989,8.718121354021985,0.5449293402295505,0.12824999669299048,-0.7036094906764377,0.0006023399707546706,-0.04850781507338842,0.9281603769136686
1589986275.5230367,-9.783757636343442,-9.163157466029842,-2.6237302380687932,0.5155555555555555,0.07222222222222223,-0.6644444444444444,-0.012769897045506198,-0.0650405986133426,0.897339679524512
1589986275.5330367,-3.7220791911528117,-6.8633480109065665,-4.988608904770776,0.5155555555555555,0.07222222222222223,-0.6644444444444444,-0.8588898645695834,0.9158940354250465,-1.1469395029673377
1589986275.5430367,1.5886069974417176,-2.04,-0.8484311605952509,0.5155555555555555,0.07222222222222223,-0.6644444444444444,-1.4023042214633217,-0.18149300966358783,-6.509074064526141
1589986275.5530367,-0.7144238413352479,-2.0582868202534805,-0.16,0.5155555555555555,0.07222222222222223,-0.6644444444444444,-1.2982667700055674,-1.6390626152380896,-9.53749432663875
1589986275.5630367,-0.35340897713999675,-2.050659102286,-0.15355303409533344,0.5198535328253333,0.1660613926123687,-0.6508341830901484,-1.298276230524444,-1.1576824067641585,-9.223566126193488
1589986275.5730367,-0.731144371107186,-3.673644835920796,6.106656363298317,0.5222222222222223,0.21777777777777774,-0.6433333333333333,-1.2886225533445501,-0.7568072066778716,-8.782304311100093
1589986275.5830367,-0.45968638631503916,-2.7307043514812586,3.7219562476012946,0.5222222222222223,0.21777777777777774,-0.6433333333333333,-0.6287808235157236,0.28522867546122266,-8.312231896630111
1589986275.5930367,-0.3130974892878643,-1.8263968270831121,1.4859577180495058,0.5222222222222223,0.21777777777777774,-0.6433333333333333,0.36275792253349465,1.6509225005745216,-7.744568165991395
1589986275.6030366,-0.45634133849305714,-2.3037895515592988,3.9188931254268153,0.5222222222222223,0.21777777777777774,-0.6433333333333333,0.982624366681958,2.429700605436011,-7.327513064599492
1589986275.6130366,-0.3521970861999191,-2.0622221772561713,4.427520841764467,0.5172434911641711,0.22350631773011373,-0.6427634785736769,1.4441175432327404,3.001851977059277,-7.021664724061178
1589986275.6230366,0.8146316323618027,0.023324981763978292,8.024315118454854,0.3377777777777778,0.43,-0.6222222222222222,2.694180369883916,2.4202260253350216,-6.180888621039853
1589986275.6330366,0.4443598982188295,0.2596572010178117,-1.5685966412213739,0.3377777777777778,0.43,-0.6222222222222222,2.218332575762614,0.5339063881697652,-5.493551744848345
1589986275.6430366,-0.25950408198714603,0.5970314399861039,-1.4339825429911413,0.3377777777777778,0.43,-0.6222222222222222,1.1822194087892255,0.17099554116635565,-4.9873451289322865
1589986275.6530366,-0.3393472032213934,0.5907495934539635,-0.8534617072352289,0.3377777777777778,0.43,-0.6222222222222222,-0.01142496082896638,0.35974031424332836,-4.503837457817025
1589986275.6630366,-0.19201052163317406,-0.13033479682030058,0.4941893120321838,0.3173557304863032,0.44607693084648,-0.6235257571557206,-1.427750082441792,0.2135894480235001,-4.037786716664003
1589986275.6730366,-0.8744699669539299,-0.586699604743083,3.051874554526016,0.2855555555555556,0.4711111111111111,-0.6255555555555555,-1.9548447804094136,0.25052989645195606,-3.6420998922500605
1589986275.6830366,-0.9603019157088123,-1.0560107279693487,7.369016091954022,0.2855555555555556,0.4711111111111111,-0.6255555555555555,-1.0543401941363926,0.19960715443215532,-3.1471487855524396
1589986275.6930366,0.5757817169525525,-2.516759733082245,13.041682973758544,0.2855555555555556,0.4711111111111111,-0.6255555555555555,0.2779223106526846,0.19929108191633885,-2.608742514750545
1589986275.7030365,1.143818093385214,-2.306110894941634,10.655425097276265,0.2855555555555556,0.4711111111111111,-0.6255555555555555,1.3055901089273785,0.4028950600448075,-2.116478377357951
1589986275.7130365,1.2836697943976818,-2.1508258589761278,9.63053815371878,0.21217415635588674,0.5267030802017693,-0.6003538629011238,0.539287727975144,-0.01455258877915544,-1.7368284635498867
1589986275.7230365,1.54,-2.78,12.58,0.17555555555555555,0.5544444444444444,-0.5877777777777777,0.02617993877991494,-0.29779680362153244,-1.6318828506146985
1589986275.7330365,1.1462562396006655,-2.3591014975041595,10.43477537437604,0.17555555555555555,0.5544444444444444,-0.5877777777777777,-0.0930455062128092,0.15392693206518626,-1.1734943384998147
1589986275.7430365,0.7470607751470366,-1.6367779046470043,7.278439795764483,0.17555555555555555,0.5544444444444444,-0.5877777777777777,0.21225035534783696,0.2295688950033807,-0.8206084946480716
1589986275.7530365,0.7092791072387659,-1.6687509697439875,7.307635913349645,0.17555555555555555,0.5544444444444444,-0.5877777777777777,0.263661976315243,0.11441654228501691,-0.6201002921927424
1589986275.7630365,0.8844900638539118,-2.3195345228859576,9.79187697678582,0.17555555555555555,0.5544444444444444,-0.5877777777777777,-0.05647324440306445,0.06800034823630709,-0.4207836942188709
1589986275.7730365,0.9718605788331652,-2.5630240518321568,10.469302894165825,0.13444444444444445,0.5511111111111111,-0.6177777777777778,-0.0391474934932633,-0.030233524774722298,0.017433690169767313
1589986275.7830365,0.9295442295023058,-2.482873969375736,9.49210177476992,0.13444444444444445,0.5511111111111111,-0.6177777777777778,0.0283434601192821,-0.014032825582865706,0.32449146313721006
1589986275.7930365,7.360199903660885,-9.016668272318562,7.455196692357097,0.13444444444444445,0.5511111111111111,-0.6177777777777778,-0.05750156485125024,-0.059981593506478005,0.5623018125691427
1589986275.8030365,16.24437018332076,-18.487140983176467,7.530010166267668,0.13444444444444445,0.5511111111111111,-0.6177777777777778,-0.11613847430476137,-0.1821635535695897,0.9337329055084668
1589986275.8130364,-1.6333362017210327,-0.7981977186311787,12.856267560536322,0.12896700242367642,0.5624873368465524,-0.6228338781046405,-0.3935728596401087,-0.3800413406356314,1.8496511824155657
1589986275.8230364,-1.6570638741774997,-0.7441454020221473,7.687194671802279,0.12,0.5811111111111111,-0.6311111111111111,0.16717826430977495,0.06801393827635362,2.5073926349936846
1589986275.8330364,-1.0498961225959067,-0.9368999622887313,4.8587042750865646,0.12,0.5811111111111111,-0.6311111111111111,0.5428359199383413,0.19267506900031098,2.6271857232476217
1589986275.8430364,-0.5156492203180485,-1.9914134630230045,8.742935772734292,0.12,0.5811111111111111,-0.6311111111111111,-0.10444835264845503,-0.15008531395213476,2.626518846026664
1589986275.8530364,0.1237923721737969,-2.2129005109708446,8.881171058344188,0.12,0.5811111111111111,-0.6311111111111111,-0.42055031254667496,-0.45023309210402035,2.64841205666018
1589986275.8630364,-0.2870478464667905,-2.254594498982931,8.101683028212612,0.14273046195572064,0.5763755982036693,-0.6339524188555762,-0.22350000741488896,-0.2575130508692549,2.8167497682003515
1589986275.8730364,-0.006171596391860712,-2.4473689951751627,8.474165093350114,0.17333333333333334,0.57,-0.6377777777777778,-0.13962634015954636,-0.1636246173744684,2.950697266652913
1589986275.8830364,0.12349866463181992,-2.5590404425791684,8.485110644792064,0.17333333333333334,0.57,-0.6377777777777778,-0.18496490497000329,-0.2651830025498919,2.9815274907240243
1589986275.8930364,0.0972608940381819,-2.613591397345091,8.117182794690182,0.17333333333333334,0.57,-0.6377777777777778,-0.16136986364883021,-0.2969259912434984,3.116356619348558
1589986275.9030364,0.22917157770668461,-2.8851170230678567,9.172865802323622,0.17333333333333334,0.57,-0.6377777777777778,-0.1112647398146385,-0.24852335819995322,3.2542151002817197
1589986275.9130363,0.339614114481409,-6.782182301859099,9.537232754403131,0.20506798352902808,0.5526901908023483,-0.6377777777777778,-0.13222384052489047,-0.2597668549165361,3.5822172776484025
1589986275.9230363,0.33,-10.2,8.97,0.2344444444444445,0.5366666666666666,-0.6377777777777778,-0.15162547876700738,-0.27707101875409984,3.838633523605029
1589986275.9330363,-0.02406437301367237,-3.4816285220655665,9.102774139880127,0.2344444444444445,0.5366666666666666,-0.6377777777777778,-0.08307066248732711,-0.3185901328389766,4.579218651584109
1589986275.9430363,-0.21806535462309692,-2.994367214664281,8.324538365459272,0.2344444444444445,0.5366666666666666,-0.6377777777777778,-0.10443742721197317,-0.3197407190728014,4.805055281823999
1589986275.9530363,1.3723757907885723,-4.5168362412862155,8.804851513075715,0.2344444444444445,0.5366666666666666,-0.6377777777777778,-0.13441466390397838,-0.35282490241701825,4.801731260953305
1589986275.9630363,5.507946640998165,-11.744486841866294,9.287015491908974,0.2611123622487383,0.5273489604458893,-0.6419546805664021,-0.21241528853095365,-0.39897128440564966,3.825221640167291
1589986275.9730363,10.189258189894504,-23.063684249491025,10.02419951878586,0.32666666666666666,0.5044444444444445,-0.6522222222222223,-0.4693179214089489,-0.49454354981634774,1.029913970384181
1589986275.9830363,-2.5182692676463923,-0.6723654620574238,5.549784181440999,0.32666666666666666,0.5044444444444445,-0.6522222222222223,0.15758554175219391,0.3306785923776146,-2.2215164709376904
1589986275.9930363,-4.632202141649446,-5.008424948337404,8.492427202705242,0.32666666666666666,0.5044444444444445,-0.6522222222222223,0.8481398482287221,0.7336466755477584,-1.8710242711087208
1589986276.0030363,-3.4464797706275885,-2.4361484549219496,4.016842943612615,0.32666666666666666,0.5044444444444445,-0.6522222222222223,0.1754701569994944,0.16204414639683415,-0.4662375483660609
1589986276.0130363,-1.3219378783051932,-0.35837320802803463,10.310297228416694,0.32666666666666666,0.5044444444444445,-0.6522222222222223,-0.37475762589693584,-0.2307674760947896,0.23557616677203475
1589986276.0230362,-0.6738863121333418,-3.010629222525785,10.002511595399962,0.3922222222222223,0.4444444444444444,-0.6822222222222222,-0.16759783167515047,-0.1910457611148934,0.6035184812111387
1589986276.0330362,-1.0125375656710385,-4.370411477276901,7.7326966457254125,0.3922222222222223,0.4444444444444444,-0.6822222222222222,0.03696934087977326,-0.008223811702200129,0.9643120852775148
1589986276.0430362,2.9259719689813495,-5.970687375057665,8.318783418641946,0.3922222222222223,0.4444444444444444,-0.6822222222222222,-0.07308923295046266,-0.12100802665692188,1.165747787839971
1589986276.0530362,3.157211086649361,-6.511485065553839,8.624019978313015,0.3922222222222223,0.4444444444444444,-0.6822222222222222,-0.046700321426104356,-0.07797662248209111,0.5799279825326124
1589986276.0630362,-2.666855139489781,-2.0520662389974635,9.959082500372967,0.3922222222222223,0.4449495250882689,-0.6818548908448953,0.04320995055015313,0.06520655409288266,-0.38586507485400445
1589986276.0730362,-0.3836211651644821,-2.917236643825879,7.992038042705638,0.3922222222222223,0.4566666666666666,-0.6733333333333333,0.049864839797789884,0.028078370789144366,-0.011012549451872244
1589986276.0830362,0.5294357398665147,-4.932896182646915,9.229058277714472,0.3922222222222223,0.4566666666666666,-0.6733333333333333,-0.10373409193132471,-0.056905412758298406,0.12955979482368754
1589986276.0930362,0.3395594196087647,-5.136957058097868,8.640664395229983,0.3922222222222223,0.4566666666666666,-0.6733333333333333,-0.0071964842288823674,-0.009265493469629911,0.025743234803958105
1589986276.1030362,-0.052900107225623466,-4.180899830514337,8.514499844349901,0.3922222222222223,0.4566666666666666,-0.6733333333333333,0.0358447198873838,0.01463896343874892,-0.015697062883560212
1589986276.1130362,0.10955975663890122,-4.410723294252813,8.802484267697208,0.3922222222222223,0.4541684147003101,-0.6733333333333333,0.0024286415820967784,-0.007810760843067622,-0.0017357246317928044
1589986276.1230361,0.02401163852717831,-4.254854518410271,8.833110566008195,0.3922222222222223,0.4444444444444444,-0.6733333333333333,0.005022899864967307,0.0,0.0009798433546904573
1589986276.1330361,0.03963154057540239,-4.4088346138747125,8.657669227749425,0.3922222222222223,0.4444444444444444,-0.6733333333333333,-0.0024761020650296704,0.0009235141883554765,0.0023489781591338917
1589986276.1430361,0.056311998581623154,-4.361049598865298,8.552623997163247,0.3922222222222223,0.4444444444444444,-0.6733333333333333,-0.0017793630176873069,0.002181661564992912,5.724673757704908e-05
1589986276.153036,0.040533688353785596,-4.334733155823107,8.571102396388053,0.3922222222222223,0.4444444444444444,-0.6733333333333333,0.003963448659879893,0.0024689233527312557,5.8216368456919096e-05
1589986276.163036,0.06481187774947905,-4.322594061125261,8.734980174808983,0.3922222222222223,0.4444444444444444,-0.6733333333333333,0.010584297743905253,0.003131008261133792,0.0027065560020670633
1589986276.173036,0.02455239629033154,-4.189499361359472,8.845842172488476,0.3922222222222223,0.4511111111111111,-0.6822222222222222,0.011232734117831763,-0.0002267743118940125,0.0002267743118940125
1589986276.183036,0.05528891695610988,-4.332939690558889,8.734685822544996,0.3922222222222223,0.4511111111111111,-0.6822222222222222,-0.004235881579773102,-0.0018609910697279294,0.0007057506388807194
1589986276.193036,0.01751054852320675,-4.301223628691983,8.616329113924051,0.3922222222222223,0.4511111111111111,-0.6822222222222222,-0.012408775483588376,-0.00409176609974409,-0.0008192737522547222
1589986276.203036,0.027277324565054523,-4.2781680263048365,8.699109298260218,0.3922222222222223,0.4511111111111111,-0.6822222222222222,-0.009228997762216383,-0.004860158277445189,-0.0015876659299558216
1589986276.213036,0.021451042403562066,-4.301451042403562,8.680157296824934,0.3894813643488273,0.4511111111111111,-0.6788364566139107,0.0025153883309582876,-0.003272492347489368,0.00031656834410262924
1589986276.223036,0.03065997684291779,-4.309010034735623,8.74032998842146,0.37333333333333335,0.4511111111111111,-0.6588888888888889,0.01072832706096717,-0.003344484653088324,0.002145665412193434
1589986276.233036,0.05402708889736742,-4.304162533384204,8.68556657764212,0.37333333333333335,0.4511111111111111,-0.6588888888888889,0.001939855886003808,-0.002379143139313617,0.0006515435291866471
1589986276.243036,0.06375377710629221,-4.34,8.616276439744045,0.37333333333333335,0.4511111111111111,-0.6588888888888889,-0.0040914394711241715,0.0013627144413581082,0.0
1589986276.253036,0.06168170335618911,-4.3455455310958735,8.654454468904126,0.37333333333333335,0.4511111111111111,-0.6588888888888889,-0.004546768508781691,-0.0006049236024670591,0.0006049236024670591
1589986276.263036,0.04135629486471563,-4.355931115405854,8.646781474323578,0.3769501196392417,0.44839852138167985,-0.6608479814712559,-0.0002583269198471385,-0.0015898662895634432,0.0017378151084208103
1589986276.273036,0.04715863323372743,-4.320055216318046,8.692841366766272,0.4,0.4311111111111111,-0.6733333333333333,0.011534221057509135,0.002026689048342285,-0.0006259132325445755
1589986276.283036,0.037101460321331665,-4.269468613761775,8.702898539678669,0.4,0.4311111111111111,-0.6733333333333333,0.005886266036270204,0.0003161816305778803,0.0014070124130743363
1589986276.293036,0.0562821255449529,-4.295042834059937,8.683717874455047,0.4,0.4311111111111111,-0.6733333333333333,-0.001785449317114409,-0.0017761043748906506,-0.0006852735923941946
1589986276.303036,0.05,-4.324285874709233,8.662142937354616,0.4,0.4311111111111111,-0.6733333333333333,-0.011297863998047957,-0.0018310242602863828,0.001090830782496456
1589986276.313036,0.05,-4.351200449185851,8.675600224592925,0.4,0.4311111111111111,-0.6733333333333333,-0.00689397704751466,0.00037091921498026616,0.001090830782496456
1589986276.323036,0.04147204735898612,-4.357055905282028,8.645888189435945,0.3855555555555555,0.43666666666666665,-0.6522222222222223,0.002449287327072023,-0.002021086107745445,0.0010373056300806338
1589986276.333036,0.06770062950764999,-4.3045987409847,8.7508025180306,0.3855555555555555,0.43666666666666665,-0.6522222222222223,0.007217778125238619,0.0008400083711545127,8.360747044731443e-05
1589986276.343036,0.024887990802355153,-4.302443995401178,8.69,0.3855555555555555,0.43666666666666665,-0.6522222222222223,0.001139704014781947,-0.0008242322409080284,0.000291035157731173
1589986276.353036,0.03950074905062188,-4.3097503745253105,8.69,0.3855555555555555,0.43666666666666665,-0.6522222222222223,-0.005236314590973388,-2.722991518861145e-05,-0.0020999718194270782
1589986276.363036,0.048485779854110324,-4.375457339562331,8.681514220145889,0.3855555555555555,0.43666666666666665,-0.6533158256609204,-0.0016861341810090903,0.0009256549878351821,-0.0008430670905045451
1589986276.373036,0.03129743463650521,-4.323892303909516,8.698702565363494,0.3855555555555555,0.43666666666666665,-0.6657296305403018,0.003938738638052731,-0.0009493026185187585,0.0019693693190263655
1589986276.383036,0.03684588331647155,-4.304229416582358,8.717383533265886,0.3855555555555555,0.43666666666666665,-0.6666666666666666,0.009188004039975328,-0.0014935400509972193,0.0
1589986276.393036,0.03930801881381209,-4.279308018813812,8.683794654124124,0.3855555555555555,0.43666666666666665,-0.6666666666666666,0.0024081118786335666,-0.00033844911487207924,0.00033844911487207924
1589986276.4030359,0.05550013256069386,-4.304499867439306,8.674499867439305,0.3855555555555555,0.43666666666666665,-0.6666666666666666,-0.0053450419139755515,-0.001090830782496456,0.001090830782496456
1589986276.4130359,0.04035881710197032,-4.321435268407882,8.689282365796059,0.3860738469250682,0.43666666666666665,-0.6669058780679802,-0.00849180101590241,-0.001090830782496456,0.0009734081604618369
1589986276.4230359,0.04306344640692229,-4.346126892813845,8.680404830389616,0.4,0.43666666666666665,-0.6733333333333333,0.0008449809085133123,-0.0007125004733081779,-0.0010466706374280777
1589986276.4330359,0.03318739671697697,-4.313625206566046,8.66812603283023,0.4,0.43666666666666665,-0.6733333333333333,0.007935748876941387,0.0006953820909813257,0.0021339039189684442
1589986276.4430358,0.042209439823629624,-4.3,8.617675518589037,0.4,0.43666666666666665,-0.6733333333333333,0.009703245339120193,0.0012176115763174189,0.004363323129985824
1589986276.4530358,0.049386789628121444,-4.3018396311156355,8.679386789628122,0.4,0.43666666666666665,-0.6733333333333333,0.004919026912649297,-0.002181661564992912,0.004095759630069333
1589986276.4630358,0.04101443200191628,-4.326956703994251,8.671014432001916,0.4,0.43666666666666665,-0.6733333333333333,-0.0023872334239375395,-0.002181661564992912,0.0004426294617759143
1589986276.4730358,0.04,-4.334329967336307,8.697560043551588,0.4,0.4511111111111111,-0.6666666666666666,0.0012370092334631358,-0.0008846625769192666,-0.0019754933594157225
1589986276.4830358,0.04,-4.308780374984581,8.72024299987665,0.4,0.4511111111111111,-0.6666666666666666,0.006544984694978735,-0.000399121352976454,-0.0009577903315043046
1589986276.4930358,0.037788649385188715,-4.295577298770377,8.667690804918491,0.4,0.4511111111111111,-0.6666666666666666,0.005821321898520151,-0.003272492347489368,-0.00024122093215286168
1589986276.5030358,0.030902927125572535,-4.281805854251146,8.72277658299542,0.4,0.4511111111111111,-0.6666666666666666,0.003567974558367038,-0.003272492347489368,-0.0009923367122038993
1589986276.5130358,0.03174594391636859,-4.32,8.718254056083632,0.39870670821009735,0.45027047144767435,-0.6666666666666666,-0.003589913908903915,-0.0022451458772758215,0.003018555098357731
1589986276.5230358,0.056611860956860265,-4.32,8.69338813904314,0.3802875104023257,0.43829799287262283,-0.6666666666666666,-0.008110665199365829,-0.0031492961353682043,-0.0005980459340118012
1589986276.5330358,0.047378837209302326,-4.322136511627907,8.664273023255813,0.37777777777777777,0.43666666666666665,-0.6666666666666666,0.0019486042999046576,-0.001090830782496456,0.001090830782496456
1589986276.5430357,0.04504133659090348,-4.305041336590904,8.642686014659064,0.37777777777777777,0.43666666666666665,-0.6666666666666666,0.0049132476438141495,-0.001365793039410619,0.001365793039410619
1589986276.5530357,0.057850082220128225,-4.32,8.714299835559745,0.37777777777777777,0.43666666666666665,-0.6666666666666666,0.005606906097330507,-0.002181661564992912,0.001947141915580855
1589986276.5630357,0.05010051179720267,-4.32,8.729798976405595,0.37777777777777777,0.43666666666666665,-0.6666666666666666,0.002225518109949997,-0.002181661564992912,0.0011017949187357272
1589986276.5730357,0.05154824233358265,-4.32,8.705355272999252,0.3922222222222223,0.4444444444444444,-0.6666666666666666,0.00016888703962360987,0.0,-0.0005841696636256264
1589986276.5830357,0.05959208330936079,-4.32,8.681223750071917,0.3922222222222223,0.4444444444444444,-0.6666666666666666,0.0010463339742121233,0.0,0.002048171140139914
1589986276.5930357,0.04,-4.311051227739861,8.639083509845454,0.3922222222222223,0.4444444444444444,-0.6666666666666666,0.004722034193963977,0.0006027509701509207,0.0019376216588201443
1589986276.6030357,0.04,-4.28,8.74,0.3922222222222223,0.4444444444444444,-0.6666666666666666,0.0021440302290658127,-0.0010531994465693567,0.0010531994465693567
1589986276.6130357,0.04,-4.28,8.74,0.3922222222222223,0.4444444444444444,-0.6666666666666666,0.0014757952067159727,-0.0003849644242195166,0.0003849644242195166
1589986276.6230357,0.04761684445015637,-4.325701066700939,8.74,0.4015316987724134,0.4444444444444444,-0.660742454316545,-0.0030635134133624713,0.0,0.0
1589986276.6330357,0.03471576520002471,-4.331178941300006,8.705852704399927,0.4044444444444445,0.4444444444444444,-0.6588888888888889,-0.0035917078535039476,-0.00012860254608031268,0.0030152872553287427
1589986276.6430357,0.0692587864687352,-4.339814696617184,8.602223640593794,0.4044444444444445,0.4444444444444444,-0.6588888888888889,0.0020603807845469314,-0.0010706173190887923,0.0011312577093117826
1589986276.6530356,0.04666906679298911,-4.301115111321648,8.646661866414021,0.4044444444444445,0.4444444444444444,-0.6588888888888889,0.004726671577650536,-0.001090830782496456,0.0019391674533823307
1589986276.6630356,0.06616275041856706,-4.298720916806189,8.712325500837135,0.4044444444444445,0.4444444444444444,-0.6588888888888889,0.006405458362860446,-0.001090830782496456,-0.0006722517861415867
1589986276.6730356,0.047125899426805964,-4.31524940038213,8.742874100573195,0.4010556888039713,0.4495275779051542,-0.6588888888888889,0.002386355857118756,0.0005726207526475357,0.0005726207526475357
1589986276.6830356,0.03964388047482603,-4.329643880474826,8.676794924273434,0.4,0.4511111111111111,-0.6588888888888889,-0.003155952505397033,0.0010519841684656776,-0.0020651217229005767
1589986276.6930356,0.03217925216679421,-4.322179252166794,8.609613269501148,0.4,0.4511111111111111,-0.6588888888888889,-0.0007131586039083684,0.00023771953463612287,0.0003776721785880878
1589986276.7030356,0.04826533230690275,-4.319132666153451,8.638673338465487,0.4,0.4511111111111111,-0.6588888888888889,0.00526493102077902,-0.00037844578340652,0.001185442228348086
1589986276.7130356,0.030327174749807544,-4.310163587374904,8.728364126250963,0.4,0.4511111111111111,-0.6588888888888889,0.0033081815763239325,-0.004291944672316694,0.0021638169505756293
1589986276.7230356,0.06841784171694594,-4.301582158283054,8.76,0.4,0.4311111111111111,-0.6444444444444445,-0.0017811775656713024,0.0009182440867027443,-0.001663901477611777
1589986276.7330356,0.061368716492159796,-4.3086312835078395,8.76,0.4,0.4311111111111111,-0.6444444444444445,-0.00485693867961889,0.00014930380821584748,0.0006429193578489142
1589986276.7430356,0.05629213483146067,-4.33814606741573,8.601123595505618,0.4,0.4311111111111111,-0.6444444444444445,-0.0015749635455145458,0.0004044653463189106,-0.0028680270011704574
1589986276.7530355,0.04,-4.325109124515693,8.661412042796716,0.4,0.4311111111111111,-0.6444444444444445,0.0019800170377696218,0.0020038243139382786,-0.0014465052846057225
1589986276.7630355,0.04,-4.302745885614758,8.713592933565565,0.4,0.4311111111111111,-0.6444444444444445,0.006045768602679945,0.001190674000956214,-0.003072805910569852
1589986276.7730355,0.03201610103289645,-4.3,8.727983898967103,0.40354839954093497,0.4311111111111111,-0.6790413399685599,0.004803168143447094,0.001090830782496456,0.00021114075557391665
1589986276.7830355,0.04125053604612379,-4.313751608138371,8.667494639538761,0.4044444444444445,0.4311111111111111,-0.6877777777777778,0.0,0.0006815938183764843,-0.002045249243619588
1589986276.7930355,0.05,-4.338710745435228,8.589024781953402,0.4044444444444445,0.4311111111111111,-0.6877777777777778,0.0001406358565726906,-0.0019003898518475306,-0.0009501949259237653
1589986276.8030355,0.04871052327150735,-4.326131569814522,8.661605290556434,0.4044444444444445,0.4311111111111111,-0.6877777777777778,0.0016534711459975007,0.0002813201817505224,-0.0001406600908752612
1589986276.8130355,0.0406237226699572,-4.301871168009871,8.734386495970385,0.4044444444444445,0.4311111111111111,-0.6877777777777778,0.005182003557230205,0.0020455863873668745,-0.0010227931936834373
1589986276.8230355,0.04781458825429512,-4.307814588254295,8.747814588254295,0.3896835555196647,0.4415305621168379,-0.6764900391882404,0.002896835886386173,-0.0003756564611031945,0.002318926585631686
1589986276.8330355,0.0317199308726044,-4.310859965436302,8.724410224664036,0.3855555555555555,0.4444444444444444,-0.6733333333333333,0.0009970231055163124,-0.0010439269440063843,4.690383849007176e-05
1589986276.8430355,0.07,-4.33,8.606228369250562,0.3855555555555555,0.4444444444444444,-0.6733333333333333,-0.0012040657308842622,-0.0003397048451634187,0.001090830782496456
1589986276.8530354,0.0699012067365071,-4.329934137824338,8.660065862175662,0.3855555555555555,0.4444444444444444,-0.6733333333333333,-0.0021708848917007775,-0.0032689001230586565,0.001083646333635033
1589986276.8630354,0.04209123458427264,-4.311394156389515,8.678605843610484,0.3855555555555555,0.4444444444444444,-0.6733333333333333,0.0008627124767018783,-0.002257701000257771,-0.0009387519119667374
1589986276.8730354,0.06,-4.292242001202324,8.74,0.4,0.4511111111111111,-0.6666666666666666,0.006300420302389773,-0.0029056457586059247,0.0
1589986276.8830354,0.06,-4.306250083494756,8.74,0.4,0.4511111111111111,-0.6666666666666666,0.004772375565556935,-0.0006135786533566666,0.0
1589986276.8930354,0.04091866123746152,-4.301837322474923,8.631837322474924,0.4,0.4511111111111111,-0.6666666666666666,-0.00010021039565093076,-0.0030720715561875066,0.00030063118695279227
1589986276.9030354,0.04786125732446122,-4.315722514648923,8.645722514648924,0.4,0.4511111111111111,-0.6666666666666666,-0.0008575301478648027,-0.0015574320517597626,0.0025725904435944078
1589986276.9130354,0.05,-4.302886458118348,8.684227083763304,0.4,0.4511111111111111,-0.6666666666666666,-0.001090830782496456,0.002642764873913267,0.00047229560518207564
1589986276.9230354,0.03867540665210002,-4.300662296673949,8.75801310997815,0.37777777777777777,0.4511111111111111,-0.6822222222222222,0.0001444907198179331,7.224535990896655e-05,0.0001444907198179331
1589986276.9330354,0.021220568383036167,-4.311220568383036,8.723897158084819,0.37777777777777777,0.4511111111111111,-0.6822222222222222,0.0019153748521213564,0.0008911157478427894,0.0019153748521213564
1589986276.9430354,0.03592734795490805,-4.325927347954908,8.650363260225461,0.37777777777777777,0.4511111111111111,-0.6822222222222222,-0.0012931467215562221,-0.001515275432415395,-0.0012931467215562221
1589986276.9530354,0.05103635466359599,-4.337927290672808,8.646218127981577,0.37777777777777777,0.4511111111111111,-0.6822222222222222,-0.0018425152944026336,0.003046394833762516,0.0
1589986276.9630353,0.05870263749520206,-4.322594725009596,8.692215824971212,0.37777777777777777,0.4511111111111111,-0.6822222222222222,0.0006662698956093672,0.0013738713737545152,0.0
1589986276.9730353,0.05796788696210661,-4.3,8.722032113037894,0.4044444444444445,0.4444444444444444,-0.6522222222222223,0.006434150122216411,-0.0008691616369718069,0.0003325037182869737
1589986276.9830353,0.04000899165061015,-4.3,8.73999100834939,0.4044444444444445,0.4444444444444444,-0.6522222222222223,0.00545464433094583,0.0010898499455693556,0.003271021092098718
1589986276.9930353,0.05104716445528524,-4.311047164455285,8.62418865782114,0.4044444444444445,0.4444444444444444,-0.6522222222222223,0.0025871248141926062,0.000862374938064202,0.002181661564992912
1589986277.0030353,0.059866686292238784,-4.319866686292239,8.659466745168956,0.4044444444444445,0.4444444444444444,-0.6522222222222223,-0.0031852387297965678,-0.0010617462432655222,0.002181661564992912
1589986277.0130353,0.047087709427356836,-4.326456145286322,8.692280726431608,0.4044444444444445,0.4444444444444444,-0.6522222222222223,-0.0011597237431126757,-0.001090830782496456,6.889296061621947e-05
1589986277.0230353,0.04671382278128158,-4.316572354437437,8.723427645562564,0.39176277919091257,0.4444444444444444,-0.6663958480938167,0.0014647289116095832,-0.0025555596941060394,-0.001090830782496456
1589986277.0330353,0.04354626119062271,-4.31,8.710638783571868,0.3855555555555555,0.4444444444444444,-0.6733333333333333,0.00288565526053899,0.0002474761302410228,0.00031715660859570017
1589986277.0430353,0.04,-4.319387500487348,8.653062497563258,0.3855555555555555,0.4444444444444444,-0.6733333333333333,0.00020043999679932164,0.00013362666453288095,0.0021148482327264717
