time,acc_x,acc_y,acc_z,mag_x,mag_y,mag_z,gyr_x,gyr_y,gyr_z
1589986400.83251,-0.04,-4.27,8.65,0.4477777777777778,0.3088888888888889,-0.5877777777777777,-0.004363323129985824,0.002181661564992912,0.01090830782496456
1589986400.84251,-0.026400556783755014,-4.229201670351265,8.703599443216245,0.4477777777777778,0.3088888888888889,-0.5877777777777777,-0.002094577309450945,0.0035337451141152698,0.01474760702955067
1589986400.85251,-0.023775954157971065,-4.213775954157971,8.713775954157972,0.44484092454380025,0.3109866411988728,-0.585260475005797,-0.0016475708115241297,0.010229369745349137,0.017575490570531045
1589986400.86251,-0.042448190060672165,-4.232448190060672,8.744896380121345,0.44,0.3144444444444445,-0.5811111111111111,-0.0052685810569556655,0.008645163007539956,0.012370284318514243
1589986400.87251,-0.05738170563961485,-4.25,8.76429023383769,0.44,0.3144444444444445,-0.5811111111111111,-0.0059737614777897385,0.004597319086698784,0.009246253825279108
1589986400.88251,-0.05510635644996384,-4.244893643550037,8.740425425799856,0.44,0.3144444444444445,-0.5811111111111111,0.0012068476720340582,0.0032956957253968884,0.005407747156667239
1589986400.89251,-0.055835463586662436,-4.24,8.77665814565335,0.44,0.3144444444444445,-0.5811111111111111,0.009270667403676333,0.006634725387233823,0.002818211896039768
1589986400.90251,-0.05,-4.226485014314307,8.789188011451445,0.4381980019085742,0.3144444444444445,-0.5790087800044478,0.012500266893519341,0.009817477042468105,0.0012971078203357187
1589986400.91251,-0.05805751425593231,-4.202086271383899,8.772086271383898,0.43333333333333335,0.3144444444444445,-0.5733333333333334,0.007832023221693313,0.007620130897274358,0.0006670461336585416
1589986400.92251,-0.07,-4.2107846917428935,8.743923458714466,0.43333333333333335,0.3144444444444445,-0.5733333333333334,0.003272492347489368,0.006876408609247216,0.003272492347489368
1589986400.93251,-0.07454389734061086,-4.1954561026593895,8.69,0.43333333333333335,0.3144444444444445,-0.5733333333333334,0.002281167729160949,0.008330490114975476,0.003272492347489368
1589986400.94251,-0.08,-4.211277182404736,8.711277182404736,0.43333333333333335,0.3144444444444445,-0.5733333333333334,-0.001230149770691257,0.00561659247370365,0.003272492347489368
1589986400.9525099,-0.08356756756756757,-4.232864864864865,8.75427027027027,0.4404684684684685,0.3100840840840841,-0.5812612612612612,-0.005141645634253565,0.004363323129985824,0.003272492347489368
1589986400.9625099,-0.08078302596531181,-4.2292169740346885,8.761566051930624,0.4533333333333333,0.3022222222222222,-0.5955555555555555,-0.0035287369954262043,0.00335790723013498,0.0017643684977131024
1589986400.9725099,-0.06725327161043355,-4.234506543220867,8.71802617288347,0.4533333333333333,0.3022222222222222,-0.5955555555555555,0.0,0.0012827968014441095,0.0
1589986400.9825099,-0.060423103932584266,-4.220423103932584,8.660423103932585,0.4533333333333333,0.3022222222222222,-0.5955555555555555,0.00018461391754329064,-0.001090830782496456,-4.615347938582266e-05
1589986400.9925098,-0.07306048782523422,-4.223879024349531,8.69142341477664,0.4533333333333333,0.3022222222222222,-0.5955555555555555,0.0040294756970637126,-0.001424678215418567,-0.0004231359166522339
1589986401.0025098,-0.08,-4.218821617228769,8.742940539076256,0.4533333333333333,0.29830150345388057,-0.5932684696073562,0.0035932554016407706,-0.00314395072744712,0.0014115938366478587
1589986401.0125098,-0.0764124149659864,-4.2364124149659865,8.746412414965986,0.4533333333333333,0.2888888888888889,-0.5877777777777777,0.00397197831099326,-0.004671464274497153,0.0025730063839854754
1589986401.0225098,-0.06857373628592583,-4.228573736285926,8.734294945143704,0.4533333333333333,0.2888888888888889,-0.5877777777777777,0.003272492347489368,-0.0028057486385084183,0.0024945861658544517
1589986401.0325098,-0.06771975059772163,-4.22,8.723159251793165,0.4533333333333333,0.2888888888888889,-0.5877777777777777,0.001588304030451335,0.001684188317038033,-0.0013395674064738954
1589986401.0425098,-0.07334193002853821,-4.216670965014269,8.76332903498573,0.4533333333333333,0.2888888888888889,-0.5877777777777777,-0.0014539721663407472,0.0018213334430757862,0.0007262827676885822
1589986401.0525098,-0.06229626354189697,-4.212296263541897,8.774592527083794,0.4533333333333333,0.29348141597268285,-0.5862469354165131,-0.0019311780693703562,-0.003272492347489368,0.0016806945737478005
1589986401.0625098,-0.07256170612009238,-4.2174382938799075,8.777191469399538,0.4533333333333333,0.3088888888888889,-0.5811111111111111,-0.00053195320419519,-0.003272492347489368,0.0
1589986401.0725098,-0.08,-4.213931942191417,8.688884751511576,0.4533333333333333,0.3088888888888889,-0.5811111111111111,0.0006619224247570111,-0.005845942493926039,0.0
1589986401.0825098,-0.07734699276853431,-4.214693985537068,8.63387706508319,0.4533333333333333,0.3088888888888889,-0.5811111111111111,-0.000289398195426848,-0.009238680651614409,-0.000578796390853696
1589986401.0925097,-0.06332230232832999,-4.203338848835835,8.696661151164164,0.4533333333333333,0.3088888888888889,-0.5811111111111111,-0.002911890326612097,-0.008728451203944576,-0.0018174496561697837
1589986401.1025097,-0.05501806057238122,-4.204981939427618,8.695018060572382,0.451939427618783,0.3088888888888889,-0.5774869562532803,-0.007639755683135779,-0.01090830782496456,-0.0013645235295357168
1589986401.1125097,-0.061446403948036875,-4.198553596051964,8.718553596051963,0.4477777777777778,0.3088888888888889,-0.5666666666666667,-0.012307886706142789,-0.012774412999868867,-0.001248608977540758
1589986401.1225097,-0.06292287033546928,-4.218615246890313,8.725692376554845,0.4477777777777778,0.3088888888888889,-0.5666666666666667,-0.01653024429914396,-0.015271630954950384,-0.0009397776506760129
1589986401.1325097,-0.08,-4.23,8.731000659957104,0.4477777777777778,0.3088888888888889,-0.5666666666666667,-0.01963495408493621,-0.015271630954950384,-0.002181661564992912
1589986401.1425097,-0.08,-4.226365900600023,8.755451149099965,0.4477777777777778,0.3088888888888889,-0.5666666666666667,-0.01943674471032885,-0.016659096577201906,-0.0029744990634223522
1589986401.1525097,-0.08,-4.212798919635781,8.775801620546327,0.4477777777777778,0.3088888888888889,-0.5666666666666667,-0.018696780687261955,-0.021838844738670135,-0.00593435515568991
1589986401.1625097,-0.1092957910465139,-4.150563328352706,8.756901402984495,0.43333333333333335,0.3211111111111111,-0.5877777777777777,-0.020894787117785866,-0.03046644462952354,-0.011415314576024174
1589986401.1725097,-0.158130130207828,-3.9959212543418783,8.740623289930724,0.43333333333333335,0.3211111111111111,-0.5877777777777777,-0.021782620457786426,-0.035793444669526886,-0.01407881459602585
1589986401.1825097,-0.2004870911100995,-3.9634956970367,8.6369913940734,0.43333333333333335,0.3211111111111111,-0.5877777777777777,-0.028574133935618615,-0.019750608489939134,-0.020397596871718972
1589986401.1925097,-0.23004248159831756,-4.002638065194532,8.69016992639327,0.43333333333333335,0.3211111111111111,-0.5877777777777777,-0.04064850722441168,-0.010091343243970579,-0.01880408743340189
1589986401.2025096,-0.2612345462345462,-4.103703638703639,8.805061815061816,0.4358024258024258,0.3211111111111111,-0.5859945443278777,-0.05167305108785087,-0.01158164834249362,-0.00591210204079955
1589986401.2125096,-0.2694134394134394,-4.1282403182403185,8.772346242346241,0.4521602121602121,0.3211111111111111,-0.5741805875139209,-0.05434958762173696,-0.016042542565637107,0.01996108445343267
1589986401.2225096,-0.2832379062954163,-4.074096749636669,8.761145124455005,0.4533333333333333,0.3211111111111111,-0.5733333333333334,-0.06426533089189275,-0.01604048937679164,0.08381628781075885
1589986401.2325096,-0.27065109153581,-3.881332822673305,8.689674454232096,0.4533333333333333,0.3211111111111111,-0.5733333333333334,-0.07477350477168448,-0.008516919315194466,0.14398297876539584
1589986401.2425096,-0.2363985382363323,-3.5228153485185105,8.687605116172838,0.4533333333333333,0.3211111111111111,-0.5733333333333334,-0.08499705621108221,0.01330534510704721,0.22191127952177384
1589986401.2525096,-0.19471810981519233,-2.900890285065,8.501795274537981,0.4533333333333333,0.31906363369685903,-0.5777695343975463,-0.09782356687695618,0.053675669634936904,0.3347183433732102
1589986401.2625096,-0.07,-1.82,8.19,0.4533333333333333,0.3144444444444445,-0.5877777777777777,-0.11671889372712077,0.08617563181722003,0.4352414822160859
1589986401.2725096,-0.14447809232937858,-1.919304123105838,8.471361682133207,0.4533333333333333,0.3144444444444445,-0.5877777777777777,-0.10543514431955142,0.006286686011629003,0.5652302753912849
1589986401.2825096,-0.2780032964445491,-2.0840028255238994,8.741984930539203,0.4533333333333333,0.3144444444444445,-0.5877777777777777,-0.038827616997878324,-0.07766370995898302,0.8187857530882215
1589986401.2925096,-0.31761592376980335,-2.14145668607177,8.58576114345295,0.4533333333333333,0.3144444444444445,-0.5877777777777777,0.021484504166579772,-0.04473837396419994,0.957951262478176
1589986401.3025095,-0.31154198163755903,-2.196122165261969,8.676870275436615,0.4533333333333333,0.3144444444444445,-0.5877777777777777,-0.018269354127145872,-0.07256607476980789,1.0473974436390587
1589986401.3125095,-0.32674180577555745,-2.377110654667618,9.026885237340947,0.4477777777777778,0.3022222222222222,-0.5811111111111111,-0.06659655886150952,-0.0928256760731929,1.2243748519393114
1589986401.3225095,-0.37784817838430607,-2.355207923549583,8.851663388396666,0.4477777777777778,0.3022222222222222,-0.5811111111111111,-0.033943921984972,-0.09362208185066943,1.327111197233783
1589986401.3325095,-0.42,-2.458879612825166,8.671535148215366,0.4477777777777778,0.3022222222222222,-0.5811111111111111,-0.030176616064313933,-0.0986092813868268,1.5074194410794952
1589986401.3425095,-0.4253735534377127,-2.5346264465622874,8.837461708645337,0.4477777777777778,0.3022222222222222,-0.5811111111111111,-0.05613703693969103,-0.11590494757908544,1.6311681299692569
1589986401.3525095,-0.4510020608703444,-2.51,8.773987634777933,0.4477777777777778,0.3016655217386976,-0.579663689853947,-0.052029705846027445,-0.12326612648290991,1.7390253636761162
1589986401.3625095,-0.4715052088404245,-2.512876302210106,8.745886719890956,0.4477777777777778,0.2966666666666667,-0.5666666666666667,-0.04523127025191048,-0.1365326703541686,1.8676924861029964
1589986401.3725095,-0.5173281842725812,-2.5481582994429446,8.805667953931854,0.4477777777777778,0.2966666666666667,-0.5666666666666667,-0.06046824595753764,-0.14531677053214492,1.959671181906668
1589986401.3825095,-0.5746645705888384,-2.641329927206862,8.79133385735279,0.4477777777777778,0.2966666666666667,-0.5666666666666667,-0.062031853336309686,-0.14609857422153097,2.0300335139514103
1589986401.3925095,-0.6257196827343394,-2.6695328045572326,8.777159048203018,0.4477777777777778,0.2966666666666667,-0.5666666666666667,-0.049868316227663356,-0.1500167746842463,2.1495770463769945
1589986401.4025095,-0.6507691441863955,-2.7103845720931976,8.850384572093198,0.449486987080879,0.2946156155029453,-0.5677776527136824,-0.05785598178004708,-0.1571215829872246,2.2295738504631206
1589986401.4125094,-0.7077669322324891,-2.726294488705415,8.853705511294585,0.4922222222222222,0.2433333333333333,-0.5955555555555555,-0.05890486225480863,-0.16023033007396895,2.3370969658067655
1589986401.4225094,-0.7846427975296278,-2.7364285316864185,8.814999721804929,0.4922222222222222,0.2433333333333333,-0.5955555555555555,-0.05968403576984171,-0.16607900180827273,2.4132295302278712
1589986401.4325094,-0.7718672579905185,-2.72,8.709493806392414,0.4922222222222222,0.2433333333333333,-0.5955555555555555,-0.06430379901038522,-0.17338687726003083,2.5064015052579345
1589986401.4425094,-0.8130521868787277,-2.7194913021868787,8.738473906560637,0.4922222222222222,0.2433333333333333,-0.5955555555555555,-0.06752052786807201,-0.17726948999796718,2.5800016839891713
1589986401.4525094,-0.8739539444549883,-2.7115815777819954,8.718698677800974,0.4960004358125444,0.23964298517534421,-0.597312864202217,-0.0657086320092143,-0.18779541796234173,2.6730944618540287
1589986401.4625094,-0.9181780223951415,-2.7292712089580564,8.81599164926931,0.5382589991775796,0.19836717909786802,-0.6169680099533962,-0.0686030911418928,-0.18972505738412732,2.7647523343888474
1589986401.4725094,-0.9644403734783122,-2.76203364456526,8.803525981956428,0.54,0.19666666666666666,-0.6177777777777778,-0.07120723144972166,-0.19931880260939938,2.89736065655459
1589986401.4825094,-1.0214449892736746,-2.806242721422004,8.730404535703341,0.54,0.19666666666666666,-0.6177777777777778,-0.06917632281018822,-0.20305214942235095,2.9884537850120716
1589986401.4925094,-1.1296265434436785,-2.86,8.829626543443679,0.54,0.19666666666666666,-0.6177777777777778,-0.07361070892313275,-0.21432787986517554,3.116494456024457
1589986401.5025094,-1.1612886795743937,-2.8625773591487875,8.858066980638409,0.5395704401418687,0.19201310153691106,-0.6163459115840068,-0.0754078971271078,-0.2165467874737076,3.213753478741388
1589986401.5125093,-1.227521050647229,-2.909504210129446,8.820495789870554,0.5333333333333333,0.12444444444444445,-0.5955555555555555,-0.07883131688691691,-0.2278213866860241,3.362283335520738
1589986401.5225093,-1.3383129802292622,-2.933325192091705,8.785036635587328,0.5333333333333333,0.12444444444444445,-0.5955555555555555,-0.08235639197093601,-0.23543542370957435,3.455346569318153
1589986401.5325093,-1.3756999982172462,-2.948279999286899,8.717740003208958,0.5333333333333333,0.12444444444444445,-0.5955555555555555,-0.08480336657615853,-0.2395137147182786,3.532018440281792
1589986401.5425093,-1.3972954268630273,-2.8802727641826302,8.73972723581737,0.5333333333333333,0.12444444444444445,-0.5955555555555555,-0.0940469625444724,-0.25192240284332623,3.6515658885779385
1589986401.5525093,-1.4222749276906683,-2.847725072309332,8.769431268077332,0.532922582500296,0.12254867136888754,-0.5963454610037042,-0.09805069236703431,-0.2587440320525419,3.712867492917644
1589986401.5625093,-1.5120870382418854,-2.760330369406492,8.766921853538639,0.5188888888888888,0.057777777777777775,-0.6233333333333333,-0.09381144729469522,-0.2653716161261276,3.7909595737245367
1589986401.5725093,-1.5696741631062492,-2.727540729611719,8.807703648058595,0.5188888888888888,0.057777777777777775,-0.6233333333333333,-0.09354318251049332,-0.26476807207105924,3.845304599918698
1589986401.5825093,-1.6409729391521977,-2.7046378851869233,8.76561082433912,0.5188888888888888,0.057777777777777775,-0.6233333333333333,-0.09104486973996387,-0.26861089489085266,3.8801098345354914
1589986401.5925093,-1.6898191819181918,-2.6457917791779177,8.761221922192219,0.5188888888888888,0.057777777777777775,-0.6233333333333333,-0.08477877058057225,-0.2619524030262251,3.9099571217625915
1589986401.6025093,-1.7485452545254525,-2.6206234623462348,8.828337433743375,0.5188888888888888,0.057777777777777775,-0.6233333333333333,-0.08294847893099734,-0.2628675488510125,3.9255146007839783
1589986401.6125093,-1.7829924974167752,-2.61039399793342,8.92519699896671,0.54,-0.027777777777777776,-0.6322222222222222,-0.09566667802981217,-0.27072352936679256,3.9184186875275393
1589986401.6225092,-1.8325026812313803,-2.6149946375372393,8.897133664349553,0.54,-0.027777777777777776,-0.6322222222222222,-0.0894866228002704,-0.26273388422362215,3.9054460316020183
1589986401.6325092,-1.890996372704602,-2.498505440943097,8.700830310587168,0.54,-0.027777777777777776,-0.6322222222222222,-0.07972121995699288,-0.252018139890582,3.8860504118924624
1589986401.6425092,-1.9485107564476984,-2.3891505902677803,8.763403191970713,0.54,-0.027777777777777776,-0.6322222222222222,-0.08573460611851748,-0.2546509261345197,3.841001709112387
1589986401.6525092,-1.9412302487562187,-2.268881592039801,8.84011184079602,0.5399254394693201,-0.02889618573797678,-0.6325453178551687,-0.08953352373283557,-0.2574238647308598,3.778801466039136
1589986401.6625092,-2.0330457711442786,-2.185412935323383,8.848458706467662,0.5343608623548922,-0.11236484245439467,-0.6566584853510227,-0.09590703634122845,-0.25651336292966087,3.7096033291480133
1589986401.6725092,-2.153987312678128,-1.9306962704177009,8.856708957739572,0.5333333333333333,-0.12777777777777774,-0.6611111111111111,-0.09650400852101917,-0.24835042138877486,3.583717525085799
1589986401.6825092,-2.173267904753149,-1.8857082222426527,8.792440317489504,0.5333333333333333,-0.12777777777777774,-0.6611111111111111,-0.09369976007566054,-0.24133980027537827,3.5115081276178137
1589986401.6925092,-2.2222903329065304,-1.7750376120358515,8.862290332906529,0.5333333333333333,-0.12777777777777774,-0.6611111111111111,-0.08810745681855217,-0.2295823431248771,3.3729232415995183
1589986401.7025092,-2.2625685019206143,-1.6877682458386682,8.902568501920614,0.5333333333333333,-0.12777777777777774,-0.6611111111111111,-0.08371379015623634,-0.2193304542461402,3.297498630563096
1589986401.7125092,-2.2453154499398624,-1.6413288624849656,8.92,0.4957584041015174,-0.20003725706973147,-0.691941822275678,-0.07519118808277263,-0.20827254354734026,3.175944341037694
1589986401.7225091,-2.248255442983402,-1.6647663289502046,8.936510885966802,0.49,-0.2111111111111111,-0.6966666666666667,-0.06877331841209572,-0.19735202821194395,3.0821713456252198
1589986401.7325091,-2.175521929824561,-1.6527706766917294,8.825863408521304,0.49,-0.2111111111111111,-0.6966666666666667,-0.05668595114241843,-0.1807777947336384,2.9467542824522726
1589986401.7425091,-2.1225092266486705,-1.4999630934053187,8.81250922664867,0.49,-0.2111111111111111,-0.6966666666666667,-0.052907305893555884,-0.1711691947963226,2.859213724069853
1589986401.752509,-2.1490459118037832,-1.3938163527848662,8.839045911803783,0.49,-0.2111111111111111,-0.6966666666666667,-0.05869671250007872,-0.17020429369523546,2.7569342073546173
1589986401.762509,-2.2177743091202413,-1.2290360158394267,8.916246097760272,0.44011057800871123,-0.25064612476458525,-0.7164341734934037,-0.07369092278496653,-0.17571437476825635,2.6340442819966565
1589986401.772509,-2.2041134013299573,-0.9014896940151927,8.887943299335022,0.4311111111111111,-0.2577777777777778,-0.72,-0.08261693739941005,-0.16593785393291527,2.423989067028422
1589986401.782509,-2.233850205489159,-0.8201069960791724,8.883957201568332,0.4311111111111111,-0.2577777777777778,-0.72,-0.07006401632896742,-0.15121715796203303,2.259268205459653
1589986401.792509,-2.2867906397008566,-0.7751859595512847,8.888767238952997,0.4311111111111111,-0.2577777777777778,-0.72,-0.05658872732006241,-0.13686621503497218,2.0903864275566946
1589986401.802509,-2.270403680710932,-0.750230674691961,8.831211042132795,0.43080354485516303,-0.2581558279673806,-0.7202434899526255,-0.05015305328936357,-0.11665598696343726,1.9428791088952222
1589986401.812509,-2.330551818181818,-0.7805518181818182,9.0140175,0.37777777777777777,-0.3233333333333333,-0.7622222222222222,-0.043238300973377136,-0.1027186756323874,1.7368455882911589
1589986401.822509,-2.301147103343883,-0.7477057933122334,8.913940553185633,0.37777777777777777,-0.3233333333333333,-0.7622222222222222,-0.03265425289110404,-0.09034315479959495,1.6008095593263747
1589986401.832509,-2.3069188110637127,-0.7361623778725747,8.833136645108022,0.37777777777777777,-0.3233333333333333,-0.7622222222222222,-0.02132153128405189,-0.07838083754770656,1.5158141472734838
1589986401.842509,-2.353858232391207,-0.6422835352175864,8.885026170180948,0.37777777777777777,-0.3233333333333333,-0.7622222222222222,-0.016068996120920574,-0.05764225865730262,1.3635929625652168
1589986401.852509,-2.346551212187674,-0.5572402274222664,8.943448787812326,0.37777777777777777,-0.3233333333333333,-0.7622222222222222,-0.022117660137977252,-0.05427827702667335,1.2328248620311588
1589986401.862509,-2.35082044947402,-0.49223940070130695,8.987760599298694,0.34230590089611446,-0.35494957142351147,-0.7884405660043212,-0.02693699168630404,-0.04957594665620648,1.0547218320953398
1589986401.872509,-2.4039620220682574,-0.4580189889658712,9.0,0.32666666666666666,-0.3688888888888889,-0.8,-0.020876752638032205,-0.032519185567494426,0.8775740643071994
1589986401.882509,-2.4080598451030806,-0.4412934365979463,8.84805984510308,0.32666666666666666,-0.3688888888888889,-0.8,-0.011434770424962099,-0.001861571891242079,0.6544015977641093
1589986401.892509,-2.388212060507595,-0.45452529299493666,8.828212060507596,0.32666666666666666,-0.3688888888888889,-0.8,-0.005661283917998193,0.012572144376167688,0.5418186108783131
1589986401.902509,-2.3643606296708537,-0.46,8.812180314835427,0.32666666666666666,-0.3688888888888889,-0.8,0.0018454796246789298,0.02963306257547107,0.3655818852917941
1589986401.912509,-2.3956829045052377,-0.4385902572968575,8.888502389911523,0.29336262246177836,-0.4109154208617241,-0.7714536763958101,-0.00529078999401342,0.03350340368775757,0.21110190395861844
1589986401.922509,-2.513454840114169,-0.35961612887620337,8.896929031009627,0.28,-0.42777777777777776,-0.76,-0.009482486291789013,0.04061198201537819,-0.003387559665046986
1589986401.932509,-2.6029199937721037,-0.35,8.823893325029472,0.28,-0.42777777777777776,-0.76,-0.0009315698279310355,0.04695881063220275,-0.14942853164421796
1589986401.942509,-2.6588949932160415,-0.35,8.898526657621389,0.28,-0.42777777777777776,-0.76,0.0021213927942524335,0.047976464839597235,-0.2745999991537402
1589986401.952509,-2.675675397460826,-0.3578376987304129,8.923513096191238,0.28,-0.42777777777777776,-0.76,0.007311423388433583,0.04970647503765761,-0.3745364933994725
1589986401.962509,-2.72,-0.41032921810699585,8.990329218106996,0.2288888888888889,-0.4622222222222222,-0.8122222222222222,0.011927314358407751,0.0502141281193636,-0.5116340527768425
1589986401.972509,-2.72,-0.43958429239031876,9.019584292390318,0.2288888888888889,-0.4622222222222222,-0.8122222222222222,0.005544847243913945,0.053405361676610495,-0.6116260375705788
1589986401.982509,-2.74,-0.44233453515323207,8.861167267576615,0.2288888888888889,-0.4622222222222222,-0.8122222222222222,0.014180800172453925,0.0666680068726821,-0.7179744923727316
1589986401.992509,-2.74,-0.49634303373680144,8.8881715168684,0.2288888888888889,-0.4622222222222222,-0.8122222222222222,0.014180800172453925,0.06961371351125079,-0.7984904738269424
1589986402.0025089,-2.7644634562147115,-0.5061158640536778,8.932811048375745,0.2288888888888889,-0.4622222222222222,-0.8122222222222222,0.01618221200384853,0.06914603280264164,-0.8559789943161477
1589986402.0125089,-2.7728240080530155,-0.5243519838939686,8.931296032212064,0.17387295062867586,-0.43351825443428493,-0.7380703054367177,0.022149968266373592,0.07107067717049186,-0.9524322103114207
1589986402.0225089,-2.77,-0.5737166320793203,8.901264300537434,0.15222222222222226,-0.4222222222222222,-0.7088888888888889,0.025360775728613304,0.0760823271858399,-1.03120307240763
1589986402.0325089,-2.777966712685995,-0.6318668507439792,8.866099861942015,0.15222222222222226,-0.4222222222222222,-0.7088888888888889,0.024441871693277314,0.07767078279642602,-1.1313446293129121
1589986402.0425088,-2.8550826176859596,-0.6809541551014325,8.873651385033812,0.15222222222222226,-0.4222222222222222,-0.7088888888888889,0.02846568252049972,0.08489466106654452,-1.205231947839419
1589986402.0525088,-2.65818803363934,-0.7799351608140207,9.84721544584965,0.15222222222222226,-0.4222222222222222,-0.7088888888888889,0.03141521925009815,0.0848694640214234,-1.2960727966131051
1589986402.0625088,-2.3603239058303047,-0.792950703112656,9.265232264180755,0.22976448798300594,-0.40107433156019034,-0.6791251909201033,0.06239245285108226,0.045546020053870824,-1.364558643613001
1589986402.0725088,-2.5300671569438857,-0.6902518385395728,8.499580269100711,0.26222222222222225,-0.3922222222222223,-0.6666666666666666,0.04482479026712256,0.28116878576060667,-1.4596524608019794
1589986402.0825088,-2.569739885076497,-0.8390245690368654,8.25162571827189,0.26222222222222225,-0.3922222222222223,-0.6666666666666666,0.10432961074203771,0.12429244087219402,-1.5310582453718775
1589986402.0925088,-2.3342843419788664,-1.026442784606638,8.781542276853104,0.26222222222222225,-0.3922222222222223,-0.6666666666666666,-0.08461745182339463,0.0104313567194338,-1.6635421990689045
1589986402.1025088,-2.7371950048030738,-1.1333374502538767,9.636699602031014,0.26222222222222225,-0.3922222222222223,-0.6666666666666666,-0.04066671646292503,-0.01558030298370127,-1.7182563798237749
1589986402.1125088,-2.6965429648072137,-1.062706580983783,8.759553024695512,0.3211111111111111,-0.3555555555555556,-0.6444444444444445,0.07604636038296474,0.14378455906276474,-1.7724519508753607
1589986402.1225088,-2.513089967027791,-1.0838742345737165,8.286808761187,0.3211111111111111,-0.3555555555555556,-0.6444444444444445,0.09067023486474132,0.15071165750150106,-1.822480995155123
1589986402.1325088,-2.625345581516773,-1.313702845581517,8.675215376582692,0.3211111111111111,-0.3555555555555556,-0.6444444444444445,0.03548823805470163,0.10391191953102988,-1.9324458877601767
1589986402.1425087,-2.76889246670642,-1.4425521765056648,9.204719141323793,0.3211111111111111,-0.3555555555555556,-0.6444444444444445,0.0364894279892765,0.09897319524548503,-2.0073229989096446
1589986402.1525087,-2.670604743083004,-1.5004459428039991,8.96226017205301,0.3211111111111111,-0.3555555555555556,-0.6444444444444445,0.04954251095965273,0.10979875048913605,-2.0890835604660647
1589986402.1625087,-2.597477253589106,-1.555531844975251,8.89553184497525,0.36375204529428273,-0.3288146307288209,-0.6401080782563253,0.05841746215061239,0.1134464013796314,-2.1713963878225577
1589986402.1725087,-2.492146633768065,-1.6776148513688167,9.007853366231934,0.38666666666666666,-0.3144444444444445,-0.6377777777777778,0.04937358250259015,0.12409452984982355,-2.306791044739182
1589986402.1825087,-2.589517411110092,-1.7594484698401052,8.878207526980342,0.38666666666666666,-0.3144444444444445,-0.6377777777777778,0.056760802319558726,0.13541342354853264,-2.409231197087549
1589986402.1925087,-2.54463664434865,-1.708156164969886,8.71150753615213,0.38666666666666666,-0.3144444444444445,-0.6377777777777778,0.06025775388566049,0.14940122981293966,-2.472176325277381
1589986402.2025087,-2.477261295180723,-1.7726005271084337,8.798077936746987,0.38666666666666666,-0.3144444444444445,-0.6377777777777778,0.06528540092369113,0.16174170216157938,-2.578214203568898
1589986402.2125087,-2.577445083163642,-1.8841758419980899,8.981263762997134,0.4141392007400333,-0.2869719103710779,-0.6418986578887828,0.07935194892905953,0.1804815531596996,-2.6974387459753695
1589986402.2225087,-2.601425116061327,-1.9704790699488939,8.734263254398627,0.4311111111111111,-0.27,-0.6444444444444445,0.08726646259971647,0.1908953869368798,-2.7532568950210554
1589986402.2325087,-2.598702451394759,-2.0148098055790364,8.877561284868976,0.4311111111111111,-0.27,-0.6444444444444445,0.07397639998930106,0.17855461451292262,-2.8111635963950077
1589986402.2425086,-2.54,-2.11,8.54,0.4311111111111111,-0.27,-0.6444444444444445,0.08508480103472357,0.18871372537188688,-2.81325258805836
1589986402.2525086,-2.54,-2.11,8.54,0.4311111111111111,-0.27,-0.6444444444444445,0.08508480103472357,0.18871372537188688,-2.81325258805836
1589986402.2625086,-2.5000569601547595,-2.219843359574411,8.869530078723232,0.5043400174940518,-0.21674261353967955,-0.6588683199441145,0.08399552359948179,0.18326733819567806,-2.7849313747420736
1589986402.2725086,-2.542111788754105,-2.2691304202131226,8.84192547416393,0.5044444444444445,-0.21666666666666667,-0.6588888888888889,0.07404098923178452,0.17713466006220915,-2.7695787092204633
1589986402.2825086,-2.4724437014059544,-2.2219006566490758,8.674344358055029,0.5044444444444445,-0.21666666666666667,-0.6588888888888889,0.07511923150798633,0.18196141119893133,-2.7376052772081
1589986402.2925086,-2.5111365403401047,-2.2858184645441675,8.645318075795938,0.5044444444444445,-0.21666666666666667,-0.6588888888888889,0.04654860111968355,0.1606296985224792,-2.7350995131040725
1589986402.3025086,-2.52,-2.409648560180475,9.093214048745963,0.5044444444444445,-0.21666666666666667,-0.6588888888888889,0.04434767310907812,0.16715221753577908,-2.713183327272385
1589986402.3125086,-2.4138408523785,-2.45,8.858954331207668,0.5398308269849443,-0.20159468891793525,-0.6549570686066112,0.06125511500740009,0.17383380320903508,-2.6743798963061125
1589986402.3225086,-2.3056266191709844,-2.498122733160622,8.896235103626942,0.5644444444444444,-0.19111111111111112,-0.6522222222222223,0.052497149853248964,0.1666248259243061,-2.6266535836966463
1589986402.3325086,-2.2965017013308633,-2.5850170133086356,8.83844725874323,0.5644444444444444,-0.19111111111111112,-0.6522222222222223,0.05427161522531444,0.1653706889720936,-2.579260105892484
1589986402.3425086,-2.204899180068269,-2.6978097617623256,8.678126825491782,0.5644444444444444,-0.19111111111111112,-0.6522222222222223,0.06754034044255487,0.1640678669449891,-2.5130258002363703
1589986402.3525085,-2.2628158185370824,-2.774725172032962,8.791359697561804,0.5644444444444444,-0.19111111111111112,-0.6522222222222223,0.0625444709173825,0.16538972262586676,-2.4588630182323024
1589986402.3625085,-2.368230201701672,-2.8586234902124112,8.908230201701672,0.7844753178239225,-0.30984064179607707,-0.672918195460886,0.05573962271079848,0.16259813827405947,-2.407187827493624
1589986402.3725085,-2.283601841731972,-2.8695997953631145,8.785202660279515,0.7888888888888889,-0.31222222222222223,-0.6733333333333333,0.05144366899221857,0.16567531227829746,-2.3665800474937253
1589986402.3825085,-2.2583671274135426,-2.9619397084924435,8.785408218146614,0.7888888888888889,-0.31222222222222223,-0.6733333333333333,0.050679101694055144,0.15990682810667847,-2.336603772454959
1589986402.3925085,-2.2292283769307857,-3.0292283769307855,8.76037803655966,0.7888888888888889,-0.31222222222222223,-0.6733333333333333,0.05076571689590438,0.15460422066396304,-2.2919987273551268
1589986402.4025085,-2.2227792503669304,-3.0501143508072466,8.748337751100792,0.7888888888888889,-0.31222222222222223,-0.6733333333333333,0.05186291140978106,0.15032837728165852,-2.1909791844632918
1589986402.4125085,-2.2033397035881435,-3.103334243369735,8.803336973478938,1.1584680620558157,-0.5514488212861848,-0.8051671866874675,0.050541925525241116,0.13890011233360197,-2.0591355289366797
1589986402.4225085,-2.0677512605042017,-3.0881843432109686,8.801815656789032,1.3433333333333333,-0.6711111111111111,-0.8711111111111111,0.050822660101881405,0.1307519082802495,-1.9641519718705707
1589986402.4325085,-1.962498081210482,-3.183132195460692,8.720618763934066,1.3433333333333333,-0.6711111111111111,-0.8711111111111111,0.052019045267166525,0.12537720608258604,-1.8773164277569268
1589986402.4425085,-1.863068152236164,-3.3256250325402195,8.714772739105534,1.3433333333333333,-0.6711111111111111,-0.8711111111111111,0.053308156915030755,0.11961331242859155,-1.8023995171352223
1589986402.4525084,-1.7509126377936501,-3.4085989430659347,8.742866314355311,1.3433333333333333,-0.6711111111111111,-0.8711111111111111,0.05345070834232633,0.11391189937591081,-1.757833160487849
1589986402.4625084,-1.679060754894705,-3.498232075175492,8.811408867657942,0.9089224547160362,-0.3064485760065387,-0.7520840466383089,0.04972922594457441,0.11235557059713497,-1.7166482235948104
1589986402.4725084,-1.6194742063492065,-3.53,8.767053571428571,0.7066666666666667,-0.13666666666666666,-0.6966666666666667,0.04711241876585636,0.11058729926915956,-1.6797993242132876
1589986402.4825084,-1.485445644280996,-3.4801782577123985,8.7333927525708,0.7066666666666667,-0.13666666666666666,-0.6966666666666667,0.04237679947027084,0.10564498485506528,-1.665367402777906
1589986402.4925084,-1.3975094543490005,-3.67532607856757,8.694291116770858,0.7066666666666667,-0.13666666666666666,-0.6966666666666667,0.047294422090103344,0.11056260747489778,-1.6644907520329681
1589986402.5025084,-1.228902372828784,-3.6780321417493798,8.895033343672457,0.7066666666666667,-0.13666666666666666,-0.6966666666666667,0.052789197630903145,0.11286228754832485,-1.6654065479564348
1589986402.5125084,-0.8608359090596882,-3.28354488632461,8.467608352221992,0.5799952682952889,0.05334043089039997,-0.6827113431172775,0.06297268180582845,0.12293143689576277,-1.674129747553094
1589986402.5225084,-1.0769529645685973,-3.543678574920956,8.623552267023046,0.5755555555555556,0.06,-0.6822222222222222,0.04652098703657141,0.11525434877729719,-1.6940850057147563
1589986402.5325084,-1.1492778827977315,-3.598555765595463,8.750722117202269,0.5755555555555556,0.06,-0.6822222222222222,0.04884010274081505,0.11570683371190478,-1.7287534080841551
1589986402.5425084,-1.0818157538147326,-3.463631507629465,8.578174230671038,0.5755555555555556,0.06,-0.6822222222222222,0.055235869702036026,0.11909898748194235,-1.7685356213218075
1589986402.5525084,-1.0305827461835262,-3.5023683106861263,8.704153875188727,0.5755555555555556,0.06,-0.6822222222222222,0.05158892132989236,0.11870781623462932,-1.8127741288962433
1589986402.5625083,-0.9597913652875558,-3.646071945221333,8.832827337898223,0.570773780821037,0.10622382243367874,-0.718882495186864,0.054255882920295956,0.12250422087745615,-1.8707685149791375
1589986402.5725083,-0.8904892458842273,-3.68,8.796992830589485,0.5688888888888889,0.12444444444444445,-0.7333333333333333,0.061523898881291075,0.12555488375246482,-1.9095591703851873
1589986402.5825083,-0.774994166148102,-3.5992244866210332,8.694994166148103,0.5688888888888889,0.12444444444444445,-0.7333333333333333,0.062302974933154086,0.1303126171895488,-1.9542252559659699
1589986402.5925083,-0.7310208063572023,-3.6061248381432147,8.722656047679019,0.5688888888888889,0.12444444444444445,-0.7333333333333333,0.06119787651954198,0.13488463068792297,-1.993260265692738
1589986402.6025083,-0.6961854583772392,-3.605231822971549,8.707847734457323,0.5688888888888889,0.12444444444444445,-0.7333333333333333,0.06695677967460596,0.14173070101840346,-2.027129119894046
1589986402.6125083,-0.6660421129294833,-3.6687580327307003,8.803137049096051,0.5312935195498815,0.1298152114928741,-0.702451422804863,0.06826763175234953,0.14221677118964496,-2.0554444241554295
1589986402.6225083,-0.6130229452470559,-3.74,8.810290154182347,0.5066666666666667,0.13333333333333333,-0.6822222222222222,0.07275591025433356,0.14584157268159612,-2.0758193281793784
1589986402.6325083,0.07259817262830492,-4.442038540046656,8.154730268273717,0.5066666666666667,0.13333333333333333,-0.6822222222222222,0.07698823466637178,0.13372524568952926,-2.091400221602498
1589986402.6425083,0.19724521566683195,-4.702537828458106,-1.9542768468021805,0.5066666666666667,0.13333333333333333,-0.6822222222222222,-0.814522425898765,0.4945100773172385,-5.688176692420811
1589986402.6525083,-0.24511067662872707,-8.856514209901544,-3.5846209529129713,0.5066666666666667,0.13333333333333333,-0.6822222222222222,-1.9908812455584477,0.8054976022328671,-15.397390137668573
1589986402.6625082,-11.372024878600413,-18.83137364464844,-5.733774363067917,0.46278173204136086,0.25270035551416514,-0.6585243575245571,-3.1447103703063997,2.497432731835452,-17.294729058442456
1589986402.6725082,-2.0130600390311084,-3.5515559637240237,-2.139394788198829,0.4511111111111111,0.28444444444444444,-0.6522222222222223,-3.20558155616958,1.0782022404130467,-5.841823752105414
1589986402.6825082,-0.20956841825774208,-0.05199642762316253,-0.5673740616476382,0.4511111111111111,0.28444444444444444,-0.6522222222222223,-2.8460961814103127,0.13827747414403757,-2.8219183590674417
1589986402.6925082,0.3214285426081343,-0.8305305842479018,2.5353740316333115,0.4511111111111111,0.28444444444444444,-0.6522222222222223,-2.7827701748232814,0.1346085141587119,-2.5066504860380436
1589986402.7025082,0.7343477967656222,-0.79163890425001,4.547608475742167,0.4511111111111111,0.28444444444444444,-0.6522222222222223,-2.1189006958867114,0.4943870331690623,-2.386345579154653
1589986402.7125082,0.8814348336278173,-0.24854830660498228,5.650761252208629,0.4511111111111111,0.28444444444444444,-0.6522222222222223,-1.077228965247793,0.9794308603504545,-2.3092075659260605
1589986402.7225082,0.15252556237218812,-0.8154652351738242,7.45680981595092,0.2911111111111111,0.57,-0.6077777777777778,1.1076734105446029,0.45135967816481426,-2.1345054410279056
1589986402.7325082,0.44307496664442964,-0.6689301200800534,6.017405353569046,0.2911111111111111,0.57,-0.6077777777777778,2.4391755396491677,0.47385522728976603,-1.98682587932181
1589986402.7425082,0.410729742492847,-1.3865757382149504,6.919029695269313,0.2911111111111111,0.57,-0.6077777777777778,4.187674769026106,0.31825841829640966,-1.7501483429456308
1589986402.7525082,2.0369700463201235,-1.2455195059186825,12.232198455995881,0.2911111111111111,0.57,-0.6077777777777778,5.29404979847253,0.23514970124140103,-1.5785271338155515
1589986402.7625082,2.361889181149979,1.2546962806362003,8.57830969296197,0.2626905501337026,0.5990972410006801,-0.5813872568701841,4.376485179641849,0.12469237092718492,-1.2512366459360833
1589986402.7725081,0.12334737551605035,1.443730727104221,0.4131300025275926,0.24444444444444444,0.6177777777777778,-0.5644444444444444,1.7736447155920125,0.09382538635179173,-0.7250358884761499
1589986402.7825081,0.03481221029626891,0.8401787130545127,-0.7218881192830329,0.24444444444444444,0.6177777777777778,-0.5644444444444444,0.4244490267377492,0.024891624541633156,-0.37121387374065906
1589986402.7925081,0.7919077817413133,0.8545065398335315,2.4710186286167266,0.24444444444444444,0.6177777777777778,-0.5644444444444444,-0.9266030303849354,0.02617453434678723,-0.005753847744190771
1589986402.802508,3.4957214282738223,-3.048372776134327,17.172641139952503,0.24444444444444444,0.6177777777777778,-0.5644444444444444,-1.7175732193068518,-0.08479649283636656,0.2464364035725513
1589986402.812508,2.337908851439271,-2.6860211368180518,13.919935573962993,0.2174631586742412,0.554003829593661,-0.6339416956707254,-0.4591495406040318,-0.3317574757644642,0.3091167045523747
1589986402.822508,1.4637347767253046,-2.1815941748824024,12.237598427733746,0.20777777777777776,0.5311111111111111,-0.6588888888888889,0.37492800800939713,0.08047736067375572,0.42409018180042024
1589986402.832508,0.8634710519162817,-1.5559286296742127,8.154062439327458,0.20777777777777776,0.5311111111111111,-0.6588888888888889,0.4999957355220199,0.5059314933640243,0.6018633957436632
1589986402.842508,0.4343206028036489,-1.313499971313278,5.7429159096559514,0.20777777777777776,0.5311111111111111,-0.6588888888888889,-0.05099632343552968,0.053459470202921244,0.6928540775146647
1589986402.852508,0.8614483450351053,-2.054502507522568,8.81346815446339,0.20777777777777776,0.5311111111111111,-0.6588888888888889,-0.4170799702723613,-0.43785520905290215,0.7486635068007266
1589986402.862508,1.136996373361428,-2.4393889417914383,10.272537633972892,0.22367109922492137,0.5296662637068253,-0.6588888888888889,-0.26548536461914984,-0.26269528924028357,0.8860353643613474
1589986402.872508,0.9500533531437834,-2.525332612953333,10.281131221719457,0.24444444444444444,0.5277777777777778,-0.6588888888888889,0.22570458031779025,0.18545714573115912,1.063603478197884
1589986402.882508,7.476630223096354,-15.443662482404893,9.103321378299686,0.24444444444444444,0.5277777777777778,-0.6588888888888889,0.20848051893821928,-0.011202464676803414,1.214846932624384
1589986402.892508,6.937694980932465,-13.989858223643745,7.4726882150325995,0.24444444444444444,0.5277777777777778,-0.6588888888888889,-0.4252747858563418,-0.27067773589201716,2.219097263142087
1589986402.902508,0.44266989163269177,-0.4499467669363527,8.51058830985023,0.24444444444444444,0.5277777777777778,-0.6588888888888889,-0.3636991221749679,-0.3741441742900251,3.527794334310259
1589986402.912508,-0.01696721311475413,-1.8920855614973264,11.116809415271325,0.25041212510836425,0.5372266054956508,-0.6588888888888889,0.27765760208186635,-0.15260934941710946,3.888965461917991
1589986402.922508,-0.8322195589645254,-2.901867209971237,9.87313518696069,0.2577777777777778,0.5488888888888889,-0.6588888888888889,0.27623119409605124,0.028301986390351475,3.9035792665882165
1589986402.932508,-0.17261035185618345,-2.9651775988238045,10.149607043806595,0.2577777777777778,0.5488888888888889,-0.6588888888888889,-0.27684791001551384,-0.35936708813052076,3.859885350837316
1589986402.942508,0.46309011352885526,-3.0119075212866604,10.820572374645222,0.2577777777777778,0.5488888888888889,-0.6588888888888889,-0.4460353663295942,-0.5127690292618088,3.8523014165883622
1589986402.952508,0.1805374005608653,-2.4223224403365196,7.905095862187375,0.2577777777777778,0.5488888888888889,-0.6588888888888889,-0.013395374540073168,-0.25455731522473635,3.9200889852280643
1589986402.962508,-0.201824480369515,-2.726189376443418,8.14498845265589,0.3129586861688478,0.5226122658455222,-0.667428791377983,0.06120240884519379,-0.17707987651837964,3.9531228902131903
1589986402.972508,-0.21,-3.09,9.31,0.3511111111111111,0.5044444444444445,-0.6733333333333333,-0.04581489286485115,-0.20071286397934787,3.9553524173321497
1589986402.982508,3.6206359134740684,-6.294410216314829,8.623816523325514,0.3511111111111111,0.5044444444444445,-0.6733333333333333,-0.09377767333145295,-0.27120361708935353,3.812190784727293
1589986402.992508,5.54,-7.9,8.28,0.3511111111111111,0.5044444444444445,-0.6733333333333333,-0.11780972450961726,-0.3065234498815041,3.740458753180348
1589986403.002508,1.6260610555433064,-5.1520244943775175,11.711117079917416,0.3511111111111111,0.5044444444444445,-0.6733333333333333,0.006015388744311317,0.05878864894909053,0.52604846024918
1589986403.012508,-1.0325956314695166,-2.0243215810771535,12.272320865657628,0.3827308656327861,0.4737030164372605,-0.6759683128768063,0.45783435362417785,0.5060178874099073,-2.3809636822916933
1589986403.022508,-1.4802988585264618,-3.9709034936008303,9.731208924247666,0.4311111111111111,0.4266666666666667,-0.68,0.5730175228283456,0.45424880298258397,-1.903235818171889
1589986403.032508,-2.2203066583422086,-3.057583826067795,9.615195563553565,0.4311111111111111,0.4266666666666667,-0.68,-0.009584880783950561,0.15669239956980474,-0.6491425460411069
1589986403.042508,-0.660724233983287,-0.6457883008356545,8.610361188486536,0.4311111111111111,0.4266666666666667,-0.68,-0.223957586781849,-0.19552032714311335,0.5477402686652589
1589986403.0525079,0.06018460321754876,-1.9106089616849466,9.602610876397012,0.4311111111111111,0.4266666666666667,-0.68,-0.2774614784645653,-0.3062174660465338,0.8971992943731525
1589986403.0625079,2.151297582991864,-5.529576578181603,7.896902428885325,0.44235762218659064,0.43353953454612637,-0.6681286827536604,-0.03730947037839488,-0.05654816507164924,1.0530352676165426
1589986403.0725079,2.2770655586770223,-12.109537288415686,7.91045704572818,0.4511111111111111,0.4388888888888889,-0.6588888888888889,-0.0023115806211012613,-0.048396792679603506,0.9327705892818943
1589986403.0825078,0.5593227935382191,-7.867434495665878,9.850256107171,0.4511111111111111,0.4388888888888889,-0.6588888888888889,-0.09521103519436104,-0.06589640848761787,0.35568921975261447
1589986403.0925078,-0.8641061667408997,-0.6033388670688746,9.962912499493866,0.4511111111111111,0.4388888888888889,-0.6588888888888889,0.04084345708096358,0.02864631084512942,-0.2207393281285044
1589986403.1025078,-0.21342966039023836,-4.075297419269204,8.303001687619698,0.4511111111111111,0.4388888888888889,-0.6588888888888889,0.10124534210738612,0.07630054884856625,-0.00015643577010485132
1589986403.1125078,0.6185374573425059,-5.408781214452088,9.160863441850388,0.4433813023250215,0.4311590801027993,-0.6644715285677314,-0.15304371832290792,-0.07527949620075956,0.1341334242627015
1589986403.1225078,0.05844206632316028,-4.464581318536134,8.822760470339544,0.4311111111111111,0.4188888888888889,-0.6733333333333333,-0.0504729665717113,-0.043538170924097286,0.018165467099780064
1589986403.1325078,0.020209986000933277,-4.192748483434437,8.687022865142325,0.4311111111111111,0.4188888888888889,-0.6733333333333333,0.04442424904880806,0.022955294352889725,-0.012069892447296292
1589986403.1425078,0.058971952397441275,-4.321682309416632,8.705887809589765,0.4311111111111111,0.4188888888888889,-0.6733333333333333,0.013232707175278033,0.0017636863649421021,0.0
1589986403.1525078,0.07,-4.246737661902635,8.73042597141581,0.4311111111111111,0.4188888888888889,-0.6733333333333333,0.0010675976458549646,-0.003318958620772351,0.0003558658819516548
1589986403.1625078,0.08863370937022541,-4.292174386236631,8.745901128110676,0.4232435449325715,0.4188888888888889,-0.6733333333333333,-0.00160580135806292,0.00027778183157107464,0.00027778183157107464
1589986403.1725078,0.08969812037212835,-4.353485855325612,8.78318397569774,0.41,0.4188888888888889,-0.6733333333333333,-0.007338410312549256,-0.0002644752058568396,-0.001090830782496456
1589986403.1825078,0.05450398717170842,-4.300330675218861,8.665826688047153,0.41,0.4188888888888889,-0.6733333333333333,0.001473926355260607,0.0026729703500797813,0.0010186886409479774
1589986403.1925077,0.05078582230122304,-4.265982277876529,8.668821266548166,0.41,0.4188888888888889,-0.6733333333333333,0.008116940932042448,0.0027913668929221117,0.0022245215227802264
1589986403.2025077,0.03,-4.28639311789009,8.678912219140868,0.41,0.4188888888888889,-0.6733333333333333,0.0029165168937639423,0.0001707027626692342,0.001090830782496456
1589986403.2125077,0.0264226199904958,-4.328535719942975,8.664309520038017,0.4175522466867311,0.42167129556294775,-0.6733333333333333,-0.008496142812506057,-0.0014810624060019202,0.0007005991589909917
1589986403.2225077,0.03286868047032741,-4.332895601567758,8.677131319529673,0.4311111111111111,0.4266666666666667,-0.6733333333333333,-0.00965954647627033,-0.002649579991231049,0.0
1589986403.2325077,0.05,-4.36799788295781,8.644598518070467,0.4311111111111111,0.4266666666666667,-0.6733333333333333,-0.003664914309013497,-0.0030324864819922647,0.0002400058654971032
1589986403.2425077,0.05,-4.297525580926458,8.59526790664852,0.4311111111111111,0.4266666666666667,-0.6733333333333333,0.005559888455288907,-0.0022637529183003975,0.0010087394291889702
1589986403.2525077,0.023693749065599096,-4.286306250934401,8.729234372663997,0.4311111111111111,0.4266666666666667,-0.6733333333333333,0.009011626005753502,-0.0017787360466356102,0.0006043882775359523
1589986403.2625077,0.03762853203541587,-4.272371467964584,8.76407133008854,0.4311111111111111,0.4266666666666667,-0.6733333333333333,0.005971527963576796,-0.00025868702554725817,0.0028844618091684805
1589986403.2725077,0.05,-4.33598402605459,8.705039934863525,0.4044444444444445,0.4311111111111111,-0.6733333333333333,-0.00638179569938853,0.0012540197780866614,0.0009276417869062507
1589986403.2825077,0.05,-4.368508064516129,8.623729838709677,0.4044444444444445,0.4311111111111111,-0.6733333333333333,-0.0054948401412649095,0.002140975336210282,4.068622878262984e-05
1589986403.2925076,0.046594355922441925,-4.313188711844884,8.609566135534651,0.4044444444444445,0.4311111111111111,-0.6733333333333333,0.0036084950333245694,-0.0007429962788054187,0.0007193326430937466
1589986403.3025076,0.05113583162867205,-4.316362217676459,8.698864168371328,0.4044444444444445,0.4311111111111111,-0.6733333333333333,0.007115094973192314,0.000892420535569445,0.0012147307929253116
1589986403.3125076,0.03575988662437576,-4.275359697665002,8.723839924416252,0.408284368860695,0.4302577945741666,-0.6733333333333333,0.001387573857421764,-0.002181661564992912,-0.0006719600069258773
1589986403.3225076,0.05805073776857365,-4.341949262231426,8.72440590214859,0.4244444444444445,0.4266666666666667,-0.6733333333333333,-0.007395510793057774,-0.0017563985159533928,0.001090830782496456
1589986403.3325076,0.05392830831568284,-4.35,8.636430150105904,0.4244444444444445,0.4266666666666667,-0.6733333333333333,-0.007908724081246004,0.0008570239267767303,0.0002338068557197257
1589986403.3425076,0.056113718051118214,-4.353886281948881,8.607772563897763,0.4244444444444445,0.4266666666666667,-0.6733333333333333,0.0005428560338811483,0.002181661564992912,-0.0006669031845663986
1589986403.3525076,0.046644487606007576,-4.343222438030038,8.670332685909885,0.4244444444444445,0.4266666666666667,-0.6733333333333333,0.008375132800186392,0.002181661564992912,0.0
1589986403.3625076,0.03531176657151919,-4.3123441167142404,8.76531176657152,0.42288169996828423,0.4277084963174402,-0.6767192796983472,0.009697807404768919,0.0019259580980271235,0.0
1589986403.3725076,0.031898683419100446,-4.312067544387267,8.742067544387266,0.4177777777777778,0.4311111111111111,-0.6877777777777778,-0.00041422846395407784,0.00022553410618079278,-0.0004326483381578316
1589986403.3825076,0.044320227833100787,-4.305679772166899,8.687401708748256,0.4177777777777778,0.4311111111111111,-0.6877777777777778,-0.00498289016170785,-0.00016148023491341671,-0.0007810472666354429
1589986403.3925076,0.03142861696363115,-4.321428616963631,8.59285755267268,0.4177777777777778,0.4311111111111111,-0.6877777777777778,-0.005298281206718354,0.002025823628960364,0.0001558379360325476
1589986403.4025075,0.03537082314588427,-4.318427057864711,8.686202118989405,0.4177777777777778,0.4311111111111111,-0.6877777777777778,0.0029391088565063435,0.00033338349098302434,0.001090830782496456
1589986403.4125075,0.02247143669942028,-4.286178591748551,8.73134997155203,0.4177777777777778,0.4311111111111111,-0.6877777777777778,0.005049766028174418,-0.0017772736806850504,0.001090830782496456
1589986403.4225075,0.04384156148624704,-4.293445465201865,8.734633754055011,0.4244444444444445,0.4188888888888889,-0.6666666666666666,-0.0016761974088204408,-0.0026439183191817026,0.001090830782496456
1589986403.4325075,0.05753549756673943,-4.342606492700218,8.642890473234134,0.4244444444444445,0.4188888888888889,-0.6666666666666666,-0.009533152795293062,-0.0005376710235476093,0.001090830782496456
1589986403.4425075,0.05,-4.322735223287845,8.56547044657569,0.4244444444444445,0.4188888888888889,-0.6666666666666666,-0.010905127829020825,-0.0017838394637419335,0.0011902863078092005
1589986403.4525075,0.05,-4.349316194178038,8.618632388356076,0.4244444444444445,0.4188888888888889,-0.6666666666666666,-0.0002735026946100467,0.002082206039680167,0.0021567976836647258
1589986403.4625075,0.041388083152042544,-4.3,8.74555233260817,0.42614099051916315,0.421665055192974,-0.6655870464373002,0.008726646259971648,0.0,0.0009394143994051846
1589986403.4725075,0.04983683828861494,-4.3,8.77934735315446,0.436467246797196,0.43856256546611877,-0.6590157924421883,0.008726646259971648,0.0,1.7798181730362822e-05
1589986403.4825075,0.04244370323309332,-4.309774812932373,8.718231857969787,0.43666666666666665,0.4388888888888889,-0.6588888888888889,-0.0029813615779762043,-0.001090830782496456,0.001090830782496456
1589986403.4925075,0.049845757447409295,-4.339383029789637,8.622005153183679,0.43666666666666665,0.4388888888888889,-0.6588888888888889,-0.005403678155181247,-0.001090830782496456,0.001090830782496456
1589986403.5025074,0.06683655800647445,-4.330509674019423,8.67214409395468,0.43666666666666665,0.4388888888888889,-0.6588888888888889,-0.0019477771963600796,0.0,0.0003450779905179634
1589986403.5125074,0.05650635744707309,-4.308253178723536,8.72524046382939,0.4333671153666801,0.4388888888888889,-0.6639352614653389,0.003463040989477977,0.00019054864198860902,0.001090830782496456
1589986403.5225074,0.04,-4.3,8.726498233523794,0.4177777777777778,0.4388888888888889,-0.6877777777777778,0.0025321481074651125,-7.874231015970838e-06,0.0007245957779923138
1589986403.5325074,0.0429397911120213,-4.311759164448085,8.650602088879786,0.4177777777777778,0.4388888888888889,-0.6877777777777778,-0.003014919565957848,-0.00186098010108268,-0.00032068146391023197
1589986403.5425074,0.05336867040364003,-4.329893988789079,8.596843352018201,0.4177777777777778,0.4388888888888889,-0.6877777777777778,-0.006533420665762599,-0.00035590090802139454,-0.0007233658452589253
1589986403.5525074,0.057416361093259746,-4.32033455562696,8.640334555626962,0.4177777777777778,0.4388888888888889,-0.6877777777777778,-0.0026723354197891666,0.0005271682124309037,0.00028183128503277616
1589986403.5625074,0.048156738530704,-4.34539184632676,8.678294676611833,0.4214643007163698,0.4388888888888889,-0.6872657607029734,0.002684333152717344,-0.0009902964649515695,0.0008897621474066831
1589986403.5725074,0.03,-4.3,8.74943347540606,0.4577777777777778,0.4388888888888889,-0.6822222222222222,0.007251605801105976,0.0,-0.00070662110612724
1589986403.5825074,0.03273863523818956,-4.302738635238189,8.705352282856294,0.4577777777777778,0.4388888888888889,-0.6822222222222222,0.004752552123070723,-0.0008962162859540063,0.0005974775239693374
1589986403.5925074,0.04116298008143502,-4.311162980081435,8.641162980081436,0.4577777777777778,0.4388888888888889,-0.6822222222222222,-0.0003805843416778655,-0.003145630900263413,0.0019279386705410015
1589986403.6025074,0.04954747474747475,-4.32,8.652715151515151,0.4577777777777778,0.4388888888888889,-0.6822222222222222,-0.00312440380489591,-0.0020829358699306065,4.9362847531152755e-05
