time,acc_x,acc_y,acc_z,mag_x,mag_y,mag_z,gyr_x,gyr_y,gyr_z
1589986410.3224235,-3.66,-0.22,8.9,0.25,-0.38333333333333336,-0.6488888888888888,0.0,0.003272492347489368,-0.002181661564992912
1589986410.3324234,-3.650123157349409,-0.23975368530118213,8.949384213252955,0.25,-0.38333333333333336,-0.6488888888888888,-0.004309585598855447,-0.0010370932513660792,-0.0032590579647067738
1589986410.3424234,-3.6449719089687744,-0.25,9.004971908968773,0.25,-0.38278089900346957,-0.6460162303735971,-0.003055551893453005,-0.002181661564992912,-0.0019647211109565486
1589986410.3524234,-3.687661116313154,-0.25,9.047661116313154,0.25,-0.37803765374298287,-0.6213513550190666,-0.0011928838353880756,-0.002181661564992912,-0.00010205305289161986
1589986410.3624234,-3.643200054399565,-0.25,9.004799401604787,0.25,-0.37777777777777777,-0.62,0.0018325897805220618,-0.0006981435689417002,-0.001090830782496456
1589986410.3724234,-3.6469700121777957,-0.24394002435559164,8.933029987822204,0.25,-0.37777777777777777,-0.62,0.002082391978611372,-0.002842702362402856,-0.001090830782496456
1589986410.3824234,-3.64,-0.23566884096295862,8.962675363851835,0.25,-0.37777777777777777,-0.62,0.004054135818812219,-0.0037449485076386136,-0.0007816434713228508
1589986410.3924234,-3.644988216323493,-0.24833726122550234,9.023325477548994,0.24889150748366823,-0.3787015215413876,-0.62,0.003091115683642122,-0.0023630382288401582,0.0003627533276944925
1589986410.4024234,-3.6640051360659327,-0.24899229590110086,9.042997431967033,0.2433333333333333,-0.38333333333333336,-0.62,0.0008737851417612405,-0.0022915850300656146,0.002181661564992912
1589986410.4124234,-3.654056103335631,-0.2679719483321845,9.02769143165403,0.2433333333333333,-0.38333333333333336,-0.62,-0.002181661564992912,0.0008849044750985726,0.001960435446218269
1589986410.4224234,-3.6627415081843124,-0.2563707540921563,8.947258491815687,0.2433333333333333,-0.38333333333333336,-0.62,-0.002181661564992912,0.004363323129985824,0.0002990521517914165
1589986410.4324234,-3.6543437997395456,-0.24782810013022716,8.970859499348865,0.2433333333333333,-0.38333333333333336,-0.62,-0.002181661564992912,0.0036525705596513513,-0.001090830782496456
1589986410.4424233,-3.6664818405440602,-0.2417590797279699,9.00120460136015,0.2433333333333333,-0.38333333333333336,-0.62,-0.002181661564992912,0.0016664882773369744,-0.001090830782496456
1589986410.4524233,-3.6443288420230426,-0.23216442101152118,9.034588947471196,0.25,-0.3888888888888889,-0.6255555555555555,-0.001827509005145498,0.0019455598584279692,-0.0013269324890613989
1589986410.4624233,-3.677090412028901,-0.2485452060144503,8.993636984963874,0.25,-0.3888888888888889,-0.6255555555555555,0.0008527906732522087,0.00015869340616283135,-0.0031137989413265368
1589986410.4724233,-3.65,-0.25177883760407405,8.917115350416296,0.25,-0.3888888888888889,-0.6255555555555555,0.001672954027172319,0.000896789700937835,-0.00179357940187567
1589986410.4824233,-3.65,-0.25855969606337403,8.944238784253496,0.25,-0.3888888888888889,-0.6255555555555555,0.003891984768919091,0.0001571127870222443,-0.0003142255740444886
1589986410.4924233,-3.640954805442413,-0.26936346303839154,9.001591342404021,0.24978782101279717,-0.38871207306621985,-0.6248836554294133,0.0033766454642772587,-0.0009172422545166382,0.0010561130769004925
1589986410.5024233,-3.6682164832307826,-0.2511890111794783,9.047027472051305,0.2437296703931594,-0.3836636142165218,-0.6056995118005605,0.006350433195682634,0.004039070631158989,6.485049976536687e-05
1589986410.5124233,-3.654377936393206,-0.24718896819660283,9.034700713769427,0.2433333333333333,-0.38333333333333336,-0.6044444444444445,0.002488297567165129,0.002659220343144934,0.003920973901621194
1589986410.5224233,-3.64,-0.242525401303143,8.977576203909429,0.2433333333333333,-0.38333333333333336,-0.6044444444444445,0.0018950996076768322,0.0021927449743464845,-0.00027547854796250714
1589986410.5324233,-3.6420952846493604,-0.25,8.99580943070128,0.2433333333333333,-0.38333333333333336,-0.6044444444444445,-0.001953101465631475,0.004768473614397969,-0.0006337105837735822
1589986410.5424232,-3.6494176079328224,-0.25,8.981164784134355,0.2433333333333333,-0.38333333333333336,-0.6044444444444445,-0.0011543599019323628,0.002372248923300632,0.0009637725436246424
1589986410.5524232,-3.643206000766871,-0.25,8.986793999233129,0.2433333333333333,-0.38333333333333336,-0.5966666666666667,-0.0032308228625560053,0.006894705127499767,0.0003497204325210312
1589986410.5624232,-3.65,-0.24707815657108465,8.944937878853016,0.2433333333333333,-0.38333333333333336,-0.5966666666666667,-0.005135430237092693,0.007954539152864778,0.0014095544578860422
1589986410.5724232,-3.640818529986962,-0.23816370599739242,8.86734517601043,0.2433333333333333,-0.38333333333333336,-0.5966666666666667,-0.005765483346616393,0.010729732283729605,0.0023819701673687076
1589986410.5824232,-3.6,-0.2295783893525829,8.901264831942251,0.2433333333333333,-0.38333333333333336,-0.5966666666666667,-0.012321072718162598,0.02064674700428404,0.0033184829347324514
1589986410.5924232,-3.6,-0.22011685089104444,8.929649447326867,0.2433333333333333,-0.38333333333333336,-0.5966666666666667,-0.01954572890069682,0.043352809292248724,0.004350576675094482
1589986410.6024232,-3.6544689288224075,-0.23289378576448147,9.03289378576448,0.25555555555555554,-0.3711111111111111,-0.62,-0.03433121861771649,0.07799242976547431,0.00921413077239841
1589986410.6124232,-3.695746874407033,-0.24574687440703338,9.028506251185933,0.25555555555555554,-0.3711111111111111,-0.62,-0.04426011805049154,0.09491472013941533,0.013403412765274124
1589986410.6224232,-3.714031994452974,-0.2653759926039655,9.005375992603966,0.25555555555555554,-0.3711111111111111,-0.62,-0.045521677953907214,0.09874374997948226,0.014913837449813776
1589986410.6324232,-3.7348051111881535,-0.29307348158420415,9.033073481584204,0.25555555555555554,-0.3711111111111111,-0.62,-0.04401101427503217,0.09043509974566956,0.018690496647001377
1589986410.6424232,-3.7106522019555737,-0.31,9.057391192177706,0.25555555555555554,-0.37190824683459034,-0.6194202649283788,-0.028740989157859914,0.07441359362880219,0.023642556230149832
1589986410.6524231,-3.7061940198264516,-0.3053980066088171,9.02,0.25555555555555554,-0.38333333333333336,-0.6111111111111112,-0.017540124092050243,0.06150802179537165,0.017874790495513413
1589986410.6624231,-3.6010572564980112,-0.27276431412450286,8.983821570622514,0.25555555555555554,-0.38333333333333336,-0.6111111111111112,-0.010946750756065396,0.05912951628655669,0.014706994098151734
1589986410.6724231,-3.456261204612956,-0.26465603510555746,8.909082760281485,0.25555555555555554,-0.38333333333333336,-0.6111111111111112,-0.009234540901724271,0.06380109385954415,0.022224454959693465
1589986410.682423,-3.2492107143707867,-0.29368428574831473,9.020210571448988,0.2575496984085393,-0.38333333333333336,-0.6125613968223721,-0.009553402502973771,0.052991468608879246,0.04641195128938138
1589986410.692423,-3.124323860794169,-0.24372954431766752,8.990237726590601,0.26365527791672955,-0.38333333333333336,-0.617001818282874,0.004614561614918489,0.01484694982993854,0.06493928898200972
1589986410.702423,-3.04,-0.21,8.97,0.2677777777777778,-0.38333333333333336,-0.62,0.014180800172453925,-0.01090830782496456,0.07744898555724837
1589986410.712423,-2.867755048472334,-0.11223935183564904,8.928102579358136,0.2677777777777778,-0.38333333333333336,-0.62,0.001485523465968249,-0.01090830782496456,0.0911598844002529
1589986410.722423,-2.5181092547465855,-0.12191230869024036,8.913975561438264,0.2677777777777778,-0.38333333333333336,-0.62,-0.012435941361672925,0.0032622994545339415,0.11191563156816753
1589986410.732423,-1.9592712259602743,-0.5704533581108325,9.038978804719413,0.2677777777777778,-0.38333333333333336,-0.62,-0.010029634555502865,0.05539894692155198,0.1303639837488047
1589986410.742423,-1.7257047406936048,-0.6164978451392705,8.913898707083563,0.26705579498452553,-0.38333333333333336,-0.6207219827932523,0.00716727537045317,0.1456835067673421,0.08703089893378876
1589986410.752423,-1.63,-0.66,8.94,0.26222222222222225,-0.38333333333333336,-0.6255555555555555,-0.003272492347489368,0.0839939702522271,-0.002181661564992912
1589986410.762423,-1.6672366519002098,-0.6413816740498951,8.96482443460014,0.26222222222222225,-0.38333333333333336,-0.6255555555555555,-0.007334380960474773,0.04608300986436333,-0.031968844726885874
1589986410.772423,-1.7808354269134143,-0.5754987438519514,8.816496231555854,0.26222222222222225,-0.38333333333333336,-0.6255555555555555,0.006036295728469388,0.018944003239691202,-0.05215993759120416
1589986410.782423,-1.9478616485330849,-0.49842767029338303,8.937861648533085,0.26222222222222225,-0.38333333333333336,-0.6255555555555555,0.0036772648723012486,0.010970051220934153,-0.06423552937535171
1589986410.792423,-1.9912624151323786,-0.48810637730143197,8.98126241513238,0.26222222222222225,-0.3838242725514806,-0.6237320670310086,0.0004131243860063959,0.005729570169819877,-0.07616242682860266
1589986410.802423,-2.0275867712384956,-0.462198346404812,9.006595039214435,0.26222222222222225,-0.3911111111111111,-0.5966666666666667,0.006784787087874671,0.010297081828259974,-0.09424417202262808
1589986410.812423,-2.092423471158518,-0.4712117355792591,9.016670908628148,0.26222222222222225,-0.3911111111111111,-0.5966666666666667,0.007371455783454787,0.012131318454471218,-0.11404051660185276
1589986410.822423,-2.11,-0.48098672246717983,8.92098672246718,0.26222222222222225,-0.3911111111111111,-0.5966666666666667,0.00556178863658034,0.013305238838153592,-0.13664778490131949
1589986410.832423,-2.108880010886893,-0.49,8.93,0.26222222222222225,-0.3911111111111111,-0.5966666666666667,0.006422812834914929,0.015638146535141804,-0.1619490751658863
1589986410.842423,-2.1007259224697696,-0.49,8.93,0.26222222222222225,-0.3911111111111111,-0.5966666666666667,0.005533339770055315,0.018306565729720645,-0.18151748259279785
1589986410.852423,-2.0565129962867754,-0.5188376654289251,8.944188327144625,0.26222222222222225,-0.37777777777777777,-0.6111111111111112,0.007635815477475192,0.017706874585880966,-0.2156281963450921
1589986410.862423,-2.032552413596115,-0.5108508045320385,8.904254022660192,0.26222222222222225,-0.37777777777777777,-0.6111111111111112,0.007635815477475192,0.0194493373302492,-0.23566651790532672
1589986410.872423,-2.0555777866702236,-0.4811155573340447,8.815577786670223,0.26222222222222225,-0.37777777777777777,-0.6111111111111112,0.009330723330621836,0.01769666937586643,-0.27211671376093677
1589986410.882423,-2.0966041054460436,-0.4916979472769782,8.865093841830934,0.26222222222222225,-0.37777777777777777,-0.6111111111111112,0.00545415391248228,0.01986647572953419,-0.30364186527694537
1589986410.892423,-2.024631389288089,-0.5276843053559555,8.973052916067866,0.26222222222222225,-0.37777777777777777,-0.6111111111111112,0.00545415391248228,0.024773354122345242,-0.33504588699093607
1589986410.902423,-2.0369678102773636,-0.5384839051386817,8.988483905138683,0.2791900324995856,-0.3824910584103787,-0.6063978304785101,0.01285775781732538,0.026940008973629262,-0.373159280827515
1589986410.912423,-2.1049805500271392,-0.536692599963814,9.008249050117604,0.2822222222222222,-0.38333333333333336,-0.6055555555555555,0.014180800172453925,0.028544112696294425,-0.42126865434995653
1589986410.922423,-2.08556182579819,-0.5733370954789139,8.906674190957828,0.2822222222222222,-0.38333333333333336,-0.6055555555555555,0.01393811974095199,0.030180472421910118,-0.4600940655783138
1589986410.9324229,-2.1302108229510974,-0.5995783540978049,8.96,0.2822222222222222,-0.38333333333333336,-0.6055555555555555,0.012114124689817991,0.03606640747179722,-0.5028170346895825
1589986410.9424229,-2.13909780489872,-0.5818043902025595,8.96,0.2822222222222222,-0.38333333333333336,-0.6055555555555555,0.016961221425796556,0.038974665513384375,-0.5464409053133895
1589986410.9524229,-2.1485194366901377,-0.6114805633098621,8.914077746760551,0.27555555555555555,-0.37777777777777777,-0.5822222222222222,0.019150440874786488,0.04658271484058113,-0.6077091417354463
1589986410.9624228,-2.140248282397536,-0.6204965647950722,8.878510305614784,0.27555555555555555,-0.37777777777777777,-0.5822222222222222,0.01647079537024061,0.044778228898751576,-0.6536168115264059
1589986410.9724228,-2.150350790513834,-0.640175395256917,8.820876976284586,0.27555555555555555,-0.37777777777777777,-0.5822222222222222,0.020706652212897768,0.04696312161095229,-0.7056524508739901
1589986410.9824228,-2.1691897233201582,-0.6495948616600791,8.867974308300395,0.27555555555555555,-0.37777777777777777,-0.5822222222222222,0.019679147822171738,0.050045634783130385,-0.7580551748010178
1589986410.9924228,-2.1367558389928774,-0.65,8.903244161007123,0.27555555555555555,-0.37777777777777777,-0.5822222222222222,0.01963495408493621,0.05017821599483697,-0.80835852966844
1589986411.0024228,-2.1664863738644886,-0.68,8.99718909909159,0.29444444444444445,-0.3711111111111111,-0.6111111111111112,0.02110906202211264,0.05796734233418416,-0.8849764227617356
1589986411.0124228,-2.1315309609134094,-0.68,8.969224768730728,0.29444444444444445,-0.3711111111111111,-0.6111111111111112,0.024922106068303893,0.05949255995266066,-0.9314955601252688
1589986411.0224228,-2.2211780104712044,-0.6431413612565445,8.921570680628273,0.29444444444444445,-0.3711111111111111,-0.6111111111111112,0.02630843978832421,0.06369652207949202,-1.017085481559359
1589986411.0324228,-2.248052404214946,-0.7202434494731317,8.959026202107474,0.29444444444444445,-0.3711111111111111,-0.6111111111111112,0.02955865599911417,0.07430927429939634,-1.0827925720551281
1589986411.0424228,-2.1803177358795267,-0.7287102830150591,8.925158867939764,0.29444444444444445,-0.3711111111111111,-0.6111111111111112,0.03325300906223733,0.07892721562830028,-1.144672985862441
1589986411.0524228,-2.2601190882080755,-0.7603572646242268,8.92023817641615,0.3211111111111111,-0.37777777777777777,-0.6411111111111111,0.03272492347489368,0.08507181052640345,-1.2204061883801658
1589986411.0624228,-2.2690741783614534,-0.792468857702791,8.936605320658662,0.3211111111111111,-0.37777777777777777,-0.6411111111111111,0.032825914949136475,0.08419595320071269,-1.2934288206616695
1589986411.0724227,-2.240729844795351,-0.8680537472123984,8.832676097582953,0.3211111111111111,-0.37777777777777777,-0.6411111111111111,0.03591780210546171,0.09037972751336318,-1.3511440475797407
1589986411.0824227,-2.24,-0.87,8.889217448011014,0.3211111111111111,-0.37777777777777777,-0.6411111111111111,0.04245703733751277,0.09269216211891576,-1.409690160345918
1589986411.0924227,-2.2737652911433694,-0.9459719050725819,8.898441322785843,0.3211111111111111,-0.37777777777777777,-0.6411111111111111,0.04438401146531891,0.0973246438820916,-1.4629301137846957
1589986411.1024227,-2.2829879721460222,-1.02,8.95,0.3555555555555556,-0.34444444444444444,-0.6622222222222223,0.04690572364734761,0.10286403075407918,-1.5383754732638046
1589986411.1124227,-2.307125975944292,-1.02,8.95,0.3555555555555556,-0.34444444444444444,-0.6622222222222223,0.04690572364734761,0.10549707851119607,-1.5848926503062035
1589986411.1224227,-2.328488828842353,-1.084710900948235,8.866800270209412,0.3555555555555556,-0.34444444444444444,-0.6622222222222223,0.04488890528399292,0.10581058590215622,-1.6337928756919582
1589986411.1324227,-2.3583344252748053,-1.1466688505496105,8.888334425274806,0.3555555555555556,-0.34444444444444444,-0.6622222222222223,0.04781486841176501,0.11405273611391707,-1.6847293682448052
1589986411.1424227,-2.3740227730824994,-1.1990797057887477,8.925056932706248,0.3555555555555556,-0.34444444444444444,-0.6622222222222223,0.04799655442984406,0.11683170304228084,-1.7196378128441587
1589986411.1524227,-2.399431941642092,-1.2588638832841843,8.89142014589477,0.3933398865262903,-0.31853518892165483,-0.6848928208046632,0.050116250440530946,0.12310896453633448,-1.7746641855952627
1589986411.1624227,-2.359218241042345,-1.2931270358306188,8.877654723127037,0.3944444444444444,-0.31777777777777777,-0.6855555555555556,0.053365431668776116,0.11700314930562147,-1.815131762489909
1589986411.1724226,-2.3315245620213045,-1.4039017519147812,8.794573686063913,0.3944444444444444,-0.31777777777777777,-0.6855555555555556,0.05034451991310338,0.12707285515786396,-1.8533966447284302
1589986411.1824226,-2.3089878805793673,-1.4120242388412652,8.841771208986106,0.3944444444444444,-0.31777777777777777,-0.6855555555555556,0.055521964805360396,0.12440991175557536,-1.892494222766484
1589986411.1924226,-2.2759261010937037,-1.4781477978125923,8.89962932308602,0.3944444444444444,-0.31777777777777777,-0.6855555555555556,0.051915484126653234,0.126213152094929,-1.9249525488748487
1589986411.2024226,-2.290509383378016,-1.49,8.882654155495977,0.42558832290735776,-0.29498957402442655,-0.6847959487637771,0.05947221124087917,0.1332480507852172,-1.9546342361854054
1589986411.2124226,-2.299839909692647,-1.5804002257683822,8.879839909692647,0.44,-0.28444444444444444,-0.6844444444444444,0.057796568328788184,0.1395914138724984,-2.003140774249259
1589986411.2224226,-2.285492329006106,-1.6162691774847349,8.865492329006106,0.44,-0.28444444444444444,-0.6844444444444444,0.05623149006206511,0.13646125733905226,-2.036789956983805
1589986411.2324226,-2.262095653076045,-1.6747608673098868,8.824191306152091,0.44,-0.28444444444444444,-0.6844444444444444,0.0585619618220911,0.14307526213561872,-2.0897087964793895
1589986411.2424226,-2.2265149298683418,-1.7051138025987436,8.870227605197488,0.44,-0.28444444444444444,-0.6844444444444444,0.05890486225480863,0.1449028269208738,-2.133661138540886
1589986411.2524226,-2.169735518183125,-1.8202644818168752,8.889074313640938,0.46,-0.2344444444444445,-0.7055555555555556,0.05781403147231216,0.15281728626704413,-2.189975367002443
1589986411.2624226,-2.152510113144007,-1.837489886855993,8.828785396004026,0.46,-0.2344444444444445,-0.7055555555555556,0.05781403147231216,0.15939378698721784,-2.2341318718378957
1589986411.2724226,-2.1243801987749364,-1.9168594036751911,8.77730033129156,0.46,-0.2344444444444445,-0.7055555555555556,0.053156220169355506,0.160352125026979,-2.280623604453148
1589986411.2824225,-2.100499795835035,-2.0470012249897915,8.79925030624745,0.46,-0.2344444444444445,-0.7055555555555556,0.05661416215345182,0.1635428384721955,-2.33639642372172
1589986411.2924225,-2.126910462446704,-2.063455231223352,8.813455231223353,0.46,-0.2344444444444445,-0.7055555555555556,0.06039254579082563,0.17022943855628625,-2.3699406037787925
1589986411.3024225,-2.072658382919146,-2.137341617080854,8.8392404620231,0.4856539493641349,-0.17565414381830202,-0.7483121378291137,0.0653255678389359,0.1755409032413618,-2.424474884571617
1589986411.3124225,-2.049433770630554,-2.201698688108337,8.828112568768514,0.4866666666666667,-0.17333333333333334,-0.75,0.0675697424721658,0.18218932935777962,-2.462828623329361
1589986411.3224225,-2.0228089293271267,-2.2815732120186203,8.739363097757089,0.4866666666666667,-0.17333333333333334,-0.75,0.06466542282487957,0.18315743590687505,-2.5015528852931763
1589986411.3324225,-2.010011713966242,-2.3299531441350303,8.759964858101272,0.4866666666666667,-0.17333333333333334,-0.75,0.06217991019329047,0.1930655483424065,-2.5383248970043657
1589986411.3424225,-2.018576545964424,-2.390035821750967,8.794306183857696,0.4866666666666667,-0.17333333333333334,-0.75,0.059370686498651196,0.1958837166055195,-2.563623243802074
1589986411.3524225,-1.9737651411707704,-2.461646478438973,8.8,0.5020782862764099,-0.1544969093658694,-0.7611306141625923,0.054701994985200134,0.19803068775720545,-2.5879894248907775
1589986411.3624225,-1.9998510487078287,-2.5002979025843426,8.690059580516868,0.5066666666666667,-0.14888888888888888,-0.7644444444444445,0.05997944497184576,0.20615726905255455,-2.611474890201251
1589986411.3724225,-1.968138033238065,-2.56372393352387,8.702744786704775,0.5066666666666667,-0.14888888888888888,-0.7644444444444445,0.05652009162382531,0.2040816570437423,-2.617009855558083
1589986411.3824224,-1.8973269069572505,-2.577425817267393,8.679901089689858,0.5066666666666667,-0.14888888888888888,-0.7644444444444445,0.04715415510049453,0.20453616643863598,-2.616892257767897
1589986411.3924224,-1.8095774097415604,-2.5817370983764065,8.740422590258438,0.5066666666666667,-0.14888888888888888,-0.7644444444444445,0.04408390267204602,0.21083762180211182,-2.6138917381955755
1589986411.4024224,-1.8004746011071313,-2.6776949690654512,8.729288098339302,0.5373973823220811,-0.15338606678968125,-0.783182685697746,0.0443690803131403,0.20679932500569911,-2.603709535919627
1589986411.4124224,-1.7915868764646803,-2.7413098426514897,8.74261968530298,0.5522222222222222,-0.15555555555555556,-0.7922222222222223,0.03620073689307435,0.2145172417115413,-2.5886018862663343
1589986411.4224224,-1.721215481171548,-2.766795576808129,8.743204423191871,0.5522222222222222,-0.15555555555555556,-0.7922222222222223,0.03272492347489368,0.19452345882246502,-2.5686051613708263
1589986411.4324224,-1.6924970694480992,-2.787502930551901,8.696242673620247,0.5522222222222222,-0.15555555555555556,-0.7922222222222223,0.02986101316040704,0.1945777400118611,-2.5417680811442755
1589986411.4424224,-1.7229230355461922,-2.8832819340475444,8.711948690364128,0.5522222222222222,-0.15555555555555556,-0.7922222222222223,0.0378322386070403,0.18628034491011278,-2.5210050582328645
1589986411.4524224,-1.7370884962240634,-2.9643038345919788,8.760126842143853,0.5455273684124773,-0.1579465747733216,-0.8013080952497332,0.038620880249939954,0.17279306649700404,-2.4912364458330343
1589986411.4624224,-1.6945010622545547,-3.012498229575742,8.681004957187923,0.5366666666666666,-0.16111111111111112,-0.8133333333333334,0.03147042945035718,0.16007961045468277,-2.4280820154934775
1589986411.4724224,-1.6717200294189751,-3.0382799705810246,8.632580044128463,0.5366666666666666,-0.16111111111111112,-0.8133333333333334,0.05057742957466308,0.16524340062835602,-2.370702619827357
1589986411.4824224,-1.6791577317131283,-3.1132618537050276,8.730735048844412,0.5366666666666666,-0.16111111111111112,-0.8133333333333334,0.039373481214148055,0.15681569685398924,-2.3170632425472424
1589986411.4924223,-1.6113870583564907,-3.066634378721715,8.709505359269551,0.5366666666666666,-0.16111111111111112,-0.8133333333333334,0.04150552666837031,0.15349396493624745,-2.2718122552003055
1589986411.5024223,-1.595185652986366,-3.138156100768219,8.782970447781853,0.5003670957621058,-0.11962588722018441,-0.7378532731984528,0.04367373449833628,0.14875664061609306,-2.2308272010257975
1589986411.5124223,-1.5556786877526194,-3.1867590158144647,8.81567868775262,0.4666666666666667,-0.0811111111111111,-0.6677777777777778,0.03988935691034669,0.13782843631401664,-2.1737477659537863
1589986411.5224223,-1.52,-3.219612576208706,8.693290798241883,0.4666666666666667,-0.0811111111111111,-0.6677777777777778,0.04309129580264179,0.13435515134215742,-2.1116937716216597
1589986411.5324223,-1.308336620644313,-3.025264217619987,8.633228961209731,0.4666666666666667,-0.0811111111111111,-0.6677777777777778,0.04836585730693924,0.13346773619045188,-2.033314988369659
1589986411.5424223,-1.3316026076327583,-3.111708542713568,8.85743039521934,0.4666666666666667,-0.0811111111111111,-0.6677777777777778,0.042379138868263444,0.12637310912049055,-1.9699883924274075
1589986411.5524223,-1.3780445961521413,-3.2848444010993885,9.257510417590211,0.4996542246653072,-0.00029159401444177335,-0.6347902197791372,0.04708507870419126,0.13026941247307153,-1.8806748622935279
1589986411.5624223,-0.9552219253641299,-2.6283435318452124,8.569364819443248,0.5111111111111111,0.027777777777777776,-0.6233333333333333,0.09093615912337127,0.1857270320055911,-1.7800488455297443
1589986411.5724223,-1.1036204668791454,-2.9945120165388923,8.777246963562753,0.5111111111111111,0.027777777777777776,-0.6233333333333333,0.14021906654217942,0.16699830920104713,-1.6948573038067039
1589986411.5824223,-1.0758969216011163,-3.0635257695997207,9.340742129589255,0.5111111111111111,0.027777777777777776,-0.6233333333333333,-0.022734218661000977,0.042639145516559396,-1.6886060513045138
1589986411.5924222,-1.0709478163493842,-3.09618477043673,9.212939305711085,0.5111111111111111,0.027777777777777776,-0.6233333333333333,-0.03741410328969334,0.030429414845031026,-1.6377636378520344
1589986411.6024222,-1.1188940439922859,-3.2760278375583445,8.748645015232398,0.5136794705770921,0.0855658657623497,-0.6072810866709522,0.09556993517509518,0.13629259738465443,-1.526593975670089
1589986411.6124222,-0.9953403000269485,-3.173010450040423,9.2225654998952,0.5155555555555555,0.12777777777777774,-0.5955555555555555,0.01356112650100072,0.05439018092360445,-1.4703999158586771
1589986411.6224222,-1.0032485944756784,-3.1632485944756783,8.815067709606453,0.5155555555555555,0.12777777777777774,-0.5955555555555555,-0.037562175383371116,0.009697914949368273,-1.4154201073080002
1589986411.6324222,-0.9855713806595864,-3.17,8.46128518725545,0.5155555555555555,0.12777777777777774,-0.5955555555555555,0.06534097118426328,0.09113128398876444,-1.3174584932540425
1589986411.6424222,-1.0090130458221025,-3.336825013477089,8.842448948787062,0.5155555555555555,0.12777777777777774,-0.5955555555555555,0.048305303644961016,0.07615196129465782,-1.2550637717816195
1589986411.6524222,-1.0275509993019107,-3.422652997905732,8.78347002094268,0.5163945554779901,0.17308377358924193,-0.6056235546247698,0.031077550979466993,0.052560264164520976,-1.1823494178237532
1589986411.6624222,-1.0054193792581378,-3.4218064597527125,8.759161241483724,0.5166666666666667,0.18777777777777774,-0.6088888888888889,0.05199390011637611,0.06875047023494292,-1.0995645303042925
1589986411.6724222,-0.9646257554625756,-3.3947326824732684,8.71441190144119,0.5166666666666667,0.18777777777777774,-0.6088888888888889,0.045147006235121794,0.06426570474749577,-1.0517505399298628
1589986411.6824222,-0.9101061915046796,-3.3358963282937366,8.66,0.5166666666666667,0.18777777777777774,-0.6088888888888889,0.03691586549850227,0.05687241440376411,-0.997445183288016
1589986411.6924222,-0.8710911102172164,-3.2980614776079378,8.719152587825155,0.5166666666666667,0.18777777777777774,-0.6088888888888889,0.040691220603354485,0.05636613570620489,-0.9185650096896332
1589986411.7024221,-0.8849624438593774,-3.364887331578132,8.796491404677095,0.5170398189733795,0.19617370467881537,-0.6141130211828679,0.03326624212671562,0.049811874574387294,-0.8642141928902645
1589986411.7124221,-0.8821425864775618,-3.350892112813295,8.663393060141829,0.5188888888888888,0.23777777777777775,-0.64,0.027524035043173987,0.04256194606973586,-0.7723086073575409
1589986411.7224221,-0.9143012082045519,-3.485807249227311,8.700054228715931,0.5188888888888888,0.23777777777777775,-0.64,0.02898915753152249,0.04051910710783836,-0.6935567705949065
1589986411.732422,-0.9041880738506414,-3.488376147701283,8.69364678975107,0.5188888888888888,0.23777777777777775,-0.64,0.02594375903675916,0.03800194258000912,-0.6362465698151805
1589986411.742422,-0.8976888226185697,-3.4676888226185696,8.662311177381431,0.5188888888888888,0.23777777777777775,-0.64,0.02433277696797637,0.03239042372183933,-0.5759710084416949
1589986411.752422,-0.8906126023765564,-3.4896936988117218,8.683927945841027,0.5172732724202685,0.2507027095267402,-0.6292292235425313,0.023603217067873886,0.02571805407988898,-0.4958444834010101
1589986411.762422,-0.87,-3.506701770705292,8.773614165642337,0.5155555555555555,0.2644444444444444,-0.6177777777777778,0.01854412330243975,0.018521147762886155,-0.40442251383154204
1589986411.772422,-0.8257222875319826,-3.51,8.689305718829957,0.5155555555555555,0.2644444444444444,-0.6177777777777778,0.01773913177346241,0.014752478679492153,-0.31411895920808286
1589986411.782422,-0.8245706252382767,-3.560997188333969,8.679141250476553,0.5155555555555555,0.2644444444444444,-0.6177777777777778,0.015069179540423482,0.01259139151944072,-0.2197284295409594
1589986411.792422,-0.8239217285768289,-3.5496086428841447,8.708234814269513,0.5155555555555555,0.2644444444444444,-0.6177777777777778,0.006887398042414054,0.006031809591973847,-0.13539286801883008
1589986411.802422,-0.8661292665214234,-3.5472984749455336,8.77766158315178,0.562325506334221,0.2868683934479141,-0.6261066731219237,0.003439642162381708,-0.0028502608245622725,-0.04156564354218521
1589986411.812422,-0.8719926753942442,-3.5319926753942443,8.700968870425537,0.5966666666666667,0.3033333333333333,-0.6322222222222222,0.001308197948452936,-0.008836328581128403,0.06568519140295709
1589986411.822422,-0.8390708831677816,-3.4990708831677817,8.601165394058157,0.5966666666666667,0.3033333333333333,-0.6322222222222222,-0.004566024978209707,-0.01590551034674771,0.1501257553592816
1589986411.832422,-0.8245556764599201,-3.5335545883206385,8.667109176641278,0.5966666666666667,0.3033333333333333,-0.6322222222222222,-0.0023877996998063512,-0.0209196575853954,0.21016593944376766
1589986411.842422,-0.8348169092578022,-3.5611098544453186,8.73407323629688,0.5966666666666667,0.3033333333333333,-0.6322222222222222,-0.001495207732682331,-0.025170230133207013,0.2571152773122798
1589986411.852422,-0.8691919092578022,-3.5404848544453187,8.72032323629688,0.5966666666666667,0.3033333333333333,-0.6322222222222222,-0.007494777036412839,-0.03041985327397121,0.29686242394949436
1589986411.862422,-0.825156276981523,-3.4090623381108616,8.768124676221724,0.8866666666666667,0.4544444444444444,-0.7766666666666666,-0.01037993960792043,-0.0333214803887542,0.3715984473653671
1589986411.872422,-0.8477159658177511,-3.4390532193925036,8.639136136728997,0.8866666666666667,0.4544444444444444,-0.7766666666666666,-0.011552478520153155,-0.03555075573507518,0.4227775937647074
1589986411.882422,-0.8510116607633224,-3.4755058303816613,8.657412544275083,0.8866666666666667,0.4544444444444444,-0.7766666666666666,-0.014940565744327627,-0.03648765367852747,0.466408714788494
1589986411.892422,-0.8630337259964499,-3.5160674519929,8.76303372599645,0.8866666666666667,0.4544444444444444,-0.7766666666666666,-0.018962888258315026,-0.03792577651663005,0.5174317179147805
1589986411.902422,-0.9126268656716419,-3.602626865671642,8.778955223880597,1.0924378109452737,0.18647429519071307,-1.0726965174129353,-0.020553205669007854,-0.04248378871412317,0.5805987542478525
1589986411.912422,-0.9184419824645071,-3.591104956161268,8.726883964929014,1.3755555555555556,-0.18222222222222226,-1.48,-0.021186223584311645,-0.04753611571296508,0.6544334014156864
1589986411.922422,-0.9754024668013237,-3.5307585199192055,8.696919506639736,1.3755555555555556,-0.18222222222222226,-1.48,-0.013591482463624028,-0.05156370563174837,0.7234842227006404
1589986411.932422,-0.997936419018276,-3.47984104754569,8.647777466563966,1.3755555555555556,-0.18222222222222226,-1.48,-0.0157391735093696,-0.059372404809227834,0.7803425014807844
1589986411.942422,-1.0107763431903374,-3.454805914202416,8.718687630154102,1.3755555555555556,-0.18222222222222226,-1.48,-0.017368606614963148,-0.06440135911978098,0.8328805598945347
1589986411.952422,-1.0484830176355324,-3.4746440235140432,8.748389941214892,0.9059499963712896,-0.02956618767689964,-1.019978227737862,-0.020648122845687324,-0.07149840032686641,0.9446731731824685
1589986411.962422,-1.06,-3.49,8.736873191792407,0.6133333333333333,0.06555555555555556,-0.7333333333333333,-0.02399827721492203,-0.07526732399225547,0.9970193352017608
1589986411.972422,-1.0782078061190334,-3.4960692687063446,8.70751511905559,0.6133333333333333,0.06555555555555556,-0.7333333333333333,-0.022012113675285147,-0.07725348753189235,1.0360805514812863
1589986411.9824219,-1.103830891967179,-3.490779405355214,8.675389702677608,0.6133333333333333,0.06555555555555556,-0.7333333333333333,-0.02726355537387809,-0.08306596515189936,1.1197153805034878
1589986411.9924219,-1.129068834069422,-3.4618623318611563,8.692672085173555,0.6133333333333333,0.06555555555555556,-0.7333333333333333,-0.033422700535244904,-0.08909923563453377,1.1968180291664907
1589986412.0024219,-1.1572426069287476,-3.4055147861425046,8.76310651732187,0.6133333333333333,0.06555555555555556,-0.7333333333333333,-0.02881277773114251,-0.09140419703658498,1.2244775659911051
1589986412.0124218,-1.1403283286586372,-3.3706566573172747,8.82973733707309,0.5544444444444444,0.19111111111111112,-0.6888888888888889,-0.0305647509703578,-0.09542978591805903,1.2653135665548227
1589986412.0224218,-1.065213242634597,-3.177049659879739,8.857606621317299,0.5544444444444444,0.19111111111111112,-0.6888888888888889,-0.016455506389430496,-0.0839797375101436,1.2824628784497225
1589986412.0324218,-1.100190010119776,-3.1933546301750573,8.923354630175057,0.5544444444444444,0.19111111111111112,-0.6888888888888889,-0.024978685415149374,-0.0879016643028232,1.2836385626811064
1589986412.0424218,-1.1790157465376587,-3.31,9.025728324796052,0.5544444444444444,0.19111111111111112,-0.6888888888888889,-0.048121096635290156,-0.10740173778117394,1.2760572847259535
1589986412.0524218,-1.1881005565931322,-3.31,8.737510863736386,0.552709842185609,0.19943720195352066,-0.7072756728325433,-0.030814784555718643,-0.0963336972167667,1.2674810437488462
1589986412.0624218,-1.2484082453494219,-3.3084082453494217,8.72910105580694,0.5488888888888889,0.21777777777777774,-0.7477777777777778,-0.032600319777667336,-0.09569487166535852,1.2540815887792456
1589986412.0724218,-1.2660304592043545,-3.3195228444032656,8.800715733395101,0.5488888888888889,0.21777777777777774,-0.7477777777777778,-0.02830955074361206,-0.08871222870949579,1.2263019979311998
1589986412.0824218,-1.2998530682800347,-3.374390665514261,8.716974935177182,0.5488888888888889,0.21777777777777774,-0.7477777777777778,-0.028957456053237816,-0.08787834607235277,1.2011055721627615
1589986412.0924218,-1.2546252182237991,-3.4516269640141917,8.706252182237991,0.5488888888888889,0.21777777777777774,-0.7477777777777778,-0.02165308625064965,-0.08248037112794203,1.165306444817594
1589986412.1024218,-1.2455026320566347,-3.4468429842076604,8.755167544018878,0.5300960045178597,0.1511972731489885,-0.7375759262620762,-0.01661832877994855,-0.0749229469915443,1.1242867546642117
1589986412.1124218,-1.235077977532208,-3.4052339325966243,8.714454157274544,0.51,0.08,-0.7266666666666667,-0.010942331941954845,-0.06983018213826833,1.0618567480457228
1589986412.1224217,-9.399043073910915,-9.733105726872246,2.8573861967694567,0.51,0.08,-0.7266666666666667,-0.6631968171619214,0.9347480079035648,-0.40646047532215657
1589986412.1324217,-1.2275053113971168,-9.425596017769038,-1.9557182237985706,0.51,0.08,-0.7266666666666667,-1.3464516624533347,-0.013077730511056762,-5.634764350831585
1589986412.1424217,9.886112428546467,-3.121855170864432,-0.9471992711115549,0.51,0.08,-0.7266666666666667,-1.4281711481997472,-1.6099553847085208,-9.693210202037006
1589986412.1524217,0.8711335177784609,-2.5809195614304743,0.24686484270929399,0.4998978265077251,0.1110032220969817,-0.6994953034805479,-1.3811686016988092,-1.0535358604005594,-9.790099458898545
1589986412.1624217,0.09710349859291945,-2.727181322308307,0.14316575756522948,0.4777777777777778,0.17888888888888888,-0.64,-1.347723497239321,-0.8434182486850137,-9.46636399416739
1589986412.1724217,-0.2205866579995125,-1.7631705533436257,-0.973645080035752,0.4777777777777778,0.17888888888888888,-0.64,-0.6445561943939969,0.40486866538579336,-8.803490489013987
1589986412.1824217,-0.3674935865700526,-2.1047783428597144,1.715666771681894,0.4777777777777778,0.17888888888888888,-0.64,0.14510337211085317,1.5017551186946891,-8.336160113036911
1589986412.1924217,-0.9299250824093497,-3.4318512136649684,6.446195684746779,0.4777777777777778,0.17888888888888888,-0.64,0.6743336434971876,2.1818944738729025,-8.01381196138787
1589986412.2024217,-0.606220267591675,-2.4359449331020815,3.5639383052527256,0.4175413638365819,0.2905034206034578,-0.64,1.7864300044953791,3.391170871689355,-7.290716997010978
1589986412.2124217,0.2631919586054797,-0.3800568326405971,2.168509627618967,0.3644444444444445,0.3888888888888889,-0.64,2.8739597407518374,2.391288077438646,-6.6284150677845135
1589986412.2224216,0.47922288070085023,0.41442205617108985,-0.1137011079618655,0.3644444444444445,0.3888888888888889,-0.64,2.715408917520765,0.7485293196549281,-6.0174388602001745
1589986412.2324216,-0.09313128735967342,-0.855309447441318,-1.4560274821402537,0.3644444444444445,0.3888888888888889,-0.64,1.354475827671107,-0.20511002210699752,-5.449214201618884
1589986412.2424216,0.35,-0.4995908745854809,-0.42700107874865156,0.3644444444444445,0.3888888888888889,-0.64,0.22096555890535263,0.4330059088816277,-4.88196250220274
1589986412.2524216,2.6318709209572155,-1.0722117476432198,9.450232052211748,0.3182104584642656,0.41374587059866247,-0.6280686487793087,-1.207876371737116,0.514199753584069,-4.310932402244329
1589986412.2624216,2.4839397454539514,-1.332683353211234,14.944150178901108,0.2611111111111111,0.4444444444444444,-0.6133333333333333,-1.880253544207249,0.32997876222934336,-3.7933894513837734
1589986412.2724216,-1.2677832649647536,-0.35733840455613525,5.538943008483014,0.2611111111111111,0.4444444444444444,-0.6133333333333333,-1.197816827735185,0.403759616655867,-3.373032112383663
1589986412.2824216,0.057796859666339406,-2.1424425907752696,11.226661432777231,0.2611111111111111,0.4444444444444444,-0.6133333333333333,0.18983142548965382,0.09796559639632008,-2.7768314717220295
1589986412.2924216,1.14305357269903,-2.596585481537695,13.150320392724169,0.2611111111111111,0.4444444444444444,-0.6133333333333333,1.0979441415866307,0.32255695759731734,-2.3175983738160766
1589986412.3024216,0.5312584298256775,-0.4060669296348136,3.349288713576791,0.21195472989212652,0.4807531351175581,-0.6021614285108369,0.7942035093715917,0.20201578146952404,-1.8823972268423892
1589986412.3124216,0.76,-0.6,3.22,0.16333333333333333,0.5166666666666667,-0.5911111111111111,0.11453723216212787,-0.15598880189699318,-1.714785990084429
1589986412.3224216,1.1101980999446173,-2.040777063008563,9.282204234652578,0.16333333333333333,0.5166666666666667,-0.5911111111111111,-0.6843875024742769,0.017493165259319668,-1.2530997732038514
1589986412.3324215,0.8289196696418651,-1.8682437687493056,8.602433983926522,0.16333333333333333,0.5166666666666667,-0.5911111111111111,0.0036276456162173953,0.19803000443325608,-0.9915792807649679
1589986412.3424215,0.9837969558212499,-1.8462161875688967,8.219353853981175,0.16333333333333333,0.5166666666666667,-0.5911111111111111,0.19120814633510894,0.11566975648954168,-0.6557467552705765
1589986412.3524215,0.9643452217398473,-2.031085343737979,8.944285321756334,0.15021358832041912,0.5361033259450582,-0.5911111111111111,-0.106147840063959,0.00014285045637682167,-0.3418284336343913
1589986412.3624215,0.8758301158301158,-2.0451614601614603,8.88346261846262,0.13333333333333333,0.5611111111111111,-0.5911111111111111,-0.006402552595614508,-0.02072578486743266,-0.02603922964949465
1589986412.3724215,0.770401137463698,-1.733515246853824,7.139689617618586,0.13333333333333333,0.5611111111111111,-0.5911111111111111,0.05031582382285642,-0.023926998339976715,0.2784352172218032
1589986412.3824215,1.165503461356093,-2.6173136083451873,9.261898530109056,0.13333333333333333,0.5611111111111111,-0.5911111111111111,-0.09498989625384167,-0.12900772057766413,0.6084668380217861
1589986412.3924215,0.8024099415637252,-2.0751024484059473,7.255897440639101,0.13333333333333333,0.5611111111111111,-0.5911111111111111,-0.13671071384085248,-0.2936993901626552,0.9204895555232163
1589986412.4024215,-1.5244818403728084,1.3066469413418145,2.2375674975959763,0.13333333333333333,0.5611111111111111,-0.5911111111111111,-0.45568352520566896,-0.3529251111057246,1.4653661881994546
1589986412.4124215,-1.8478466659731614,-1.3841905059121329,14.186428794340998,0.07555555555555556,0.5633333333333334,-0.6411111111111111,0.2709823530216384,0.1807948665591566,1.9359644039791108
1589986412.4224215,-2.2187908824293725,-0.7672818056947693,9.40028622341018,0.07555555555555556,0.5633333333333334,-0.6411111111111111,0.8101793426251411,0.3467403888521139,2.0603051522257827
1589986412.4324214,-0.3795821053427038,-0.7426772084939168,4.604869266228368,0.07555555555555556,0.5633333333333334,-0.6411111111111111,-0.2856322021494024,-0.2503452524198661,2.023972817119622
1589986412.4424214,0.3746801490804668,-2.2710661697317773,11.159356632247816,0.07555555555555556,0.5633333333333334,-0.6411111111111111,-0.5026592500136018,-0.4316176873052349,2.063226613895001
1589986412.4524214,0.04945467065709669,-2.2459660460311994,9.038432608522923,0.09164961316959622,0.564638256923661,-0.6319766459788178,0.08976603877473112,-0.08508046741135904,2.2673388590140333
1589986412.4624214,0.18436994548226232,-2.1238405291579463,8.187414412319459,0.11666666666666667,0.5666666666666667,-0.6177777777777778,-0.04292483812911527,-0.15694944774849331,2.390277463183395
1589986412.4724214,0.5438305199954685,-2.550695366489181,9.698988557833918,0.11666666666666667,0.5666666666666667,-0.6177777777777778,-0.1731703691734163,-0.2135890666209693,2.494025328074215
1589986412.4824214,1.2033344295315809,-4.465969827143239,8.22357552463363,0.11666666666666667,0.5666666666666667,-0.6177777777777778,-0.031261596389591716,-0.18133332568119154,2.6215892722140897
1589986412.4924214,3.119495336858109,-8.526354126483469,7.043457078672082,0.11666666666666667,0.5666666666666667,-0.6177777777777778,-0.07029159203997404,-0.20927710717222114,2.890819495915815
1589986412.5024214,2.651568098159509,-8.08760490797546,8.160527607361963,0.14584158145875936,0.565360327198364,-0.6129878663940014,-0.09905653646088801,-0.23224282583140374,3.481509177531003
1589986412.5124214,-0.62,-2.11,7.37,0.19111111111111112,0.5633333333333334,-0.6055555555555555,0.06544984694978735,-0.17453292519943295,3.775365338220234
1589986412.5224214,-0.17476377095580237,-2.3989298933159153,8.198897234922708,0.19111111111111112,0.5633333333333334,-0.6055555555555555,-0.0471859719215357,-0.23911768372656772,3.8378833844745004
1589986412.5324214,0.20599626691553896,-2.78909317156634,8.929993778192564,0.19111111111111112,0.5633333333333334,-0.6055555555555555,-0.12675304379949215,-0.29242137820229613,3.9307202400078154
1589986412.5424213,0.042609616606651135,-2.939728606227494,8.66425889642025,0.19111111111111112,0.5633333333333334,-0.6055555555555555,-0.059968370279408406,-0.2619792963181118,3.9852694219910205
1589986412.5524213,0.17263850506645612,-3.0181944992762206,8.956296003860157,0.2078036096367456,0.5539248341643394,-0.6210340541884166,-0.11431492221715799,-0.276374087125067,4.033513550739373
1589986412.5624213,0.01664423901648718,-3.04,8.828254836557704,0.25222222222222224,0.5288888888888889,-0.6622222222222223,-0.08296919435195674,-0.274179262007279,4.068645148068239
1589986412.5724213,0.0006552940055274958,-3.04,8.772293529019345,0.25222222222222224,0.5288888888888889,-0.6622222222222223,-0.13006052452547123,-0.28638812538559755,4.088702566475476
1589986412.5824213,2.2663081410673183,-7.097741482015147,7.704006571895482,0.25222222222222224,0.5288888888888889,-0.6622222222222223,-0.12468181084587067,-0.3027660267152273,4.113425852460813
1589986412.5924213,10.91153806954963,-19.553358344022914,5.448729199247922,0.25222222222222224,0.5288888888888889,-0.6622222222222223,-0.1753314633989937,-0.34296416366215027,4.135936809151091
1589986412.6024213,2.2029852662234397,-10.63600118789876,12.026433429770275,0.27112373519650357,0.5158032260605402,-0.6622222222222223,-0.435931849169651,-0.31442484094867884,0.11741168507420163
1589986412.6124213,-1.7858615987131967,-0.8759427232673613,15.769718162109239,0.3388888888888889,0.4688888888888889,-0.6622222222222223,0.10241210523119719,0.3007610575064246,-1.6310898450909515
1589986412.6224213,-3.447470135386249,-1.8211962181699373,3.9173776316595537,0.3388888888888889,0.4688888888888889,-0.6622222222222223,0.8123249841307052,0.4938560784782313,-1.1126623892455378
1589986412.6324213,-3.527984962406015,-3.302045112781955,6.413699248120301,0.3388888888888889,0.4688888888888889,-0.6622222222222223,0.03553975899784689,0.08672514807607164,-0.4063697339413188
1589986412.6424212,-1.0357230750362816,-2.446938249902909,10.248853300083805,0.3388888888888889,0.4688888888888889,-0.6622222222222223,-0.38226794963109684,-0.201917765654538,0.42220696519323736
1589986412.6524212,-0.6770395965021453,-3.855045688271706,9.137995938820293,0.3485588270614308,0.4652209813062006,-0.6582208684956532,-0.14189238721919284,-0.22249514666553355,0.7412577259724433
1589986412.6624212,-0.4093983418155458,-3.980478729027289,8.774454143195856,0.3711111111111111,0.4566666666666666,-0.6488888888888888,0.008026947592624067,-0.018015733351995397,1.1093786123534974
1589986412.6724212,0.6927479348203636,-3.5940941148043555,8.090363350801153,0.3711111111111111,0.4566666666666666,-0.6488888888888888,-0.0334301243166278,-0.08365609720831087,1.3228825326861446
1589986412.6824212,-1.7769989939637827,-2.7024054325955733,8.606670020120724,0.3711111111111111,0.4566666666666666,-0.6488888888888888,-0.02070712880777227,-0.036901247042165825,0.19952622884341892
1589986412.6924212,-1.697235965931088,-2.362023035230352,7.6542295780100655,0.3711111111111111,0.4566666666666666,-0.6488888888888888,0.12845193381501113,0.137500106987973,-0.3415709180607794
1589986412.7024212,-0.22739371233099848,-3.648245642612803,8.53949991855351,0.37210837812890263,0.45287705199905876,-0.6500856093102387,0.010680333253545289,0.02069362321706096,0.03700864207799264
1589986412.7124212,0.9879132440288133,-4.779382661443195,8.703802287375204,0.37666666666666665,0.4355555555555555,-0.6555555555555556,-0.10494118149958961,-0.10240713320544761,0.1515899471564692
1589986412.7224212,-0.11856991659294835,-3.6265199671426767,7.862345033489195,0.37666666666666665,0.4355555555555555,-0.6555555555555556,0.020093883950825064,0.0016682969960535865,0.014990945016998852
1589986412.7324212,0.1395511314128799,-4.38078552002746,8.84022443429356,0.37666666666666665,0.4355555555555555,-0.6555555555555556,0.01620332884400579,0.0108103798905393,-0.011558002065208864
1589986412.7424212,0.03471170274685041,-4.4283299224573325,8.693498807758022,0.37666666666666665,0.4355555555555555,-0.6555555555555556,-0.0071717193183461906,-0.0027520123963885165,0.0018368459014847102
1589986412.7524211,-0.016552004249070516,-4.236895991501859,8.35206392351673,0.3791568858201157,0.4342146683190829,-0.6567048874725321,0.0049650233038532575,0.004513858936724563,0.001090830782496456
1589986412.7624211,0.04436293777326326,-4.2734125336748665,8.714838139822461,0.3911111111111111,0.42777777777777776,-0.6622222222222223,0.009367472611107444,0.0007444993557700053,0.001090830782496456
1589986412.7724211,0.10402327202530967,-4.297317818649794,8.781552362056948,0.3911111111111111,0.42777777777777776,-0.6622222222222223,0.002181661564992912,0.0017093913232707615,0.0008546956616353807
1589986412.782421,0.014060271328221352,-4.357293152447853,8.579135610488498,0.3911111111111111,0.42777777777777776,-0.6622222222222223,0.002181661564992912,7.3817815835194e-05,3.6908907917597e-05
1589986412.792421,0.12692166166360028,-4.3458235692844,8.7103824924954,0.3911111111111111,0.42777777777777776,-0.6622222222222223,-0.007695707125938007,0.0008929876474508605,0.0
1589986412.802421,0.027194950911640953,-4.303997194950911,8.564389901823283,0.3899563659030699,0.42839956365903065,-0.6622222222222223,-0.004537733661829577,-0.0031852870815674917,-8.720526592187656e-05
1589986412.812421,0.1020953704822918,-4.35,8.73,0.37666666666666665,0.4355555555555555,-0.6622222222222223,-0.0039582007343348675,-0.002181661564992912,-0.0008034103424249151
1589986412.822421,0.087937490785788,-4.354762494471473,8.72365000737137,0.37666666666666665,0.4355555555555555,-0.6622222222222223,0.0027529847903941963,-0.00166215400789774,0.0
1589986412.832421,0.10769916654542432,-4.357699166545424,8.664911562363601,0.37666666666666665,0.4355555555555555,-0.6622222222222223,0.0009122413352841728,0.002003072117780629,0.0
1589986412.842421,0.05458722182340273,-4.303058147882268,8.612232591529073,0.37666666666666665,0.4355555555555555,-0.6622222222222223,0.0027721040703786465,0.004196527037615584,0.0003335921847404812
1589986412.852421,0.07842007193309355,-4.319210035966547,8.680789964033453,0.3769299880111511,0.43573110311854507,-0.662529430457454,0.00017234341695116688,0.0031001489305382012,0.0021385757107551203
1589986412.862421,0.04206959310135633,-4.301034796550678,8.69896520344932,0.38298840114977395,0.4397700452109604,-0.6695975791191807,0.004137565543765645,-0.0008650731962762765,0.0011472701790515008
1589986412.872421,0.054988632057597575,-4.292505683971201,8.7074943160288,0.38333333333333336,0.44,-0.67,0.006815832315376918,-0.001090830782496456,-0.0005441753410976068
1589986412.882421,0.06044157404626014,-4.2908831480925205,8.658675277861219,0.38333333333333336,0.44,-0.67,0.003881640567573751,0.0019408202837868755,0.0
1589986412.892421,0.06593608864087999,-4.30796804432044,8.6401597783978,0.38333333333333336,0.44,-0.67,-0.006323332714585479,-0.0028291883867028558,0.0
1589986412.902421,0.05209178923850308,-4.303486315397505,8.677908210761498,0.38333333333333336,0.43969010529799957,-0.6689928422184985,-0.005530213515544079,-0.0009387115763728578,0.0
1589986412.912421,0.07444490876166597,-4.333334726284997,8.652777545619168,0.38333333333333336,0.4355555555555555,-0.6555555555555556,-0.005333051790508512,-0.00012110212197376734,0.00030298322611755583
1589986412.922421,0.0635284920932202,-4.29705698418644,8.651178769766949,0.38333333333333336,0.4355555555555555,-0.6555555555555556,-0.001796762785884917,-0.0026951441788273757,0.001090830782496456
1589986412.932421,0.07719003957461362,-4.324380079149227,8.617024901063466,0.38333333333333336,0.4355555555555555,-0.6555555555555556,-0.00030651913296082995,-0.00045977869944124547,0.001090830782496456
1589986412.942421,0.041543682253654124,-4.306174729014616,8.66,0.38333333333333336,0.4355555555555555,-0.6555555555555556,0.004780595464210512,0.0038581542937819982,-0.0009224411704285142
1589986412.952421,0.04979481832667756,-4.33917927330671,8.66,0.38333333333333336,0.4355555555555555,-0.6555555555555556,0.0011803581766021594,0.001157976328075733,-2.238184852642591e-05
1589986412.962421,0.054088843502680624,-4.3,8.70182231299464,0.3977777777777778,0.4355555555555555,-0.6622222222222223,0.0015368544182499215,0.001090830782496456,0.0006448071467429905
1589986412.972421,0.06836609650242534,-4.3,8.673267806995149,0.3977777777777778,0.4355555555555555,-0.6622222222222223,0.0030942611244110605,0.001090830782496456,-0.0009125995594181484
1589986412.982421,0.041449599366900784,-4.3,8.611596794935206,0.3977777777777778,0.4355555555555555,-0.6622222222222223,0.002956238825148819,0.001090830782496456,-0.0023397883261631865
1589986412.992421,0.04974774953012168,-4.3,8.677981996240973,0.3977777777777778,0.4355555555555555,-0.6622222222222223,0.0011458632979849505,0.001090830782496456,-0.0032449760897451207
1589986413.002421,0.06932384595281652,-4.3096619229764075,8.689661922976407,0.3977777777777778,0.4355555555555555,-0.6622222222222223,-0.003124978417813907,0.0021447830825740465,-0.0011645877473341862
1589986413.012421,0.06115032651189202,-4.31,8.698849673488107,0.38499491607273295,0.428672476175916,-0.6563224398968169,-0.004237841973076465,0.0002509623138187184,0.0008398684686777376
1589986413.022421,0.05201054249945091,-4.312010542499451,8.67587349000659,0.38333333333333336,0.42777777777777776,-0.6555555555555556,-0.0015294631120801397,0.00196234540020107,-0.0006521984529127723
1589986413.0324209,0.05725526932084309,-4.317255269320843,8.58960655737705,0.38333333333333336,0.42777777777777776,-0.6555555555555556,-0.002523983168867678,0.001240532618220794,0.001090830782496456
1589986413.0424209,0.045620864779556076,-4.3,8.657026080974445,0.38333333333333336,0.42777777777777776,-0.6555555555555556,0.00233494687313766,0.002028376256848164,0.00047768954991746345
1589986413.0524209,0.07956700321712563,-4.3,8.699458754021407,0.38333333333333336,0.42777777777777776,-0.6555555555555556,0.0032606841920023357,0.0011026389379834884,-0.0032252597255412385
1589986413.0624208,0.05575621530292059,-4.32,8.68636567704562,0.3911111111111111,0.42777777777777776,-0.6622222222222223,0.001090830782496456,0.0008593682334033751,-0.0008593682334033751
1589986413.0724208,0.041731073362234174,-4.318268926637766,8.69268926637766,0.3911111111111111,0.42777777777777776,-0.6622222222222223,0.0014684924045533904,-0.0001888308110284672,0.0
1589986413.0824208,0.04953485775950286,-4.3104651422404965,8.614651422404972,0.3911111111111111,0.42777777777777776,-0.6622222222222223,0.0031710140526546374,-0.0010400916350790906,0.0
1589986413.0924208,0.0511339804704966,-4.3,8.68,0.3911111111111111,0.42777777777777776,-0.6622222222222223,0.0026540019455056135,-0.0030250961866958664,0.002181661564992912
1589986413.1024208,0.05718365521916603,-4.3,8.68,0.3911111111111111,0.42777777777777776,-0.6622222222222223,-0.0006455837744644474,-0.0017052618987078419,0.002181661564992912
1589986413.1124208,0.052906237144394165,-4.3,8.694187525711211,0.37298260603567396,0.4332951488876934,-0.6622222222222223,-0.004503090030980353,-0.0018646402711589368,0.0006340425876679506
1589986413.1224208,0.06456538170823886,-4.3364134542705965,8.649021164021164,0.3655555555555556,0.4355555555555555,-0.6622222222222223,-0.004659735576174392,-0.0005928248923771366,0.0007944183363078876
1589986413.1324208,0.05,-4.3113018370871785,8.573905511261536,0.3655555555555556,0.4355555555555555,-0.6622222222222223,-0.0029884755537913426,7.100419842450632e-05,-0.002039653168143899
1589986413.1424208,0.05,-4.325936774891397,8.617810324674192,0.3655555555555556,0.4355555555555555,-0.6622222222222223,0.00020437257756118288,0.0008692162312626377,-0.00044322910246763643
1589986413.1524208,0.041398722498225696,-4.304196167494677,8.681607665010645,0.3655555555555556,0.4355555555555555,-0.6622222222222223,0.0029673384360423822,0.0029673384360423822,0.0
1589986413.1624207,0.08,-4.321982225164889,8.71,0.3655555555555556,0.4355555555555555,-0.6844444444444444,0.004147095907215893,0.0020735479536079463,0.002181661564992912
1589986413.1724207,0.07646748681898068,-4.335289982425308,8.699402460456943,0.3655555555555556,0.4355555555555555,-0.6844444444444444,0.002181661564992912,0.0009623849785821105,0.0016678783493355301
1589986413.1824207,0.05390211972310893,-4.305202826297478,8.631706359169327,0.3655555555555556,0.4355555555555555,-0.6844444444444444,0.002181661564992912,0.0001418850770317921,-0.0016141212568657436
1589986413.1924207,0.0508885806372649,-4.3,8.672665741911795,0.3655555555555556,0.4355555555555555,-0.6844444444444444,0.003975606685242275,-0.0017939451202493631,0.0009939016713105687
1589986413.2024207,0.05944453510668679,-4.3,8.698333605320059,0.3655555555555556,0.4355555555555555,-0.6844444444444444,0.00024236728168886262,0.0019392942833040493,6.0591820422215654e-05
1589986413.2124207,0.057244392884764114,-4.301837071410157,8.712651714359371,0.38333333333333336,0.4477777777777778,-0.6555555555555556,-0.001591814293457383,0.0011910274846886413,-0.00020039340438437084
1589986413.2224207,0.036327790078673386,-4.3184180524803315,8.63050831488199,0.38333333333333336,0.4477777777777778,-0.6555555555555556,-0.00637242098990392,0.002526788975142542,-0.002009097859918097
1589986413.2324207,0.07141805882487375,-4.312836117649747,8.585672235299494,0.38333333333333336,0.4477777777777778,-0.6555555555555556,-0.004680722803700769,0.0035898920212043134,-0.0006267721172275498
1589986413.2424207,0.08,-4.328313067865307,8.62506079640408,0.38333333333333336,0.4477777777777778,-0.6555555555555556,0.0,-0.0006307914073699708,0.001905637939917021
1589986413.2524207,0.08,-4.312199427572562,8.673401717282314,0.38333333333333336,0.4477777777777778,-0.6555555555555556,0.0,0.0037635223049803292,-0.0007309502874931592
1589986413.2624207,0.06823842274186154,-4.3,8.7,0.3711111111111111,0.4355555555555555,-0.6766666666666666,0.004299270373355053,0.0021176088083621402,-0.0021176088083621402
1589986413.2724206,0.04900733608436497,-4.3,8.7,0.3711111111111111,0.4355555555555555,-0.6766666666666666,0.0036000083297932483,0.0014183467648003361,-0.0014183467648003361
1589986413.2824206,0.057052615478739674,-4.325578923218109,8.597684307127562,0.3711111111111111,0.4355555555555555,-0.6766666666666666,0.003272492347489368,0.00016075488818221705,-0.001090830782496456
1589986413.2924206,0.06,-4.32119858582124,8.641609899251318,0.3711111111111111,0.4355555555555555,-0.6766666666666666,0.003272492347489368,-0.001920170703138345,0.000829339920641889
1589986413.3024206,0.06,-4.302507138777841,8.684985722444317,0.3711111111111111,0.4355555555555555,-0.6766666666666666,0.001364317197982432,-0.0012275739902394439,-0.0027255195165174157
1589986413.3124206,0.06,-4.3,8.712129367042781,0.3858640224729647,0.429818312248168,-0.6610941491180434,0.0018954772747440379,-0.0002861842902488742,0.0007507401137485416
1589986413.3224206,0.06145621491723606,-4.311456214917236,8.70907838812073,0.3911111111111111,0.42777777777777776,-0.6555555555555556,-0.0034313407532545305,0.00023827260864774365,0.001090830782496456
1589986413.3324206,0.07650006276788436,-4.3265000627678845,8.596249529240868,0.3911111111111111,0.42777777777777776,-0.6555555555555556,-0.005072369985522561,0.002699816457049791,0.001090830782496456
1589986413.3424206,0.06019745649263721,-4.349407630522088,8.620987282463185,0.3911111111111111,0.42777777777777776,-0.6555555555555556,-0.0031647965373031383,0.002160122402955666,2.153916203724595e-05
1589986413.3524206,0.06845460272462399,-4.324636191826128,8.66227301362312,0.3911111111111111,0.42777777777777776,-0.6555555555555556,0.0013387781054097578,0.0012594074744130867,0.0009222540905798252
1589986413.3624206,0.07,-4.31,8.719347568501606,0.3977777777777778,0.44,-0.6488888888888888,0.001090830782496456,0.0,-0.0010433846250351192
1589986413.3724205,0.07,-4.31,8.685202156334231,0.3977777777777778,0.44,-0.6488888888888888,0.001090830782496456,-5.233635560225584e-05,0.001090830782496456
1589986413.3824205,0.07,-4.31,8.598237611445159,0.3977777777777778,0.44,-0.6488888888888888,0.001090830782496456,-0.0010009723811102147,0.001090830782496456
1589986413.3924205,0.05061626977784881,-4.329075595333227,8.62215694422247,0.3977777777777778,0.44,-0.6488888888888888,0.0021144369605929384,0.0010572184802964692,0.0011580553868964292
1589986413.4024205,0.06402301422406904,-4.308965478663897,8.66908054978424,0.3977777777777778,0.44,-0.6488888888888888,0.0006519880070928953,0.00032599400354644766,0.002620504340396473
1589986413.4124205,0.04201204093919326,-4.3093293196869356,8.708658639373873,0.37289959194594957,0.44,-0.6685841193390862,0.004070683637703813,-0.0010176709094259532,0.0002194796192115083
1589986413.4224205,0.06006915022062213,-4.299930849779377,8.709446798235025,0.3711111111111111,0.44,-0.67,-0.001090830782496456,0.001068201425715143,0.004333150654277407
1589986413.4324205,0.06927666673984151,-4.290723333260159,8.635786666081268,0.3711111111111111,0.44,-0.67,-0.001090830782496456,-0.0019449513091375906,0.0003156136744737626
1589986413.4424205,0.06,-4.329549205182395,8.651352384452817,0.3711111111111111,0.44,-0.67,-0.0020833133922661343,-0.0019357911331759675,0.0009433085234062894
1589986413.4524205,0.06,-4.321841220251769,8.674476339244693,0.3711111111111111,0.44,-0.67,-0.00040169194559705945,0.0022682624834967197,-0.0015791236465973228
1589986413.4624205,0.05331238478297302,-4.313312384782972,8.686687615217027,0.3889447516898497,0.43702772657021016,-0.6603401113531833,0.0007295056540224748,0.002542986693466893,0.0007363610510969874
1589986413.4724205,0.05,-4.319414201822964,8.671171596354073,0.3977777777777778,0.4355555555555555,-0.6555555555555556,0.004171621124833332,0.003208591679105204,0.002181661564992912
1589986413.4824204,0.05721505395586893,-4.32,8.619494622308917,0.3977777777777778,0.4355555555555555,-0.6555555555555556,0.0035762828347423586,-0.0014497494239714259,0.0013946212697494463
1589986413.4924204,0.07,-4.319403623188406,8.641192753623189,0.3977777777777778,0.4355555555555555,-0.6555555555555556,-3.252730920270229e-05,0.00214913425579021,0.0011558854009018605
1589986413.5024204,0.07,-4.304206884057971,8.671586231884058,0.3977777777777778,0.4355555555555555,-0.6555555555555556,-0.0008613808510550366,0.0013202807139378755,0.0028135924846065296
1589986413.5124204,0.0792843587389042,-4.309284358738904,8.698568717477809,0.3678615107301976,0.4469031051253273,-0.6617451280481584,0.0009347020791308782,-0.001947468509944545,-0.0007785733757653002
1589986413.5224204,0.07,-4.2999899770586,8.689929839410205,0.3655555555555556,0.4477777777777778,-0.6622222222222223,-0.0010930174490983377,-0.0010886441158945743,-0.0010875507825936334
1589986413.5324204,0.07,-4.29064792747845,8.624535492349153,0.3655555555555556,0.4477777777777778,-0.6622222222222223,-0.003131136499825507,0.0009494749348325949,0.0019696277934971203
1589986413.5424204,0.07,-4.3217665968139,8.6517665968139,0.3655555555555556,0.4477777777777778,-0.6622222222222223,-0.0050050914304771675,0.0028234298654842556,0.0013153620234990122
1589986413.5524204,0.07,-4.324460419132493,8.671079161735014,0.3655555555555556,0.4477777777777778,-0.6622222222222223,-0.004849879379241797,0.0026682178142488854,-0.00011771828398450925
1589986413.5624204,0.057539994654652364,-4.326230002672674,8.68,0.38147667349683306,0.440163330066732,-0.6622222222222223,-0.003004147391908265,0.003540837303070471,-0.0017704186515352354
1589986413.5724204,0.05947105729474306,-4.301586828115771,8.689471057294742,0.3911111111111111,0.4355555555555555,-0.6622222222222223,0.00091773468697509,0.00333019104599649,-0.00424792573297158
1589986413.5824203,0.07698656795346377,-4.3,8.596573876255949,0.3911111111111111,0.4355555555555555,-0.6622222222222223,0.0020173043431267615,0.0014195452262287566,-0.0025103760087252123
1589986413.5924203,0.05232407799915219,-4.3,8.635351844001697,0.3911111111111111,0.4355555555555555,-0.6622222222222223,0.002181661564992912,8.450586074659912e-05,-0.002181661564992912
1589986413.6024203,0.05782806700772394,-4.3,8.671312268030896,0.3911111111111111,0.4355555555555555,-0.6622222222222223,-0.0003800673728481482,0.0008539096459470201,-0.0004738422730988718
1589986413.6124203,0.06,-4.313054075596762,8.706108151193524,0.38603452615681505,0.43047897060125945,-0.6622222222222223,-0.0025148095322947623,0.000378841407597303,-0.001423978749798306
1589986413.6224203,0.06,-4.300911346717798,8.691367020076697,0.38333333333333336,0.42777777777777776,-0.6622222222222223,-0.0022313678176579884,0.0031233735894941384,-0.0032227860948242917
1589986413.6324203,0.06,-4.312763737210724,8.632563182551744,0.38333333333333336,0.42777777777777776,-0.6622222222222223,-0.0007893538200776573,0.001184030730116486,0.00020827701479876875
1589986413.6424203,0.0525126107161298,-4.32,8.62246216785161,0.38333333333333336,0.42777777777777776,-0.6622222222222223,-0.0016334949422759416,0.0016334949422759416,0.0005481666227169703
1589986413.6524203,0.05554851071784646,-4.3144514892821535,8.652194042871386,0.38333333333333336,0.42777777777777776,-0.6622222222222223,-0.0027869101937967548,0.00036591567858138365,0.0
1589986413.6624203,0.07062048144911416,-4.320620481449114,8.680620481449115,0.3874635205635444,0.4342680719966809,-0.6663524094524333,-0.003272492347489368,6.768402646617402e-05,-0.00115851480896263
1589986413.6724203,0.0634029078092301,-4.3134029078092295,8.698298546095383,0.3911111111111111,0.44,-0.67,-0.003272492347489368,-0.0007196311236658797,-0.00037119965883057626
1589986413.6824203,0.04100639953264824,-4.319496800233676,8.605031997663241,0.3911111111111111,0.44,-0.67,-0.00016467173845541219,0.0009810496235261813,0.0
1589986413.6924202,0.04,-4.32,8.627346318646614,0.3911111111111111,0.44,-0.67,0.0007457551541920835,0.0025823410908806235,-0.0007457551541920835
1589986413.7024202,0.04655229352662954,-4.32,8.666209174106518,0.3911111111111111,0.44,-0.67,0.001090830782496456,0.003987236694969344,-0.0018055751299764322
1589986413.7124202,0.05,-4.314029465707318,8.697911602878046,0.38646736221680295,0.4413267853983738,-0.6653562511056919,-0.0008630219958259946,0.001758186092222556,-0.000879093046111278
1589986413.7224202,0.05778865942800369,-4.31,8.671056702859982,0.38333333333333336,0.44222222222222224,-0.6622222222222223,-0.00048243967330337907,0.0,0.0008496109458447664
1589986413.7324202,0.06,-4.317021017242396,8.631915931030415,0.38333333333333336,0.44222222222222224,-0.6622222222222223,-0.0022976225197332604,0.0,-0.0019726659104812245
1589986413.7424202,0.06838056806806807,-4.3032388638638635,8.628380568068069,0.38333333333333336,0.44222222222222224,-0.6622222222222223,-0.003272492347489368,0.0,0.001298398464238384
1589986413.7524202,0.06285306066909006,-4.307146939330909,8.66573469665455,0.38333333333333336,0.44222222222222224,-0.6622222222222223,-0.0017132720629311304,0.0,0.002181661564992912
1589986413.7624202,0.06983763890893346,-4.31,8.689837638908934,0.3871590817979186,0.4389430092525777,-0.6622222222222223,-0.001090830782496456,-0.0010731199348949477,0.0005719816626504903
1589986413.7724202,0.07490118430792006,-4.3201976313841595,8.70509881569208,0.3911111111111111,0.4355555555555555,-0.6622222222222223,-0.001090830782496456,-0.0016254670538732349,-0.001090830782496456
1589986413.7824202,0.05956192831554255,-4.319561928315542,8.652590605735485,0.3911111111111111,0.4355555555555555,-0.6622222222222223,4.778620783462686e-05,4.778620783462686e-05,4.778620783462686e-05
1589986413.7924201,0.0626798444588464,-4.322679844458846,8.638039533376539,0.3911111111111111,0.4355555555555555,-0.6622222222222223,0.001090830782496456,0.001090830782496456,-0.00029232568280122134
1589986413.8024201,0.07,-4.313789921347761,8.687016797753731,0.3911111111111111,0.4355555555555555,-0.6622222222222223,0.001090830782496456,0.0016802458751814838,-0.002269660967866512
1589986413.8124201,0.07,-4.30499123340609,8.70500876659391,0.3911111111111111,0.4355555555555555,-0.6694317815865746,0.001090830782496456,0.002181661564992912,-0.001639115034893054
1589986413.8224201,0.07,-4.3170725349260985,8.707072534926098,0.3911111111111111,0.4355555555555555,-0.6766666666666666,-0.00045215697903743055,0.0037246493265267987,0.0
1589986413.83242,0.07,-4.32,8.639804344476968,0.3911111111111111,0.4355555555555555,-0.6766666666666666,-0.0019416261362969066,0.0009601417147840218,-0.001701590707600901
1589986413.84242,0.06390001827819411,-4.32,8.656599890330835,0.3911111111111111,0.4355555555555555,-0.6766666666666666,-0.002181661564992912,0.0006654047834811593,-0.0015162567815117526
1589986413.85242,0.06,-4.314292757235839,8.67429275723584,0.3911111111111111,0.4355555555555555,-0.6766666666666666,-0.002181661564992912,-0.0007768600446013399,-0.001090830782496456
1589986413.86242,0.07145505739657787,-4.315727528698289,8.681455057396578,0.3866563665679975,0.4355555555555555,-0.6728483142011408,-0.0034312144873379965,-0.00030733218147528446,0.0001587221398486288
1589986413.87242,0.08,-4.311883607934826,8.681883607934825,0.38333333333333336,0.4355555555555555,-0.67,-0.0052486841607359705,0.00020546975174630942,0.001090830782496456
1589986413.88242,0.07122970556681368,-4.318770294433187,8.583526761234952,0.38333333333333336,0.4355555555555555,-0.67,-0.002584081770699198,0.0,0.00013414006856876193
1589986413.89242,0.07,-4.303737483145074,8.60252503370985,0.38333333333333336,0.4355555555555555,-0.67,-0.003068644264303952,-0.0026609480979331197,-0.0017739653986220797
1589986413.90242,0.06325661471547663,-4.306743385284523,8.677433852845233,0.38333333333333336,0.4355555555555555,-0.67,0.00040545377580649376,0.0018766322251248385,-0.0007104831156745674
1589986413.91242,0.06,-4.317464372610358,8.71,0.38333333333333336,0.42560305874174487,-0.6749762484069053,0.0005531880819125232,0.005177559871526018,-0.0024427102246205833
1589986413.92242,0.06,-4.32,8.717673579801623,0.38333333333333336,0.4222222222222222,-0.6766666666666666,-0.0016741154119107014,-0.00040525002920517583,-0.003272492347489368
1589986413.93242,0.06825633190034702,-4.311743668099653,8.629180349096183,0.38333333333333336,0.4222222222222222,-0.6766666666666666,-0.002181661564992912,-0.00038040936751171264,-0.0005706140512675689
