time,acc_x,acc_y,acc_z,mag_x,mag_y,mag_z,gyr_x,gyr_y,gyr_z
1589986431.0365224,-3.68,-0.57,8.91,0.3,-0.4066666666666667,-0.6077777777777778,-0.007635815477475192,0.02399827721492203,0.001090830782496456
1589986431.0465224,-3.670079002767462,-0.57,8.919920997232538,0.3,-0.3802106740465659,-0.6232104401395032,-0.011964667147200937,0.02399827721492203,0.002173043699927893
1589986431.0565224,-3.71,-0.5732985018255067,8.907119476268413,0.3,-0.38,-0.6233333333333333,-0.01344978012269582,0.03488378787132378,-0.0029012830304696122
1589986431.0665224,-3.72183183538316,-0.58394394512772,8.84760761589404,0.3,-0.38,-0.6233333333333333,-0.015041235522412696,0.03711881979497549,-0.003933105455006439
1589986431.0765224,-3.7349909543193127,-0.5950090456806875,8.935081411126188,0.3,-0.38,-0.6233333333333333,-0.014723255371619396,0.029990939403792768,-0.003818894469431849
1589986431.0865223,-3.7076907091523075,-0.591076283660923,8.966614425491384,0.30297457211302564,-0.3894194783579146,-0.6258121434275213,-0.008709550375338184,0.016445674302983194,-0.0019297570107528871
1589986431.0965223,-3.6893101755247333,-0.5753449122376334,8.973275438811832,0.30666666666666664,-0.4011111111111111,-0.6288888888888889,-0.0022569097422069796,0.0008087840114974639,7.524817721406762e-05
1589986431.1065223,-3.70500126486213,-0.58000252972426,8.94498608651657,0.30666666666666664,-0.4011111111111111,-0.6288888888888889,-0.001090830782496456,-0.0016358322485805696,0.0005458293164123426
1589986431.1165223,-3.6913094471858687,-0.5713094471858686,8.902460368542755,0.30666666666666664,-0.4011111111111111,-0.6288888888888889,-0.00041122310411211124,0.0006796076783843447,0.003540876921761601
1589986431.1265223,-3.6750681389203472,-0.5846593053982635,8.919863722159306,0.30666666666666664,-0.4011111111111111,-0.6288888888888889,-0.001613947764204411,0.005394691487041552,0.002211392777713276
1589986431.1365223,-3.6785352335708628,-0.6057323832145685,8.942802850356294,0.30998592416644677,-0.3949467757543767,-0.6326823260314947,-0.006531165777702455,0.01586929912714955,-0.00139657432723418
1589986431.1465223,-3.7209364739471806,-0.6068747719882623,8.96,0.3144444444444445,-0.38666666666666666,-0.6377777777777778,-0.012033189761080698,0.02624804108715431,-0.002897531702117321
1589986431.1565223,-3.7791045363339495,-0.6195522681669748,8.956642011252312,0.3144444444444445,-0.38666666666666666,-0.6377777777777778,-0.014107540222588817,0.03042116199345892,-0.0022305015315696505
1589986431.1665223,-3.725444374435911,-0.6029111251128177,8.82455562556409,0.3144444444444445,-0.38666666666666666,-0.6377777777777778,-0.0074152084517284155,0.018102909250946198,-0.0027755506876057587
1589986431.1765223,-3.6902848444658787,-0.609715155534121,8.860759585242343,0.3144444444444445,-0.38666666666666666,-0.6377777777777778,0.00110118801954994,0.0010494018342825202,0.001090830782496456
1589986431.1865222,-3.7238366002027714,-0.58,8.945754900304156,0.3093289775074162,-0.3881586778566332,-0.6360726221321017,0.002390915645058661,-0.002435476027226373,0.001090830782496456
1589986431.1965222,-3.735556315641222,-0.58,8.974443684358778,0.2877777777777778,-0.3944444444444444,-0.6288888888888889,0.0027877615788640267,0.0006061000138711144,0.0007676769367462282
1589986431.2065222,-3.6987264603194703,-0.5875156931203531,8.962421534398235,0.2877777777777778,-0.3944444444444444,-0.6288888888888889,-0.0008198349407478022,-0.003821331446488516,-0.0015007482528703571
1589986431.2165222,-3.6930698393729573,-0.5921580963762257,8.915683807247548,0.2877777777777778,-0.3944444444444444,-0.6288888888888889,-0.002466801227199026,-0.007115264019390963,-0.0013262425783745705
1589986431.2265222,-3.73,-0.5780725912211679,8.955963704389417,0.2877777777777778,-0.3944444444444444,-0.6288888888888889,-0.003272492347489368,-0.008726646259971648,0.0006505392325684237
1589986431.2365222,-3.7228728495666794,-0.6006907256499806,8.953563575216661,0.29213325859814027,-0.38929705802037967,-0.632056511303698,-0.00016268631382983017,-0.009892823522593974,0.00038872575420744224
1589986431.2465222,-3.6833809213228013,-0.6040285527936807,8.906761842645603,0.3,-0.38,-0.6377777777777778,0.0037119392871152682,-0.009676185773638334,0.001090830782496456
1589986431.2565222,-3.681245972578256,-0.5953114931445639,8.83344253427718,0.3,-0.38,-0.6377777777777778,0.002761055587303828,-0.0018418752543660315,0.0016702248048073719
1589986431.2665222,-3.710390217416964,-0.5844146738745544,8.830780434833928,0.3,-0.38,-0.6377777777777778,0.004405889247014852,0.007239381495828561,0.002181661564992912
1589986431.2765222,-3.707041416566627,-0.5656804721888755,8.862958583433374,0.3,-0.38,-0.6377777777777778,0.0016846547907030099,0.012321869995631785,0.0012392867845480945
1589986431.2865222,-3.701978344934261,-0.5689837587006961,8.909945862335654,0.3,-0.38632190427086016,-0.6287940190770818,-0.004579127085254651,0.018427363070191095,0.0006533173688826415
1589986431.2965221,-3.7337139126650225,-0.5937139126650225,8.983713912665023,0.3,-0.4011111111111111,-0.6077777777777778,-0.00966144060673018,0.02836160034490785,0.0005611614615889211
1589986431.3065221,-3.745609089044374,-0.6224363561774962,8.950736376689381,0.3,-0.4011111111111111,-0.6077777777777778,-0.01431368278823084,0.024078603450951065,-0.00034609146758286043
1589986431.3165221,-3.7451400527206875,-0.6254201581620625,8.934579841837937,0.3,-0.4011111111111111,-0.6077777777777778,-0.012090802898800006,0.014894266764490302,0.0016209687918548523
1589986431.326522,-3.72199310165039,-0.595594481320312,8.942797240660155,0.3,-0.4011111111111111,-0.6077777777777778,-0.008333796679630865,0.009512345420653216,0.002181661564992912
1589986431.336522,-3.6851167883211677,-0.57,8.932441605839415,0.30162773722627734,-0.3994833738848337,-0.615102595296026,-0.011098207928340768,0.015968727560845018,0.0029806752075003523
1589986431.346522,-3.6800267305742467,-0.5900534611484929,8.953368974098995,0.30666666666666664,-0.3944444444444444,-0.6377777777777778,-0.024004108921566403,0.03673824365955089,0.0050895717005427325
1589986431.356522,-3.727100654992648,-0.636775163748162,8.94612418125919,0.30666666666666664,-0.3944444444444444,-0.6377777777777778,-0.0242967938997858,0.04099327790898826,0.002885211695395987
1589986431.366522,-3.7732853852967225,-0.6441247121346324,8.875803365810452,0.30666666666666664,-0.3944444444444444,-0.6377777777777778,-0.014806003700122488,0.027438191314396333,0.0002746690654101794
1589986431.376522,-3.7127512682308184,-0.5895634511731135,8.861878170577045,0.30666666666666664,-0.3944444444444444,-0.6377777777777778,0.0007907139747883711,0.00545415391248228,0.003967966142591638
1589986431.386522,-3.742467227548425,-0.6001310898063001,8.9398689101937,0.30858562142655277,-0.396089262810061,-0.6320209134981195,-0.0016433960135438684,0.0043776228095841925,0.007068950566829411
1589986431.396522,-3.727193173565723,-0.5791227305737109,8.951754538852578,0.3144444444444445,-0.4011111111111111,-0.6144444444444445,-0.0004975677665112738,-0.001397008050059913,0.018965087338618847
1589986431.406522,-3.6954648969612296,-0.6081404121550821,8.907324484806148,0.3144444444444445,-0.4011111111111111,-0.6144444444444445,-0.002080236781793277,-0.0033739171306890036,0.03320720555819232
1589986431.416522,-3.681287082016696,-0.6082177050417393,8.884356458991652,0.3144444444444445,-0.4011111111111111,-0.6144444444444445,-0.005173356175800411,-0.00028079773668186867,0.04463768256606872
1589986431.426522,-3.6806032300476854,-0.5587935399046292,8.914740870111267,0.3144444444444445,-0.4011111111111111,-0.6144444444444445,-0.008792448450465852,0.002181661564992912,0.060587912751752904
1589986431.436522,-3.688290047516761,-0.5180483412527935,8.96,0.3144444444444445,-0.39590668778522714,-0.6131433386129734,-0.011546986656478951,0.0004785180142878637,0.09027529431414784
1589986431.446522,-3.584902365120781,-0.5365284908677721,8.970203265718375,0.3144444444444445,-0.3744444444444445,-0.6077777777777778,-0.011064390000727875,-0.003205973796700824,0.14797343129327944
1589986431.456522,-3.2842451534827433,-0.5810435430193861,8.854569340687473,0.3144444444444445,-0.3744444444444445,-0.6077777777777778,0.0022601311116124878,0.003970975396887947,0.24740640759736957
1589986431.466522,-3.21,-0.53,8.72,0.3144444444444445,-0.3744444444444445,-0.6077777777777778,0.003272492347489368,-0.001090830782496456,0.2868884957965679
1589986431.476522,-2.0983872893041635,-0.5217658317726235,9.098771738459321,0.3144444444444445,-0.3744444444444445,-0.6077777777777778,-0.00391317498905194,0.0025020028857741985,0.35605054391077795
1589986431.486522,-1.4932526507443504,-0.8263842776052265,8.91891078504873,0.3095713588709198,-0.3785678245451192,-0.6130257160877274,0.04365963461536046,0.02188262393868466,0.4280528874985333
1589986431.496522,-1.48,-0.78,8.74,0.3,-0.38666666666666666,-0.6233333333333333,0.04799655442984406,0.03272492347489368,0.4417864669110647
1589986431.506522,-1.614311199207136,-0.6552824578790882,8.59609514370664,0.3,-0.38666666666666666,-0.6233333333333333,-0.0074682448419083405,-0.020646864503585056,0.43864694997115417
1589986431.516522,-1.8020040355661988,-0.65,8.935807667575778,0.3,-0.38666666666666666,-0.6233333333333333,-0.032649071563899894,-0.04772439699919925,0.4295798723595368
1589986431.526522,-1.8680647665520684,-0.6359676167239658,8.941773317067762,0.3,-0.38666666666666666,-0.6233333333333333,-0.006958355969658828,-0.02375185131895383,0.4278079367916588
1589986431.536522,-1.8946450355677371,-0.6226774822161314,8.84874237551292,0.3,-0.38666666666666666,-0.6233333333333333,0.002464881116372877,-0.012154021059222505,0.42128415727055984
1589986431.546522,-1.988103228068418,-0.651896771931582,8.94241291227367,0.2877777777777778,-0.4066666666666667,-0.6088888888888889,-0.0070150983143717266,-0.02093269058846715,0.396817499918613
1589986431.556522,-1.9676207448731855,-0.6575241489746372,8.895144893847823,0.2877777777777778,-0.4066666666666667,-0.6088888888888889,-0.003823176227717575,-0.021546542198794993,0.3753090110465406
1589986431.566522,-1.9448485129465216,-0.6470302974106957,8.861878810357217,0.2877777777777778,-0.4066666666666667,-0.6088888888888889,-0.0034774387647019543,-0.02072578486743266,0.34459672889631776
1589986431.5765219,-1.984903844124042,-0.6154807793797893,8.902259610310105,0.2877777777777778,-0.4066666666666667,-0.6088888888888889,-0.006544984694978735,-0.02152817448589309,0.30809152344897955
1589986431.5865219,-2.0094118899841793,-0.5381176220031642,8.943764755993671,0.28631370600246103,-0.40562090111286897,-0.6099346544426866,-0.007571662626600004,-0.023176934869625014,0.26674008658701187
1589986431.5965219,-2.05,-0.5036414102785522,8.9675310256347,0.28,-0.4011111111111111,-0.6144444444444445,-0.010766877419546019,-0.017581185438411213,0.20717662375262286
1589986431.6065218,-2.05790368070533,-0.45604815964733486,8.900963192946698,0.28,-0.4011111111111111,-0.6144444444444445,-0.007433409528712014,-0.01116324779951478,0.15125466403675955
1589986431.6165218,-2.0628915819086777,-0.45710841809132224,8.819096299502272,0.28,-0.4011111111111111,-0.6144444444444445,-0.00506644984903883,-0.004994168441204938,0.09507974758212151
1589986431.6265218,-2.05,-0.47,8.902692893984005,0.28,-0.4011111111111111,-0.6144444444444445,-0.0038094911509171684,-0.001350913596389929,0.042860568037458475
1589986431.6365218,-2.0519861852834893,-0.4600690735825525,8.94,0.28286893429837373,-0.40221454737971635,-0.6173133787428182,-0.002398320769690091,0.001307489987193635,-0.012790427836144128
1589986431.6465218,-2.094310391545861,-0.43143679718195366,8.94,0.29444444444444445,-0.4066666666666667,-0.6288888888888889,-0.002856638666847909,0.0038450762875587487,-0.08162008443066096
1589986431.6565218,-2.141615247102243,-0.44580762355112163,8.921134305980047,0.29444444444444445,-0.4066666666666667,-0.6288888888888889,0.00010492507613194674,0.006773643359091221,-0.12906646158919502
1589986431.6665218,-2.1174280606654747,-0.4337140303327374,8.866713136497317,0.29444444444444445,-0.4066666666666667,-0.6288888888888889,0.006700956952933868,0.007433246546771414,-0.1646850337239254
1589986431.6765218,-2.1543584506528557,-0.42435845065285577,8.92697352104457,0.29444444444444445,-0.4066666666666667,-0.6288888888888889,0.00901190618813926,0.013945749174460308,-0.2360104580253755
1589986431.6865218,-2.1957966954251695,-0.47700550762471744,8.991593390850339,0.2961569018638198,-0.4066666666666667,-0.6301343124666164,0.012151975074742123,0.02351879230155001,-0.293592324845408
1589986431.6965218,-2.174511003368224,-0.5087224915794403,8.94,0.30666666666666664,-0.4066666666666667,-0.6377777777777778,0.012105821123156705,0.0272707695624114,-0.3537318882564003
1589986431.7065217,-2.18718126482094,-0.477046837947649,8.94,0.30666666666666664,-0.4066666666666667,-0.6377777777777778,0.009341598880176424,0.0272707695624114,-0.3882846662936538
1589986431.7165217,-2.277660293549633,-0.48459617612977984,8.866935882580146,0.30666666666666664,-0.4066666666666667,-0.6377777777777778,0.010485963763020007,0.03313818781363901,-0.4530807999051768
1589986431.7265217,-2.3181614522981846,-0.5088968713789108,8.850735419080726,0.30666666666666664,-0.4066666666666667,-0.6377777777777778,0.014020356618195659,0.04109057173778423,-0.4954935141672847
1589986431.7365217,-2.3306262397279682,-0.4893737602720317,8.935009917823745,0.3062491735146878,-0.4066666666666667,-0.6381952709297566,0.010976619982213559,0.03933822032712142,-0.5543534651804092
1589986431.7465217,-2.339115694450067,-0.48088430554993317,9.002925555600534,0.3005895370332888,-0.4066666666666667,-0.6438549074111557,0.011902675835961055,0.04026427618086891,-0.6015823137215316
1589986431.7565217,-2.354655631891641,-0.5423278159458205,8.939081685044377,0.3,-0.4066666666666667,-0.6444444444444445,0.020471859538463966,0.048554491398862566,-0.6730891853378312
1589986431.7665217,-2.307384125540141,-0.530463497839436,8.84877461905845,0.3,-0.4066666666666667,-0.6444444444444445,0.022622098794029526,0.04903682544125278,-0.7284761968165849
1589986431.7765217,-2.30953372776302,-0.5619067455526041,8.931906745552604,0.3,-0.4066666666666667,-0.6444444444444445,0.02348056504446408,0.04768683593370299,-0.7789685356162991
1589986431.7865217,-2.352345985252642,-0.5717594889394814,8.938827007373678,0.30039099754210696,-0.4063408353815775,-0.6444444444444445,0.03073519237956561,0.05601623084664893,-0.8288937666876763
1589986431.7965217,-2.3798999929072986,-0.6168333451545027,8.906533323876397,0.30666666666666664,-0.4011111111111111,-0.6444444444444445,0.03234676777203661,0.06181010798095961,-0.8990409282444161
1589986431.8065217,-2.321170181267888,-0.6431476790472744,8.845738395236372,0.30666666666666664,-0.4011111111111111,-0.6444444444444445,0.02571506981401505,0.05859494961087536,-0.9500740291497975
1589986431.8165216,-2.2038837714248114,-0.6224500773102609,8.742250386551305,0.30666666666666664,-0.4011111111111111,-0.6444444444444445,0.014426279264721816,0.051069089244679865,-0.986198158907536
1589986431.8265216,-2.1017432582567417,-0.7083486516513483,8.913577993564864,0.30666666666666664,-0.4011111111111111,-0.6444444444444445,0.008346373523655016,0.04141156090676563,-1.0438550197912626
1589986431.8365216,-2.3135551964448036,-0.7507110392889607,8.931733302552411,0.30666666666666664,-0.4011111111111111,-0.6444444444444445,0.034092054405812734,0.07441884408901911,-1.0656398266915499
1589986431.8465216,-2.4193089116172937,-0.6955287070616519,8.688659386333075,0.3387306955706776,-0.38766490544168714,-0.6578906501138684,0.06003111914600683,0.11178790832081115,-1.1202387198537092
1589986431.8565216,-2.3381172688802083,-0.7718827311197917,8.850142008463543,0.3411111111111111,-0.38666666666666666,-0.6588888888888889,0.03518366475830025,0.07771831991549172,-1.1735750200211452
1589986431.8665216,-2.45,-0.893407529208135,8.883518823020339,0.3411111111111111,-0.38666666666666666,-0.6588888888888889,0.030147277591401445,0.07328895061480283,-1.2479695683190275
1589986431.8765216,-2.45,-0.8498492427520554,8.774623106880139,0.3411111111111111,-0.38666666666666666,-0.6588888888888889,0.04915316547103748,0.09625439846936304,-1.2843975200883302
1589986431.8865216,-2.5,-0.9302772390188249,8.853604107244722,0.3423432845281105,-0.3861429929644419,-0.658704062876339,0.044572851654433046,0.09466034139251704,-1.3519908550954134
1589986431.8965216,-2.5,-0.938252709640616,8.95728522532801,0.3777898206249603,-0.3710782151232807,-0.6533870824618115,0.04022290722486005,0.08770043030520024,-1.3963602882770578
1589986431.9065216,-2.5213942102659455,-1.0111536821275653,8.873269476808652,0.3855555555555555,-0.36777777777777776,-0.6522222222222223,0.048148639177380666,0.09908727890990068,-1.4621641622369563
1589986431.9165215,-2.528549154739769,-1.0683932379181522,8.787410143122772,0.3855555555555555,-0.36777777777777776,-0.6522222222222223,0.04892912254529062,0.10377017911736035,-1.4980663971608137
1589986431.9265215,-2.5236159259616313,-1.0898875927889715,8.852655740865709,0.3855555555555555,-0.36777777777777776,-0.6522222222222223,0.04025599900641626,0.09846446681334596,-1.5633086825863445
1589986431.9365215,-2.5397898390051092,-1.1788441145281017,8.909264436517883,0.3855555555555555,-0.36777777777777776,-0.6522222222222223,0.044666749561728,0.10463951759078241,-1.60300543758415
1589986431.9465215,-2.522632760236212,-1.232632760236212,8.870531040944847,0.4066666666666667,-0.3333333333333333,-0.6877777777777778,0.04966176439405903,0.11264276018799421,-1.6581256136032407
1589986431.9565215,-2.536596811081734,-1.249235535514428,8.885487015620186,0.4066666666666667,-0.3333333333333333,-0.6877777777777778,0.0517008070529896,0.11459776211471452,-1.6982110276949602
1589986431.9665215,-2.570613290944186,-1.2968586073218602,8.81065075992279,0.4066666666666667,-0.3333333333333333,-0.6877777777777778,0.05392718045375758,0.1205347578500958,-1.7308645042395572
1589986431.9765215,-2.5843026398155637,-1.3988005557506449,8.88760111150129,0.4066666666666667,-0.3333333333333333,-0.6877777777777778,0.05576320897822772,0.1253801204516382,-1.788252761276915
1589986431.9865215,-2.4626303494816555,-1.3731853367329803,8.83637067346596,0.4066666666666667,-0.3333333333333333,-0.6877777777777778,0.05855739591871348,0.12398302698139534,-1.8196873643573799
1589986431.9965215,-2.375796170769414,-1.4084076584611724,8.92295120307607,0.43266337213655565,-0.30195799914553634,-0.7173602357262722,0.052075008443601765,0.12062365022419842,-1.8772317820419862
1589986432.0065215,-2.5631813159599193,-1.5138598696993941,8.916596182420848,0.4388888888888889,-0.29444444444444445,-0.7244444444444444,0.05890486225480863,0.14748541707503623,-1.9402397290773667
1589986432.0165215,-2.579161427972721,-1.6337107097954051,8.748805006286434,0.4388888888888889,-0.29444444444444445,-0.7244444444444444,0.05890486225480863,0.1431275175522099,-1.9768460850691076
1589986432.0265214,-2.5482267348896706,-1.663829948832747,8.811489846498242,0.4388888888888889,-0.29444444444444445,-0.7244444444444444,0.05197301112625503,0.13683346276955133,-2.0168922206556155
1589986432.0365214,-2.525415521579253,-1.710436616992452,8.850654925488678,0.43934976238092166,-0.2932801324645722,-0.7247597789389932,0.057909286523417716,0.14633802119395983,-2.066843169982685
1589986432.0465214,-2.3549485194503577,-1.7266715695761563,8.875007354364236,0.45648665677483174,-0.2499869255746941,-0.7364850224716686,0.06145120372955272,0.15253637630469608,-2.096949466234832
1589986432.0565214,-2.47360167658597,-1.87,8.825923688489134,0.46,-0.2411111111111111,-0.7388888888888889,0.05879115981140704,0.1587288225128975,-2.145209339396923
1589986432.0665214,-2.442320072791277,-1.87,8.757104160140809,0.46,-0.2411111111111111,-0.7388888888888889,0.06356837089972228,0.1614586574205062,-2.164318183750184
1589986432.0765214,-2.390970217992017,-1.9187872275099784,8.720242554498006,0.46,-0.2411111111111111,-0.7388888888888889,0.06012798599373311,0.16466253097439362,-2.2080327424516133
1589986432.0865214,-2.37364536115125,-1.9935958748193747,8.859014430214375,0.46,-0.2411111111111111,-0.7388888888888889,0.05821167868802219,0.16739146968088917,-2.2330165282706425
1589986432.0965214,-2.253299792838118,-1.997591003255401,8.760627404557562,0.5044444444444445,-0.17555555555555555,-0.7833333333333333,0.06336535616476822,0.17377331441777738,-2.263844801341907
1589986432.1065214,-2.1610876883430454,-2.051964571773501,8.79824623313909,0.5044444444444445,-0.17555555555555555,-0.7833333333333333,0.05745808629440518,0.17550510758929375,-2.286809923185564
1589986432.1165214,-2.1770354245002967,-2.157675008545778,8.630872928773185,0.5044444444444445,-0.17555555555555555,-0.7833333333333333,0.05461130692130328,0.17502129977479636,-2.309593291692111
1589986432.1265213,-2.260041559469622,-2.248227155785042,8.759155137362143,0.5044444444444445,-0.17555555555555555,-0.7833333333333333,0.055434449168217784,0.18078329550319788,-2.3260561366304007
1589986432.1365213,-2.136419406150583,-2.227770413573701,8.78155408271474,0.5044444444444445,-0.17555555555555555,-0.7833333333333333,0.04918322331449304,0.17940482070855404,-2.347519377878672
1589986432.1465213,-1.976979764050467,-2.1682699082418484,8.75043994756677,0.54550007282393,-0.18623001893422178,-0.8465590010377411,0.05202718132064106,0.1821207498420564,-2.3588015900614567
1589986432.1565213,-1.857487663752724,-2.21,9.049802620043584,0.56,-0.19,-0.8688888888888889,0.03524083178893549,0.18341862077896756,-2.3695585129537533
1589986432.1665213,-1.8060642275826675,-2.2139357724173325,8.322470122442994,0.56,-0.19,-0.8688888888888889,0.05777676135392787,0.16806024133496797,-2.3754899342932867
1589986432.1765213,-1.7625077858519946,-2.2553515815342897,8.656390754433168,0.56,-0.19,-0.8688888888888889,0.01628575854541477,0.18824671178207547,-2.3830749493569767
1589986432.1865213,-1.700305502002076,-2.299781784284231,8.958516133132774,0.56,-0.19,-0.8688888888888889,0.006592591978975741,0.18436944515549986,-2.38889084929684
1589986432.1965213,-1.7223200761494848,-2.4783996192525763,9.08619790588917,0.5577777777777778,-0.19666666666666666,-0.8988888888888888,0.01840467140130448,0.15882072736096714,-2.3817721990074996
1589986432.2065213,-1.739678433969292,-2.3916078301535406,8.608843065844473,0.5577777777777778,-0.19666666666666666,-0.8988888888888888,0.05816823659251526,0.1881700254782894,-2.3609436648597226
1589986432.2165213,-1.664784199471509,-2.502326264200375,8.211894663143392,0.5577777777777778,-0.19666666666666666,-0.8988888888888888,0.04513342234348261,0.15983024982166646,-2.3502655414464213
1589986432.2265213,-1.7023261924820476,-2.6370670357443737,8.404652384964097,0.5577777777777778,-0.19666666666666666,-0.8988888888888888,0.022577860359557916,0.15883792831977195,-2.3388073862052585
1589986432.2365212,-1.8116973562803387,-2.7885040317727765,8.623394712560678,0.5577777777777778,-0.19666666666666666,-0.8988888888888888,0.05836949001614927,0.17443940791367074,-2.3103576292987373
1589986432.2465212,-1.7833873890532546,-2.860601146449704,9.033167899408285,0.4155555555555556,-0.25,-0.8033333333333333,0.02858226766666287,0.14695822371707598,-2.286595734521187
1589986432.2565212,-1.6980743343195266,-2.8683568786982248,8.816007396449704,0.4155555555555556,-0.25,-0.8033333333333333,0.04550265062163655,0.15711045349006017,-2.2612151600887267
1589986432.2665212,-1.646233853606028,-2.8178479163463015,8.657847916346302,0.4155555555555556,-0.25,-0.8033333333333333,0.03997417589866088,0.1501825141201167,-2.2249528318296043
1589986432.2765212,-1.5897981700753498,-2.7855989543287714,8.62559895432877,0.4155555555555556,-0.25,-0.8033333333333333,0.05052762404034522,0.14490579004927448,-2.187136309321902
1589986432.2865212,-1.6140715619777843,-2.9418399193944755,8.875536714833382,0.4155555555555556,-0.25,-0.8033333333333333,0.042139142691226567,0.14120219014354946,-2.1424752678819847
1589986432.2965212,-1.635985399835303,-3.0659123990118182,8.792116801317576,0.46528791059872054,-0.12833334569797145,-0.6754501346509092,0.04820755374725691,0.14769211742638774,-2.1027156763274224
1589986432.3065212,-1.6730717598242617,-3.178280449109104,8.8987979009031,0.4777777777777778,-0.09777777777777777,-0.6433333333333333,0.03869627016135675,0.12563311389147824,-2.052431798032028
1589986432.3165212,-1.562165608982182,-3.1014992677568953,8.49782950939712,0.4777777777777778,-0.09777777777777777,-0.6433333333333333,0.05637793956772581,0.1340086415050215,-2.0133460025021592
1589986432.3265212,-1.5458826887398316,-3.132941344369916,8.746470672184959,0.4777777777777778,-0.09777777777777777,-0.6433333333333333,0.04369737034401244,0.1241622142334875,-1.9692704911428116
1589986432.3365211,-1.4261652633081203,-3.0730826316540605,8.716541315827032,0.4777777777777778,-0.09777777777777777,-0.6433333333333333,0.053491729308672534,0.12252982107271085,-1.9349902347665011
1589986432.3465211,-1.37,-3.0810662576687116,8.92168319018405,0.5022222222222222,0.01,-0.6133333333333333,0.03971188871097178,0.12521291864967174,-1.8783848558217742
1589986432.3565211,-1.3681671925692191,-3.134123816719257,8.538167192569219,0.5022222222222222,0.01,-0.6133333333333333,0.05944589027723698,0.11428732181664238,-1.8246924392958062
1589986432.3665211,-1.3308861828363185,-3.2180060886182837,8.500886182836318,0.5022222222222222,0.01,-0.6133333333333333,0.048262390196957494,0.10920391268924261,-1.7748750298472882
1589986432.376521,-1.3627876203631415,-3.2773783356354973,8.762300962905131,0.5022222222222222,0.01,-0.6133333333333333,0.04710241079042101,0.1028240727736842,-1.7236188085315463
1589986432.386521,-1.343608128465656,-3.2952783743068688,8.735546011090099,0.5022222222222222,0.01,-0.6133333333333333,0.04575416101225343,0.09971991881952913,-1.6832394813245342
1589986432.396521,-1.2310773211339432,-3.182996475176241,8.706801409929504,0.5115825042081229,0.04068092428711898,-0.6065731296768495,0.045745110454661446,0.09460110112160738,-1.627872080001374
1589986432.406521,-1.1479996109033526,-3.121998443613411,8.765999870301117,0.5222222222222223,0.07555555555555556,-0.5988888888888889,0.050832629576614795,0.08922998630411677,-1.554871060395602
1589986432.416521,-1.1433032947462154,-3.1866967052537842,8.786696705253783,0.5222222222222223,0.07555555555555556,-0.5988888888888889,0.054361372345181264,0.08471463737079324,-1.46997143009482
1589986432.426521,-1.0816607589658047,-3.131660758965805,8.673321517931608,0.5222222222222223,0.07555555555555556,-0.5988888888888889,0.06161245467455396,0.08611524491714645,-1.4138939882344552
1589986432.436521,-1.0830868000487983,-3.1794083201171164,8.669556240087836,0.5222222222222223,0.07555555555555556,-0.5988888888888889,0.05173484895452425,0.08004804260220957,-1.3442423709161913
1589986432.446521,-1.0301182866059295,-3.181176825892183,8.707764634821563,0.5498298126988921,0.13767263412806274,-0.6204573189487872,0.05658192583184202,0.08228708664949558,-1.2642477296592332
1589986432.456521,-1.0187382053654024,-3.1874764107308047,8.797382053654024,0.5577777777777778,0.15555555555555556,-0.6266666666666667,0.0437914572634988,0.07350887651623479,-1.1916721851374414
1589986432.466521,-0.8349915599030471,-2.9728161790166205,8.657166940789473,0.5577777777777778,0.15555555555555556,-0.6266666666666667,0.04759370151902122,0.06848504205381988,-1.1265173181557786
1589986432.476521,-0.9557484887993362,-3.1832475998577694,8.756498755481806,0.5577777777777778,0.15555555555555556,-0.6266666666666667,0.03526123110322519,0.05486890472175074,-1.0498979294973232
1589986432.486521,-0.944047896289396,-3.19,8.712143688868187,0.5577777777777778,0.15555555555555556,-0.6266666666666667,0.03838679419450714,0.05802174827944335,-0.9865146694845796
1589986432.496521,-0.9867747202184819,-3.3022593285243564,8.915163713005017,0.5276340691925339,0.1971330846386506,-0.6266666666666667,0.026003848959057763,0.04972066741655233,-0.9034886342746329
1589986432.506521,-0.911672123882912,-3.31,8.792926216795095,0.5255555555555556,0.2,-0.6266666666666667,0.036837446026880674,0.05442753886209606,-0.8230143829505512
1589986432.516521,-0.8821043580576549,-3.32859709462823,8.71561162148708,0.5255555555555556,0.2,-0.6266666666666667,0.022887848305048506,0.04439839748208637,-0.7453220168993081
1589986432.526521,-0.8647701386029916,-3.284310415808975,8.687155207904487,0.5255555555555556,0.2,-0.6266666666666667,0.019324635406177435,0.035326630487352635,-0.675622444276304
1589986432.536521,-0.8414418597404216,-3.316395350648946,8.707837210389368,0.5255555555555556,0.2,-0.6266666666666667,0.02208678666812085,0.03576149207404891,-0.6095346765265157
1589986432.546521,-0.8086524929444967,-3.341631232361242,8.717304985888994,0.5432072331974496,0.20977146440890565,-0.6266666666666667,0.025251573029859538,0.03586590041966927,-0.528163271321512
1589986432.556521,-0.794230307297275,-3.3079474861260665,8.726408100720617,0.5877777777777777,0.2344444444444445,-0.6266666666666667,0.01876801783395853,0.021579055239519213,-0.40997209755845243
1589986432.566521,-0.8041699235942397,-3.361660152811521,8.677568395479033,0.5877777777777777,0.2344444444444445,-0.6266666666666667,0.012272912130141016,0.013999705593408443,-0.30882337023947287
1589986432.576521,-0.7894070033433046,-3.3223315150448705,8.653557979940173,0.5877777777777777,0.2344444444444445,-0.6266666666666667,0.010330549483364291,0.008467902657155316,-0.23566647586099265
1589986432.586521,-0.8096295574945466,-3.2740740885010906,8.757407291991274,0.5877777777777777,0.2344444444444445,-0.6266666666666667,0.006585393703788106,0.0017776564590418248,-0.15849377802353237
1589986432.596521,-0.8683290144176421,-3.20976869162942,8.751670985582358,0.6492258802568547,0.2831162087843074,-0.6552613282163361,0.003168738307428269,-0.005375631701508997,-0.0940750724804127
1589986432.606521,-0.8691664408223315,-3.1476665763289327,8.763166982848736,0.7,0.3233333333333333,-0.6788888888888889,0.00016360983589729615,-0.012508212681262256,-0.032488335374558974
1589986432.616521,-0.7877492835980378,-3.0699679440477925,8.439839720238963,0.7,0.3233333333333333,-0.6788888888888889,-0.007881330550868199,-0.009087925346175122,0.021104547763351227
1589986432.6265209,-0.7785332674400458,-3.118266139520366,8.741063569682153,0.7,0.3233333333333333,-0.6788888888888889,0.01624590519438656,-0.022529176755677855,0.07336167558473344
1589986432.6365209,-0.7872367739106167,-3.1082896782681497,8.78828967826815,0.7,0.3233333333333333,-0.6788888888888889,-0.008482369398938976,-0.013247964375916474,0.1304542811150462
1589986432.6465209,-0.7992132287804719,-3.044720627317169,8.82606614390236,1.2507463426548697,0.6836729478584527,-1.3698810474242737,-0.005564851101046915,-0.022796749243860936,0.2077342438495558
1589986432.6565208,-0.8448997433975974,-3.273478665667507,8.767140359243363,1.2977777777777777,0.7144444444444444,-1.4288888888888889,-0.01317936713035826,-0.028896079437351167,0.2812812337008168
1589986432.6665208,-0.8092684836752007,-3.202244360820482,8.670390664085442,1.2977777777777777,0.7144444444444444,-1.4288888888888889,-0.015958047845447847,-0.026786559617913427,0.3672690549732933
1589986432.6765208,-0.8464447797343709,-3.239714716801334,8.636730062933038,1.2977777777777777,0.7144444444444444,-1.4288888888888889,-0.01419117336228172,-0.03052251553024518,0.44079300118382025
1589986432.6865208,-0.8335820968016125,-3.2335820968016127,8.654278602132258,1.2977777777777777,0.7144444444444444,-1.4288888888888889,-0.01971093103042033,-0.03802169278726397,0.512755583300531
1589986432.6965208,-0.8471228279667298,-3.300155439347772,8.765458700485876,1.0072769176571779,0.16526229103187018,-1.1619580782709746,-0.0141638443699178,-0.04376555393368985,0.571133862702961
1589986432.7065208,-0.8551429313929314,-3.3551429313929315,8.790343035343035,0.75,-0.3211111111111111,-0.9255555555555556,-0.008707936584388287,-0.046899487088819816,0.6248901244072746
1589986432.7165208,-0.8374910477453581,-3.262580570291777,8.707526856763925,0.75,-0.3211111111111111,-0.9255555555555556,-0.010364845512703561,-0.05126514061935897,0.6850026698280298
1589986432.7265208,-0.8177310638573534,-3.245567234035662,8.677731063857353,0.75,-0.3211111111111111,-0.9255555555555556,-0.011032059094360445,-0.05478904166361456,0.7184198071927471
1589986432.7365208,-0.8049475435439515,-3.25,8.674842630631854,0.75,-0.3211111111111111,-0.9255555555555556,-0.012538831887009392,-0.0567232006898157,0.7514221900124622
1589986432.7465208,-0.8263729316029887,-3.3236781922134493,8.771864658014943,0.6117396886858726,0.054556708446353575,-0.7463629152339561,-0.02023400850685715,-0.06208123002749047,0.7793561085495829
1589986432.7565207,-0.8447279580465421,-3.369455916093084,8.797363979023272,0.5811111111111111,0.13777777777777778,-0.7066666666666667,-0.02181661564992912,-0.059251757884673316,0.7877486695501286
1589986432.7665207,-0.828186660664716,-3.3418266561632533,8.680026633655938,0.5811111111111111,0.13777777777777778,-0.7066666666666667,-0.019437149448332264,-0.06138323077470744,0.7861922872250389
1589986432.7765207,-0.8505219182785854,-3.337014612185724,8.681304795696464,0.5811111111111111,0.13777777777777778,-0.7066666666666667,-0.01819000178367807,-0.05699192352994311,0.774375990667638
1589986432.7865207,-0.8565302258122998,-3.3230604516246,8.75020466128155,0.5811111111111111,0.13777777777777778,-0.7066666666666667,-0.020748109950022683,-0.06079733050093611,0.7480866659666685
1589986432.7965207,-0.864061910876752,-3.331092866315128,8.83030955438376,0.5670492002343591,0.18543203130454844,-0.7183849257306267,-0.013380074765133573,-0.05745639180700363,0.7120919863132176
1589986432.8065207,-0.8477428423069348,-3.2454070798044725,8.743149922111407,0.5611111111111111,0.20555555555555555,-0.7233333333333334,-0.014673235590962775,-0.05696941839907014,0.6704487323985676
1589986432.8165207,-0.8835391331462426,-3.2770782662924853,8.691641548002634,0.5611111111111111,0.20555555555555555,-0.7233333333333334,-0.015948472880035404,-0.05241573619879776,0.6120283677466455
1589986432.8265207,-0.8185133463336898,-3.1977700195005347,8.599484598771257,0.5611111111111111,0.20555555555555555,-0.7233333333333334,-0.010029371453762627,-0.05076417357563826,0.550993859293416
1589986432.8365207,-0.7840610806962414,-3.28444283504775,8.632259592959025,0.5611111111111111,0.20555555555555555,-0.7233333333333334,-0.0069796512903854075,-0.03792426544385464,0.5008378694659206
1589986432.8465207,-0.719982763986307,-3.246120699973667,8.890810332032652,0.5665823751120473,0.16110153554794832,-0.7493218373377807,-0.0038592842588550313,-0.03440442632618619,0.44656167508479444
1589986432.8565207,-0.6855461452983752,-3.0722692735081236,8.87785776496381,0.57,0.13333333333333333,-0.7655555555555555,0.022407748503920955,-0.02800414908299781,0.3827855504815772
1589986432.8665206,-3.9209112121717187,-2.4909619276649444,11.306344436772305,0.57,0.13333333333333333,-0.7655555555555555,0.033936371847187834,-0.01612122655785144,0.3116944485476525
1589986432.8765206,-0.05372251631170766,-2.327562476917395,4.685033608272806,0.57,0.13333333333333333,-0.7655555555555555,0.1460077606672691,0.39226433399772037,-0.7306499264097154
1589986432.8865206,3.251438600787771,-10.802581277168922,1.9779707749137738,0.57,0.13333333333333333,-0.7655555555555555,0.13711461763042576,0.12836388355424033,-2.478608727666385
1589986432.8965206,6.964803321807489,-6.547981499541922,-0.3084324851493925,0.4793883421501118,0.13899656194895135,-0.6117045114979329,-1.8018089927417917,0.6854463804009443,-8.969256574838232
1589986432.9065206,3.0101321406790005,-9.674885139255945,-0.6949136003252694,0.4633333333333333,0.14,-0.5844444444444444,-2.443387772438692,0.5233794562968374,-17.50819375159286
1589986432.9165206,0.36967091681845776,-11.226760170006072,0.29167334547662405,0.4633333333333333,0.14,-0.5844444444444444,-2.3079795046804925,1.1636592022546703,-19.759619949150892
1589986432.9265206,-8.560465057908136,-17.580315895155795,0.8362945964358708,0.4633333333333333,0.14,-0.5844444444444444,-1.9867091120534783,2.40086187710514,-19.01420554201431
1589986432.9365206,-8.609851640418858,-12.924514014504059,-0.09494465557012227,0.4633333333333333,0.14,-0.5844444444444444,-2.130626889614722,3.1967508499874837,-14.348964991226785
1589986432.9465206,-0.1319489206445728,-0.9291760413499544,2.4165186986926117,0.4121627647714604,0.2693219823654607,-0.5872355663660012,-1.7206679858057954,2.441094888090836,-7.783672963381164
1589986432.9565206,-0.6629660858859082,-1.2926564190575682,5.259589225086744,0.3411111111111111,0.4488888888888889,-0.5911111111111111,-0.6038372282766792,0.8854294380339619,-5.116822479994507
1589986432.9665205,-0.5106146090314276,-0.7237541563874289,5.8004151024348385,0.3411111111111111,0.4488888888888889,-0.5911111111111111,0.6081060435704456,0.8024642887974429,-4.5910488861228185
1589986432.9765205,-0.5022382380917538,-0.6943531865076461,6.728952952367015,0.3411111111111111,0.4488888888888889,-0.5911111111111111,2.062048222380751,0.7332981632816667,-4.106617451830937
1589986432.9865205,-0.3779652476638368,-0.8728574482379527,7.4952397239357476,0.3411111111111111,0.4488888888888889,-0.5911111111111111,3.346287519622744,0.5826262588788929,-3.623002734199605
1589986432.9965205,4.397260628688426,5.48372756834879,15.401170059014813,0.1636535656456167,0.5632300908640785,-0.5398862526262261,4.796667975011556,0.35457058480650183,-3.035710663793829
1589986433.0065205,4.28352760378166,5.875009921020892,13.605802046453721,0.12555555555555556,0.5877777777777777,-0.5288888888888889,4.632006639109253,0.28665808999498155,-2.8614688534542774
1589986433.0165205,-0.21913372563603356,1.2869614770415416,-0.937323518473957,0.12555555555555556,0.5877777777777777,-0.5288888888888889,2.2197509906127415,0.12739673661437942,-2.211225434436643
1589986433.0265205,-0.2311861060329068,1.400436197440585,-0.7351568555758684,0.12555555555555556,0.5877777777777777,-0.5288888888888889,0.38637250246498656,0.053287103667013724,-1.6643581393595133
1589986433.0365205,2.4602081310423443,1.0298091780301433,11.12895892261578,0.12555555555555556,0.5877777777777777,-0.5288888888888889,-1.0197988955750403,0.02590878533509968,-1.2440353340333803
1589986433.0465205,0.4555334294743951,0.07434230308981005,5.342223313184622,0.07522373252329376,0.5374459547455159,-0.6223622745202323,-1.847263742028652,0.1315512268998532,-0.8853622899162363
1589986433.0565205,1.2440959575745447,-1.1204007404442666,9.92597058234941,0.06333333333333334,0.5255555555555556,-0.6444444444444445,-1.0933462749548113,0.24390780920685126,-0.772298316062142
1589986433.0665205,2.7005798054167762,-1.3547357349460951,15.528106757822773,0.06333333333333334,0.5255555555555556,-0.6444444444444445,-0.01914575821337483,-0.031258841740201326,-0.6575440042180555
1589986433.0765204,0.8552696161206796,0.11786986378475728,4.805197118090733,0.06333333333333334,0.5255555555555556,-0.6444444444444445,0.9512797186252884,0.16853648729105924,-0.494891420086083
1589986433.0865204,1.0273011494252873,-0.34450804597701135,5.175186206896552,0.06333333333333334,0.5255555555555556,-0.6444444444444445,0.8018145397597771,0.10206966323243616,-0.32761159118128336
1589986433.0965204,2.0245943170147207,-1.4005708661417322,10.761472098596371,0.05237123892122181,0.5526723154170946,-0.6444444444444445,-0.3065113129419523,-0.28405937518701724,-0.033492444859941906
1589986433.1065204,2.206064516129032,-1.8560645161290323,9.940389321468299,0.042222222222222223,0.5777777777777777,-0.6444444444444445,-0.6544253025388251,-0.047463394200890796,0.23454305748736282
1589986433.1165204,1.10441089470247,-0.9784975606008222,6.686183012561946,0.042222222222222223,0.5777777777777777,-0.6444444444444445,-0.15296568659943027,0.03444303119577857,0.33345323791891945
1589986433.1265204,-0.7357555607103277,1.6089236836000926,8.488066187272867,0.042222222222222223,0.5777777777777777,-0.6444444444444445,0.2445059567145337,-0.39723519912725436,-0.07221305965408942
1589986433.1365204,0.11305066913559467,1.5549461324804308,8.87010983923912,0.042222222222222223,0.5777777777777777,-0.6444444444444445,0.24304850152034557,-0.11955958932601318,-0.2364380082180685
1589986433.1465204,0.16994710211591535,0.33052918792339203,8.686190306933177,0.04922790462118888,0.5793944737160008,-0.6514501268434111,0.0013640402402100293,0.12413730937565151,-0.050420635506151584
1589986433.1565204,0.6450283492629192,-1.55185517576543,11.313620281872671,0.05666666666666665,0.5811111111111111,-0.6588888888888889,-0.28907015736156083,0.16907877128695067,0.1265363707695889
1589986433.1665204,1.221052396360321,-1.9228200361107635,9.652337009957275,0.05666666666666665,0.5811111111111111,-0.6588888888888889,-0.22651162917186482,-0.17748440257809103,0.18632682249071425
1589986433.1765203,7.370342835278362,-6.186045532810407,8.159438301128754,0.05666666666666665,0.5811111111111111,-0.6588888888888889,-0.11654221545268775,-0.20137504229824238,0.36690547273410623
1589986433.1865203,4.952339753103666,-4.743784463340958,8.04557978732692,0.05666666666666665,0.5811111111111111,-0.6588888888888889,-0.010779398905337953,0.05114969936445216,0.4197048908620626
1589986433.1965203,-0.22894768490679485,-1.577574263379435,8.902543595911006,0.05732919088661722,0.5777984900113583,-0.6588888888888889,0.013523677936792503,-0.014654914718207651,0.46393485779237476
1589986433.2065203,2.8096484612130013,-3.5746599584260776,8.7719157116315,0.057777777777777775,0.5755555555555556,-0.6588888888888889,-0.07569184922237439,-0.06676782963268778,0.5768702907895115
1589986433.2165203,3.641112296779863,-4.315577176573975,8.964798819910865,0.057777777777777775,0.5755555555555556,-0.6588888888888889,-0.022268669182415574,-0.039784202941533384,0.6145625321382866
1589986433.2265203,2.464709806377035,-3.496258790097293,8.827175609286197,0.057777777777777775,0.5755555555555556,-0.6588888888888889,0.007312800948490114,-0.041044675457096134,0.6358624015913799
1589986433.2365203,2.4912017354305913,-3.3957952660937734,8.896219408010452,0.057777777777777775,0.5755555555555556,-0.6588888888888889,-0.036101515910626714,-0.06057773623737978,0.668764091964452
1589986433.2465203,2.6931929129443426,-3.4649519680035885,8.583325982132845,0.06132462818292445,0.5796090988757232,-0.6624357392940355,-0.04057761664579011,-0.06294488716499051,0.7110829973102075
1589986433.2565203,2.3003744127556587,-3.288665116499786,8.124941868741992,0.06555555555555556,0.5844444444444444,-0.6666666666666666,-0.0014561320130795467,-0.04399853253044132,0.7448535056024747
1589986433.2665203,2.087659404994225,-3.321914851248556,8.610874586801547,0.06555555555555556,0.5844444444444444,-0.6666666666666666,0.005330382479954804,-0.03721201803740698,0.7711992905974298
1589986433.2765203,2.2953850485710263,-3.39,8.812922990285795,0.06555555555555556,0.5844444444444444,-0.6666666666666666,-0.026800773993390963,-0.06229477670792896,0.8459138247387625
1589986433.2865202,2.1317714285714287,-3.2209714285714286,8.557714285714285,0.06555555555555556,0.5844444444444444,-0.6666666666666666,-0.037449779092792616,-0.07226286435132236,0.9064492136607694
1589986433.2965202,2.237862378812958,-3.3363356191377,8.348015291243005,0.07593722357969225,0.5844444444444444,-0.6666666666666666,-0.03507312868501118,-0.07216137528989068,0.96552676591663
1589986433.3065202,2.2352288527701982,-3.4770378455332778,8.600695456163246,0.08444444444444445,0.5844444444444444,-0.6666666666666666,-0.023931059572446213,-0.06422890331063864,1.0287965080357082
1589986433.3165202,2.0315630419151547,-3.434797825995009,8.816010870024954,0.08444444444444445,0.5844444444444444,-0.6666666666666666,-0.012869431761892798,-0.06335640043602031,1.090016454225464
1589986433.3265202,1.876304757418747,-3.3789802166745173,8.743629298162977,0.08444444444444445,0.5844444444444444,-0.6666666666666666,-0.023095246079624092,-0.07534388253516265,1.1725534303398157
1589986433.3365202,1.825025282350336,-3.375176976452351,8.554418505942275,0.08444444444444445,0.5844444444444444,-0.6666666666666666,-0.04258101078976209,-0.0944147780945439,1.261254109213105
1589986433.3465202,1.9114519760850999,-3.4274539948753784,8.573813960711234,0.08896955422694999,0.5805657789165826,-0.6705453321945285,-0.05017821599483697,-0.10898381171675593,1.3765470523414942
1589986433.3565202,1.97,-3.44,8.67,0.09222222222222222,0.5777777777777777,-0.6733333333333333,-0.05017821599483697,-0.1112647398146385,1.423534171157875
1589986433.3665202,1.7534062643942883,-3.4876450944265316,8.7458452326117,0.09222222222222222,0.5777777777777777,-0.6733333333333333,-0.03333226650038542,-0.1084243591543656,1.5863220745938118
1589986433.3765202,1.4254828464056248,-3.3536552309370835,8.77125300036368,0.09222222222222222,0.5777777777777777,-0.6733333333333333,-0.03166543308462072,-0.11919393838994936,1.7555001746078314
1589986433.3865201,1.432477671187562,-3.3979642739000995,8.741238835593782,0.09222222222222222,0.5777777777777777,-0.6733333333333333,-0.04678982062143366,-0.13362189946462705,1.869461645338821
1589986433.3965201,1.519699481865285,-3.517224525043178,8.755150259067358,0.10349702552293226,0.5750278257532143,-0.6733333333333333,-0.06678879934550451,-0.14914105985011952,1.985772283142106
1589986433.4065201,1.3971214721334846,-3.514848588853394,8.630170552050057,0.13777777777777778,0.5666666666666667,-0.6733333333333333,-0.06430737903676272,-0.15526778282286957,2.1687739682277294
1589986433.41652,1.2147438508538304,-3.5443647187842706,8.607438508538305,0.13777777777777778,0.5666666666666667,-0.6733333333333333,-0.05407994834564013,-0.15789104808843424,2.3060061913185845
1589986433.42652,1.078832269709276,-3.5772465029330243,8.742753497066976,0.13777777777777778,0.5666666666666667,-0.6733333333333333,-0.052890877924299806,-0.16734161992575788,2.4689851484879712
1589986433.43652,0.7836322725811636,-3.406361298617808,8.777725811636131,0.13777777777777778,0.5666666666666667,-0.6733333333333333,-0.05858271478408582,-0.180383999859516,2.6452422944641008
1589986433.44652,0.6666399048468629,-3.4007195955991674,8.713360095153137,0.16227541546899263,0.5666666666666667,-0.6733333333333333,-0.07778924172461049,-0.19824316859489116,2.793416529279654
1589986433.45652,0.6151823597349705,-3.5947690110023705,8.660072943893988,0.19666666666666666,0.5666666666666667,-0.6733333333333333,-0.0916456996186938,-0.2159738856749706,2.9837381802860947
1589986433.46652,0.5145097646469705,-3.4478427641462193,8.613006509764647,0.19666666666666666,0.5666666666666667,-0.6733333333333333,-0.07813341769068256,-0.2212746691768229,3.1584970894396047
1589986433.47652,0.4706265653698447,-3.341837952913675,8.649365085990983,0.19666666666666666,0.5666666666666667,-0.6733333333333333,-0.06906316699835312,-0.22627858434111725,3.3150948994286558
1589986433.48652,0.4167820481770591,-3.6591648191963038,8.8369450602679,0.19666666666666666,0.5666666666666667,-0.6733333333333333,-0.08275430021546898,-0.24281094152358335,3.511950890064184
1589986433.49652,0.3270937098844673,-3.31568998716303,8.811822849807445,0.22360968478105833,0.5519704749679075,-0.6733333333333333,-0.0932364856524705,-0.2543865695002526,3.6748717472124013
1589986433.50652,0.24261333018199008,-3.398186717088159,8.618862207515953,0.2577777777777778,0.5333333333333333,-0.6733333333333333,-0.11111639095331767,-0.268815613454716,3.826883592521643
1589986433.51652,0.16236214027227297,-3.6156087368602448,8.570405824573497,0.2577777777777778,0.5333333333333333,-0.6733333333333333,-0.11003316122094195,-0.2765034690659984,3.957839400609786
1589986433.52652,0.0717370959466393,-3.6219248845561824,8.575962442278092,0.2577777777777778,0.5333333333333333,-0.6733333333333333,-0.0898475842704474,-0.2812653386706004,4.0867847097810435
1589986433.53652,0.019683348450088033,-3.6065611161500293,8.666288747799179,0.2577777777777778,0.5333333333333333,-0.6733333333333333,-0.09074620290198736,-0.29319652175863653,4.21485130045379
1589986433.54652,5.872236861837736,-10.457137348158621,7.571487670587227,0.2920531406141021,0.5135114367532904,-0.6758110704058388,-0.1182240004331195,-0.31728604718675096,4.331928460593267
1589986433.55652,10.180082829132559,-16.748422363865792,6.871096838903808,0.35,0.48,-0.68,-0.31563571807597457,-0.3869963523437492,2.9488418272680934
1589986433.56652,0.119014044774014,-4.499367682914543,8.12743526709251,0.35,0.48,-0.68,-0.31973655454144656,-0.10575624988155591,-0.4150754111142543
1589986433.57652,-3.025451197053407,-1.5062273086029994,10.97442778216259,0.35,0.48,-0.68,0.45238770056152994,0.3871126276045184,-1.5381856234335078
1589986433.58652,-2.870476513955765,-2.110073924596911,10.9015566122555,0.35,0.48,-0.68,0.7020350752187245,0.38706233442555465,-0.7785503675120437
1589986433.59652,-1.358637500910924,-1.2274749192314232,7.655137367308766,0.3840874972672286,0.457695835121443,-0.6720041673076871,0.03430937989557431,0.07321793894161197,-0.12921300935542454
1589986433.60652,-1.044548736462094,-3.5061802898863084,10.414097203513121,0.44,0.4211111111111111,-0.6588888888888889,-0.42602246624519385,-0.22498762527212235,0.3108980580758921
1589986433.61652,-0.6733505659900083,-3.8878803832289885,9.853495857838489,0.44,0.4211111111111111,-0.6588888888888889,-0.20386479100083282,-0.17409869342379775,0.7091662133224103
1589986433.62652,-0.6799816606589515,-3.072255738948966,8.633374438752925,0.44,0.4211111111111111,-0.6588888888888889,0.1223616476117364,-0.007007102914920793,1.0375626725909388
1589986433.63652,3.7261118313885846,-8.036177653668428,7.53529935839899,0.44,0.4211111111111111,-0.6588888888888889,-0.017147395007701363,-0.0873297961312357,1.0914201487838973
1589986433.64652,2.359663242578372,-10.852734948971111,9.612858947508395,0.44,0.4211111111111111,-0.6588888888888889,-0.21867775653517627,-0.18391227127836518,0.4183847904751602
1589986433.65652,-0.9661082928981033,-2.4100380458756065,9.398180414644905,0.4211111111111111,0.44,-0.6877777777777778,0.16354744843457297,0.1090561924225737,-0.21568261581556486
1589986433.6665199,0.7775571013289035,-4.172937084717608,8.044391611295682,0.4211111111111111,0.44,-0.6877777777777778,0.06962530981170786,0.0029261716941594088,0.12486030564826053
1589986433.6765199,0.19639613350355645,-5.314431880357469,8.50703994163779,0.4211111111111111,0.44,-0.6877777777777778,-0.12029597515504097,-0.05058964004338753,0.08497915975339844
1589986433.6865199,0.0010361206229979013,-4.7548193968850105,9.146572406936928,0.4211111111111111,0.44,-0.6877777777777778,-0.05262472303204101,-0.02850486752710031,-0.03843536779656296
1589986433.6965199,0.09744321910124251,-4.272783904493787,8.713692398873906,0.42281563171028275,0.4337500911363706,-0.6877777777777778,0.03470838231277464,0.019182625167866892,0.004871575509900562
1589986433.7065198,0.07174954809430406,-4.283927925849006,8.77353332564132,0.42777777777777776,0.4155555555555556,-0.6877777777777778,0.0061670263657025316,-0.002941312077614093,0.0002844022104743462
1589986433.7165198,0.08302943768153781,-4.250783753793936,8.60752080545674,0.42777777777777776,0.4155555555555556,-0.6877777777777778,-0.002304144620610518,-0.0009313589476936466,0.001090830782496456
1589986433.7265198,0.17873042319226926,-4.3212521752008595,8.764956495982819,0.42777777777777776,0.4155555555555556,-0.6877777777777778,-0.005182869882491214,-0.0042267320045682585,0.0005444662808261958
1589986433.7365198,0.1,-4.340338676902236,8.63480093324302,0.42777777777777776,0.4155555555555556,-0.6877777777777778,-0.004893509416834782,-0.002144717645965035,-0.002144717645965035
1589986433.7465198,0.0933298940061908,-4.333319576024763,8.699989682018574,0.4235780814113053,0.418273006145626,-0.6860484910386421,0.007030048491016149,0.0,0.00024253189801870677
1589986433.7565198,0.059138282078472965,-4.247241145281018,8.63362057264051,0.4088888888888889,0.42777777777777776,-0.68,0.007541816634012136,-0.0003949432086531707,0.0003009443651901145
1589986433.7665198,0.048686802123375436,-4.273030203185063,8.61176789309903,0.4088888888888889,0.42777777777777776,-0.68,0.0007162383336655294,-0.0018015181193189686,-0.001090830782496456
1589986433.7765198,0.07939740069558851,-4.319096101043383,8.511958447739337,0.4088888888888889,0.42777777777777776,-0.68,-0.016033794802065335,-0.004314023089678598,-0.001090830782496456
1589986433.7865198,0.08227000798661865,-4.344540015973237,8.588649960066906,0.4088888888888889,0.42777777777777776,-0.68,-0.006892957100980265,-0.0008432113236648137,0.0016864226473296273
1589986433.7965198,0.0885904371543527,-4.357180874308706,8.557047814228238,0.4088888888888889,0.42777777777777776,-0.68,-0.004824601492554434,-0.00015375945418953684,0.0003075189083790737
1589986433.8065197,0.08159313869470716,-4.29,8.71522058391588,0.4211111111111111,0.4155555555555556,-0.6877777777777778,0.011525909133881955,0.0014865236734037941,-0.0007432618367018971
1589986433.8165197,0.08680436607892528,-4.283608732157851,8.670826196473552,0.4211111111111111,0.4155555555555556,-0.6877777777777778,0.0022267235922799195,-0.002530251150062728,0.001090830782496456
1589986433.8265197,0.08,-4.286380371058409,8.616895703153274,0.4211111111111111,0.4155555555555556,-0.6877777777777778,-0.002858914076676277,-0.002557763828320299,0.0007334665229119213
1589986433.8365197,0.08287397635142034,-4.31425204729716,8.604369881757101,0.4211111111111111,0.4155555555555556,-0.6877777777777778,-0.006532130949364333,-0.001090830782496456,0.0
1589986433.8465197,0.09,-4.3057262388302195,8.64,0.4211111111111111,0.41460118241718574,-0.6847555961729398,-0.0006223539637017249,-0.0006223539637017249,-0.00015615893959824368
1589986433.8565197,0.09,-4.3397985377741675,8.64,0.4211111111111111,0.4089224659265277,-0.6667729939525228,0.0021651794751842736,0.0021651794751842736,-0.0010853367525602432
1589986433.8665197,0.08328491508491509,-4.27313966033966,8.690726273726273,0.4211111111111111,0.4088888888888889,-0.6666666666666666,0.004068373819705613,0.0007641918027307343,0.0018233329157416787
1589986433.8765197,0.09,-4.3,8.604023220595659,0.4211111111111111,0.4088888888888889,-0.6666666666666666,-0.005709103257406994,-0.003343525750286966,0.0005809320926470272
1589986433.8865197,0.09,-4.316534213006597,8.63622148916117,0.4211111111111111,0.4088888888888889,-0.6666666666666666,-0.005943783744580406,0.0006012009503983295,-0.0004896298320981265
1589986433.8965197,0.09113896546132641,-4.356583103616021,8.604555861845306,0.4211111111111111,0.4110402680936166,-0.6698304596147956,-0.00336938826165372,0.002057419706451399,0.001090830782496456
1589986433.9065197,0.09353211820916653,-4.323532118209166,8.646467881790834,0.4211111111111111,0.42777777777777776,-0.6944444444444444,0.004716091357735297,0.0007380625547469828,0.001090830782496456
1589986433.9165196,0.07409991946169234,-4.301149879192538,8.66,0.4211111111111111,0.42777777777777776,-0.6944444444444444,0.006097752859521705,0.0,0.0014126302560161686
1589986433.9265196,0.07060217671487899,-4.28,8.635261587665282,0.4211111111111111,0.42777777777777776,-0.6944444444444444,0.003780755236789473,0.0,0.0006396374687186247
1589986433.9365196,0.09,-4.286037316567526,8.594024877711684,0.4211111111111111,0.42777777777777776,-0.6944444444444444,-0.003711538397858262,-0.00021952302518444687,-0.001962138539808465
1589986433.9465196,0.09,-4.303087085540846,8.605391390360564,0.4211111111111111,0.42777777777777776,-0.6944444444444444,-0.004951432586561636,-0.0008394701195361339,-0.0013421914454567782
1589986433.9565196,0.050352955204896854,-4.329823522397552,8.639735283596329,0.4211111111111111,0.42777777777777776,-0.6878366036452607,-0.00329174306760656,-9.62536005859587e-06,-0.001090830782496456
1589986433.9665196,0.07,-4.297715090574749,8.700296177471733,0.4211111111111111,0.42777777777777776,-0.6877777777777778,0.006888080616591045,0.00024924495362804895,0.001932416611364863
1589986433.9765196,0.07051297278479718,-4.291538918354392,8.602564863923986,0.4211111111111111,0.42777777777777776,-0.6877777777777778,0.0040835398778659845,0.0010348741320724882,0.001090830782496456
1589986433.9865196,0.07910204165216145,-4.317306124956485,8.645510208260808,0.4211111111111111,0.42777777777777776,-0.6877777777777778,-0.0006010704788854794,9.795206072219539e-05,0.001090830782496456
1589986433.9965196,0.09,-4.301919208372358,8.622558944496477,0.4220351744015058,0.42777777777777776,-0.6882042685271907,-0.0072171091633565455,-0.001090830782496456,0.0007419088540642509
1589986434.0065196,0.09,-4.327538990919086,8.656718654558782,0.4343706252573377,0.42777777777777776,-0.6938975535375747,-0.001627739674789271,-0.001090830782496456,-0.003915899053075145
1589986434.0165195,0.09,-4.29,8.623371339777613,0.4355555555555555,0.42777777777777776,-0.6944444444444444,0.0047186416709475276,-0.0027904425730033147,-0.001090830782496456
1589986434.0265195,0.09,-4.290999042546826,8.604995212734128,0.4355555555555555,0.42777777777777776,-0.6944444444444444,0.00905462658829751,-0.001090830782496456,-0.0009818521461863708
1589986434.0365195,0.08558894633094061,-4.2933834194964104,8.65882210733812,0.4355555555555555,0.42777777777777776,-0.6944444444444444,0.001219318939902127,-0.0008502451262237598,0.00048117131254539247
1589986434.0465195,0.07001851201685233,-4.2700647920589825,8.689962975966296,0.4355421857656066,0.42777160710549367,-0.6944516435621092,-0.002183680912775772,1.0096738914301243e-06,0.0021786325433186217
1589986434.0565195,0.09,-4.32999694484266,8.655001527578671,0.4211111111111111,0.4211111111111111,-0.7022222222222222,-0.0032721590815221182,0.0002724577461486764,-0.0013636217946123824
1589986434.0665195,0.09,-4.302311271856066,8.646887281439334,0.4211111111111111,0.4211111111111111,-0.7022222222222222,0.001008482594926116,-0.001929540916261383,-0.0014252996187983247
1589986434.0765195,0.08787709081898154,-4.301508363275926,8.586983273448148,0.4211111111111111,0.4211111111111111,-0.7022222222222222,0.0034370292567461125,-0.001090830782496456,0.0008592573141865281
1589986434.0865195,0.07863027556346862,-4.278218346619188,8.654109173309594,0.4211111111111111,0.4211111111111111,-0.7022222222222222,-0.0005976550315624171,-0.0009414170246058517,0.00029882751578120853
1589986434.0965195,0.07297292922753207,-4.312162424634807,8.671081212317404,0.4211111111111111,0.4211111111111111,-0.7022222222222222,-0.003066138043755668,-0.000324296271557539,0.001533069021877834
1589986434.1065195,0.07,-4.33,8.663797117967924,0.42651207178847006,0.4211111111111111,-0.667115977819389,-0.007014513502848048,0.001767460248574816,0.0004142013164180958
1589986434.1165195,0.09,-4.348347139476047,8.635005916918306,0.42777777777777776,0.4211111111111111,-0.6588888888888889,-0.002001362451122762,0.00036317997039045884,0.00036317997039045884
1589986434.1265194,0.08980199098968172,-4.29,8.610792036041273,0.42777777777777776,0.4211111111111111,-0.6588888888888889,0.004406521994719189,0.002138462700259547,0.0021600621326262294
1589986434.1365194,0.08218264060456329,-4.29,8.641269437581746,0.42777777777777776,0.4211111111111111,-0.6588888888888889,0.006068806383261873,0.00047617831171686245,0.0013289199383548873
1589986434.1465194,0.07041383728379244,-4.29,8.697930813581037,0.42777777777777776,0.4211111111111111,-0.6588888888888889,0.004453608419606927,0.0010456881376859043,4.514264481055171e-05
1589986434.1565194,0.07,-4.29,8.683392164072394,0.42224183246857594,0.4211111111111111,-0.6635021766465571,-0.002883212334207244,-0.000720803083551811,0.0
1589986434.1665194,0.08,-4.303080806392297,8.601540403196148,0.4211111111111111,0.4211111111111111,-0.6644444444444444,-0.0027683965803449308,-0.0009227988601149769,0.0018455977202299538
1589986434.1765194,0.08,-4.317103406773428,8.608551703386713,0.4211111111111111,0.4211111111111111,-0.6644444444444444,-0.0004739539583873474,-0.0001579846527957824,0.0003159693055915648
1589986434.1865194,0.08,-4.298517814542563,8.658893112744623,0.4211111111111111,0.4211111111111111,-0.6644444444444444,0.004039960425517626,-0.00048504405670229744,-0.0029491296430211697
1589986434.1965194,0.08,-4.290382862351869,8.707702825888788,0.4211111111111111,0.4211111111111111,-0.6644444444444444,0.0022651891727683924,-0.003147200935826147,-0.0011743583902719366
1589986434.2065194,0.09879301872713707,-4.32,8.68637905618141,0.44,0.3944444444444444,-0.6888888888888889,-0.0024449840302600417,0.003272492347489368,-0.000959169549862891
1589986434.2165194,0.09115966294793164,-4.32,8.663478988843796,0.44,0.3944444444444444,-0.6888888888888889,-0.004110323921800939,0.003272492347489368,-0.00012649960409244216
1589986434.2265193,0.08,-4.313061201056379,8.575265357675967,0.44,0.3944444444444444,-0.6888888888888889,0.002635804893868288,0.0007880685632462053,0.0003027622192502507
1589986434.2365193,0.08,-4.27,8.670590072015093,0.44,0.3944444444444444,-0.6888888888888889,0.005582887656073116,-0.0012195645260872922,0.002117294693197494
1589986434.2465193,0.08,-4.27,8.676163003906353,0.44,0.3944444444444444,-0.6888888888888889,0.006798712787221607,-0.002435389657235783,0.0015093821276232484
1589986434.2565193,0.07421288093550674,-4.281574238128987,8.697361357193481,0.43742794708244737,0.41694990747302935,-0.6921039550358296,0.0038481549069623823,-0.002641215585737233,-0.00017172274100781372
1589986434.2665193,0.0809267948424506,-4.320926794842451,8.5681464103151,0.4355555555555555,0.43333333333333335,-0.6944444444444444,-0.003070297078848555,-0.0008886355138556427,0.004060030227024604
1589986434.2765193,0.08892690928511482,-4.328926909285115,8.552146181429771,0.4355555555555555,0.43333333333333335,-0.6944444444444444,-0.0013249428593380315,0.0008567187056548805,0.001441998897758819
1589986434.2865193,0.08164127232553858,-4.321641272325539,8.60851109372123,0.4355555555555555,0.43333333333333335,-0.6944444444444444,0.0016445564524458056,-0.0007327607074650517,0.001090830782496456
1589986434.2965193,0.0883278312042486,-4.295016506387254,8.661639156021243,0.4355555555555555,0.43333333333333335,-0.6944444444444444,0.0030900870278958025,-0.0019992562453993463,0.001090830782496456
1589986434.3065193,0.0766039399049517,-4.296698030047524,8.690094090142573,0.4437420367247517,0.42961220552915325,-0.6899790910794283,0.0010805671401117067,-0.0007203780934078045,0.0018214725182890096
1589986434.3165193,0.08842597770570033,-4.30921298885285,8.67236103344145,0.4477777777777778,0.42777777777777776,-0.6877777777777778,-0.0040199247357942695,0.0,0.00017169919709577718
1589986434.3265193,0.09,-4.3348810044350055,8.57876965040498,0.4477777777777778,0.42777777777777776,-0.6877777777777778,-0.0016492265762723607,0.0,-0.0009046988512378211
1589986434.3365192,0.08892109906730526,-4.316763297201916,8.589710108394252,0.4477777777777778,0.42777777777777776,-0.6877777777777778,0.0026524209044519317,-0.001828592060398647,0.001090830782496456
1589986434.3465192,0.08078803978980435,-4.292364119369413,8.662907641891762,0.4477777777777778,0.42777777777777776,-0.6877777777777778,0.006201137470758487,0.0008329453643312703,0.001090830782496456
1589986434.3565192,0.08933731417332601,-4.281325371653348,8.709337314173327,0.4355555555555555,0.4155555555555556,-0.6888888888888889,0.00502042705316622,0.001018542972610446,0.001090830782496456
1589986434.3665192,0.08190548753477328,-4.296189024930453,8.701905487534773,0.4355555555555555,0.4155555555555556,-0.6888888888888889,0.00015630789265993691,0.00020785644585939874,0.001090830782496456
1589986434.3765192,0.08054365022292535,-4.311630950668776,8.572718251114628,0.4355555555555555,0.4155555555555556,-0.6888888888888889,-0.0030945832280659565,5.9303039807803875e-05,5.9303039807803875e-05
1589986434.3865192,0.08808410038832158,-4.334252301164964,8.610420501941608,0.4355555555555555,0.4155555555555556,-0.6888888888888889,-0.0006269766817775459,0.0008818385552372741,0.0008818385552372741
1589986434.3965192,0.08121155088626085,-4.322423101772522,8.672730694682434,0.4355555555555555,0.4155555555555556,-0.6888888888888889,0.0019173421647340726,-0.0017851824646046529,-0.0008265113822376166
1589986434.4065192,0.08,-4.3045347690284395,8.68,0.4089209911045354,0.4250065300381756,-0.6768603759110088,0.003025159065102678,0.0011923284354461508,-0.001090830782496456
1589986434.4165192,0.09,-4.311038884524744,8.648572270227808,0.4011111111111111,0.42777777777777776,-0.6733333333333333,-0.0016574543920218146,0.0037966995204604653,0.0
1589986434.4265192,0.08881554878048781,-4.321184451219512,8.55473780487805,0.4011111111111111,0.42777777777777776,-0.6733333333333333,-0.006028170354734987,-0.001220034367557393,0.0002584071701218739
1589986434.4365191,0.08029043664825777,-4.329128690055227,8.592323493186061,0.4011111111111111,0.42777777777777776,-0.6733333333333333,-0.0020549346704790404,-0.002118298117735976,0.002118298117735976
1589986434.4465191,0.0886227104771743,-4.304131868568477,8.658981683817395,0.4011111111111111,0.42777777777777776,-0.6733333333333333,0.0015807056418296614,-0.00030047796158162525,0.00030047796158162525
1589986434.4565191,0.08944385979114385,-4.29,8.709443859791145,0.4133333333333333,0.4088888888888889,-0.6877777777777778,0.005332822940641421,0.0009088343247351675,-0.0009088343247351675
1589986434.466519,0.0809554359264956,-4.29,8.700955435926495,0.4133333333333333,0.4088888888888889,-0.6877777777777778,0.00348093613135425,-0.0018689958891955894,0.0018689958891955894
1589986434.476519,0.08,-4.296482636107144,8.635173638928558,0.4133333333333333,0.4088888888888889,-0.6877777777777778,-0.0009703830629480999,-0.00288880746673249,0.0007673697615137563
1589986434.486519,0.08,-4.322316059517702,8.6074386865059,0.4133333333333333,0.4088888888888889,-0.6877777777777778,-0.004083927169687091,-0.003272492347489368,0.0
1589986434.496519,0.08647127321901471,-4.3105861803429555,8.642356366095074,0.4133333333333333,0.4088888888888889,-0.6877777777777778,-0.000833791115362738,0.0009629460700583351,0.0007059064029246171
1589986434.506519,0.09,-4.3,8.67865683667714,0.43820911556952163,0.4202902890804752,-0.6805223412922229,0.003125975957639913,-0.0007977980027975449,-0.0009443143926470006
1589986434.516519,0.09,-4.292485260094037,8.649941040376147,0.44,0.4211111111111111,-0.68,-6.431497262274644e-06,-0.0027302927048722773,-0.001090830782496456
1589986434.526519,0.06017395531327581,-4.300231940417701,8.570289925522127,0.44,0.4211111111111111,-0.68,-2.5300774733342568e-05,0.001071855201446449,6.325193683335642e-06
1589986434.536519,0.08201888856096248,-4.329358518081283,8.606698147601604,0.44,0.4211111111111111,-0.68,-0.0032025175251542623,-0.0013110573613692412,0.0008006293812885656
1589986434.546519,0.08284416247748595,-4.332844162477486,8.627155837522514,0.44,0.4211111111111111,-0.68,-0.0012409999923452247,0.00016008078823753769,0.00031024999808630617
1589986434.556519,0.09337954865406767,-4.303240902691865,8.66344887163517,0.42736375960449163,0.4173945698183146,-0.68,0.0007297411763883014,-0.0003686515702801469,0.0
1589986434.566519,0.09976807263532927,-4.290231927364671,8.687912653717962,0.4211111111111111,0.4155555555555556,-0.68,0.0,2.5299350868611058e-05,-5.0598701737222115e-05
1589986434.576519,0.09012711182622687,-4.299872888173773,8.60114400643604,0.4211111111111111,0.4155555555555556,-0.68,0.0,0.0010769650332096948,-0.0021539300664193896
1589986434.586519,0.0802956554359804,-4.3,8.580591310871961,0.4211111111111111,0.4155555555555556,-0.68,-0.002117159554876946,-0.0031434883272574363,-0.001123081787554439
1589986434.596519,0.08754698079955477,-4.31509396159911,8.62528188479733,0.4211111111111111,0.4155555555555556,-0.68,-0.002181661564992912,-0.0016259965532765556,0.0005556650117163563
1589986434.606519,0.07951977737078705,-4.309519777370786,8.681440667887639,0.4133333333333333,0.4211111111111111,-0.6733333333333333,0.0,-5.2384162639686615e-05,0.0010384466198567694
1589986434.616519,0.07045592777381801,-4.300455927773818,8.704072938940367,0.4133333333333333,0.4211111111111111,-0.6733333333333333,4.9734005027576596e-05,-0.0009913627724413027,0.0
1589986434.626519,0.08066587753414878,-4.310665877534149,8.581664693835371,0.4133333333333333,0.4211111111111111,-0.6733333333333333,0.0009455588401719932,0.000981876825753109,-7.263597116223137e-05
1589986434.636519,0.09642710858087669,-4.3264271085808765,8.621067771452193,0.4133333333333333,0.4211111111111111,-0.6733333333333333,-0.0024930083589899373,-0.001597048573618339,-0.0017919195707431965
1589986434.646519,0.09487728220355045,-4.319754564407101,8.63512271779645,0.4133333333333333,0.4211111111111111,-0.6733333333333333,-0.003272492347489368,-0.002740463391233871,5.3545739970923406e-05
1589986434.656519,0.0854046194749086,-4.314595380525091,8.658381522100365,0.41997110520290976,0.4185581219305048,-0.6666955614637569,-0.001267379333867601,-0.002269935840678484,0.0011791050581820284
1589986434.666519,0.08638331200635396,-4.32,8.667233375987292,0.42777777777777776,0.4155555555555556,-0.6588888888888889,0.0031797647517394926,-0.001090830782496456,0.0006963113230810122
1589986434.676519,0.0903337019127622,-4.299666298087238,8.580834254781905,0.42777777777777776,0.4155555555555556,-0.6588888888888889,0.003199689883765577,-0.001090830782496456,0.0010726301665655081
1589986434.686519,0.10417787533213407,-4.285822124667866,8.615444688330335,0.42777777777777776,0.4155555555555556,-0.6588888888888889,0.00017935977895156517,-0.001090830782496456,0.00031754764036200523
1589986434.696519,0.09578921210349364,-4.308421575793013,8.65131618184476,0.42777777777777776,0.4155555555555556,-0.6588888888888889,-0.002640987270600176,-0.0018659090265483159,-0.0007750782440518599
1589986434.706519,0.09,-4.305253468946315,8.68949306210737,0.4081157363728641,0.4106400452043272,-0.6851049440954404,-0.003272492347489368,-0.0013773630645729233,-0.00028653228207646737
1589986434.7165189,0.09,-4.310191952256886,8.688848286458681,0.4011111111111111,0.4088888888888889,-0.6944444444444444,2.093874305814116e-05,-0.001111769525554597,0.001090830782496456
1589986434.7265189,0.09,-4.319531921526711,8.632808470839736,0.4011111111111111,0.4088888888888889,-0.6944444444444444,0.001039771341767671,-0.002130602124264127,0.001090830782496456
1589986434.7365189,0.09959053488036204,-4.310409465119638,8.649181069760724,0.4011111111111111,0.4088888888888889,-0.6944444444444444,0.001090830782496456,-0.0011354964981824236,0.0021369958493069443
1589986434.7465189,0.1,-4.317720732128468,8.642279267871533,0.4011111111111111,0.4088888888888889,-0.6944444444444444,-0.0005935716713319611,-0.0002486295555822474,0.0004972591111644948
1589986434.7565188,0.0906685911164913,-4.310668591116491,8.686657044417544,0.41977392887812853,0.4265148834466275,-0.6685238642124758,0.0009449668283419805,0.0,0.0010178988054192182
1589986434.7665188,0.09,-4.290526135473766,8.680263067736883,0.4211111111111111,0.42777777777777776,-0.6666666666666666,-0.001033438305441655,-0.002124269087938111,-0.0020955728494107114
1589986434.7765188,0.08081948063617576,-4.299180519363824,8.606555845089405,0.4211111111111111,0.42777777777777776,-0.6666666666666666,0.0009120478417763971,-0.002181661564992912,0.003826974307825647
1589986434.7865188,0.09465949546376756,-4.3,8.614659495463767,0.4211111111111111,0.42777777777777776,-0.6666666666666666,0.0018903822278836966,0.00021699277116881072,-0.0012335369877248623
1589986434.7965188,0.09378687323818613,-4.3,8.657278760570883,0.4211111111111111,0.42777777777777776,-0.6666666666666666,0.0008261675795250944,-0.00026466320297136156,-0.0012392513692876415
1589986434.8065188,0.09,-4.315957501389542,8.674680832870152,0.4287943525208906,0.4242316663578795,-0.6666666666666666,-0.0011604622484961656,-0.0005105996582483732,0.0
1589986434.8165188,0.08417085865488064,-4.318341717309761,8.658341717309762,0.4355555555555555,0.4211111111111111,-0.6666666666666666,-0.002181661564992912,-0.0006358606814778999,0.0
1589986434.8265188,0.06097604687230743,-4.338535929691539,8.583416164053077,0.4355555555555555,0.4211111111111111,-0.6666666666666666,-0.0011440658811700723,-0.001090830782496456,0.0
1589986434.8365188,0.06626083329471197,-4.321217500115864,8.605043333178847,0.4355555555555555,0.4211111111111111,-0.6666666666666666,0.0009580221220886981,-0.001090830782496456,0.0
1589986434.8465188,0.08655684151577375,-4.31,8.647594735859622,0.4355555555555555,0.4211111111111111,-0.6666666666666666,0.0015796378187822022,-0.002294878274917876,0.0012040474924214196
1589986434.8565187,0.09464650195361857,-4.304646501953618,8.67535349804638,0.4171157289513528,0.4211111111111111,-0.6666666666666666,-7.71213101090453e-05,-0.0009365881622783656,0.0015976855186901613
1589986434.8665187,0.09,-4.3,8.672786019914424,0.4011111111111111,0.4211111111111111,-0.6666666666666666,0.0004830155258360963,0.001090830782496456,0.0026646770908290082
1589986434.8765187,0.09,-4.293206433066584,8.622445031466086,0.4011111111111111,0.4211111111111111,-0.6666666666666666,0.001090830782496456,-0.0003912956042876341,0.0017903659607052778
1589986434.8865187,0.09943434718100891,-4.29,8.609434347181008,0.4011111111111111,0.4211111111111111,-0.6666666666666666,0.004178213677837409,0.0019965521128444963,0.001090830782496456
