time,acc_x,acc_y,acc_z,mag_x,mag_y,mag_z,gyr_x,gyr_y,gyr_z
1589986463.2831426,-3.73,-0.54,9.03,0.2977777777777777,-0.3888888888888889,-0.6166666666666667,-0.00545415391248228,0.008726646259971648,0.004363323129985824
1589986463.2931426,-3.7398780056993477,-0.5597560113986954,8.950975954405218,0.2977777777777777,-0.3888888888888889,-0.6166666666666667,-0.0065316771811346624,0.00333902991670973,0.0032857998613334406
1589986463.3031425,-3.723279178187249,-0.543279178187249,8.866395890936245,0.2977777777777777,-0.3888888888888889,-0.6166666666666667,-0.0038090466236806865,0.0005365542761913179,0.0023605129903900178
1589986463.3131425,-3.718467906617363,-0.5369358132347261,8.877660466913184,0.2977777777777777,-0.3888888888888889,-0.6166666666666667,-0.003272492347489368,-0.006289781224202066,0.002014536102648955
1589986463.3231425,-3.710751697113527,-0.5215033942270545,8.916241514432365,0.2977777777777777,-0.3888888888888889,-0.6166666666666667,-0.003272492347489368,-0.010498320649689937,0.0011728282175513802
1589986463.3331425,-3.6921892431298295,-0.5043784862596592,8.932189243129828,0.28444444444444444,-0.3955555555555556,-0.6444444444444445,0.0015684495417738562,-0.009459262973010054,0.0
1589986463.3431425,-3.7081656774326164,-0.5381656774326165,8.938994064595699,0.28444444444444444,-0.3955555555555556,-0.6444444444444445,0.004653779703870322,-0.005944704038519767,0.00040018710430597904
1589986463.3531425,-3.702250442869796,-0.53,8.887749557130205,0.28444444444444444,-0.3955555555555556,-0.6444444444444445,0.0013363160181588006,-0.002781521876164679,0.0019361763293305673
1589986463.3631425,-3.7086791161145554,-0.5326417677708897,8.899813258281673,0.28444444444444444,-0.3955555555555556,-0.6444444444444445,0.0018934894045235708,-0.000514486461557774,0.0012349168627311265
1589986463.3731425,-3.7007030388316284,-0.5485939223367436,9.019454417525576,0.28444444444444444,-0.3955555555555556,-0.6444444444444445,0.00015337927976607482,0.0029657337879572185,0.0021049719251098747
1589986463.3831425,-3.7086486364253086,-0.5413513635746914,9.021351363574691,0.2959759596781893,-0.37249252508806574,-0.6204204543741426,-0.0018868397678693616,0.002329072463554687,0.003125081448927593
1589986463.3931425,-3.7385028776440694,-0.56,9.030537409372899,0.2977777777777777,-0.3688888888888889,-0.6166666666666667,0.001090830782496456,0.0077991261925765,0.0026715937102968364
1589986463.4031425,-3.72647456862524,-0.5582372843126199,8.92176271568738,0.2977777777777777,-0.3688888888888889,-0.6166666666666667,0.001090830782496456,0.00795751644693817,0.00545415391248228
1589986463.4131424,-3.7067809655718245,-0.5478539770478829,8.93,0.2977777777777777,-0.3688888888888889,-0.6166666666666667,0.001090830782496456,0.004129228340374495,0.00545415391248228
1589986463.4231424,-3.681884052235853,-0.5312560348239019,8.93,0.2977777777777777,-0.3688888888888889,-0.6166666666666667,0.001090830782496456,0.0023186737099728785,0.00545415391248228
1589986463.4331424,-3.7413442519378903,-0.5346229922484388,8.937901732558986,0.3033333333333333,-0.3888888888888889,-0.6233333333333333,0.0023282967043210387,0.0007975605038402027,0.007571430670275621
1589986463.4431424,-3.747564105034003,-0.5024358949659968,8.853910262585007,0.3033333333333333,-0.3888888888888889,-0.6233333333333333,0.003405349808081246,-0.0012236882430883337,0.015243659857188946
1589986463.4531424,-3.7314032789411833,-0.5185967210588167,8.81350819735296,0.3033333333333333,-0.3888888888888889,-0.6233333333333333,0.004286786136712237,-0.0021051245717193245,0.022295150486236877
1589986463.4631424,-3.73,-0.5103848471155294,8.867690917306822,0.3033333333333333,-0.3888888888888889,-0.6233333333333333,0.00016792123206979623,-0.005328212988429932,0.019760895008988557
1589986463.4731424,-3.7103510648643394,-0.51,8.922397160361761,0.3033333333333333,-0.3888888888888889,-0.6233333333333333,-0.0007144554429751659,-0.008311975684382944,0.01391931054113488
1589986463.4831424,-3.7078476443768995,-0.5178476443768997,8.981390577507598,0.30943705673758864,-0.3888888888888889,-0.6303090172239109,-0.001090830782496456,-0.004681205808623659,0.006628081796760855
1589986463.4931424,-3.7168006373605773,-0.52,9.010401912081733,0.3111111111111111,-0.3888888888888889,-0.6322222222222222,-0.002574499697199106,-0.001046988975435393,0.0010031471683743295
1589986463.5031424,-3.72,-0.5108859089909871,8.956201362936909,0.3111111111111111,-0.3888888888888889,-0.6322222222222222,-0.006255071655621027,0.0009941931027105532,-9.663767978590281e-05
1589986463.5131423,-3.7280648452325083,-0.534194535697525,8.966129690465017,0.3111111111111111,-0.3888888888888889,-0.6322222222222222,-0.007424722838547722,0.001090830782496456,-0.0008797381435689857
1589986463.5231423,-3.73,-0.5146875487392774,8.961562516246426,0.3111111111111111,-0.3888888888888889,-0.6322222222222222,-0.005795042076432693,-0.0025907160195885416,-0.00017044408197520653
1589986463.5331423,-3.714644116327272,-0.5176779418363641,8.967677941836365,0.30513937857171686,-0.3888888888888889,-0.6143070246040395,-0.004616620382349956,7.764177303993007e-05,0.0
1589986463.5431423,-3.7107766085314102,-0.5284467829371796,8.853787131748717,0.3033333333333333,-0.3888888888888889,-0.6088888888888889,-0.006375554996576411,0.0033572071966905303,-0.0009214010840941316
1589986463.5531423,-3.72,-0.512120583135943,8.785301457839857,0.3033333333333333,-0.3888888888888889,-0.6088888888888889,-0.004478982998062296,0.0042476632619093515,0.0008595110463435116
1589986463.5631423,-3.7179936054165883,-0.5310031972917059,8.840031972917059,0.3033333333333333,-0.3888888888888889,-0.6088888888888889,-0.004906994669127371,0.0031630604988183864,-0.0007625352364835109
1589986463.5731423,-3.702216663532067,-0.5388916682339665,8.918916682339665,0.3033333333333333,-0.3888888888888889,-0.6088888888888889,-0.0006045012038039888,0.0023025618057537097,0.0018189608427105189
1589986463.5831423,-3.7109667752182687,-0.5690332247817314,9.008066449563463,0.2766666666666667,-0.3888888888888889,-0.6311111111111111,0.007741274294259408,0.003377951164273584,0.0057705303628349264
1589986463.5931423,-3.7193464927177193,-0.5606535072822808,8.991307014564562,0.2766666666666667,-0.3888888888888889,-0.6311111111111111,0.0086553596739619,0.004292036543976076,0.008512786501942404
1589986463.6031423,-3.736208898296205,-0.5518955508518977,8.933268855963284,0.2766666666666667,-0.3888888888888889,-0.6311111111111111,0.008726646259971648,0.004363323129985824,0.01579911234471343
1589986463.6131423,-3.739204648629018,-0.5301988378427456,8.930994189213727,0.2766666666666667,-0.3888888888888889,-0.6311111111111111,0.004233184066230572,-0.0011775901583332905,0.035123483479478676
1589986463.6231422,-3.713816960232432,-0.5365457599418921,8.962728799709462,0.2766666666666667,-0.3888888888888889,-0.6311111111111111,7.913326631692977e-05,-0.003946957358275718,0.04204690147933475
1589986463.6331422,-3.7236457345483034,-0.532118088483899,8.995763823032203,0.29330625764510226,-0.3836342812114882,-0.6249807354874769,-0.0030414447356605515,-0.00545415391248228,0.04495510969418351
1589986463.6431422,-3.71159607980399,-0.5177307198693268,8.957057519542644,0.2977777777777777,-0.38222222222222224,-0.6233333333333333,-0.0012649360806477978,-0.002777412223360186,0.042716505815513124
1589986463.6531422,-3.7261853726653866,-0.5165463431663466,8.844897538837493,0.2977777777777777,-0.38222222222222224,-0.6233333333333333,-0.0014281905277272503,-0.0003767355186328308,0.04145156973486533
1589986463.6631422,-3.726993486597813,-0.5134967432989064,8.826013026804375,0.2977777777777777,-0.38222222222222224,-0.6233333333333333,-0.002181661564992912,0.0021281857788088034,0.0428703602540712
1589986463.6731422,-3.712738333137416,-0.5172616668625838,8.89809333490067,0.2977777777777777,-0.38222222222222224,-0.6233333333333333,-0.002181661564992912,-0.001480257500075125,0.04600960622364049
1589986463.6831422,-3.71,-0.5270485676014346,8.94819427040574,0.30169364866746357,-0.39162031235746836,-0.6335145976465165,0.00012497678865269627,-0.0025036128962741652,0.04690572364734761
1589986463.6931422,-3.7690295400150813,-0.49,8.976118160060325,0.3033333333333333,-0.3955555555555556,-0.6377777777777778,0.0033254227287258767,-0.002340452708702438,0.04352737053738522
1589986463.7031422,-3.7552781876004064,-0.49,8.921112750401626,0.3033333333333333,-0.3955555555555556,-0.6377777777777778,0.004075442654470096,-0.004590512485935096,0.042027330685896785
1589986463.7131422,-3.722999477624935,-0.4629994776249347,8.927000522375065,0.3033333333333333,-0.3955555555555556,-0.6377777777777778,0.0004362563366250849,-0.00545415391248228,0.03850626963984478
1589986463.7231421,-3.7111813298424594,-0.4776373403150815,8.956456010472623,0.3033333333333333,-0.3955555555555556,-0.6377777777777778,-0.002885903060558493,0.0012796198954875375,0.035293174326817466
1589986463.7331421,-3.677066734331388,-0.518533367165694,9.006333417914234,0.2766666666666667,-0.3888888888888889,-0.6233333333333333,-0.005614138736710382,0.0045233079542139265,0.03639737788295329
1589986463.7431421,-3.6466589335556603,-0.5033294667778302,8.968323666944576,0.2766666666666667,-0.3888888888888889,-0.6233333333333333,-0.007272626992419552,0.006181796209923095,0.04054359852222623
1589986463.753142,-3.656825840081914,-0.5111903099692824,8.794364469887368,0.2766666666666667,-0.3888888888888889,-0.6233333333333333,-0.007765658152995749,0.012873564930756542,0.05397007904440856
1589986463.763142,-3.57972887338066,-0.5402711266193398,8.90072300431824,0.2766666666666667,-0.3888888888888889,-0.6233333333333333,-0.01090830782496456,0.0075569479408538354,0.06659982838474983
1589986463.773142,-3.5629065896602894,-0.5570934103397104,8.945582427572562,0.2766666666666667,-0.3888888888888889,-0.6233333333333333,-0.01090830782496456,0.002663543963768703,0.07026988136756368
1589986463.783142,-3.5745558583106267,-0.5618147138964578,8.98,0.27984983348471093,-0.3888888888888889,-0.6233333333333333,-0.007336803006850822,-0.0006443926802322388,0.07531785293858363
1589986463.793142,-3.668430714360642,-0.55,8.96052309521312,0.28444444444444444,-0.3888888888888889,-0.6233333333333333,0.0010052395283993878,-0.0053115018223205,0.08491361852652944
1589986463.803142,-3.7864742472079542,-0.5014690636633523,8.94058762546534,0.28444444444444444,-0.3888888888888889,-0.6233333333333333,-0.0031442923582548285,-0.0065129346976701,0.09037870496066266
1589986463.813142,-3.765937087332716,-0.532083883556379,8.964062912667284,0.28444444444444444,-0.3888888888888889,-0.6233333333333333,-0.004147444542622619,-0.012669650060911492,0.0966636203131386
1589986463.823142,-3.729684270543796,-0.47178960872354075,8.909368541087593,0.28444444444444444,-0.3888888888888889,-0.6233333333333333,-0.0018831233136361739,-0.009220400539754627,0.10644210314584654
1589986463.833142,-3.7073161962969623,-0.4626838037030379,8.928051411109113,0.28444444444444444,-0.39311682345656823,-0.6233333333333333,-0.01285133177315032,-0.0034850504219502984,0.11461743165701213
1589986463.843142,-3.6922102070420677,-0.43884082816827114,8.918840828168271,0.28444444444444444,-0.3955555555555556,-0.6233333333333333,-0.03323070760139474,0.0014583730018395186,0.13225521262085443
1589986463.853142,-3.622928036267368,-0.3751229387642102,8.80024587752842,0.28444444444444444,-0.3955555555555556,-0.6233333333333333,-0.0450697916247385,0.005507305323267497,0.15298206660342992
1589986463.863142,-3.457462730956541,-0.30395962675192384,8.787664597196923,0.28444444444444444,-0.3955555555555556,-0.6233333333333333,-0.07140774821273511,0.0060632575354086626,0.1856404285633998
1589986463.873142,-3.1340328412733918,-0.3670140908074256,9.034624431521658,0.28444444444444444,-0.3955555555555556,-0.6233333333333333,-0.09013181473958093,0.004754076071326303,0.21026966963095664
1589986463.883142,-2.819689594356261,-0.5257797374093671,9.168906133646875,0.290381866875694,-0.389618133124306,-0.6104689180656259,-0.0687908716015817,-0.009237795499067381,0.23674413980485604
1589986463.893142,-2.6441729684171094,-0.45750333622082273,8.931676304637932,0.2911111111111111,-0.3888888888888889,-0.6088888888888889,-0.003456804518427413,-0.01990729785532326,0.2488908191782335
1589986463.903142,-1.9699543073408257,-0.5300304617727829,8.710035538734914,0.2911111111111111,-0.3888888888888889,-0.6088888888888889,0.00981720013713943,-0.002178892511706165,0.2421672027675
1589986463.913142,-1.7957281979092148,-0.6461812013938569,8.8455447349595,0.2911111111111111,-0.3888888888888889,-0.6088888888888889,0.008761360118902776,0.008379507670660358,0.2527256029498665
1589986463.923142,-1.8973536776531421,-0.6830319008163515,8.833484049591824,0.2911111111111111,-0.3888888888888889,-0.6088888888888889,-0.0011822126491109978,0.031246780144250377,0.27018804329122964
1589986463.933142,-1.9328003987424276,-0.6323982056590752,8.823599800628786,0.2868443115303019,-0.3931556884696982,-0.6145779549966346,0.002312735243098268,-0.0024010238629069564,0.288459748831903
1589986463.943142,-2.056308126062104,-0.5910532210721458,8.891574231422833,0.28444444444444444,-0.3955555555555556,-0.6177777777777778,-0.015040631990775037,-0.01423885535622807,0.3132969899988157
1589986463.953142,-2.099570943823049,-0.5308581123539022,8.87042905617695,0.28444444444444444,-0.3955555555555556,-0.6177777777777778,-0.009926683502357092,-0.02384226798650919,0.33245377389595854
1589986463.963142,-2.1059538344143456,-0.5389307516215185,8.875953834414345,0.28444444444444444,-0.3955555555555556,-0.6177777777777778,-0.009492745749815354,-0.021400426873700026,0.33757435805121033
1589986463.973142,-2.1143497263745545,-0.5581165754581849,8.925785066294488,0.28444444444444444,-0.3955555555555556,-0.6177777777777778,-0.00893209600664377,-0.01753157816834371,0.35050399862557075
1589986463.983142,-2.077933110367893,-0.5459777034559644,9.067933110367893,0.28444444444444444,-0.39287402452619846,-0.6150962467484207,-0.006307361133217525,-0.02595447609644243,0.36108931076290435
1589986463.993142,-2.0686664810690423,-0.5356667594654789,9.01100083518931,0.28444444444444444,-0.3888888888888889,-0.6111111111111112,0.003636001380520621,-0.019271445051904954,0.37091875621541764
1589986464.0031419,-2.0694822921790457,-0.5247411460895229,8.886376045253321,0.28444444444444444,-0.3888888888888889,-0.6111111111111112,0.008670173097228041,-0.01251631741733744,0.3735248332609208
1589986464.0131419,-2.0750914634146342,-0.47472560975609757,8.850182926829268,0.28444444444444444,-0.3888888888888889,-0.6111111111111112,0.001874033981514491,-0.016114696818861518,0.36621151533533075
1589986464.0231419,-2.085897604741131,-0.46589760474113096,8.871795209482261,0.28444444444444444,-0.3888888888888889,-0.6111111111111112,-0.0006433288794622692,-0.016809963640481027,0.3572608636797313
1589986464.0331419,-2.074386866000183,-0.46219343300009175,8.903419700999725,0.2783726701111825,-0.3940932668888278,-0.6223872634443119,-0.002793959500320649,-0.016362461737446838,0.33445549120920126
1589986464.0431418,-2.0620961395299373,-0.4679038604700627,8.94161544188025,0.2766666666666667,-0.3955555555555556,-0.6255555555555555,-0.00844555692827018,-0.018948994027837247,0.3070142831305462
1589986464.0531418,-2.0269706639217704,-0.5030293360782295,8.91697066392177,0.2766666666666667,-0.3955555555555556,-0.6255555555555555,-0.009817477042468105,-0.022337160323902726,0.2659406148624571
1589986464.0631418,-2.0260621886688384,-0.4978756226623231,8.928186566006515,0.2766666666666667,-0.3955555555555556,-0.6255555555555555,-0.010478759243395122,-0.01960103542779048,0.22876919640994423
1589986464.0731418,-2.0247280808303887,-0.48472808083038865,8.950543838339224,0.2766666666666667,-0.3955555555555556,-0.6255555555555555,-0.006882767625832942,-0.012852675149507161,0.18471119187322532
1589986464.0831418,-2.0582235457205935,-0.4736294090465677,9.004594136674026,0.2688803888346939,-0.4026339899482581,-0.6347575202660688,0.0022868970242685104,-0.006641875245562443,0.12709267934701546
1589986464.0931418,-2.0977118833009523,-0.42572029174761916,8.985720291747619,0.2644444444444444,-0.4066666666666667,-0.64,0.0015900204083495336,-0.0015900204083495336,0.05280354762679424
1589986464.1031418,-2.1086559382476415,-0.41134406175235855,8.85881686453302,0.2644444444444444,-0.4066666666666667,-0.64,0.0067561291176458605,0.004574467552652948,-0.009893874097451315
1589986464.1131418,-2.0709615342893715,-0.4021923068578743,8.855615386284251,0.2644444444444444,-0.4066666666666667,-0.64,0.006784128275503472,0.007157528316425719,-0.07220041702665807
1589986464.1231418,-2.0665951320559293,-0.4,8.919356188503366,0.2644444444444444,-0.4066666666666667,-0.64,0.002947898164360179,0.009074650089722615,-0.14050334325287112
1589986464.1331418,-2.064298806383835,-0.40570119361616525,8.93859761276767,0.2758468316767749,-0.4104674624107768,-0.6450677276588135,0.0017127345318449874,0.012926995789210763,-0.21276501045754848
1589986464.1431417,-2.124565036738978,-0.4050334587123863,8.944899623862842,0.28444444444444444,-0.4133333333333333,-0.6488888888888888,0.006515786460247813,0.01852222462639156,-0.28607664651340003
1589986464.1531417,-2.172152354727372,-0.4107085871635767,8.92073518040022,0.28444444444444444,-0.4133333333333333,-0.6488888888888888,0.01090830782496456,0.024931617387282685,-0.3588659222086528
1589986464.1631417,-2.1567014258352843,-0.42721642902745266,8.886186422643116,0.28444444444444444,-0.4133333333333333,-0.6488888888888888,0.011819229295600033,0.029935980929477118,-0.4435976313641477
1589986464.1731417,-2.1853606954635576,-0.43097947840233175,8.98,0.28444444444444444,-0.4133333333333333,-0.6488888888888888,0.014180800172453925,0.03155540114944612,-0.5448421648571278
1589986464.1831417,-2.156140440581192,-0.45,8.978070220290597,0.2857309642507137,-0.4148342731073141,-0.6512475085337158,0.015864850660817793,0.038140778160106914,-0.6224237962529482
1589986464.1931417,-2.1583079310756497,-0.4774618966134745,8.95169206892435,0.2911111111111111,-0.4211111111111111,-0.6611111111111111,0.02340671780195413,0.045538028734533095,-0.7405697672076588
1589986464.2031417,-2.1858515596988166,-0.49829688060236643,8.883187522409466,0.2911111111111111,-0.4211111111111111,-0.6611111111111111,0.02718980793746455,0.05483214051291705,-0.8451083395931533
1589986464.2131417,-2.19,-0.5278012228749551,8.855400174696422,0.2911111111111111,-0.4211111111111111,-0.6611111111111111,0.03239776952226218,0.06420647136555278,-0.9348218218926562
1589986464.2231417,-2.19,-0.5824200451789324,8.873452027107358,0.2911111111111111,-0.4211111111111111,-0.6611111111111111,0.03392832602284097,0.07018972782284516,-1.0215186086493284
1589986464.2331417,-2.2104173396778277,-0.6355216745972847,8.905313004758371,0.2973497426793362,-0.4109024412721972,-0.6611111111111111,0.0332817200403252,0.0753356110373552,-1.120682435689825
1589986464.2431417,-2.243165120593692,-0.673165120593692,8.926582560296845,0.3033333333333333,-0.4011111111111111,-0.6611111111111111,0.03381575425739013,0.08141200009952029,-1.2274772724813312
1589986464.2531416,-2.25,-0.68,8.853852837685809,0.3033333333333333,-0.4011111111111111,-0.6611111111111111,0.03630766431695237,0.08456441284277215,-1.331344308824191
1589986464.2631416,-2.285136026018547,-0.715136026018547,8.893244846833385,0.3033333333333333,-0.4011111111111111,-0.6611111111111111,0.03938789413021715,0.0889175469102863,-1.4150449350871057
1589986464.2731416,-2.2941184384831925,-0.7535262460672296,8.931763123033614,0.3033333333333333,-0.4011111111111111,-0.6611111111111111,0.04164389662270489,0.09310527028787786,-1.492955349326427
1589986464.2831416,-2.312190236537494,-0.7773967455124979,8.954793491024997,0.3337421759958247,-0.3871394806986151,-0.6594673898861115,0.0465766993650244,0.1029708757725169,-1.5930866788531006
1589986464.2931416,-2.358692443518812,-0.8109539548150495,8.944523022592476,0.34444444444444444,-0.38222222222222224,-0.6588888888888889,0.0505289689362636,0.11003127674618877,-1.6720776461872875
1589986464.3031416,-2.3632025017550577,-0.8607849894696534,8.865227519305636,0.34444444444444444,-0.38222222222222224,-0.6588888888888889,0.05052755474437856,0.11645518404532253,-1.7390275095454446
1589986464.3131416,-2.365339356632248,-0.9227148530579825,8.85135742652899,0.34444444444444444,-0.38222222222222224,-0.6588888888888889,0.051343082909473474,0.11831812183479544,-1.7977285519533681
1589986464.3231416,-2.373045772325551,-0.9691373169766522,8.863908455348898,0.34444444444444444,-0.38222222222222224,-0.6588888888888889,0.05269211978074853,0.12013542005604784,-1.8468379558355048
1589986464.3331416,-2.3799615815855426,-0.9898847447566284,8.850076836828913,0.34444444444444444,-0.38222222222222224,-0.6588888888888889,0.05344651754341587,0.12541620439471923,-1.8890842305448758
1589986464.3431416,-2.366818973113542,-1.0604569193406264,8.936590513443228,0.3888888888888889,-0.3622222222222222,-0.7033333333333334,0.04683096039506664,0.12767704372027266,-1.9599276610820904
1589986464.3531415,-2.384542452070243,-1.1136273562107297,8.880033027227324,0.3888888888888889,-0.3622222222222222,-0.7033333333333334,0.044820280843981375,0.13199052468207118,-2.020599881518321
1589986464.3631415,-2.4047990687492398,-1.1447990687492398,8.82,0.3888888888888889,-0.3622222222222222,-0.7033333333333334,0.052868762618829,0.13737161793005523,-2.0701045825202806
1589986464.3731415,-2.4083072559246044,-1.2106685576600482,8.82,0.3888888888888889,-0.3622222222222222,-0.7033333333333334,0.05775817076886837,0.14459947319627503,-2.107519207031356
1589986464.3831415,-2.4104929774843513,-1.3036619849895674,8.87464793995827,0.4033098730445434,-0.33034425724656485,-0.7086463274959429,0.06406710657512647,0.1457718642593591,-2.1620343222401557
1589986464.3931415,-2.42,-1.3757144039221365,8.946000082745496,0.41,-0.31555555555555553,-0.7111111111111111,0.06186568221720374,0.14579732701854536,-2.2005797312619984
1589986464.4031415,-2.4267200868851155,-1.4772008688511562,8.822158088527457,0.41,-0.31555555555555553,-0.7111111111111111,0.06292788409143901,0.1513026591992595,-2.2389523294089813
1589986464.4131415,-2.4008751447079977,-1.560968496761004,8.793687282938004,0.41,-0.31555555555555553,-0.7111111111111111,0.06833030225332476,0.1585726836352409,-2.276096708806095
1589986464.4231415,-2.367366850363427,-1.61394972445486,8.832633149636573,0.41,-0.31555555555555553,-0.7111111111111111,0.06610982963050978,0.1585004548023473,-2.3062760852092348
1589986464.4331415,-2.316253841312155,-1.646749231737569,8.870247695212708,0.4497454757879061,-0.28930854324278743,-0.7261094038612643,0.061795731437286,0.16296944846952346,-2.3650799004127
1589986464.4431415,-2.319452721726889,-1.747263608634444,8.821641834819333,0.4688888888888889,-0.2766666666666667,-0.7333333333333333,0.061086523819801536,0.16580627893946132,-2.3856469213197493
1589986464.4531415,-2.263379670818505,-1.8,8.736703736654805,0.4688888888888889,-0.2766666666666667,-0.7333333333333333,0.06326666899413817,0.171619999404359,-2.4045415128306664
1589986464.4631414,-2.195126004737312,-1.8406863278064691,8.773935657981594,0.4688888888888889,-0.2766666666666667,-0.7333333333333333,0.06752915179572219,0.17326487094806045,-2.448880013577401
1589986464.4731414,-2.221798744057153,-1.9425182416800142,8.845899372028576,0.4688888888888889,-0.2766666666666667,-0.7333333333333333,0.06981317007977318,0.18139184995639168,-2.4875650941848892
1589986464.4831414,-2.216795064700572,-2.01,8.843397532350286,0.4765740462099174,-0.23528505032266697,-0.7410184906543619,0.07039354589182667,0.18690267709411587,-2.516434676219375
1589986464.4931414,-2.17,-2.0742213223775603,8.82,0.4833333333333333,-0.1988888888888889,-0.7477777777777778,0.06670072514174535,0.1871525860555839,-2.549642156134137
1589986464.5031414,-2.1406099050470826,-2.133512075962334,8.749463772112998,0.4833333333333333,-0.1988888888888889,-0.7477777777777778,0.06307663135628545,0.18999611018289234,-2.578133233873258
1589986464.5131414,-2.1016646797127154,-2.2050059608618535,8.742782414003663,0.4833333333333333,-0.1988888888888889,-0.7477777777777778,0.057510517187827605,0.19422884223293008,-2.606723693850124
1589986464.5231414,-2.0725566771134356,-2.2516288819243764,8.775814440962188,0.4833333333333333,-0.1988888888888889,-0.7477777777777778,0.057078567598648045,0.19761805508627467,-2.628953932459668
1589986464.5331414,-2.0529737369753147,-2.3302626302468528,8.801078789074056,0.5153418648902328,-0.18405566694788666,-0.7829090929012041,0.058138415855484286,0.207728559206247,-2.6491255280662958
1589986464.5431414,-2.0369028944539553,-2.3469028944539554,8.78380578890791,0.5288888888888889,-0.17777777777777778,-0.7977777777777778,0.054956686294066075,0.2094781629206279,-2.6647063382323
1589986464.5531414,-2.0082767997457314,-2.4008249607119523,8.717864319389754,0.5288888888888889,-0.17777777777777778,-0.7977777777777778,0.0487114412359881,0.20977045958872456,-2.670827682261958
1589986464.5631413,-1.9989297033105502,-2.5102875252968806,8.6878594066211,0.5288888888888889,-0.17777777777777778,-0.7977777777777778,0.04336836464034871,0.21244713592729936,-2.6706186222108337
1589986464.5731413,-1.9860415284169965,-2.587474044739377,8.717031146312747,0.5288888888888889,-0.17777777777777778,-0.7977777777777778,0.04712162478006648,0.21200466134602153,-2.667464752745544
1589986464.5831413,-1.7746556509391338,-2.4683757180662234,8.602327825469567,0.5506195988152356,-0.17777777777777778,-0.7977777777777778,0.038788176793519175,0.20611639455660688,-2.6637834591887337
1589986464.5931413,-1.6386730797118965,-2.4513269202881034,8.837165369555759,0.5611111111111111,-0.17777777777777778,-0.7977777777777778,-0.03617047651886652,0.1513557107830923,-2.6666371689973194
1589986464.6031413,-1.6716372556198287,-2.5988240462766345,9.233197627590247,0.5611111111111111,-0.17777777777777778,-0.7977777777777778,-0.03832660352454159,0.1380056293586651,-2.644106723130251
1589986464.6131413,-1.6707190227727118,-2.60786243721656,8.754314136636271,0.5611111111111111,-0.17777777777777778,-0.7977777777777778,0.12544213562906445,0.2433307189008142,-2.563688064063562
1589986464.6231413,-1.6205335468807287,-2.608468054724736,8.363666132798178,0.5611111111111111,-0.17777777777777778,-0.7977777777777778,0.10300944746533285,0.2214593822724942,-2.5418103260251637
1589986464.6331413,-1.64080004961548,-2.73480029769288,8.628001323079468,0.5463110431195274,-0.18537781269237485,-0.8213778861967898,0.0016142365226300553,0.14673843418467933,-2.544122813792695
1589986464.6431413,-1.7074019202416484,-2.932953360422885,9.246654320543708,0.52,-0.1988888888888889,-0.8633333333333333,-0.019654606219929593,0.13115187668574715,-2.51256386097897
1589986464.6531413,-1.6056877243359655,-2.9037200287150036,8.664664752333094,0.52,-0.1988888888888889,-0.8633333333333333,0.07856918184896494,0.18785515619031534,-2.4303063792818196
1589986464.6631413,-1.6307875212073637,-3.036779012939657,8.707552353700843,0.52,-0.1988888888888889,-0.8633333333333333,0.044073585414328834,0.1665503950785733,-2.3875248208601008
1589986464.6731412,-1.667281972265023,-3.1593204930662555,8.924563944530046,0.52,-0.1988888888888889,-0.8633333333333333,0.04067823962234357,0.15628529272909236,-2.3472139610514855
1589986464.6831412,-1.5875575674752307,-3.1075575674752307,8.734799111718482,0.481599703906161,-0.14836218350225866,-0.7494798238621265,0.05999569303730508,0.1596907320000926,-2.285572681700593
1589986464.6931412,-1.5266183829338953,-3.1934974980247564,8.686705293652883,0.4566666666666666,-0.11555555555555555,-0.6755555555555556,0.04688676266982726,0.14688063778630905,-2.228154169160346
1589986464.7031412,-1.51,-3.2871463931407296,8.657546979267737,0.4566666666666666,-0.11555555555555555,-0.6755555555555556,0.05193800440854697,0.14766353021574968,-2.1769610630245904
1589986464.7131412,-1.504724985540775,-3.356925101214575,8.678025159051474,0.4566666666666666,-0.11555555555555555,-0.6755555555555556,0.05297071756191957,0.14344967366157457,-2.1133809206816534
1589986464.7231412,-1.371811752925715,-3.249794104762501,8.902252957006072,0.4566666666666666,-0.11555555555555555,-0.6755555555555556,0.05477446450375001,0.13766797839363637,-2.0502767691757944
1589986464.7331412,-1.1656620744120745,-3.0145103545103544,8.90828975078975,0.4656942494442494,-0.09519924144924144,-0.6686521099021099,0.07798085649818744,0.1495024938666047,-1.9849434045100474
1589986464.7431412,-1.1607771967068814,-3.060875058250919,8.275975767617666,0.5133333333333333,0.012222222222222223,-0.6322222222222222,0.058459617131916275,0.1328797723307857,-1.8878255395323364
1589986464.7531412,-1.272664415564019,-3.345328831128038,9.288718442027562,0.5133333333333333,0.012222222222222223,-0.6322222222222222,-0.011149310801646311,0.07088926742989383,-1.8365470155744534
1589986464.7631412,-1.2494372489394452,-3.34253557082254,9.106901678116905,0.5133333333333333,0.012222222222222223,-0.6322222222222222,0.056600427453868556,0.11032772366663754,-1.7192269167107854
1589986464.7731411,-1.2066964829687068,-3.3398211021877593,8.94794876765439,0.5133333333333333,0.012222222222222223,-0.6322222222222222,0.045834407588902455,0.09710345436623588,-1.6419540190698334
1589986464.7831411,-1.176161055810312,-3.372053685270104,8.62026842635052,0.5133333333333333,0.04974648622450882,-0.6406099988815569,0.0418849739706041,0.09098699956924365,-1.5468375542223383
1589986464.7931411,-1.159730611385878,-3.419191834157634,8.698114279701148,0.5133333333333333,0.10666666666666667,-0.6533333333333333,0.03866830403106741,0.08448319689591856,-1.4532562394007253
1589986464.803141,-1.1678252822939605,-3.514434943541208,8.896695169376377,0.5133333333333333,0.10666666666666667,-0.6533333333333333,0.03901402828829211,0.07853981633974483,-1.3558726613466825
1589986464.813141,-1.1149482335116274,-3.4698964670232546,8.788143522875968,0.5133333333333333,0.10666666666666667,-0.6533333333333333,0.04736117761470477,0.07398527666617316,-1.2614610972386235
1589986464.823141,-1.008555189714644,-3.2798428190655375,8.59505017246786,0.5133333333333333,0.10666666666666667,-0.6533333333333333,0.04409984451439977,0.060900827751740154,-1.1727492581965837
1589986464.833141,-0.8997786827195468,-3.125468838526912,8.478563385269123,0.5151012747875354,0.12434608120868745,-0.6436096553352219,0.043229384421989946,0.05355913475898595,-1.0785546485794595
1589986464.843141,-0.9893663466593967,-3.3734930773275176,8.732209802737911,0.52,0.17333333333333334,-0.6166666666666667,0.05066380382199156,0.06254154547266391,-0.9618380085627308
1589986464.853141,-0.9566867266591675,-3.35,8.844396512935884,0.52,0.17333333333333334,-0.6166666666666667,0.03778483224630047,0.05306302781844585,-0.8783025891911073
1589986464.863141,-0.9571466509294777,-3.378586603717911,8.572186485688993,0.52,0.17333333333333334,-0.6166666666666667,0.035913084850115684,0.04939284358135472,-0.790916370223981
1589986464.873141,-0.9633574498567334,-3.4277858166189112,8.717785816618912,0.52,0.17333333333333334,-0.6166666666666667,0.019252928891839844,0.03125995961312838,-0.7246241985411128
1589986464.883141,-0.949937553221686,-3.4431876241839343,8.756375248367869,0.5225764026871038,0.18658340429558143,-0.6188750118270413,0.03166815212642351,0.03819951304779173,-0.6303023379343807
1589986464.893141,-0.958830764766572,-3.478830764766572,8.80904613747743,0.5277777777777778,0.21333333333333332,-0.6233333333333333,0.022350284282041614,0.029603468424136033,-0.547808494477664
1589986464.903141,-0.9368057523377727,-3.462129498441485,8.724028761688864,0.5277777777777778,0.21333333333333332,-0.6233333333333333,0.024740669629731,0.025250769799414985,-0.4888695394281932
1589986464.913141,-0.9242160426897974,-3.4942160426897972,8.64331016008674,0.5277777777777778,0.21333333333333332,-0.6233333333333333,0.022204298074211988,0.015902562822811824,-0.3754053890139137
1589986464.923141,-0.9284988207001803,-3.4689346991629284,8.753438237062387,0.5277777777777778,0.21333333333333332,-0.6233333333333333,0.021441562167411898,0.01103773141893832,-0.29112771756573697
1589986464.933141,-0.8500111372055299,-3.3025153136576035,8.785002784301382,0.5316645010989247,0.22249489544746548,-0.6327725185418331,0.017725848355484623,0.0062718214191062605,-0.19690923108839226
1589986464.943141,-0.8080846148769059,-3.3140399973599104,8.791701537852287,0.5433333333333333,0.25,-0.6611111111111111,0.014598672382975308,0.002019379696882093,-0.0856659630752695
1589986464.953141,-0.8538897879750077,-3.4475904947249822,8.73740141349995,0.5433333333333333,0.25,-0.6611111111111111,0.0051105807632272765,-0.006787195385370605,0.018849976030495253
1589986464.963141,-0.8618862036057878,-3.41,8.605658610817365,0.5433333333333333,0.25,-0.6611111111111111,-0.0009161110394074719,-0.008140420725832829,0.10477374661514893
1589986464.973141,-0.8684288527914822,-3.424743082233186,8.636343870049336,0.5433333333333333,0.25,-0.6611111111111111,-0.005856209110703171,-0.020096293333601075,0.18011211379024664
1589986464.983141,-0.8971278832292168,-3.438511532916867,8.729895182604517,0.5685441360990976,0.259254598483635,-0.6652597242244648,-0.0027853926335850757,-0.028988199021806795,0.23929671113840043
1589986464.993141,-0.882947054494752,-3.4452647275262405,8.694105891010496,0.6311111111111111,0.2822222222222222,-0.6755555555555556,-0.002302620879075074,-0.029389226400241573,0.3055426781326032
1589986465.003141,-0.8752780016116035,-3.494165995165189,8.738473005640612,0.6311111111111111,0.2822222222222222,-0.6755555555555556,-0.01537754965703807,-0.029573732213612616,0.36018687462138416
1589986465.013141,-0.9199894025386808,-3.45,8.777147398911993,0.6311111111111111,0.2822222222222222,-0.6755555555555556,-0.008414319748571325,-0.03786675087597563,0.42276691781931036
1589986465.023141,-0.9665589103123202,-3.4631178206246407,8.7436027242192,0.6311111111111111,0.2822222222222222,-0.6755555555555556,-0.011623773951795794,-0.0410762050792001,0.4677195633994851
1589986465.033141,-0.9761488553467577,-3.4495629811409554,8.717702289306485,0.6946549978896097,0.3068267575068261,-0.7003740433208951,-0.013720111460297979,-0.044222779371603134,0.5064914671585268
1589986465.043141,-0.9142361088947755,-3.2256553793125455,8.744279513611847,0.9611111111111112,0.41,-0.8044444444444444,-0.016362461737446838,-0.050021030248723564,0.5527534067539968
1589986465.0531409,-0.8071464590048831,-3.0984864200682987,8.730893307375611,0.9611111111111112,0.41,-0.8044444444444444,-0.016362461737446838,-0.047100613084057,0.5826876826918292
1589986465.0631409,-1.0175370512106874,-3.485074102421375,8.625123504035624,0.9611111111111112,0.41,-0.8044444444444444,-0.027265380682258512,-0.049904161079174635,0.6466586545467236
1589986465.0731409,-1.0394249234622879,-3.5288498469245755,8.698083078207626,0.9611111111111112,0.41,-0.8044444444444444,-0.024081918706872426,-0.049108295585328116,0.6872477947328962
1589986465.0831409,-1.0506686137477834,-3.514267445499113,8.768534890998227,0.9948950546457589,0.33401576208523115,-0.8665594844870947,-0.022282121741235002,-0.055472551307434566,0.7591468831237788
1589986465.0931408,-1.138168352977991,-3.549267341191196,8.838534682382393,1.2719775622080827,-0.28917682509880277,-1.376002410671859,-0.02610001810174393,-0.06310834402845242,0.8211876989820488
1589986465.1031408,-1.149669553848668,-3.469669553848668,8.6772521653865,1.2777777777777777,-0.3022222222222222,-1.3866666666666667,-0.02121713113360634,-0.07195878556138306,0.919784700834719
1589986465.1131408,-1.1770877594378166,-3.4970877594378167,8.697815819578361,1.2777777777777777,-0.3022222222222222,-1.3866666666666667,-0.02570342453222528,-0.07494964782712903,0.9698816437859638
1589986465.1231408,-1.164940824865511,-3.457411237298267,8.742352062163778,1.2777777777777777,-0.3022222222222222,-1.3866666666666667,-0.02017391447035855,-0.07798794594267071,1.0481334618392728
1589986465.1331408,-1.1742904290429041,-3.4657260726072607,8.77286303630363,1.1848386505317197,-0.2548010634396773,-1.2942033370003667,-0.022128024437671506,-0.08009776030385486,1.093319352722201
1589986465.1431408,-1.1684018036072144,-3.428688806183796,8.754344403091897,0.6266666666666667,0.03,-0.7388888888888889,-0.02488346469072684,-0.0855587018971451,1.1420820287142126
1589986465.1531408,-1.202236629218604,-3.468946516874416,8.739538089920925,0.6266666666666667,0.03,-0.7388888888888889,-0.02829706973598502,-0.0898715503559234,1.1738346951127863
1589986465.1631408,-1.196862312745789,-3.4405869382373666,8.677155781864473,0.6266666666666667,0.03,-0.7388888888888889,-0.03125981159328601,-0.09016467384809462,1.199047117567465
1589986465.1731408,-1.199225750505843,-3.4853871247470787,8.723467811867696,0.6266666666666667,0.03,-0.7388888888888889,-0.029661795684411518,-0.09062341246536172,1.2164452375198602
1589986465.1831408,-1.1730926375881672,-3.5092779127645017,8.746083130853247,0.6184196330982206,0.04941489152571694,-0.7352808117026938,-0.027439446776425323,-0.09330541565265345,1.2219779211084576
1589986465.1931407,-1.1858937636577576,-3.550760968229955,8.674106236342242,0.5733333333333334,0.15555555555555556,-0.7155555555555555,-0.028809521245140215,-0.09076291539732202,1.2154634894400573
1589986465.2031407,-1.1576920490838796,-3.487307110438729,8.70230795091612,0.5733333333333334,0.15555555555555556,-0.7155555555555555,-0.03188585108277672,-0.09230108031614027,1.202389087630102
1589986465.2131407,-1.2128641606815285,-3.597135839318472,8.614320803407642,0.5733333333333334,0.15555555555555556,-0.7155555555555555,-0.03069947764177213,-0.08928922909223493,1.1529867023739293
1589986465.2231407,-1.232830942401165,-3.56301434559301,8.719816596808155,0.5733333333333334,0.15555555555555556,-0.7155555555555555,-0.02978124522359812,-0.08057707704136813,1.0799581294706675
1589986465.2331407,-1.2431209421712215,-3.526241884342443,8.767919371885853,0.5748360091935512,0.15416847014612378,-0.7204103544885667,-0.025089107997418484,-0.0769950629184804,1.0190515476347621
1589986465.2431407,-1.2668694322814436,-3.573738864562887,8.752087045145704,0.5862704673947691,0.1436135856526918,-0.7573524502155787,-0.025089107997418484,-0.07354098504514138,0.9542875875096551
1589986465.2531407,-1.2888099694423225,-3.576429908326967,8.749289724980901,0.5877777777777777,0.14222222222222222,-0.7622222222222222,-0.01771291691282853,-0.06729440513640794,0.8403855556463392
1589986465.2631407,-1.2807994652406418,-3.552398395721925,8.677195187165776,0.5877777777777777,0.14222222222222222,-0.7622222222222222,-0.01946053782613063,-0.05768249011324641,0.762616425004396
1589986465.2731407,-1.171844249863501,-3.4181557501364987,8.723401751228488,0.5877777777777777,0.14222222222222222,-0.7622222222222222,-0.010590903442255585,-0.04678949571681083,0.6347831771849975
1589986465.2831407,-1.1838946605460257,-3.410556380078004,8.661683981638078,0.5848104173617582,0.13733844153752345,-0.7597494218755393,-0.004606089736327492,-0.04120880312852366,0.5405568212293126
1589986465.2931406,-1.25,-3.3843698382446368,8.827932854420173,0.5344444444444445,0.054444444444444434,-0.7177777777777777,-0.005228663309444602,-0.031258275020667754,0.3720889207362534
1589986465.3031406,-7.693731505811614,-6.67295599270885,1.886839239637336,0.5344444444444445,0.054444444444444434,-0.7177777777777777,-0.1805761220534565,0.44572727806833995,0.13054850438552623
1589986465.3131406,-10.73036439221515,-8.726079706442473,-7.151867481072042,0.5344444444444445,0.054444444444444434,-0.7177777777777777,-0.83427385782019,0.8153379697534666,-2.463771741629764
1589986465.3231406,2.1047588947083256,-2.0315369333574136,-1.590966227198844,0.5344444444444445,0.054444444444444434,-0.7177777777777777,-1.3309829811352818,-0.4601392958862867,-7.39023118976904
1589986465.3331406,-1.7638674809279458,-1.979648410824732,-0.02473630811854916,0.5322612876861409,0.06740693769687194,-0.7090451507445634,-1.0290547449923717,-1.598702954950129,-9.105529166260675
1589986465.3431406,-0.3235677911536885,-2.1105847462587555,-0.12293855969406668,0.5177128059712495,0.15378854787904014,-0.6508512238849975,-1.1334987329481814,-0.8033218159020398,-8.918958281792607
1589986465.3531406,-0.40560859685337125,-2.7186745650401565,1.9817894499470936,0.5166666666666667,0.16,-0.6466666666666666,-1.2042272110388037,-0.6883709895681571,-8.618989914741327
1589986465.3631406,-1.0022062828496592,-5.185096705927249,8.6971512081736,0.5166666666666667,0.16,-0.6466666666666666,-1.2074017823590524,-0.528848780725679,-8.407087279114752
1589986465.3731406,-0.2668684855280096,-1.829406586105228,1.0530513682986586,0.5166666666666667,0.16,-0.6466666666666666,0.4495775653054618,1.7870695084355965,-7.59439670378229
1589986465.3831406,-0.31558104560866235,-2.2528644864923986,3.2955960844361805,0.49964550901114396,0.18929603096479397,-0.6453573468470111,1.1269220040393615,2.589761637077399,-7.1626418849197195
1589986465.3931406,0.5247070904143349,-0.8145546028649173,9.691832417723468,0.4011111111111111,0.3588888888888889,-0.6377777777777778,2.1399483907714707,3.231311343216855,-6.481729278984423
1589986465.4031405,2.1046433288273594,1.7188191239764448,18.402559393402633,0.4011111111111111,0.3588888888888889,-0.6377777777777778,2.8647180586138496,2.1758281059004005,-5.791140624253588
1589986465.4131405,0.41021364533320925,0.1286620363896267,2.4227840706039565,0.4011111111111111,0.3588888888888889,-0.6377777777777778,2.3827288866884198,0.2443169257803528,-5.2018057812946195
1589986465.4231405,0.08137911066410655,0.4462116363414708,-1.093610374569504,0.4011111111111111,0.3588888888888889,-0.6377777777777778,0.9208210931411538,0.11731652178314333,-4.514506006265635
1589986465.4331405,-0.8709702538782724,0.9767149736368899,-1.5665892536039743,0.4011111111111111,0.3588888888888889,-0.6377777777777778,0.2542824928577443,0.5084547589787424,-4.22864740154158
1589986465.4431405,-0.131505722763883,0.3724730818143281,0.8791386180584995,0.30666666666666664,0.4266666666666667,-0.6522222222222223,-1.7222305209778883,0.1673937714355878,-3.5328291557874643
1589986465.4531405,-0.8612225459151361,-0.27894996833438884,2.448258898036732,0.30666666666666664,0.4266666666666667,-0.6522222222222223,-1.763251926443886,0.31384673094099236,-2.9405555662394245
1589986465.4631405,-1.0918020235165435,-1.7540591673502872,10.190339930270714,0.30666666666666664,0.4266666666666667,-0.6522222222222223,-0.5248740774396004,0.19315508749653248,-2.481622655037769
1589986465.4731405,0.05512168444079868,-1.5175061525840854,8.104372436423297,0.30666666666666664,0.4266666666666667,-0.6522222222222223,0.2390786682110887,0.013309507660648617,-2.1281869937950755
1589986465.4831405,-0.33620295522809285,0.4319206966758723,-0.5305295623601508,0.2992600058683474,0.43343847082513,-0.6506350806225825,1.3795442929238884,0.39187069503478145,-1.626016262526464
1589986465.4931405,0.7629544217549944,-0.9716187231640697,4.170481988429053,0.23349845339927383,0.49356331879685444,-0.6365433193792095,0.7662123878638063,0.15207175471053885,-1.3511697847702173
1589986465.5031404,1.2979939282960677,-2.950933404009252,13.087705763299923,0.2288888888888889,0.4977777777777778,-0.6355555555555555,-0.6662896080375658,-0.18262579414904606,-0.9211280110061988
1589986465.5131404,0.7162349462237378,-2.524600195550044,10.918521212410273,0.2288888888888889,0.4977777777777778,-0.6355555555555555,-0.36246551240479696,0.20393905201298315,-0.611151674602424
1589986465.5231404,0.7620011808865084,-2.1102256336721354,8.493794441398506,0.2288888888888889,0.4977777777777778,-0.6355555555555555,0.30497270448837904,0.10796827872531282,-0.40959658464069354
1589986465.5331404,0.6291640187185857,-1.7680755676237796,6.870961349586921,0.2249614522952093,0.5018506749860381,-0.6338100281805868,0.16625202659239313,0.058416260310346496,-0.16577710020861056
1589986465.5431404,0.7182491125247182,-2.3132220713315705,9.659891835227409,0.1988888888888889,0.5288888888888889,-0.6222222222222222,-0.17268301154234672,-0.044514357901477355,0.13101196581200378
1589986465.5531404,0.7733030588235295,-2.572262588235294,10.111288235294118,0.1988888888888889,0.5288888888888889,-0.6222222222222222,0.005456848906180211,-0.02181661564992912,0.385799179167031
1589986465.5631404,0.72061537180448,-2.571346073778,9.33303813806312,0.1988888888888889,0.5288888888888889,-0.6222222222222222,0.05146197912657337,-0.034356991264426956,0.6360886903312746
1589986465.5731404,0.6891943540982586,-2.396918563936569,8.604310524595776,0.1988888888888889,0.5288888888888889,-0.6222222222222222,-0.08959309521751943,-0.07482791231754966,0.8694219766368931
1589986465.5831404,0.6826671750260664,-2.5339893244526057,8.963305373566348,0.1988888888888889,0.5288888888888889,-0.6222222222222222,-0.05541686551441254,-0.07126788839014268,1.055255225647537
1589986465.5931404,16.50952438547188,-22.78720251858703,5.0952655544093055,0.18124170451266605,0.5386928802090127,-0.6535949944466184,0.03362378883883477,-0.09580079420143858,1.3756676891118995
1589986465.6031404,4.7340327311370896,-8.5474958554729,8.353800637619553,0.17888888888888888,0.54,-0.6577777777777778,-0.36304016940343636,-0.3832203765881123,2.221609341609515
1589986465.6131403,-0.877188345692897,-0.7507825185393455,10.551992584261765,0.17888888888888888,0.54,-0.6577777777777778,-0.26732751486015127,-0.3078550432308328,4.220618364375811
1589986465.6231403,-1.9238101430429126,-2.3207152145643692,11.723914174252275,0.17888888888888888,0.54,-0.6577777777777778,0.5808978895490944,0.010530985343632893,4.342827143020555
1589986465.6331403,-1.1931861387620686,-2.142774492927176,7.690674350722251,0.1796337183677203,0.5403546807042054,-0.658380734974927,0.3459843616151555,0.0015281917960308887,4.389862011774138
1589986465.6431403,-0.5339518000149689,-3.1944102237856447,12.132658109422948,0.19794578333291754,0.5490747116400136,-0.6732047875658009,-0.42706223118767955,-0.4436370665178941,4.291412002723945
1589986465.6531403,0.3557304806003512,-2.849704614402044,9.99609292671244,0.20222222222222225,0.5511111111111111,-0.6766666666666666,-0.5124056987601805,-0.5224004815246001,4.316014375453806
1589986465.6631403,-0.35687077275689283,-2.5859076916162955,7.425255376042065,0.20222222222222225,0.5511111111111111,-0.6766666666666666,0.04692771037210547,-0.2469642558347097,4.416236646511211
1589986465.6731403,-0.22824508727972997,-2.8252231172219577,8.190035822997121,0.20222222222222225,0.5511111111111111,-0.6766666666666666,-0.022933422358540564,-0.23052091682914727,4.454828321621222
1589986465.6831403,-0.15835288922533436,-3.3171763815291446,9.973764193792581,0.20520270838590296,0.5496731572602125,-0.6770065466677881,-0.28650341573986526,-0.43272607542682423,4.429928010665374
1589986465.6931403,1.782006256562828,-4.920611655582779,8.660778351417571,0.3288888888888889,0.49,-0.6911111111111111,-0.1419773105362695,-0.32100024815130856,4.4857244521980855
1589986465.7031403,7.461941400134198,-11.578537239991054,7.32862148661746,0.3288888888888889,0.49,-0.6911111111111111,-0.05702768666981026,-0.30836012492749676,4.405832349338699
1589986465.7131402,6.078225788414224,-18.66128494743905,11.33123387758145,0.3288888888888889,0.49,-0.6911111111111111,-0.2616920369728693,-0.36975943001841455,3.796955907187099
1589986465.7231402,-0.9670712159377147,1.1362048004663072,3.181454711992839,0.3288888888888889,0.49,-0.6911111111111111,-0.38358703293567087,-0.22901047279387135,-1.6501299287755629
1589986465.7331402,-0.49398538850198004,0.2514331558104602,6.305858254813601,0.3310971520475822,0.4879660734064667,-0.6909367745459511,0.4129808926282583,0.6119343953660296,-2.324635771032099
1589986465.7431402,-0.27442851290454734,-0.4263293732077017,2.869315854158132,0.41170740589011784,0.41371978697255224,-0.6845728071373298,1.1533464242361364,0.5713236278094792,-1.8893716469644575
1589986465.7531402,-0.6494559162886926,-1.8296033261717195,8.352299673748707,0.4133333333333333,0.4122222222222222,-0.6844444444444444,-0.1346788665991869,-0.12653578486143405,-1.569232733232352
1589986465.7631402,-1.6423772578976683,-2.246797167183894,11.82335243097,0.4133333333333333,0.4122222222222222,-0.6844444444444444,-0.749047510058604,0.05640954452425903,-1.3780958219338668
1589986465.7731402,-6.087846626698033,-10.47817826515899,6.88308624876679,0.4133333333333333,0.4122222222222222,-0.6844444444444444,-0.17664136525519625,0.06212091733387825,-1.1070173925764908
1589986465.7831402,-2.146152403210431,-7.593595436514038,7.229994772286971,0.4133333333333333,0.4122222222222222,-0.6844444444444444,0.21308313797773545,0.18954384897268764,-0.34275235570142737
1589986465.7931402,-0.8763472795974705,-2.17824147855199,10.02494351665133,0.38879869826166596,0.4218608288575202,-0.6844444444444444,-0.06410013152752311,-0.1434466932283659,1.1518200910976284
1589986465.8031402,0.9883036844064013,-3.391149609229624,8.974438034983253,0.38222222222222224,0.4244444444444445,-0.6844444444444444,0.01477387597824071,-0.14746590999866463,1.8198541452701618
1589986465.8131402,-0.681923706736137,-1.0262949385932267,8.46712597692594,0.38222222222222224,0.4244444444444445,-0.6844444444444444,-0.1239997121901732,-0.1874803802067349,1.058727839610272
1589986465.8231401,-0.7047236700904492,-1.4514521692472788,9.471484554652767,0.38222222222222224,0.4244444444444445,-0.6844444444444444,0.09504440130442979,0.15542336090614295,-0.7298788816882991
1589986465.8331401,-1.0101494711022536,-2.4641798252337876,6.521714318565078,0.38222222222222224,0.4244444444444445,-0.6844444444444444,0.30283593847921475,0.3044721428458621,-0.7000691253003553
1589986465.8431401,1.69,-4.56,8.63,0.4088888888888889,0.4122222222222222,-0.6911111111111111,-0.08944812416470939,0.04690572364734761,-0.27707101875409984
1589986465.85314,1.5284603227204363,-4.5171133600142745,8.695759514644779,0.4088888888888889,0.4122222222222222,-0.6911111111111111,-0.0887463931588953,0.037627280348250323,-0.2539138955622352
1589986465.86314,-0.6544937843773295,-4.033376181169786,9.356553704188746,0.4088888888888889,0.4122222222222222,-0.6911111111111111,-0.0655628355068525,-0.0613163250943927,0.018042454988187864
1589986465.87314,-1.2967414824814136,-4.591117603207543,7.886144500634658,0.4088888888888889,0.4122222222222222,-0.6911111111111111,0.041368339300007204,0.10276771900578854,-0.2013508174603691
1589986465.88314,-0.48528146409236816,-4.562838595314521,8.279993771858383,0.4088888888888889,0.4122222222222222,-0.6911111111111111,0.002565514010613404,0.01704179433657832,-0.035351164039872096
1589986465.89314,0.12926173694899057,-4.370323736710071,8.861748894994625,0.4088888888888889,0.4265846374387767,-0.6860420233876212,-0.022078018893231938,-0.018011413203425832,0.022581018155021004
1589986465.90314,0.010057131351773087,-4.360891450431631,8.733965721188936,0.4088888888888889,0.4311111111111111,-0.6844444444444444,0.016246523389109625,-0.0031627860628681255,-0.0019622489957504263
1589986465.91314,0.1,-4.19,8.68,0.4088888888888889,0.4311111111111111,-0.6844444444444444,0.00545415391248228,-0.002181661564992912,0.0
1589986465.92314,0.1,-4.282591016835835,8.556545310885552,0.4088888888888889,0.4311111111111111,-0.6844444444444444,0.0037708017233626656,-0.002181661564992912,0.0008416760945598072
1589986465.93314,0.1,-4.327213930348258,8.674925373134327,0.4088888888888889,0.4311111111111111,-0.6844444444444444,-0.011749495741815056,-0.0003039130538298584,-0.0007869177286665976
1589986465.94314,0.08554670269625862,-4.366133243259354,8.663866756740646,0.3984503963917423,0.42629334534319735,-0.674005951947298,-0.001567918886458625,0.0023649152411241194,0.0004857793782529567
1589986465.95314,0.08987329834968438,-4.231393718153472,8.807085862042742,0.3944444444444444,0.4244444444444445,-0.67,0.002333692631386022,-0.001090830782496456,0.003272492347489368
1589986465.96314,0.08349364970720206,-4.301569853220777,8.660353943265648,0.3944444444444444,0.4244444444444445,-0.67,0.009988721464190605,-0.001090830782496456,0.003272492347489368
1589986465.97314,0.06638099339649726,-4.251476457077232,8.668523542922768,0.3944444444444444,0.4244444444444445,-0.67,0.0037815780313676297,-0.0033192355270149484,0.003272492347489368
1589986465.98314,0.07364501413916238,-4.312337606043718,8.573549858608377,0.3944444444444444,0.4244444444444445,-0.67,-0.00704459136273554,-0.0013864428398662823,0.00029561205736982656
1589986465.99314,0.09,-4.281061228197674,8.689292514534884,0.4088888888888889,0.4177777777777778,-0.7144444444444444,-0.012922757556528644,-0.003272492347489368,0.0
1589986466.00314,0.09,-4.3496453488372095,8.64356976744186,0.4088888888888889,0.4177777777777778,-0.7144444444444444,-0.002116338558831787,-0.003272492347489368,0.0
1589986466.01314,0.08915306897424685,-4.262964258590136,8.592117327564383,0.4088888888888889,0.4177777777777778,-0.7144444444444444,0.00668356346001016,0.002043082799961487,0.0031339135824579433
1589986466.02314,0.06989660863878422,-4.329741521596961,8.64025847840304,0.4088888888888889,0.4177777777777778,-0.7144444444444444,0.009744168430820155,-0.001073913410577698,-1.1278247945838604e-05
1589986466.03314,0.0568347295319361,-4.29708682382984,8.672913176170159,0.4088888888888889,0.4177777777777778,-0.7144444444444444,0.000482773556271944,0.0010633315604718886,-0.0014361082286455632
1589986466.04314,0.0804480566447143,-4.325672084967072,8.63671590087175,0.397893757322742,0.42792712999268256,-0.696683078068361,-0.003532981193604571,0.000520977692230406,-0.000520977692230406
1589986466.05314,0.08087560432814059,-4.34,8.638248791343718,0.3944444444444444,0.4311111111111111,-0.6911111111111111,-0.0022771751804352,0.0,0.0
1589986466.06314,0.08,-4.317095060651708,8.601825101086181,0.3944444444444444,0.4311111111111111,-0.6911111111111111,0.005313962308706274,0.0,0.0
1589986466.07314,0.08,-4.28716752891053,8.6661082369649,0.3944444444444444,0.4311111111111111,-0.6911111111111111,0.005145179246989713,-0.0008302120768284931,0.0016604241536569862
1589986466.08314,0.08,-4.2588461038116305,8.704102597458913,0.3944444444444444,0.4311111111111111,-0.6911111111111111,-0.0025592732096167015,-0.001090830782496456,0.0014124841939259646
1589986466.09314,0.08,-4.28838285935384,8.677100406268137,0.39809995485909583,0.4238000902818082,-0.6990313836761893,-0.00784667988410519,-0.001090830782496456,-0.0007035636962207266
1589986466.1031399,0.08748510706810497,-4.33497021413621,8.612574464659476,0.4011111111111111,0.4177777777777778,-0.7055555555555556,-0.009000978522451034,-0.0019073293025135263,0.0002678339950582995
1589986466.1131399,0.09,-4.3275979361742785,8.581396904261418,0.4011111111111111,0.4177777777777778,-0.7055555555555556,-0.001962369766180325,-0.002181661564992912,0.0017672584318755883
1589986466.1231399,0.09,-4.2943439550140585,8.621312089971884,0.4011111111111111,0.4177777777777778,-0.7055555555555556,0.0068460621696227915,0.0006169787977850154,0.0012487814440669362
1589986466.1331398,0.08360986770118373,-4.315560529195265,8.70029145528698,0.4011111111111111,0.4177777777777778,-0.7055555555555556,0.004847594271165739,-0.00030327982065827055,0.0017878860840738193
1589986466.1431398,0.08825380586020626,-4.321746194139794,8.657461941397939,0.4111990960513631,0.42328031501791535,-0.7009701078554409,0.0005714406959705818,0.0007098703185160682,0.003982362666005436
1589986466.1531398,0.08315230825154489,-4.313152308251545,8.66739076699382,0.4133333333333333,0.4244444444444445,-0.7,-0.004481803768957085,-0.00040310380715590584,0.0013754539506811003
1589986466.1631398,0.08,-4.273108878224355,8.5969949760048,0.4133333333333333,0.4244444444444445,-0.7,0.0004973602709185442,-8.478150165398737e-05,0.0010060492808424686
1589986466.1731398,0.08,-4.290395600647966,8.651186801943899,0.4133333333333333,0.4244444444444445,-0.7,0.003315645683927117,0.0,0.001090830782496456
1589986466.1831398,0.08660696971425312,-4.286786060571494,8.673393030285746,0.4133333333333333,0.4244444444444445,-0.7,0.004363323129985824,-0.002162125782998736,0.00037012218816354406
1589986466.1931398,0.09,-4.274010286876258,8.717917704989933,0.4133333333333333,0.4204513023619501,-0.6946758105566742,-0.0008636876329744074,-0.0013123633113792813,0.0006533763453700289
1589986466.2031398,0.08233387187412194,-4.3159967687552685,8.62734194998595,0.4133333333333333,0.4177777777777778,-0.6911111111111111,-0.006872057692666718,-0.002508734562680895,0.0002545859282694911
1589986466.2131398,0.09746301884925543,-4.2950739623014895,8.572536981150744,0.4133333333333333,0.4177777777777778,-0.6911111111111111,-0.005730895625866826,-0.001367572495881002,0.0
1589986466.2231398,0.09088669950738916,-4.335566502463054,8.588226600985221,0.4133333333333333,0.4177777777777778,-0.6911111111111111,0.0034928079242497355,-0.001090830782496456,-0.0019882137414960034
1589986466.2331398,0.07583000886524824,-4.297490026595745,8.675019946808511,0.4133333333333333,0.4177777777777778,-0.6911111111111111,0.006681882507609193,0.0004548754692524561,-0.001408808439118456
1589986466.2431397,0.08406476818580978,-4.289376512123873,8.700623487876127,0.40083131716816905,0.4209032818190689,-0.6843391856883138,0.005590177866040773,-0.0019776256346551724,0.001466216231796568
1589986466.2531397,0.09099366833803024,-4.304503165830985,8.69,0.38666666666666666,0.4244444444444445,-0.6766666666666666,0.0013076155846395501,-0.0029980579589200074,0.0028896655578484606
1589986466.2631397,0.08762352408188691,-4.33287057224566,8.59089418693547,0.38666666666666666,0.4244444444444445,-0.6766666666666666,-0.004417220678346566,-0.0008315974739625274,0.00025923330853392854
1589986466.2731397,0.09699789333166468,-4.291014746678347,8.629978933316647,0.38666666666666666,0.4244444444444445,-0.6766666666666666,-0.00011069169131771531,-0.001854182528377108,0.0
1589986466.2831397,0.08974864648644626,-4.275125676756777,8.675377030270331,0.38666666666666666,0.4244444444444445,-0.6766666666666666,0.003859035361218555,-0.002181661564992912,0.0
1589986466.2931397,0.08,-4.292177275891407,8.70826591383711,0.38666666666666666,0.4203853524806422,-0.6766666666666666,0.0021333170651576215,-0.0008533268260630486,-0.0006641673694649316
1589986466.3031397,0.08,-4.312159611858191,8.701760582212714,0.38666666666666666,0.4177777777777778,-0.6766666666666666,-0.003979223675437006,-0.0013264078918123357,-0.0004276268365902881
1589986466.3131397,0.08,-4.335901414201403,8.594591514791581,0.38666666666666666,0.4177777777777778,-0.6766666666666666,-0.007412272299784574,-0.0013143739601870737,0.0008672876048058381
1589986466.3231397,0.08,-4.33276206752648,8.58447586494704,0.38666666666666666,0.4177777777777778,-0.6766666666666666,-0.003688135705602025,-0.001090830782496456,0.001090830782496456
1589986466.3331397,0.07376675335067014,-4.31130026005201,8.639865973194638,0.38666666666666666,0.4177777777777778,-0.6766666666666666,0.003257872290992616,-0.002450714246492838,0.00041088905049826497
1589986466.3431396,0.06492126704187577,-4.294921267041875,8.690314931832498,0.39061679230076324,0.4177777777777778,-0.6885170435689565,0.006544984694978735,-0.00216448469812913,0.000554003824680119
1589986466.3531396,0.07313665171787555,-4.296568325858938,8.690295022423188,0.3944444444444444,0.4177777777777778,-0.7,0.003679011880420018,-0.0003743375788567765,-0.00034215562478290295
1589986466.3631396,0.08,-4.308371711790169,8.571167746727799,0.3944444444444444,0.4177777777777778,-0.7,-0.002384398896459685,0.0009132120922905195,-0.0001776186902059365
1589986466.3731396,0.08,-4.333755145635388,8.565836763756925,0.3944444444444444,0.4177777777777778,-0.7,-0.0024087308774304265,0.001090830782496456,0.0
1589986466.3831396,0.07406692641007902,-4.310334632050395,8.63526380948913,0.3944444444444444,0.4177777777777778,-0.7,0.0004071301576881138,0.00044363285182619954,0.0012943958613405129
1589986466.3931396,0.07,-4.29,8.698915224802214,0.398647827733825,0.42198116106715844,-0.7035028194078171,-0.00056944636461962,-0.001375553964806266,-0.0012572233470227534
1589986466.4031396,0.07,-4.283364129605823,8.71,0.4011111111111111,0.4244444444444445,-0.7055555555555556,-0.00435324507338071,-0.0007339392260677132,-0.0011009088391015702
1589986466.4131396,0.08532820542478746,-4.333648718986756,8.602702562026488,0.4011111111111111,0.4244444444444445,-0.7055555555555556,-0.0046181299965929136,0.0,0.0008360239158893664
1589986466.4231396,0.08344692132048454,-4.336893842640969,8.609318472077094,0.4011111111111111,0.4244444444444445,-0.7055555555555556,-0.0015040031524911467,0.0,0.0018056607768701253
1589986466.4331396,0.08,-4.322687878787879,8.644624242424243,0.4011111111111111,0.4244444444444445,-0.7055555555555556,0.0015952573807054232,-0.0003988143451763558,0.0017828472198165562
1589986466.4431396,0.0799691722972973,-4.3099383445945945,8.67012331081081,0.40109055930930926,0.4244238926426427,-0.70549047484985,0.004370048691398175,-0.0010941935632026317,0.001090830782496456
1589986466.4531395,0.07455383087048305,-4.294553830870483,8.687230845647585,0.3944444444444444,0.4177777777777778,-0.6844444444444444,0.003067763470714856,-0.0031751533433540206,9.733900413534755e-05
1589986466.4631395,0.08,-4.307210173643634,8.602318610850926,0.3944444444444444,0.4177777777777778,-0.6844444444444444,-0.0018773387182585452,-0.0020037993226995564,-0.00030432284673436686
1589986466.4731395,0.0859652886795744,-4.298069422640851,8.585965288679574,0.3944444444444444,0.4177777777777778,-0.6844444444444444,-0.0008802374613614346,-0.0017415428343121946,0.0
1589986466.4831395,0.09,-4.294822971413922,8.638229714139213,0.3944444444444444,0.4177777777777778,-0.6844444444444444,0.0010522091362811603,-0.0016555569968523319,-0.0010522091362811603
1589986466.4931395,0.08072633082482358,-4.3,8.71782100752553,0.39753566750283653,0.42653624310988886,-0.6906268905612287,0.001170061184695817,-7.923040219936107e-05,-0.001170061184695817
1589986466.5031395,0.07592056997742665,-4.305920569977427,8.738158860045147,0.4011111111111111,0.43666666666666665,-0.6977777777777778,-0.0006458339981301322,0.001090830782496456,0.0
1589986466.5131395,0.08,-4.289042636371999,8.653156333363995,0.4011111111111111,0.43666666666666665,-0.6977777777777778,-0.0018528620280096296,-0.0004332317085298913,0.0015240624910263473
1589986466.5231395,0.07269160583941606,-4.331158759124087,8.634616788321168,0.4011111111111111,0.43666666666666665,-0.6977777777777778,-0.004573327961287605,-0.001090830782496456,0.001384439432894681
1589986466.5331395,0.07,-4.331218971099652,8.646260342966784,0.4011111111111111,0.43666666666666665,-0.6977777777777778,-0.0027225639856216254,-0.0004079333007812924,0.0004079333007812924
1589986466.5431395,0.08346002317497103,-4.3132699884125145,8.690380069524913,0.3913899832625209,0.42021552723059097,-0.6888044289944637,0.0047822122624531765,0.0,0.0
1589986466.5531394,0.0779377508459904,-4.303968875422995,8.72206224915401,0.38666666666666666,0.4122222222222222,-0.6844444444444444,0.006977921843308416,-0.0006578936341667753,0.0013157872683335506
1589986466.5631394,0.08284820585457979,-4.29357589707271,8.640062559017942,0.38666666666666666,0.4122222222222222,-0.6844444444444444,0.0023404191611706895,-0.0017915917047977969,0.002882422487294253
1589986466.5731394,0.08412500492455581,-4.295874995075444,8.607624985226332,0.38666666666666666,0.4122222222222222,-0.6844444444444444,-0.0025634501901238465,-0.002181661564992912,0.0019907672524274445
1589986466.5831394,0.07674700288095165,-4.306505994238097,8.633011988476193,0.38666666666666666,0.4122222222222222,-0.6844444444444444,-0.003298782312136753,-0.0014719676864268648,2.628996464738506e-05
1589986466.5931394,0.07025045692512624,-4.319499086149748,8.658998172299496,0.38666666666666666,0.4122222222222222,-0.6844444444444444,-0.001172792619581588,-5.46412247234211e-05,-0.00209969972790778
1589986466.6031394,0.07758671938532291,-4.3,8.708793359692661,0.4088888888888889,0.43,-0.6977777777777778,-0.0013071860760832156,0.0009592067434318686,0.0017020581932769775
1589986466.6131394,0.09488005035786726,-4.294880050357867,8.668800503578673,0.4088888888888889,0.43,-0.6977777777777778,-0.0021293236601977773,0.0010646618300988887,0.0005323309150494443
1589986466.6231394,0.07770351729384913,-4.294098827568717,8.624098827568718,0.4088888888888889,0.43,-0.6977777777777778,-0.00134133818523047,-0.00044711272841015657,0.00134133818523047
1589986466.6331394,0.06347416584960038,-4.310422497548801,8.640422497548801,0.4088888888888889,0.43,-0.6977777777777778,-0.0021355742318167536,-0.0007118580772722512,0.001377628821368344
1589986466.6431394,0.07361663227254625,-4.326383367727454,8.66,0.40366486449521094,0.4255796716668879,-0.6953666895960803,0.0003945133811863563,-0.0003945133811863563,-0.0013926348026201993
1589986466.6531394,0.08283146829433706,-4.314337063411326,8.665662936588674,0.3944444444444444,0.4177777777777778,-0.6911111111111111,0.0013996960600090164,-0.0001642349499587747,0.0006177305550251208
1589986466.6631393,0.08518171318575553,-4.304818286814244,8.646271992300289,0.3944444444444444,0.4177777777777778,-0.6911111111111111,0.0037584422377553058,-0.0004463062229444117,0.002707255122580377
1589986466.6731393,0.08,-4.31,8.64713952749232,0.3944444444444444,0.4177777777777778,-0.6911111111111111,0.0014028599288827713,-0.00269373606411801,0.003272492347489368
1589986466.6831393,0.07513020125101985,-4.31,8.68,0.3944444444444444,0.4177777777777778,-0.6911111111111111,-0.002181661564992912,-0.0016504489269978844,0.003272492347489368
1589986466.6931393,0.07,-4.314572528284281,8.68,0.3944444444444444,0.42082612996729873,-0.694159463300632,-0.0006853051830939788,-9.32598612305006e-05,0.0012773505049574574
1589986466.7031393,0.08284566654425266,-4.307154333455747,8.654308666911495,0.3944444444444444,0.4244444444444445,-0.6977777777777778,0.00039020835808867207,-0.00031041406631911184,0.0010110364907268954
1589986466.7131393,0.09,-4.306403634508394,8.607981827458032,0.3944444444444444,0.4244444444444445,-0.6977777777777778,0.0006985281641612591,-0.001090830782496456,8.607707250913449e-05
1589986466.7231393,0.08335796970216099,-4.31,8.609926090893516,0.3944444444444444,0.4244444444444445,-0.6977777777777778,-0.0018073016603663047,-0.0003662976717807658,0.00035823543893492437
1589986466.7331393,0.08,-4.31511184770599,8.64044739082396,0.3944444444444444,0.4244444444444445,-0.6977777777777778,-0.0038301084308021427,-0.0005576160833127748,0.0005332146991836812
1589986466.7431393,0.08,-4.316767039190679,8.66323296080932,0.3944444444444444,0.4244444444444445,-0.6956224705715638,-0.0029526778622210115,-0.001090830782496456,0.0
1589986466.7531393,0.07352781918291607,-4.316472180817084,8.682944361634169,0.3944444444444444,0.4244444444444445,-0.6911111111111111,0.0017650135162895536,-0.00038482537598063453,0.0
1589986466.7631392,0.06892228987934898,-4.321077710120651,8.665388550603256,0.3944444444444444,0.4244444444444445,-0.6911111111111111,0.004967518489944756,0.000604195359958933,-0.00048663542253752306
1589986466.7731392,0.08,-4.303517944913289,8.626205137716775,0.3944444444444444,0.4244444444444445,-0.6911111111111111,0.0036562406077436625,0.0,-0.0007372895213753752
1589986466.7831392,0.07821148782628483,-4.293577024347431,8.665365536521145,0.3944444444444444,0.4244444444444445,-0.6911111111111111,0.0015963723248054625,0.0,0.0
1589986466.7931392,0.08046352631248824,-4.320463526312488,8.684768236843755,0.38514353216667707,0.4279322865486072,-0.6911111111111111,-0.001661527612252646,0.0005706968297561901,-0.0011413936595123801
1589986466.8031392,0.09,-4.32456778335331,8.696296649940068,0.37666666666666665,0.4311111111111111,-0.6911111111111111,0.000188590089166545,-9.42950445832725e-05,-0.0009965357379131835
1589986466.8131392,0.08286288030222451,-4.312862880302225,8.667177281813348,0.37666666666666665,0.4311111111111111,-0.6911111111111111,0.0025709310582276777,-0.0007015612892616903,0.0
1589986466.8231392,0.07713805995984215,-4.295241293360105,8.606655473239632,0.37666666666666665,0.4311111111111111,-0.6911111111111111,0.003012945163105994,0.0,-0.000259547184383374
1589986466.8331392,0.09172376562435115,-4.288276234375649,8.668276234375648,0.37666666666666665,0.4311111111111111,-0.6911111111111111,-7.533124003536451e-05,0.0004513985610056553,-0.0015422293435021113
1589986466.8431392,0.08489049793123127,-4.309780995862463,8.689780995862462,0.38862121716523196,0.4305677224520854,-0.6943714430652653,-0.002739021778977137,0.000557360213984225,-0.0016481909964806809
1589986466.8531392,0.09,-4.3153115928497465,8.685934778549239,0.4011111111111111,0.43,-0.6977777777777778,-0.0016702356809555798,-0.0005114258840373321,-0.0005794048984591239
1589986466.8631392,0.09,-4.306109264872366,8.634983383851294,0.4011111111111111,0.43,-0.6977777777777778,0.0014556494037615672,-0.0006664174181201187,-0.0012732400931290116
1589986466.8731391,0.07816077381790863,-4.305919613091046,8.609598065455229,0.4011111111111111,0.43,-0.6977777777777778,0.004162694676445954,0.0019371888540544895,-0.003272492347489368
1589986466.8831391,0.07447429778862619,-4.305525702211374,8.647897191154506,0.4011111111111111,0.43,-0.6977777777777778,0.0018082818201225908,0.0018082818201225908,-0.0022963519959115163
1589986466.8931391,0.08170112988554597,-4.301701129885545,8.676804519542184,0.4011111111111111,0.42905492784136334,-0.6955096045970499,-0.0005566934532534634,-0.00018556448441782114,-0.0009052662980786349
1589986466.903139,0.08784779518443073,-4.30784779518443,8.701391180737724,0.4011111111111111,0.4256401137864274,-0.6873140508652035,-0.002568184968571349,-0.0008560616561904497,-0.00023476912630600625
1589986466.913139,0.09,-4.305209750268009,8.647726753484122,0.4011111111111111,0.4244444444444445,-0.6844444444444444,-0.0011823516020890482,-0.003180971527896776,0.00052253518635008
1589986466.923139,0.09421400671554855,-4.2957859932844515,8.60949804700884,0.4011111111111111,0.4244444444444445,-0.6844444444444444,0.001090830782496456,-0.0036154466152954214,0.00017147713390302686
1589986466.933139,0.09044028996566196,-4.294779855017169,8.664339565051508,0.4011111111111111,0.4244444444444445,-0.6844444444444444,0.0005694294836366468,-0.0005694294836366468,-4.8028184776837584e-05
1589986466.943139,0.08400477969453907,-4.304004779694539,8.684004779694538,0.4042259397624193,0.4244444444444445,-0.6871142975741371,-0.0013105610903759888,0.0017474147871679852,0.0006539770857044596
1589986466.953139,0.08608134167007538,-4.317837316659849,8.674325366680302,0.4088888888888889,0.4244444444444445,-0.6911111111111111,-0.002417573721015783,0.002653485877038653,-0.0004274593132367927
1589986466.963139,0.07674696601941748,-4.326746966019417,8.620722694174757,0.4088888888888889,0.4244444444444445,-0.6911111111111111,-2.6277901738537036e-05,-0.0003548509602526396,-0.001090830782496456
1589986466.973139,0.07834603981363829,-4.315826980093181,8.585038119440915,0.4088888888888889,0.4244444444444445,-0.6911111111111111,0.0035472791360915564,-0.000180419068430693,0.0002747867886021885
1589986466.983139,0.09,-4.306694919136849,8.639830485178907,0.4088888888888889,0.4244444444444445,-0.6911111111111111,0.004733097123649235,0.0003697739936634113,0.0018211331705763896
1589986466.993139,0.09,-4.3,8.694856308411214,0.4060001622533749,0.42196839304257533,-0.6911111111111111,0.0016519204945679394,-0.001090830782496456,0.0006856878192660988
1589986467.003139,0.09,-4.3,8.706539443977523,0.4011111111111111,0.4177777777777778,-0.6911111111111111,-0.001090830782496456,-0.0003566713395545917,-0.0003670797214709321
1589986467.013139,0.08940150868203814,-4.300598491317961,8.673416595502419,0.4011111111111111,0.4177777777777778,-0.6911111111111111,-0.001286686608303356,0.001090830782496456,-0.0011561160577654227
1589986467.023139,0.08302860599438026,-4.306971394005619,8.591200241960662,0.4011111111111111,0.4177777777777778,-0.6911111111111111,-0.0030418444712965098,0.001090830782496456,-0.0015209222356482549
1589986467.033139,0.08825471698113208,-4.303490566037736,8.646981132075473,0.4011111111111111,0.4177777777777778,-0.6911111111111111,0.0,0.0009004499383815085,-0.0005711425323448425
1589986467.043139,0.08277795003543587,-4.311666149893693,8.685555900070872,0.40327173891645013,0.4177777777777778,-0.6892591444208205,-0.0003030273410890558,0.0,-0.0023634103242222006
1589986467.053139,0.08417353308364545,-4.292913233458178,8.7,0.4088888888888889,0.4177777777777778,-0.6844444444444444,0.00018030711061489484,0.0003177844732778377,-0.0003177844732778377
1589986467.063139,0.080560303024758,-4.321120606049516,8.671839191933978,0.4088888888888889,0.4177777777777778,-0.6844444444444444,0.002888508893759486,0.001474814236226338,-0.001474814236226338
1589986467.073139,0.1,-4.3576659161573925,8.627002251527822,0.4088888888888889,0.4177777777777778,-0.6844444444444444,0.002181661564992912,0.0016724434641041406,-0.0016724434641041406
1589986467.083139,0.09635316937751362,-4.35,8.67188098373492,0.4088888888888889,0.4177777777777778,-0.6844444444444444,0.0025794690751487982,0.0007956150203117725,-0.00039780751015588625
1589986467.093139,0.09231545366866978,-4.35,8.71694636100601,0.40991797940829766,0.42060777670615196,-0.6875317160026708,0.002767338720043498,0.002434238378715847,-0.001090830782496456
1589986467.103139,0.09163270132839292,-4.35,8.72744905199259,0.4133333333333333,0.43,-0.6977777777777778,0.0015471961303629915,0.002359761651756297,-0.0015471961303629915
1589986467.113139,0.08352981260647359,-4.353529812606474,8.674701873935264,0.4133333333333333,0.43,-0.6977777777777778,0.0014115759154758227,0.0014758736072550006,-0.0014115759154758227
1589986467.123139,0.09458089202439317,-4.355419107975607,8.619161784048787,0.4133333333333333,0.43,-0.6977777777777778,0.0,0.0011822659586927988,-0.0009993956063001131
1589986467.133139,0.1,-4.361176391035548,8.65980370942813,0.4133333333333333,0.43,-0.6977777777777778,0.0,-0.0008127700919195966,-0.0025880466109527104
1589986467.143139,0.09447498978579351,-4.374474989785793,8.715525010214208,0.4081152681310271,0.426623604869096,-0.6901041524802688,-0.0003013425607631895,-0.0012776338827033434,-0.002669807225962989
1589986467.1531389,0.08810876009081736,-4.357297079969728,8.735405840060546,0.3944444444444444,0.4177777777777778,-0.67,-0.00020630227100222295,0.001090830782496456,-0.0005011451081669673
1589986467.1631389,0.10794809535822401,-4.350683968213925,8.748632063572149,0.3944444444444444,0.4177777777777778,-0.67,0.001957833490393251,0.001090830782496456,0.0009416120660966823
1589986467.1731389,0.10222929577464789,-4.37,8.613375774647887,0.3944444444444444,0.4177777777777778,-0.67,-0.0012089477832828328,0.0,-0.001938483119565392
1589986467.1831388,0.1096589259796807,-4.37,8.66034107402032,0.3944444444444444,0.4177777777777778,-0.67,0.0021444561609455003,-3.720540404741178e-05,-0.0010722280804727501
1589986467.1931388,0.09,-4.364205138704064,8.683863240863957,0.3944444444444444,0.4177777777777778,-0.6684976285529055,0.0008428284109205906,-0.001970954462262764,-0.0004214142054602953
1589986467.2031388,0.09101041126490884,-4.341010411264909,8.69898958873509,0.3944444444444444,0.4177777777777778,-0.6622222222222223,0.004253104358911448,-0.0008703932403477046,-0.002071442793918536
1589986467.2131388,0.09675365082551313,-4.346753650825513,8.670521904953079,0.3944444444444444,0.4177777777777778,-0.6622222222222223,0.0018560053033844705,0.00038258726044400717,-0.00038258726044400717
1589986467.2231388,0.08934111619703523,-4.34,8.63,0.3944444444444444,0.4177777777777778,-0.6622222222222223,-0.001090830782496456,-0.0010189577090602261,0.0009470846356239964
1589986467.2331388,0.08723151190323232,-4.343615755951616,8.65892604761293,0.3944444444444444,0.4177777777777778,-0.6622222222222223,-0.0018796663612999907,-0.0003944177894017673,9.242258570884621e-05
1589986467.2431388,0.09571543961468275,-4.35,8.705715439614684,0.398490973697244,0.4165876221151897,-0.6684110316676806,-0.00233774627593558,-0.001324517300384903,0.0014806020113275705
1589986467.2531388,0.08,-4.346154393367021,8.701536819898935,0.4133333333333333,0.4122222222222222,-0.6911111111111111,0.00025184956397136446,-0.0013426803464678203,-0.00025184956397136446
1589986467.2631388,0.08,-4.343923093037871,8.684692162659157,0.4133333333333333,0.4122222222222222,-0.6911111111111111,-0.001518773847327239,0.001283829194492349,0.001090830782496456
1589986467.2731388,0.07589400539307198,-4.354105994606928,8.65052997303464,0.4133333333333333,0.4122222222222222,-0.6911111111111111,-0.0017337670339927596,0.002376703285489063,0.001090830782496456
1589986467.2831388,0.07457481008739553,-4.357712594956302,8.69143702521849,0.41053761605770267,0.4122222222222222,-0.6895861744153126,-0.0005917964157558226,9.276204901518918e-05,0.0008413135991261393
1589986467.2931387,0.08456290334103303,-4.3527185483294835,8.716407258352582,0.4044337812915909,0.4122222222222222,-0.6862568099974334,0.0004977355421954754,-0.002086301866887407,0.0002965476201504903
1589986467.3031387,0.09,-4.35,8.708120348957022,0.4011111111111111,0.4122222222222222,-0.6844444444444444,0.003000190531933387,-0.0023178124727709025,-0.0009546798747184655
1589986467.3131387,0.09344171402546485,-4.353441714025465,8.655908001821746,0.4011111111111111,0.4122222222222222,-0.6844444444444444,0.003952422871071544,-0.00146626354284914,-0.0014307960442875437
1589986467.3231387,0.0946903773244268,-4.357345188662213,8.61796443401336,0.4011111111111111,0.4122222222222222,-0.6844444444444444,0.0002220458038029886,-0.0024712565578907343,0.00028959499289782245
1589986467.3331387,0.08682869829399392,-4.35,8.653657396587988,0.4011111111111111,0.4122222222222222,-0.6844444444444444,-0.0018092138498194317,-0.0017827014867954469,0.0007183830673229757
1589986467.3431387,0.1,-4.348394730084737,8.68642107966105,0.4000409311676027,0.4150760354049113,-0.6865848043314612,-0.001265938566274849,0.001265938566274849,0.0
1589986467.3531387,0.1,-4.340110020344875,8.719559918620499,0.3945177913410279,0.4298044082757773,-0.6976310839846108,-0.0021696602071038305,0.0021696602071038305,0.0
1589986467.3631387,0.07724814249189217,-4.35,8.662481424918921,0.3944444444444444,0.43,-0.6977777777777778,-0.0006003621757776023,0.0007906496946076549,0.00030018108788880117
1589986467.3731387,0.07005096350189613,-4.35,8.590509635018961,0.3944444444444444,0.43,-0.6977777777777778,-0.002170543053662492,5.559255665209956e-06,0.001085271526831246
1589986467.3831387,0.09732348464499956,-4.352676515355,8.660706061420003,0.3944444444444444,0.43,-0.6977777777777778,-0.0007988682485905643,-0.001090830782496456,0.0
1589986467.3931386,0.09038864921154419,-4.359611350788456,8.690388649211544,0.39414216172435446,0.42952498429700153,-0.6975186783034151,0.0,-0.0010484357301419188,0.0
1589986467.4031386,0.09369715001565926,-4.35315142499217,8.70945427497651,0.38666666666666666,0.4177777777777778,-0.6911111111111111,0.0003437671390188095,0.0003437671390188095,0.0003437671390188095
1589986467.4131386,0.08400011502846955,-4.3559998849715305,8.705999309829183,0.38666666666666666,0.4177777777777778,-0.6911111111111111,0.001527175643154583,0.0008726583521673926,0.0006544859218383292
1589986467.4231386,0.10332846302493284,-4.336671536975067,8.63329924117453,0.38666666666666666,0.4177777777777778,-0.6911111111111111,0.0021832553696899655,0.0007261579851996014,-0.00036467279729685454
1589986467.4331386,0.10466658842399702,-4.340666823152006,8.682666705788002,0.38666666666666666,0.4177777777777778,-0.6911111111111111,-0.0008726774284240471,0.002472554041134261,0.00021815335407240888
1589986467.4431386,0.08863039399624766,-4.368630393996248,8.692739212007504,0.3897102355638941,0.4194517406712529,-0.6901980404419429,-0.0034218931863678696,0.0031230915086108667,-0.001882859887235909
1589986467.4531386,0.08312180971869308,-4.356878190281307,8.703756380562615,0.4088888888888889,0.43,-0.6844444444444444,-0.0030011766746870184,0.0015005883373435092,0.0010216098414741045
1589986467.4631386,0.08759310681052207,-4.35,8.668337961294698,0.4088888888888889,0.43,-0.6844444444444444,0.0002625513181263594,0.0002625513181263594,0.0024848383931102896
1589986467.4731386,0.08365738527724666,-4.348171307361376,8.607314770554494,0.4088888888888889,0.43,-0.6844444444444444,0.001090830782496456,0.0006918719381094575,0.0005984382665804978
1589986467.4831386,0.10269140675433905,-4.342691406754339,8.656148440526035,0.4088888888888889,0.43,-0.6844444444444444,0.0013844177160816467,-0.001090830782496456,0.0026853184803189867
1589986467.4931386,0.10863042836041359,-4.350684785819793,8.701369571639585,0.40789975381585425,0.4296195634334482,-0.6849009683243066,0.001957565929498662,-0.001016132237331706,0.0008667351470022062
1589986467.5031385,0.08757816134735275,-4.3575781613473525,8.717578161347353,0.3944444444444444,0.4244444444444445,-0.6911111111111111,-0.00029828593673224713,-0.00026418161525473626,-0.0013891167192287032
1589986467.5131385,0.083378970723524,-4.35,8.696484117105905,0.3944444444444444,0.4244444444444445,-0.6911111111111111,0.0019973673010741967,-0.001090830782496456,0.000906536518577741
1589986467.5231385,0.09851074192326426,-4.35,8.635957032306944,0.3944444444444444,0.4244444444444445,-0.6911111111111111,0.0011720572101556973,-0.001090830782496456,8.122642765924135e-05
1589986467.5331385,0.09,-4.36,8.669524511339143,0.3944444444444444,0.4244444444444445,-0.6911111111111111,0.0005713492746477909,0.000519481507848665,0.0008310900285721234
1589986467.5431385,0.09,-4.36,8.70017686582904,0.39477852434374167,0.42432653389175135,-0.6911111111111111,-0.0010522446443587948,0.0021044892887175895,5.787920720649188e-05
1589986467.5531385,0.09,-4.357556503086743,8.697782515433714,0.4133333333333333,0.4177777777777778,-0.6911111111111111,0.0002911982875216158,-0.0024482057299845253,0.002206315687522915
1589986467.5631385,0.0868917985954053,-4.356216402809189,8.641350791572432,0.4133333333333333,0.4177777777777778,-0.6911111111111111,-0.002181661564992912,-0.002594387993423246,-0.00041272642843033383
1589986467.5731385,0.08,-4.367108460545641,8.614457697271796,0.4133333333333333,0.4177777777777778,-0.6911111111111111,-0.0002891534176220076,-0.0014062488070582732,0.00045999473337282127
1589986467.5831385,0.07797644344605671,-4.36,8.66214133932366,0.4133333333333333,0.4177777777777778,-0.6911111111111111,0.0030389084624875464,-0.0012987184533273938,-0.0008700950045800764
1589986467.5931385,0.07146337229487329,-4.359268313852564,8.711463372294874,0.41243905026424404,0.41826556854273556,-0.6911111111111111,-0.0020220324104428867,0.0020220324104428867,-7.981457727501266e-05
1589986467.6031384,0.09502803785745097,-4.35,8.719943924285099,0.4011111111111111,0.4244444444444445,-0.6911111111111111,0.0,0.0,-0.000816593858973204
1589986467.6131384,0.11,-4.35298249820187,8.66614001438504,0.4011111111111111,0.4244444444444445,-0.6911111111111111,0.0009760202542020556,0.0,0.0009760202542020556
1589986467.6231384,0.10420927575965273,-4.36,8.612895362120174,0.4011111111111111,0.4244444444444445,-0.6911111111111111,0.0026408223220574473,0.0009475050381478812,0.0026408223220574473
1589986467.6331384,0.08782305005820722,-4.36,8.641769499417927,0.4011111111111111,0.4244444444444445,-0.6911111111111111,0.0013282991833425994,0.0030350239466432247,0.001090830782496456
1589986467.6431384,0.08072096809467111,-4.360720968094672,8.720720968094671,0.40167186407363303,0.4248449822748173,-0.6915917565075586,0.0020243707268198996,0.002181661564992912,0.0010121853634099498
1589986467.6531384,0.09,-4.37,8.729170017231477,0.4088888888888889,0.43,-0.6977777777777778,-0.00018107415056948638,0.002181661564992912,0.0
1589986467.6631384,0.09014065791605898,-4.3698593420839416,8.718452762923352,0.4088888888888889,0.43,-0.6977777777777778,-0.002150974768065123,0.0021663181665290175,0.0
1589986467.6731384,0.09761365283847317,-4.355227305676946,8.624318082969161,0.4088888888888889,0.43,-0.6977777777777778,0.0,0.0008305206883448049,0.00026031009415165103
1589986467.6831384,0.08900989720661852,-4.342970308380145,8.671980205586763,0.4088888888888889,0.43,-0.6977777777777778,0.0,0.00010800346048562488,0.0008748238615252063
1589986467.6931384,0.08099602583209141,-4.367011922503726,8.688007948335816,0.4088888888888889,0.43,-0.6977777777777778,0.0,0.0009821812187157607,-0.0008735316549350655
1589986467.7031384,0.09,-4.342122153209109,8.68575569358178,0.3944444444444444,0.4177777777777778,-0.6977777777777778,0.002413152569559965,0.0,0.0008593397779294027
1589986467.7131383,0.08562483688044226,-4.352187581559779,8.654686929081548,0.3944444444444444,0.4177777777777778,-0.6977777777777778,0.0023179798256380076,0.0,0.00023862813046284014
1589986467.7231383,0.07155628053095818,-4.36,8.610893963716707,0.3944444444444444,0.4177777777777778,-0.6977777777777778,-0.0009210669115595453,0.0001697638709369107,0.0007513030406226346
1589986467.7331383,0.07879619560526815,-4.36,8.661573369236876,0.3944444444444444,0.4177777777777778,-0.6977777777777778,-0.00013131468898780116,0.0009595160935086548,-0.0008282014045208536
1589986467.7431383,0.08907955548631666,-4.350920444513683,8.697238666458949,0.3944444444444444,0.4177777777777778,-0.6977777777777778,-0.0009904258615858798,0.0020812566440823357,-0.001090830782496456
1589986467.7531383,0.09,-4.3518722320383665,8.728127767961633,0.4088888888888889,0.4177777777777778,-0.6977777777777778,-0.00020422883394269223,0.0017732038971075275,-0.00020422883394269223
1589986467.7631383,0.08876708186062336,-4.36,8.707670818606234,0.4088888888888889,0.4177777777777778,-0.6977777777777778,-0.0012253212883694858,-0.0002689810117460594,-0.0006873592648773668
1589986467.7731383,0.0808393974332319,-4.36,8.628393974332319,0.4088888888888889,0.4177777777777778,-0.6977777777777778,-0.002090097509101125,-0.0019985334532093384,0.001906969397317552
1589986467.7831383,0.08126447515875981,-4.35873552484124,8.69252895031752,0.4088888888888889,0.4177777777777778,-0.6977777777777778,-0.00013793284268772893,-0.001767863036929725,-0.002319594407680641
1589986467.7931383,0.089968870626323,-4.350031129373677,8.709937741252647,0.4088888888888889,0.4177777777777778,-0.6977777777777778,-0.0010874350945917852,0.0010806437187824438,-0.003269096659584697
1589986467.8031383,0.1,-4.348419053870317,8.71367621548127,0.38222222222222224,0.4244444444444445,-0.6911111111111111,0.0004010129010058939,-0.0020092070946202715,0.0020092070946202715
1589986467.8131382,0.09845872638494772,-4.344623820845157,8.669211084694634,0.38222222222222224,0.4244444444444445,-0.6911111111111111,-0.0031043654771345064,-0.001258957652851318,0.001090830782496456
1589986467.8231382,0.09,-4.363810289389067,8.620316184351553,0.38222222222222224,0.4244444444444445,-0.6911111111111111,-0.0017315331070495727,-0.0015064688780779029,0.0008657665535247864
1589986467.8331382,0.0889266791070188,-4.341073320892981,8.662146641785963,0.38222222222222224,0.4244444444444445,-0.6911111111111111,0.0001170811469560466,0.001090830782496456,0.0001170811469560466
1589986467.8431382,0.08321369710012667,-4.346786302899873,8.673572605799746,0.38222222222222224,0.4244444444444445,-0.6911111111111111,0.0007402708102526789,0.001090830782496456,0.0007402708102526789
1589986467.8531382,0.09466746602717827,-4.35,8.702001199040767,0.39118567368327556,0.42851874056310507,-0.6911111111111111,0.00029084461031310383,-0.0005091415618702483,0.0026908031268631605
1589986467.8631382,0.09668137729214359,-4.348340688646071,8.676725509168573,0.3944444444444444,0.43,-0.6911111111111111,0.0018196559844707596,0.0001810027902610762,0.002181661564992912
1589986467.8731382,0.08217452892344182,-4.342174528923442,8.612174528923441,0.3944444444444444,0.43,-0.6911111111111111,-0.00011860215435596102,0.001209432936852417,0.002063059410636951
1589986467.8831382,0.09599156674133615,-4.355991566741336,8.625991566741337,0.3944444444444444,0.43,-0.6911111111111111,-0.0008722046630898003,0.0019630354455862564,0.0013094569019031117
1589986467.8931382,0.09176963263952234,-4.335308897918567,8.695842938883821,0.3944444444444444,0.43,-0.6911111111111111,-0.001090830782496456,0.0003860739513802864,0.0019886245893027685
1589986467.9031382,0.07425926746091502,-4.345740732539085,8.717870366269544,0.39969135529080607,0.4160082377430356,-0.6911111111111111,-0.00023230700286258057,0.0008585237796338754,0.0013231377853590365
1589986467.9131382,0.08150621957815035,-4.36,8.730209572742023,0.4011111111111111,0.4122222222222222,-0.6911111111111111,-0.002017358496888389,8.215153405226149e-05,0.0
1589986467.9231381,0.09770918643282084,-4.36,8.624890288186664,0.4011111111111111,0.4122222222222222,-0.6911111111111111,-0.0002498889956039554,0.0009658862846944783,0.0
1589986467.9331381,0.10884289536266349,-4.358842895362664,8.655785523186683,0.4011111111111111,0.4122222222222222,-0.6911111111111111,-0.00012622053569760568,-0.0019292204935977006,0.0009646102467988503
1589986467.9431381,0.1010502749702735,-4.351050274970273,8.694748625148632,0.4011111111111111,0.4122222222222222,-0.6911111111111111,-0.0009762635557304693,-0.00022913445353197324,0.00011456722676598662
1589986467.953138,0.10731220964860036,-4.344031685527099,8.7232805241215,0.38666666666666666,0.4244444444444445,-0.6844444444444444,0.0013840232277168257,-0.0017418728971623574,0.0009442345598862712
1589986467.963138,0.08890558233010087,-4.366716746990303,8.670150240970907,0.38666666666666666,0.4244444444444445,-0.6844444444444444,0.0029143450025191655,0.0006133009892028522,0.0
1589986467.973138,0.08072174201478996,-4.3421652260443695,8.59649567813311,0.38666666666666666,0.4244444444444445,-0.6844444444444444,0.00023618952202616875,-0.00295757298478781,0.0
1589986467.983138,0.08997340009388202,-4.349973400093882,8.63986700046941,0.38666666666666666,0.4244444444444445,-0.6844444444444444,0.0,-8.704798921501875e-06,0.0021758583657119105
1589986467.993138,0.09652766076944679,-4.35,8.679165964616681,0.38666666666666666,0.4244444444444445,-0.6844444444444444,-0.0007120573305007054,-0.0007120573305007054,0.0007575469039915012
1589986468.003138,0.1,-4.35,8.707661412726212,0.3926255432314976,0.41508049555685284,-0.6844444444444444,0.0005806301853358252,-0.001090830782496456,0.0016714609678322812
1589986468.013138,0.0720038734135487,-4.34,8.706974822811935,0.3944444444444444,0.4122222222222222,-0.6844444444444444,0.0018537785444341349,-0.002944609326930591,0.00010929434018625896
1589986468.023138,0.08928712708092962,-4.34,8.594633673973957,0.3944444444444444,0.4122222222222222,-0.6844444444444444,-0.0009741872238769448,-0.00011664355861951137,0.001051949596289952
1589986468.033138,0.09702398211384955,-4.34,8.646191856910797,0.3944444444444444,0.4122222222222222,-0.6844444444444444,-0.001090830782496456,0.0007661975905491604,0.001090830782496456
1589986468.043138,0.10797828036904152,-4.347978280369041,8.709891401845208,0.3944444444444444,0.4122222222222222,-0.6844444444444444,-0.001090830782496456,0.0002205354007026887,0.001090830782496456
1589986468.053138,0.08750552387365586,-4.342501841291218,8.72,0.3944444444444444,0.4122222222222222,-0.6944419893894863,-0.001090830782496456,0.000817922233158261,0.0002729085493381949
1589986468.063138,0.08025700059898173,-4.330771001796945,8.736658992213238,0.3944444444444444,0.4122222222222222,-0.6977777777777778,-0.001062796366047526,-0.001034761949598596,-0.001034761949598596
1589986468.073138,0.08810796645702305,-4.354323899371069,8.6345964360587,0.3944444444444444,0.4122222222222222,-0.6977777777777778,-0.00020638884301950767,0.0006780530964574406,0.0006780530964574406
1589986468.083138,0.09794672213648259,-4.36,8.651368851909012,0.3944444444444444,0.4122222222222222,-0.6977777777777778,-0.0021070022750414668,0.0009415122025935659,0.0
1589986468.093138,0.0768387237468966,-4.36,8.665440850835402,0.3944444444444444,0.4122222222222222,-0.6977777777777778,-0.0013394937950332664,-0.0005935047574228351,0.0
1589986468.103138,0.08980919982251145,-4.3698091998225115,8.71019080017749,0.4011111111111111,0.4122222222222222,-0.72,-0.0031684269940342263,0.0010492046411143992,-4.162614138205674e-05
1589986468.113138,0.08205461470196716,-4.362054614701967,8.717945385298034,0.4011111111111111,0.4122222222222222,-0.72,0.0010610430834551293,-0.0006425833898813429,-0.0017334141723777988
1589986468.123138,0.09926346679709211,-4.368526933594184,8.601473066405815,0.4011111111111111,0.4122222222222222,-0.72,0.002101318255986648,0.0001606866180125279,0.002020974946980384
1589986468.133138,0.08994605727736367,-4.350161828167908,8.620377599058454,0.4011111111111111,0.4122222222222222,-0.72,0.0010849465442621185,0.002158124612055562,-1.1768476468674985e-05
1589986468.143138,0.08171871322087093,-4.374843860337387,8.677969007453903,0.4011111111111111,0.4122222222222222,-0.72,0.00018748252876096404,-0.0014317314499490558,-0.0018066965074709839
1589986468.153138,0.09802335687126562,-4.370988321564368,8.708023356871266,0.4011111111111111,0.4232364958657735,-0.674941607821836,-0.0029490648718643324,-0.002181661564992912,0.0027334465547809756
