time,acc_x,acc_y,acc_z,mag_x,mag_y,mag_z,gyr_x,gyr_y,gyr_z
1589985405.9830112,-3.79,-0.26,8.97,0.25555555555555554,-0.4044444444444445,-0.6088888888888889,-0.003272492347489368,0.002181661564992912,-0.002181661564992912
1589985405.9930112,-3.792581912668737,-0.3137090436656315,9.000327650674947,0.25555555555555554,-0.4044444444444445,-0.6088888888888889,-0.010380763005823267,-0.0014954246829058933,-0.0008091878008188744
1589985406.0030112,-3.7888079905899237,-0.31119200941007596,8.980827967064734,0.25555555555555554,-0.4044444444444445,-0.6088888888888889,-0.006675012750732365,-0.003142464291735738,-0.002181661564992912
1589985406.0130112,-3.791485339920524,-0.2936140049403931,9.026385995059607,0.25555555555555554,-0.4044444444444445,-0.6088888888888889,-0.00545415391248228,-0.005524329794634077,-0.003574869562570815
1589985406.0230112,-3.765744357672185,-0.27430826825413873,9.045691731745862,0.25555555555555554,-0.4044444444444445,-0.6088888888888889,-0.00545415391248228,-0.009034211770656973,-0.007786727933798291
1589985406.0330112,-3.7344298463063956,-0.28185671789786815,9.063289538919188,0.25555555555555554,-0.3922222222222223,-0.6022222222222222,-0.00989562530626123,-0.008726646259971648,-0.017421384232304576
1589985406.0430112,-3.722610345618012,-0.29,8.955321549550467,0.25555555555555554,-0.3922222222222223,-0.6022222222222222,-0.0030468971063241173,-0.006319389453813485,-0.037480287793067044
1589985406.0530112,-3.7659664934789525,-0.28467783550701586,8.895966493478953,0.25555555555555554,-0.3922222222222223,-0.6022222222222222,0.0018913825220700754,0.0018119596467319106,-0.054822680681602357
1589985406.0630112,-3.8104391534391535,-0.27029276895943566,8.940146384479718,0.25555555555555554,-0.3922222222222223,-0.6022222222222222,0.000979054294907313,0.009881349321090473,-0.06772731693271383
1589985406.0730112,-3.8474959865862792,-0.29999464878170595,8.974986621954265,0.2591647342822827,-0.3922222222222223,-0.6022222222222222,-0.005999861167412457,0.013363114881104508,-0.07417649320975901
1589985406.0830112,-3.8699406014769364,-0.32992080196924833,9.049802004923121,0.26997140071111747,-0.3922222222222223,-0.6022222222222222,-0.004367642712478675,0.010914787198703835,-0.07417649320975901
1589985406.0930111,-3.872825682468272,-0.34,9.017715571107225,0.27,-0.3922222222222223,-0.6022222222222222,-0.005204961376815757,0.005204961376815757,-0.05709047643773948
1589985406.1030111,-3.86,-0.3311746254681648,8.986476123595505,0.27,-0.3922222222222223,-0.6022222222222222,0.0020535298031350655,-0.0034975783340929784,-0.04029496226473519
1589985406.1130111,-3.8414389582648703,-0.3051511666118962,9.023712208347025,0.27,-0.3922222222222223,-0.6022222222222222,0.00489224880187985,-0.006949923808576356,-0.0232543578651436
1589985406.123011,-3.8067130878811617,-0.28986073635651494,9.033286912118838,0.2718260622882435,-0.3922222222222223,-0.597474460272789,0.006918722493757297,-0.007635815477475192,-0.007322842906375082
1589985406.133011,-3.8,-0.30557394026408075,9.022295761056323,0.27555555555555555,-0.3922222222222223,-0.5877777777777777,0.005936962132993162,-0.00522177437492078,0.0
1589985406.143011,-3.808938107241624,-0.3,8.95530946379188,0.27555555555555555,-0.3922222222222223,-0.5877777777777777,0.005569988443336936,-0.0012066653133511124,0.0014624943774626993
1589985406.153011,-3.8152126027126028,-0.3047873972873973,8.914362191862192,0.27555555555555555,-0.3922222222222223,-0.5877777777777777,0.0012299789325060273,-0.003133344197479796,0.002228044281662769
1589985406.163011,-3.81,-0.31408218321147907,8.950410916057395,0.27555555555555555,-0.3922222222222223,-0.5877777777777777,-0.004408147118428713,-0.009662064469788855,0.0006455336718092957
1589985406.173011,-3.81,-0.31756361814500134,8.987309145564996,0.2690585372755592,-0.3922222222222223,-0.5912969960127757,-0.008698887607614527,-0.014446568204988759,0.0005315360650696673
1589985406.183011,-3.800626333585005,-0.31562419984899714,9.008125266717,0.2488888888888889,-0.3922222222222223,-0.6022222222222222,-0.010772128543021415,-0.016089637664576786,0.0011591531779599111
1589985406.193011,-3.7685198860116462,-0.32296022797670676,8.978700284970882,0.2488888888888889,-0.3922222222222223,-0.6022222222222222,-0.004060090823752513,-0.01731151560371993,-0.0014137415625163463
1589985406.203011,-3.7830133183568675,-0.30903995507060333,8.971093228498074,0.2488888888888889,-0.3922222222222223,-0.6022222222222222,-0.0011955554386530074,-0.01056507770920761,0.0007621287403831545
1589985406.213011,-3.7897435815147626,-0.3292307445442876,9.018205070603337,0.2488888888888889,-0.3922222222222223,-0.6022222222222222,0.001006918029427008,-0.002489341659580889,2.7970917689816056e-05
1589985406.223011,-3.8070833799247086,-0.30854168996235415,9.035625069887061,0.2488888888888889,-0.39303239446535887,-0.6012500155304583,0.006544984694978735,-0.0006363077917950552,-0.001090830782496456
1589985406.233011,-3.791449923590145,-0.30072496179507247,9.012174885385217,0.2488888888888889,-0.3973750212249597,-0.5960388634189372,0.006544984694978735,-0.004046998873106237,-0.001090830782496456
1589985406.243011,-3.784050924614193,-0.29405092461419313,8.995821763850323,0.2488888888888889,-0.3977777777777778,-0.5955555555555555,0.00566121004163184,-0.011585026349161896,-0.005896041239155728
1589985406.253011,-3.7998961107648137,-0.30989611076481366,8.940363612323152,0.2488888888888889,-0.3977777777777778,-0.5955555555555555,0.0022043266801351673,-0.01849879307215524,-0.0076244829199040645
1589985406.263011,-3.770514159092616,-0.2963238939382558,8.965295575753023,0.2488888888888889,-0.3977777777777778,-0.5955555555555555,-0.00034491490865461063,-0.02514519405395111,-0.006833813547100723
1589985406.273011,-3.7519937256598874,-0.313987451319775,9.023987451319774,0.25309786528198475,-0.3977777777777778,-0.5968847059954805,-0.0019607577111597913,-0.02138507430726474,-0.00894755011380477
1589985406.283011,-3.7699743987064607,-0.3233504008623594,9.04,0.27,-0.3977777777777778,-0.6022222222222222,-0.0061795126555423095,-0.01055679912506019,-0.0061795126555423095
1589985406.293011,-3.79,-0.3136987836107554,9.03260243277849,0.27,-0.3977777777777778,-0.6022222222222222,-0.007333209450944785,-0.00048561872943564215,-0.007232340775434649
1589985406.303011,-3.7864580191975286,-0.3464580191975286,8.977709904012357,0.27,-0.3977777777777778,-0.6022222222222222,-0.005522433637090016,0.003908673236343356,-0.003272492347489368
1589985406.313011,-3.78,-0.34,9.01331680521122,0.27,-0.3977777777777778,-0.6022222222222222,-0.0067312971714894206,0.0005481197989049933,-0.0030915886862922137
1589985406.323011,-3.7782689251169335,-0.34,9.038655374415331,0.2674995585022378,-0.39681606950940773,-0.5997217807244599,-0.0008598447265143947,-0.0016151686342164044,-0.00350347840347143
1589985406.333011,-3.7628815306319656,-0.3346611479739741,9.060424209237905,0.25555555555555554,-0.3922222222222223,-0.5877777777777777,0.006036532325800542,0.001479083058041964,-0.01059398159355912
1589985406.343011,-3.741539596655189,-0.2984604033448106,8.919995081160847,0.25555555555555554,-0.3922222222222223,-0.5877777777777777,0.008726646259971648,0.003272492347489368,-0.014180800172453925
1589985406.353011,-3.763952983907582,-0.28,8.867670887353075,0.25555555555555554,-0.3922222222222223,-0.5877777777777777,0.0022585914663161245,0.005859714264951578,-0.018492836701557606
1589985406.363011,-3.787394966118103,-0.2904369796708616,8.934352952565344,0.25555555555555554,-0.3922222222222223,-0.5877777777777777,-0.006876816897390823,0.009058478462383735,-0.0247096087073763
1589985406.3730109,-3.8174787146388356,-0.31,8.997648997528152,0.25919741218834874,-0.39054136531477923,-0.5931004913180139,-0.006004213049165469,0.00873593375084157,-0.021523011099847677
1589985406.3830109,-3.8171536709951384,-0.3278841774878454,9.04642316450243,0.27,-0.3855555555555555,-0.6088888888888889,-0.008416159930410068,0.011999138607461015,-0.009888905681312106
1589985406.3930109,-3.8127872966190877,-0.36,9.019918512722269,0.27,-0.3855555555555555,-0.6088888888888889,-0.00700105503778607,0.011060331272567003,-0.0003040468952048888
1589985406.4030108,-3.7789913644881477,-0.36,8.978991364488149,0.27,-0.3855555555555555,-0.6088888888888889,0.002942417148095168,0.01036132245335785,0.004363323129985824
1589985406.4130108,-3.801289927959766,-0.35871007204023375,9.009029495718364,0.27,-0.3855555555555555,-0.6088888888888889,0.010521023605326021,0.014462218797597091,0.0036597765671279084
1589985406.4230108,-3.8064185681103977,-0.34761237874026507,9.068806189370132,0.27,-0.3855555555555555,-0.6088888888888889,0.014880957339891109,0.01649268627579993,-0.0009606062441433642
1589985406.4330108,-3.7907422608464465,-0.3246288695767767,9.038515478307108,0.27,-0.3855555555555555,-0.6088888888888889,0.010241440286724465,0.015402644479083988,0.0002929497201227584
1589985406.4430108,-3.818620162509762,-0.31068991874511886,8.982759674980477,0.27,-0.3855555555555555,-0.6088888888888889,0.005679929293861383,0.01008088165407706,0.0010532015522666052
1589985406.4530108,-3.79727114330462,-0.3172711433046202,8.91091542678152,0.27,-0.3855555555555555,-0.6088888888888889,0.003272492347489368,-0.003074677830295463,0.0009909732112561775
1589985406.4630108,-3.787733034344388,-0.31226696565561196,8.946800896966835,0.27,-0.3855555555555555,-0.6088888888888889,0.002654273367488426,-0.0053305101164820914,-0.0023053053609931005
1589985406.4730108,-3.766014075107687,-0.33,9.006643208153855,0.2689666120649558,-0.3880652119692342,-0.611841425846158,-0.002761390840893473,-0.004218390811010684,-0.0039971539423650695
1589985406.4830108,-3.74,-0.32353969674252137,9.037079393485044,0.26222222222222225,-0.4044444444444445,-0.6311111111111111,-0.006897339577854728,-0.0018630728159853983,-0.010840775557227603
1589985406.4930108,-3.74,-0.29743050236539764,8.972291507096193,0.26222222222222225,-0.4044444444444445,-0.6311111111111111,-0.011749173959577393,0.00177639052951349,-0.018356649816527036
1589985406.5030107,-3.6998083114938227,-0.2958375140396855,8.938804193186073,0.26222222222222225,-0.4044444444444445,-0.6311111111111111,-0.023231060925892513,0.004525130376719293,-0.030412819621645666
1589985406.5130107,-3.5484779700863363,-0.37355842892464836,9.06,0.26222222222222225,-0.4044444444444445,-0.6311111111111111,-0.027677636931408702,0.009706408706136739,-0.048661814855179134
1589985406.5230107,-3.35272397054453,-0.41,9.058024964501536,0.26222222222222225,-0.40203051216854346,-0.6254054530044358,-0.02183023167330143,0.015056188003125553,-0.06691709954244424
1589985406.5330107,-3.05981821726205,-0.38850650616501775,9.054298698766997,0.26222222222222225,-0.3922222222222223,-0.6022222222222222,-0.01604654663802751,0.016994291936285492,-0.09180261534488315
1589985406.5430107,-2.98,-0.36,9.06,0.26222222222222225,-0.3922222222222223,-0.6022222222222222,-0.014180800172453925,0.02072578486743266,-0.09926560120717748
1589985406.5530107,-2.4096178343949046,-0.15363057324840765,8.813630573248407,0.26222222222222225,-0.3922222222222223,-0.6022222222222222,-0.015040032062700603,0.030066168191866225,-0.10229259872888209
1589985406.5630107,-2.1696175993439466,-0.34007648013121067,8.99994901324586,0.26222222222222225,-0.3922222222222223,-0.6022222222222222,-0.021716503392280363,0.03492605131220718,-0.10029525227666636
1589985406.5730107,-2.057456545379994,-0.36250869092400123,8.984994206050667,0.26222222222222225,-0.3922222222222223,-0.6022222222222222,0.007647191870389824,0.04063565872439305,-0.08235077183836792
1589985406.5830107,-1.9317011016420702,-0.5896907087923509,8.782010392849719,0.26222222222222225,-0.3922222222222223,-0.5955555555555555,0.030138400665829748,0.03571063910783273,-0.05653763928628315
1589985406.5930107,-2.027600706713781,-0.5722544169611307,8.89534628975265,0.26222222222222225,-0.3922222222222223,-0.5955555555555555,0.007314348031326058,0.019543601825059296,-0.046076615162135626
1589985406.6030107,-2.0676582620362787,-0.5808100855564655,8.991443133701582,0.26222222222222225,-0.3922222222222223,-0.5955555555555555,-0.006554640587876472,-0.00974842220211874,-0.038935753451088545
1589985406.6130106,-2.1042009792817438,-0.5369588248619074,9.093762741988883,0.26222222222222225,-0.3922222222222223,-0.5955555555555555,0.003809458832452076,0.0061963461368482586,-0.03734127661719184
1589985406.6230106,-2.2278960746728895,-0.48105196266355527,9.006311775981333,0.26152091377985204,-0.3922222222222223,-0.5969581724402959,0.014468371676140228,0.009358471740290874,-0.0445512419042127
1589985406.6330106,-2.2104183681973497,-0.4897908159013251,9.058744895407951,0.2556950116213388,-0.3922222222222223,-0.6086099767573224,0.007795544595305534,0.0055454276940996175,-0.052177329996595204
1589985406.6430106,-2.2733661810590586,-0.47,9.024718175492154,0.25555555555555554,-0.3922222222222223,-0.6088888888888889,-0.0008496183189535575,0.006786197158521634,-0.06616273494730923
1589985406.6530106,-2.2480508998950794,-0.47,8.859236501573807,0.25555555555555554,-0.3922222222222223,-0.6088888888888889,-0.0014882968748300494,0.007848429316736627,-0.07912213468515057
1589985406.6630106,-2.2470377745241583,-0.46765407515861396,8.96827037579307,0.25555555555555554,-0.3922222222222223,-0.6088888888888889,-0.005844510556190285,0.008726646259971648,-0.09233025986849075
1589985406.6730106,-2.2664509326845095,-0.4608872668288727,8.935323600973236,0.2568371631972605,-0.39163071100297386,-0.607705866450392,-9.678579692223219e-05,0.009404146838427272,-0.09943298578467005
1589985406.6830106,-2.2358204659565977,-0.4787306989348963,8.972538602130207,0.27,-0.3855555555555555,-0.5955555555555555,0.0014488265910752595,0.014775175878964516,-0.11584759948579607
1589985406.6930106,-2.25,-0.49587444623439386,8.925874446234394,0.27,-0.3855555555555555,-0.5955555555555555,0.008760885738067024,0.011358335929201291,-0.1275049059342531
1589985406.7030106,-2.26988876387798,-0.4777901373468911,8.921049313265545,0.27,-0.3855555555555555,-0.5955555555555555,0.012366793527827335,0.012848910769247426,-0.14396539533232716
1589985406.7130105,-2.3350002859157883,-0.472999828450527,8.968999485351581,0.27,-0.3855555555555555,-0.5955555555555555,0.010144707564072458,0.01189006176692623,-0.16144283105517823
1589985406.7230105,-2.2950263995577838,-0.4969841602653299,9.04095248079599,0.27,-0.3855555555555555,-0.5955555555555555,0.012760992308192057,0.011017966852219698,-0.17888472934930894
1589985406.7330105,-2.120091633528755,-0.49690897945711454,9.02299938701413,0.27555555555555555,-0.4188888888888889,-0.6233333333333333,0.01685823312368558,0.01620386838695893,-0.21248410822846459
1589985406.7430105,-2.205793187998051,-0.48372412492337674,8.950482687078571,0.27555555555555555,-0.4188888888888889,-0.6233333333333333,0.009667010529616007,0.024833335499842422,-0.23477689827008028
1589985406.7530105,-2.337529368957272,-0.5462940534359081,8.973823422393181,0.27555555555555555,-0.4188888888888889,-0.6233333333333333,-0.004510889774722648,0.018396556657702928,-0.2764807521751525
1589985406.7630105,-2.3250208693881707,-0.5266944925175608,8.93167362312939,0.27555555555555555,-0.4188888888888889,-0.6233333333333333,0.0025467894905602893,0.025454235922985863,-0.3081801845291744
1589985406.7730105,-2.350276123728724,-0.5602761237287243,8.941104494914896,0.27555555555555555,-0.41830596101713774,-0.6233333333333333,0.0043332027036788135,0.02721052870979738,-0.33351664017170835
1589985406.7830105,-2.369944718657453,-0.5671586518121562,8.991365392751375,0.27555555555555555,-0.3977777777777778,-0.6233333333333333,0.004047349864261988,0.026638823030963724,-0.36695993639281366
1589985406.7930105,-2.4057085184344498,-0.5387885469697461,8.960965498232758,0.27555555555555555,-0.3977777777777778,-0.6233333333333333,0.01484154530092871,0.04048167511908488,-0.39943668350275585
1589985406.8030105,-2.317304387301793,-0.49798664029313533,8.600548655922696,0.27555555555555555,-0.3977777777777778,-0.6233333333333333,0.03709553319462607,0.05680126624112962,-0.4120472766425177
1589985406.8130105,-2.4381853570606737,-0.584911214236404,9.007475070951907,0.27555555555555555,-0.3977777777777778,-0.6233333333333333,-0.00384696281193096,0.007061345013033599,-0.4667787246645053
1589985406.8230104,-2.478400705683823,-0.6090404234102937,9.240724092966174,0.27555555555555555,-0.3977777777777778,-0.6233333333333333,0.004049302425321469,0.014957610250286028,-0.49309960878868
1589985406.8330104,-2.4824339695807662,-0.5313908397604378,8.903477099401094,0.3022222222222222,-0.3711111111111111,-0.6166666666666667,0.037382562704668075,0.05288176928324926,-0.5252676635049248
1589985406.8430104,-2.545685509931492,-0.5675345771037097,8.993836442759275,0.3022222222222222,-0.3711111111111111,-0.6166666666666667,0.016683544528201484,0.038096756300058855,-0.5686370349222835
1589985406.8530104,-2.5209154498985007,-0.5977288624746252,8.962271137525375,0.3022222222222222,-0.3711111111111111,-0.6166666666666667,0.004139591700875953,0.03240133195287202,-0.6255136973522086
1589985406.8630104,-2.4579393992163694,-0.5829772747061384,8.980992424902047,0.3022222222222222,-0.3711111111111111,-0.6166666666666667,0.010800051061717763,0.046689210120854016,-0.6680966701039511
1589985406.8730104,-2.5163710927296474,-0.6048891597736178,8.988296386591205,0.3022222222222222,-0.3711111111111111,-0.6166666666666667,0.010003312437246736,0.04509573287191195,-0.7039499082051474
1589985406.8830104,-2.5237516182943764,-0.5849987053644987,8.998750323658875,0.31555555555555553,-0.3711111111111111,-0.6233333333333333,0.015544268039161653,0.050723490163259506,-0.7725791364177939
1589985406.8930104,-2.473215388992765,-0.6248461507194537,8.97546154784164,0.31555555555555553,-0.3711111111111111,-0.6233333333333333,0.01777047234282714,0.05443581251719485,-0.8259082586416162
1589985406.9030104,-2.413545240224372,-0.66746768555402,8.84759694333794,0.31555555555555553,-0.3711111111111111,-0.6233333333333333,0.020560045274514535,0.05350595487329904,-0.8751907137680933
1589985406.9130104,-2.448080265142663,-0.7087201767617752,8.986800441904439,0.31555555555555553,-0.3711111111111111,-0.6233333333333333,0.027226991718222317,0.058651673822958064,-0.9393531843137632
1589985406.9230103,-2.4213473836282904,-0.6908982557521935,8.942245639380484,0.31555555555555553,-0.3711111111111111,-0.6233333333333333,0.04180751674857633,0.07031609384724127,-0.9869828994129198
1589985406.9330103,-2.4294476777359355,-0.712761611320324,8.85579938377268,0.3555555555555556,-0.3922222222222223,-0.6466666666666666,0.030091394314275738,0.07817832226324481,-1.0533683447090836
1589985406.9430103,-2.4202194336985143,-0.8087225707876857,9.0421159910276,0.3555555555555556,-0.3922222222222223,-0.6466666666666666,0.01696771838695919,0.06614657650341367,-1.1235599790804582
1589985406.9530103,-2.4747599232794775,-0.8019050095900654,8.946670134260915,0.3555555555555556,-0.3922222222222223,-0.6466666666666666,0.03184132961879457,0.06986497931137252,-1.1585129654752715
1589985406.9630103,-2.551551724137931,-0.8025862068965518,8.868275862068964,0.3555555555555556,-0.3922222222222223,-0.6466666666666666,0.033195109157004216,0.08796233740924007,-1.2310965751836727
1589985406.9730103,-2.576488109393579,-0.8441468489892985,9.001269916765754,0.3555555555555556,-0.3922222222222223,-0.6466666666666666,0.023221271055285285,0.08161534952632803,-1.2764322029187585
1589985406.9830103,-2.507699973865319,-0.93,8.96179998257688,0.3555555555555556,-0.3533333333333333,-0.6377777777777778,0.030645075317023925,0.0909389294017339,-1.3431254126484713
1589985406.9930103,-2.441929959055667,-0.93,8.917953306037111,0.3555555555555556,-0.3533333333333333,-0.6377777777777778,0.03702231591432319,0.09891048014835796,-1.379794546082942
1589985407.0030103,-2.4257424866858615,-0.9803364760345509,8.794593989348689,0.3555555555555556,-0.3533333333333333,-0.6377777777777778,0.03469272563169208,0.09574254560988757,-1.4449078978913328
1589985407.0130103,-2.465207851107473,-1.051374131993451,8.826166280885978,0.3555555555555556,-0.3533333333333333,-0.6377777777777778,0.04071973044118684,0.09402054423574621,-1.47934792537416
1589985407.0230103,-2.529756295318183,-1.1197562953181828,8.915366136168833,0.3555555555555556,-0.3533333333333333,-0.6377777777777778,0.04331396991718026,0.10312344820626988,-1.5217090679326362
1589985407.0330102,-2.5552037893809207,-1.1469383858412279,8.990867298230153,0.4011111111111111,-0.3466666666666667,-0.7177777777777777,0.04073916919519132,0.10656744638780112,-1.5723043600974225
1589985407.0430102,-2.6060365984009577,-1.2239634015990422,8.992073196801915,0.4011111111111111,-0.3466666666666667,-0.7177777777777777,0.044075552012210036,0.11442914715043709,-1.6154804662148963
1589985407.0530102,-2.5701710205652226,-1.259828979434777,8.920342041130446,0.4011111111111111,-0.3466666666666667,-0.7177777777777777,0.03820706056192374,0.11345106524205603,-1.6546037425501383
1589985407.0630102,-2.463132679561223,-1.2726105663010194,8.891044226520409,0.4011111111111111,-0.3466666666666667,-0.7177777777777777,0.041337662291629336,0.11551415550138833,-1.7015646931077262
1589985407.0730102,-2.5119055002131865,-1.3132545835109888,8.907301833404397,0.4011111111111111,-0.3466666666666667,-0.7177777777777777,0.03956423248775132,0.1137407256975103,-1.7334864295775305
1589985407.0830102,-2.519355720599626,-1.4193557205996263,8.958709162983553,0.43333333333333335,-0.3,-0.7177777777777777,0.03613822429765586,0.12491769459090563,-1.785162394065293
1589985407.0930102,-2.6124568599254854,-1.5149712399503235,8.888266226550755,0.43333333333333335,-0.3,-0.7177777777777777,0.042359549642029266,0.12281302570326688,-1.8136132875117708
1589985407.1030102,-2.5507719458788154,-1.4738479639192104,8.79231191581149,0.43333333333333335,-0.3,-0.7177777777777777,0.0408642651296347,0.12804652149664786,-1.8367901974538865
1589985407.1130102,-2.410372877348034,-1.5329830187842692,8.746711792264605,0.43333333333333335,-0.3,-0.7177777777777777,0.03385642886632321,0.12257979372893381,-1.880233581202189
1589985407.1230102,-2.416571686150481,-1.5825734892038485,8.858290350708659,0.43333333333333335,-0.3,-0.7177777777777777,0.034532614011975174,0.12934164518545344,-1.892404913823924
1589985407.1330101,-2.474877049180328,-1.6648770491803278,8.896481264637004,0.4490124902419984,-0.26777062190996614,-0.7177777777777777,0.048589230639537684,0.1373571822144586,-1.905122549776177
1589985407.1430101,-2.504502543475689,-1.7235076304270673,8.90450254347569,0.4533333333333333,-0.2588888888888889,-0.7177777777777777,0.04761393130549744,0.13932650041943864,-1.9202190555244136
1589985407.1530101,-2.5196449538196912,-1.8307100923606179,8.860236697453539,0.4533333333333333,-0.2588888888888889,-0.7177777777777777,0.04256822020420769,0.13967797953323818,-1.9440153725297602
1589985407.1630101,-2.4961193583367614,-1.8777612833264778,8.875920427775494,0.4533333333333333,-0.2588888888888889,-0.7177777777777777,0.04427904978616367,0.14309963869715012,-1.9542803500214958
1589985407.17301,-2.4536775420629118,-1.9081612289685441,8.852758156547184,0.4533333333333333,-0.2588888888888889,-0.7177777777777777,0.047695686223382855,0.1489423701912458,-1.9727990858841251
1589985407.18301,-2.4652651664175,-1.9710606656699976,8.941590998504998,0.4677504349498605,-0.21563758403930725,-0.7449158514088878,0.03883811204436732,0.14195054615935168,-1.9885576727325036
1589985407.19301,-2.269737032519485,-1.9801753116536767,8.80008765582684,0.4722222222222222,-0.20222222222222225,-0.7533333333333333,0.045790988446306025,0.15271152866579482,-2.0072099148165328
1589985407.20301,-2.2177104049947283,-2.0148597300035145,8.817429865001758,0.4722222222222222,-0.20222222222222225,-0.7533333333333333,0.04106163454518254,0.15176565788557012,-2.023289718080352
1589985407.21301,-2.241536922269928,-2.053586151963165,8.76897538515338,0.4722222222222222,-0.20222222222222225,-0.7533333333333333,0.04472406208235469,0.16977841357423407,-2.0397127616885364
1589985407.22301,-2.265982553960329,-2.110625959240767,8.75267829735978,0.4722222222222222,-0.20222222222222225,-0.7533333333333333,0.04472406208235469,0.16355633581362672,-2.054823521964297
1589985407.23301,-2.177367756839426,-2.2313161215802872,8.818154905777417,0.4622222222222222,-0.2088888888888889,-0.7477777777777778,0.037748377607390464,0.16600754749692134,-2.0824255030848007
1589985407.24301,-2.156900207421065,-2.24,8.741549896289468,0.4622222222222222,-0.2088888888888889,-0.7477777777777778,0.034652983852552346,0.17467381474795196,-2.1047479597200356
1589985407.25301,-2.0602350772067295,-2.24,8.789882461396635,0.4622222222222222,-0.2088888888888889,-0.7477777777777778,0.02674458638016547,0.17906736889927802,-2.1214434654950747
1589985407.26301,-2.047635479805557,-2.339113304927084,8.919113304927084,0.4622222222222222,-0.2088888888888889,-0.7477777777777778,0.01831843530372064,0.18974007386903496,-2.1417522020379813
1589985407.27301,-1.9972928044169715,-2.3202348016563645,8.900234801656365,0.4622222222222222,-0.2088888888888889,-0.7477777777777778,0.013513343054849759,0.18836719036935762,-2.1513623865357228
1589985407.28301,-2.0095583570222058,-2.412851728257735,8.810883285955589,0.48595723643554567,-0.18691202387655237,-0.7477777777777778,0.028168897242887306,0.18934895353118264,-2.1643397222335583
1589985407.29301,-1.99049802444179,-2.47298814665074,8.867758890011945,0.4922222222222222,-0.1811111111111111,-0.7477777777777778,0.029479594146981317,0.17019676508902415,-2.181933195188682
1589985407.30301,-2.009767986768354,-2.5886079206101256,8.781044059542404,0.4922222222222222,-0.1811111111111111,-0.7477777777777778,0.03053060755114949,0.1712477784931923,-2.192443329230364
1589985407.31301,-1.898016755058609,-2.5270094247204673,8.68901361348512,0.4922222222222222,-0.1811111111111111,-0.7477777777777778,0.04046833702975594,0.16515269431664809,-2.204021882571556
1589985407.32301,-1.9267582155897762,-2.6688680742975075,8.795840609620575,0.4922222222222222,-0.1811111111111111,-0.7477777777777778,0.038862946376116786,0.15499806639823752,-2.224003774942792
1589985407.33301,-1.8546742315483098,-2.6859550826958247,8.833191016539166,0.4657428420967527,-0.20380772264722785,-0.7477777777777778,0.04228746073449116,0.15717277880345668,-2.2359947373968474
1589985407.34301,-1.6867252949852507,-2.565690634218289,8.716207964601772,0.4533333333333333,-0.21444444444444444,-0.7477777777777778,0.04368966329056039,0.16650208578704265,-2.24568198921599
1589985407.35301,-1.7775809363340955,-2.779557106751715,8.742526978778033,0.4533333333333333,-0.21444444444444444,-0.7477777777777778,0.04540730278549254,0.1553656450653348,-2.2566650100740087
1589985407.36301,-1.6919537011950991,-2.7514208735964356,8.8580462988049,0.4533333333333333,-0.21444444444444444,-0.7477777777777778,0.04474343624056754,0.15807359267092183,-2.2591105505501603
1589985407.37301,-1.776546953810092,-2.96636738452523,8.790762436951926,0.4533333333333333,-0.21444444444444444,-0.7477777777777778,0.05699711265750983,0.15722638264851263,-2.253446065669319
1589985407.38301,-1.6641543901001767,-2.9478078962875665,8.888538597525045,0.4744444444444445,-0.13111111111111112,-0.6288888888888889,0.05430241770402806,0.1496829386228092,-2.2510761993713606
1589985407.39301,-1.593537334792491,-2.9213265005471842,8.870884333698122,0.4744444444444445,-0.13111111111111112,-0.6288888888888889,0.05141374554032011,0.15257161078651718,-2.246261745765181
1589985407.40301,-1.6398409169507435,-3.069965910775159,8.680170446124203,0.4744444444444445,-0.13111111111111112,-0.6288888888888889,0.05999197447972431,0.15705732133400507,-2.2307365550133165
1589985407.41301,-1.4947130021244663,-3.0341255579160737,8.823244391603485,0.4744444444444445,-0.13111111111111112,-0.6288888888888889,0.05691544135746988,0.13830976159899724,-2.2189435192645686
1589985407.4230099,-1.3475646597930107,-2.8706273997700116,8.635221509735514,0.4744444444444445,-0.13111111111111112,-0.6288888888888889,0.062265906071085834,0.162386852810269,-2.1939746839343606
1589985407.4330099,-1.3840941854877462,-2.9966746756367133,8.778039404132628,0.5068871803086124,-0.059104063217470235,-0.6186021677612259,0.05627659433388731,0.14514549311913558,-2.176867885268775
1589985407.4430099,-1.41,-3.2192999434424685,8.814600012568341,0.52,-0.03,-0.6144444444444445,0.05345070834232633,0.13345769311277383,-2.1419171560578514
1589985407.4530098,-1.3949543123268289,-3.2776142191829276,8.65954312326829,0.52,-0.03,-0.6144444444444445,0.06247747293407367,0.1429287350192011,-2.107665580066267
1589985407.4630098,-1.3170659307875896,-3.231652744630072,8.770454952267302,0.52,-0.03,-0.6144444444444445,0.06226749783820238,0.1318507538523927,-2.070617627292212
1589985407.4730098,-1.2971491712707184,-3.245745856353591,8.758508287292818,0.52,-0.03,-0.6144444444444445,0.06186637742894541,0.13511476047017154,-2.0286053501609063
1589985407.4830098,-1.203093189082862,-3.199433243176789,8.754226702729284,0.5321133513646422,0.025856009070294797,-0.6245389039149796,0.05623122715581174,0.13126802027578896,-1.9867853296484068
1589985407.4930098,-1.275692721566283,-3.355058287251532,8.89721192646839,0.54,0.06222222222222223,-0.6311111111111111,0.05791054497152573,0.11821036965204512,-1.9290040597417357
1589985407.5030098,-1.224891929407099,-3.3524459647035494,8.801078888227908,0.54,0.06222222222222223,-0.6311111111111111,0.061635868768697075,0.11262238395628811,-1.8885890089636217
1589985407.5130098,-1.2212020831554682,-3.4618466660974985,8.828884999573123,0.54,0.06222222222222223,-0.6311111111111111,0.06686374543351153,0.11646613911739695,-1.8272441898561822
1589985407.5230098,-1.1864031430712185,-3.468201571535609,8.799137000249754,0.54,0.06222222222222223,-0.6311111111111111,0.06604628206284664,0.10512791289414827,-1.784332545705019
1589985407.5330098,-1.0350403506330874,-3.315400375678308,8.741440100180883,0.5464266499698529,0.13719980520384029,-0.6171867028430964,0.06755296323442103,0.1056142227012581,-1.7231375162276703
1589985407.5430098,-1.0744652173913045,-3.4345026086956523,8.828930434782608,0.5466666666666666,0.14,-0.6166666666666667,0.05890078349623059,0.10775074701738951,-1.675737188571426
1589985407.5530097,-1.0623957387856495,-3.546823436678928,8.813593608178474,0.5466666666666666,0.14,-0.6166666666666667,0.052053050461595564,0.10031093945286032,-1.623013916414555
1589985407.5630097,-1.0082172571749088,-3.5254781714499392,8.64602131438721,0.5466666666666666,0.14,-0.6166666666666667,0.05221048360859521,0.10208991170096283,-1.5582421361215175
1589985407.5730097,-1.0059756885216038,-3.6036596393024527,8.787319278604905,0.5466666666666666,0.14,-0.6166666666666667,0.04649325907245137,0.09536778207009312,-1.5079133817333181
1589985407.5830097,-0.97644924504621,-3.680130452972274,8.812768037120145,0.5384653710112958,0.17429632728609645,-0.6211401006605053,0.047666147996504316,0.09273484672398122,-1.42682400527949
1589985407.5930097,-0.96,-3.732053607518189,8.828875050525465,0.5344444444444445,0.19111111111111112,-0.6233333333333333,0.045590879035250456,0.08096690380785297,-1.3318166703316519
1589985407.6030097,-0.9671666633163809,-3.790166643214666,8.696666733672382,0.5344444444444445,0.19111111111111112,-0.6233333333333333,0.04472406208235469,0.07932157803507447,-1.2547099570211846
1589985407.6130097,-0.9107930264696502,-3.758193898160944,8.721409588604232,0.5344444444444445,0.19111111111111112,-0.6233333333333333,0.042302132484903755,0.07155754846407149,-1.1583230236816116
1589985407.6230097,-0.869467367480263,-3.65102525908114,8.777376843359649,0.5344444444444445,0.19111111111111112,-0.6233333333333333,0.03995839456165087,0.06424281377763334,-1.0617007746995237
1589985407.6330097,-0.8217217941995079,-3.604531684885644,8.713443588399016,0.5393051689905387,0.2154147338415823,-0.6154346559459302,0.03628740494230733,0.05680884879268083,-0.9773543723800385
1589985407.6430097,-0.8186340244081752,-3.6715850610204384,8.771694603734746,0.5433333333333333,0.23555555555555555,-0.6088888888888889,0.02913052296971127,0.03752331181551348,-0.8700296144532385
1589985407.6530097,-0.7865086679484531,-3.5532167543260296,8.75476300192268,0.5433333333333333,0.23555555555555555,-0.6088888888888889,0.020154516996371087,0.03578524002258741,-0.7980473839729949
1589985407.6630096,-0.7451904121048994,-3.4492383515804024,8.810620521587312,0.5433333333333333,0.23555555555555555,-0.6088888888888889,0.01575473413058334,0.031924883031935164,-0.7209191649697176
1589985407.6730096,-0.7292348089940092,-3.4377044269820276,8.892321831479032,0.5433333333333333,0.23555555555555555,-0.6088888888888889,0.003948840531836202,0.016365326091209328,-0.6408356717902891
1589985407.6830096,-0.6543615630774778,-3.229494298463064,8.540012620002704,0.5989436757260258,0.21823430136766775,-0.638061527521121,0.016529328807163023,0.027717583919977896,-0.5529974198741211
1589985407.6930096,-0.6666554315005969,-3.2966217260023876,8.836512183133207,0.6111111111111112,0.21444444444444444,-0.6444444444444445,-0.003625378901450548,0.007645926401096393,-0.5076140181364288
1589985407.7030096,-0.6869581702915036,-3.461330724664058,8.69296599629933,0.6111111111111112,0.21444444444444444,-0.6444444444444445,-0.0042181635873276505,0.003985881848221116,-0.44836880859798806
1589985407.7130096,-0.701647810218978,-3.515823905109489,8.631534671532847,0.6111111111111112,0.21444444444444444,-0.6444444444444445,0.012526041724480743,0.020976894909790197,-0.3897640900066586
1589985407.7230096,-0.7045367503726636,-3.481757252608646,8.7500957459007,0.6111111111111112,0.21444444444444444,-0.6444444444444445,0.009998719308703325,0.015048611658402834,-0.3354392212826957
1589985407.7330096,-0.6587840530250725,-3.3984800662813406,8.763936046396939,0.7834166672146275,0.1360196564504852,-0.581475636566083,0.004462802559245902,0.005553633341742358,-0.28605950055273394
1589985407.7430096,-0.6802997569538212,-3.5040993788819876,8.783599783958953,0.9455555555555556,0.06222222222222223,-0.5222222222222223,0.007635815477475192,0.010188353616911268,-0.21942077391831696
1589985407.7530096,-0.6768587309858806,-3.5054321447182315,8.685720241197052,0.9455555555555556,0.06222222222222223,-0.5222222222222223,0.006732027567185254,0.005485580363224938,-0.14629854648974516
1589985407.7630095,-0.6862475651609312,-3.5956091735460536,8.765609173546052,0.9455555555555556,0.06222222222222223,-0.5222222222222223,0.0003418142186224519,0.004363323129985824,-0.08740998764052635
1589985407.7730095,-0.6965660640856544,-3.6068678718286913,8.763735743657382,0.9455555555555556,0.06222222222222223,-0.5222222222222223,-0.001090830782496456,-0.0006504022471475884,-0.04699204899439907
1589985407.7830095,-0.6872193124296962,-3.5957397708098986,8.78834206271091,1.102237317991501,0.17109474596925384,-0.528375886607924,-0.001090830782496456,-0.002343054519278893,-0.008862865901240583
1589985407.7930095,-0.6488778527560847,-3.516072484646296,8.815357494882099,1.3133333333333332,0.31777777777777777,-0.5366666666666666,0.0019812610049816217,-0.004930945516844053,0.038713120481058544
1589985407.8030095,-0.6323729698584752,-3.4471189095754258,8.756576218084914,1.3133333333333332,0.31777777777777777,-0.5366666666666666,0.004219098087026562,-0.011511036123111211,0.09324208932856379
1589985407.8130095,-0.6436216806111313,-3.5709457984721715,8.694959621680612,1.3133333333333332,0.31777777777777777,-0.5366666666666666,0.004466493738734124,-0.01090830782496456,0.1485253606981344
1589985407.8230095,-0.661070148035074,-3.6482533991266997,8.71214029607015,1.3133333333333332,0.31777777777777777,-0.5366666666666666,0.00443711268787027,-0.01837507144468874,0.21490576556184587
1589985407.8330095,-0.6899964639321075,-3.544977899575672,8.709982319660538,0.9966106789250353,0.29832989548954897,-0.602233812666981,-0.006000051460193775,-0.03108935232019757,0.2868952459870536
1589985407.8430095,-0.7080095719223611,-3.4634395107684126,8.78375804307365,0.68,0.2788888888888889,-0.6677777777777778,-0.003988130707694567,-0.03194501281971342,0.3647526409342644
1589985407.8530095,-0.7233271432992882,-3.483327143299288,8.76882905189312,0.68,0.2788888888888889,-0.6677777777777778,-0.009093632660644394,-0.03733357943329612,0.4260403757705159
1589985407.8630095,-0.7151134561854762,-3.4955672809273812,8.701361474225715,0.68,0.2788888888888889,-0.6677777777777778,-0.013573504031414666,-0.04195985667623894,0.477336611748778
1589985407.8730094,-0.7284481579495109,-3.507327763075734,8.738879605126224,0.68,0.2788888888888889,-0.6677777777777778,-0.01044753228762863,-0.04174306556437666,0.5184171428786011
1589985407.8830094,-0.7513110307414105,-3.5239330922242313,8.80614376130199,0.6027079566003617,0.28077406067912397,-0.6677777777777778,-0.00920055601674339,-0.04239938924840881,0.5502610075542
1589985407.8930094,-0.7324921170856935,-3.4468454390713505,8.83873817562854,0.5433333333333333,0.2822222222222222,-0.6677777777777778,-0.010977129668289181,-0.04670269768760624,0.5734397615169777
1589985407.9030094,-0.69845160235448,-3.328172007848267,8.77690320470896,0.5433333333333333,0.2822222222222222,-0.6677777777777778,-0.0049474419678988205,-0.04046864487509783,0.5964686261801035
1589985407.9130094,-0.7311871999264892,-3.3686453332108153,8.862967999816224,0.5433333333333333,0.2822222222222222,-0.6677777777777778,-0.008920901393690435,-0.04307868200816619,0.6099686625492377
1589985407.9230094,-0.7615994670492979,-3.4579973352464894,8.759206928359127,0.5433333333333333,0.2822222222222222,-0.6677777777777778,-0.010101180249771887,-0.04518224007895477,0.6219040387655574
1589985407.9330094,-0.7833482670648996,-3.5600672017920476,8.91029120776554,0.5396254813708613,0.2785143702597502,-0.69669902308506,-0.01455092650292205,-0.05200441238604269,0.641423161264597
1589985407.9430094,-0.8530312605042016,-3.702055574229692,8.948954845938376,0.5377777777777778,0.2766666666666667,-0.7111111111111111,-0.0006461629334344257,-0.045700884242564015,0.6678164561324054
1589985407.9530094,-0.8727220623073592,-3.713610311536796,8.73532949537662,0.5377777777777778,0.2766666666666667,-0.7111111111111111,-0.016478110862870335,-0.05891736636495772,0.6890174826969607
1589985407.9630094,-0.904171112471576,-3.638491997551163,8.711005334965892,0.5377777777777778,0.2766666666666667,-0.7111111111111111,-0.014652135617698262,-0.055758372597190006,0.722842800725538
1589985407.9730093,-0.9145348536405787,-3.577209121843472,8.762790878156528,0.5377777777777778,0.2766666666666667,-0.7111111111111111,-0.013990561958261762,-0.054249821717186036,0.7589646677279877
1589985407.9830093,-0.9358404835141115,-3.5758404835141113,8.846849063731044,0.5205507887683701,0.25312311502047624,-0.6990522188045258,-0.015198284931800494,-0.0606694639690656,0.7974936643162227
1589985407.9930093,-0.9268406530236836,-3.6442124626350885,8.833681306047367,0.5044444444444445,0.2311111111111111,-0.6877777777777778,-0.013692823330111582,-0.06013903858621211,0.837644167152897
1589985408.0030093,3.6705876792185292,-8.52694879470616,3.514966440838191,0.5044444444444445,0.2311111111111111,-0.6877777777777778,-0.016499747955984443,-0.06136109625687674,0.8668060723948741
1589985408.0130093,4.45855073189458,-10.290795653697861,0.6951304391367483,0.5044444444444445,0.2311111111111111,-0.6877777777777778,-1.4818746373145646,0.46951925509942755,-4.312834941296046
1589985408.0230093,2.3847764442875627,-9.476237204376986,-0.09257442052006118,0.5044444444444445,0.2311111111111111,-0.6877777777777778,-2.6612058707187964,0.2628465802164207,-12.663738075027187
1589985408.0330093,0.2953232268543584,-9.376893990254466,1.9174503519220358,0.5017165373277989,0.25347994946760516,-0.6877777777777778,-2.4534008485700984,0.12334996369273121,-17.576193158211378
1589985408.0430093,-1.7851518185929323,-10.739505135990697,1.1371658375864073,0.4988888888888889,0.2766666666666667,-0.6877777777777778,-2.089102892349062,1.4792597750677294,-16.750313426201963
1589985408.0530093,-2.2394636969741373,-5.9498869270032,7.988885388428943,0.4988888888888889,0.2766666666666667,-0.6877777777777778,-2.2783869826268703,2.8931350104443654,-13.54738430486749
1589985408.0630093,-1.5462306156916936,-2.1216873944418855,5.2275418393981266,0.4988888888888889,0.2766666666666667,-0.6877777777777778,-2.963936800281896,3.8813636749756335,-8.677394571827074
1589985408.0730093,-0.7166205507051713,-1.70949854488471,3.4745520483546004,0.4988888888888889,0.2766666666666667,-0.6877777777777778,-1.1628182882125286,2.5422576945628395,-6.536985659956625
1589985408.0830092,-1.8196637125891448,-1.9080177841434667,8.55457076358428,0.28601796317846806,0.4991048249932862,-0.6160235331562876,0.9861286691959146,1.1994110363517467,-6.0815620341951835
1589985408.0930092,-1.562241159954374,-1.7388915942791963,6.7633445204878475,0.20222222222222225,0.5866666666666667,-0.5877777777777777,2.048121126449618,1.4343423641281854,-5.636750869086264
1589985408.1030092,-1.352122199592668,-1.9982851323828918,6.679201629327903,0.20222222222222225,0.5866666666666667,-0.5877777777777777,3.4907624772689467,1.0529747332063812,-5.17649282314604
1589985408.1130092,3.095188785125892,0.12425555343794326,17.834410139127122,0.20222222222222225,0.5866666666666667,-0.5877777777777777,4.67962146131098,0.7140677907548318,-4.7733574885242565
1589985408.1230092,2.545072569393832,0.6668215230202195,9.795835537138457,0.20222222222222225,0.5866666666666667,-0.5877777777777777,4.81552165542245,0.5226153401875959,-4.401917205986286
1589985408.1330092,-0.035651123261862344,0.36730642419774323,-0.9753871516045136,0.15823923327394485,0.6104907856803169,-0.6010643056892365,3.491798279299108,0.3032713529489032,-3.9751061473436597
1589985408.1430092,-0.23983798815137228,0.6680486035545883,-0.5100405029621569,0.09555555555555556,0.6444444444444445,-0.62,1.4341848063143228,0.1298110722109734,-3.513440032069061
1589985408.1530092,0.10518015485098837,0.5917915999826981,-0.5126290064449154,0.09555555555555556,0.6444444444444445,-0.62,0.07734796610548467,0.1007472984718834,-3.1518041583957728
1589985408.1630092,0.6941264739519659,-0.1740722482943567,9.654161967109674,0.09555555555555556,0.6444444444444445,-0.62,-1.0643242225580403,0.0022375216340496523,-2.855160868169152
1589985408.1730092,1.2340886761556873,-1.2074455221060587,21.30286937901499,0.09555555555555556,0.6444444444444445,-0.62,-1.9753747329629865,0.031721205265278316,-2.5974992025051122
1589985408.1830091,1.1555584312164047,-1.5614095162253632,8.212313358550666,0.04097407481142301,0.5969514676930564,-0.6518982679673502,-1.1151994383495518,0.07982034266046756,-2.3535004226485947
1589985408.1930091,0.3802378251273695,0.7635543821290813,6.258192487778717,0.01,0.57,-0.67,0.2815772854694325,0.030517319212922195,-2.2539549964048966
1589985408.2030091,0.51790642704386,1.611297790117435,4.923074700784152,0.01,0.57,-0.67,0.8715588568124016,-0.032117278383244505,-2.282435535557719
1589985408.213009,2.8963244822291303,-0.10388749485038018,6.133617092992772,0.01,0.57,-0.67,0.7102380391345389,0.11698991621358507,-2.22948514546923
1589985408.223009,4.758274644167057,-1.832311442500717,8.685074940002718,0.01,0.57,-0.67,0.04587279895004037,0.5032914062392293,-2.024019171440017
1589985408.233009,5.230459171212244,-2.6512244565659855,12.088988032239682,-0.0041501352365961985,0.5738591277917989,-0.6685298560793147,-0.3251594008342818,0.5484722129488645,-1.9142359574471122
1589985408.243009,4.422061343204653,-1.5642845055526178,9.282012691697515,-0.07555555555555556,0.5933333333333334,-0.6611111111111111,-0.07807152631899886,0.10612624037290297,-1.850971396548792
1589985408.253009,3.799766200762389,-1.2251168996188055,7.7146493011435835,-0.07555555555555556,0.5933333333333334,-0.6611111111111111,0.15172749292913157,-0.09768438169425252,-1.737205958516595
1589985408.263009,3.248085360393971,-1.0053036860170124,8.169218773317416,-0.07555555555555556,0.5933333333333334,-0.6611111111111111,0.029110579964407357,0.087314240369402,-1.6205285084151566
1589985408.273009,3.516056216045981,-1.330188174159515,9.786284544524054,-0.07555555555555556,0.5933333333333334,-0.6611111111111111,-0.07246608497155595,0.21946689126040514,-1.5214065390012497
1589985408.283009,3.6785597138619908,-1.540038602460089,9.69244874814621,-0.09393432492948325,0.582965822404451,-0.667237367569087,-0.06443533530604709,0.21583580583915293,-1.4314457870641533
1589985408.293009,3.4670643800759873,-1.3770800655303426,8.540361114015825,-0.11888888888888888,0.5688888888888889,-0.6755555555555556,0.059077827127393116,0.07568344348347653,-1.3318187585007029
1589985408.303009,3.441315390621412,-1.4595067285169705,8.31509713865797,-0.11888888888888888,0.5688888888888889,-0.6755555555555556,0.05833417133286781,0.05430837298043578,-1.2378380285196742
1589985408.313009,3.650404927488073,-1.6836032849920486,9.077724953122404,-0.11888888888888888,0.5688888888888889,-0.6755555555555556,0.01139674917959169,0.08280156748806076,-1.1424681345093881
1589985408.323009,3.783556948388992,-1.8111544412888063,8.998346489080404,-0.11888888888888888,0.5688888888888889,-0.6755555555555556,0.030963591240701915,0.0836161802239027,-1.082449599813454
1589985408.333009,3.449916482823826,-1.5932089505200127,8.749548692089505,-0.13768182932380854,0.5726474769758728,-0.6555097524249747,0.04148742654249671,0.07621899048204642,-1.0293984794138007
1589985408.343009,3.2605148997363584,-1.4661276663737317,8.834778700966686,-0.15222222222222226,0.5755555555555556,-0.64,0.015849073214662897,0.07220603468074757,-0.9746545154264585
1589985408.353009,3.49364471200449,-1.6323019233712566,8.802110096423652,-0.15222222222222226,0.5755555555555556,-0.64,0.009366224483931675,0.05480446601793562,-0.9356398603468559
1589985408.363009,3.7454886134332663,-1.803581592809036,8.653999056579051,-0.15222222222222226,0.5755555555555556,-0.64,0.021973926947292204,0.043607875108551485,-0.9031266451836227
1589985408.373009,3.901144915932746,-1.7995836669335468,8.656821457165734,-0.15222222222222226,0.5755555555555556,-0.64,0.02396421604557266,0.06014329143781902,-0.8713694281985721
1589985408.383009,3.6573722793473675,-1.5836861396736839,9.001128158552012,-0.15625554582445822,0.576707933727623,-0.6555571053229102,0.01959444024258133,0.07530783783461034,-0.8327059825072595
1589985408.393009,3.487561604627242,-1.500800822885765,9.115559547412829,-0.16,0.5777777777777777,-0.67,0.015018522308246289,0.06754415228926826,-0.798985390050982
1589985408.403009,3.7060384068278807,-1.6137948474790582,9.033711474632527,-0.16,0.5777777777777777,-0.67,0.010494354180461006,0.053187784848836996,-0.7730423970875069
1589985408.413009,3.549795896868663,-1.4518369281820338,8.619592320455084,-0.16,0.5777777777777777,-0.67,0.016941273425465028,0.038691096481854224,-0.7294986805719638
1589985408.423009,3.6944813203837215,-1.498964031063179,8.685858904844189,-0.16,0.5777777777777777,-0.67,0.015271630954950384,0.04671758138999991,-0.7131400539185863
1589985408.433009,3.763805586724148,-1.5528937577511368,8.978899781491762,-0.1785882924204545,0.5684836315675506,-0.67,0.017096532295915342,0.05864756714199395,-0.7083059380642279
1589985408.443009,3.6934857167951165,-1.4388351667654744,9.124175833827373,-0.20444444444444448,0.5555555555555556,-0.67,0.01697140892612984,0.05477025359558797,-0.7009731349893555
1589985408.453009,3.721542922636103,-1.4729079656160458,9.029613295128941,-0.20444444444444448,0.5555555555555556,-0.67,0.015113026034529178,0.038664593978865555,-0.6922211357844379
1589985408.4630089,3.6880530125612094,-1.439683992822166,8.639949055628213,-0.20444444444444448,0.5555555555555556,-0.67,0.016362461737446838,0.029699285546248098,-0.685535440245462
1589985408.4730089,3.732701724505003,-1.4141704431399982,8.837679065665014,-0.20444444444444448,0.5555555555555556,-0.67,0.016362461737446838,0.02761196314394349,-0.6813607954408527
1589985408.4830089,3.74,-1.306810408013682,8.935408929880284,-0.20444444444444448,0.552258157558976,-0.6645043366723675,0.02363858689124092,0.05082703777348042,-0.6821054097610598
1589985408.4930089,3.7209220318284166,-1.3181559363431667,9.082241346410717,-0.20444444444444448,0.5455555555555556,-0.6533333333333333,0.021658796335482528,0.06170389665895821,-0.6888882597686913
1589985408.5030088,3.626703521939954,-1.3029434180138568,8.920735854503464,-0.20444444444444448,0.5455555555555556,-0.6533333333333333,0.018434158490301254,0.052630380920731856,-0.6921871139000705
1589985408.5130088,3.5807016914977035,-1.1829824129046713,8.820964937829057,-0.20444444444444448,0.5455555555555556,-0.6533333333333333,0.012802909943980024,0.03937516655858558,-0.6958256451768878
1589985408.5230088,3.745447660925858,-1.2681714913887872,8.745758723179025,-0.20444444444444448,0.5455555555555556,-0.6533333333333333,0.011239363264593589,0.03588278554472239,-0.7011070693336947
1589985408.5330088,3.6962395504526695,-1.1569117902112456,8.808319400603558,-0.2130345601072994,0.5436764677543061,-0.6552124211345828,0.018770999759196792,0.05014155100374331,-0.7099841794408183
1589985408.5430088,3.832674227269794,-1.2197175259727688,8.947043298702976,-0.24,0.5377777777777778,-0.6611111111111111,0.023260785647785748,0.05663076128056788,-0.7285208970255529
1589985408.5530088,3.879869751762182,-1.239869751762182,8.920169322709164,-0.24,0.5377777777777778,-0.6611111111111111,0.02398691091194781,0.06325681908182024,-0.739590374471956
1589985408.5630088,3.7948735007496253,-1.1429747001499249,8.972657796101949,-0.24,0.5377777777777778,-0.6611111111111111,0.014622652056503373,0.050323176284917226,-0.7473088505896439
1589985408.5730088,3.8214547148101476,-1.1512207550271216,8.80342830529834,-0.24,0.5377777777777778,-0.6611111111111111,0.014687933983723579,0.039828084087780165,-0.7548038593809094
1589985408.5830088,3.765674234606123,-1.1287917096663227,8.88297729618163,-0.24378282307074875,0.5377777777777778,-0.663632993158277,0.02648942026868823,0.04125860113152896,-0.7750782362628705
1589985408.5930088,3.8645517103819684,-1.05,8.924551710381968,-0.2533333333333333,0.5377777777777778,-0.67,0.025887295436450748,0.05961427758667851,-0.7944971955922444
1589985408.6030087,3.8964942112033683,-1.0412099169687756,8.97846941878143,-0.2533333333333333,0.5377777777777778,-0.67,0.01824518132422642,0.06558182841716788,-0.8106542319056995
1589985408.6130087,3.643290823463583,-0.9796997109017999,8.9251501445491,-0.2533333333333333,0.5377777777777778,-0.67,0.012280035417884248,0.06161556098145152,-0.8224146153716511
1589985408.6230087,3.5570801738954603,-0.9306612071580225,8.8670245677889,-0.2533333333333333,0.5377777777777778,-0.67,0.01906400767294711,0.04955014185609293,-0.8324842033251904
1589985408.6330087,3.795076347969334,-0.9609541912183995,8.738244313501868,-0.2533333333333333,0.5340924482741628,-0.6673197603610073,0.02638811101059854,0.040394052038421155,-0.8468302586493275
1589985408.6430087,3.843338622446699,-0.8955379251776695,8.938924149644661,-0.2533333333333333,0.5255555555555556,-0.6611111111111111,0.01987659165513477,0.06096743589300372,-0.8620014174590016
1589985408.6530087,3.7644361094933023,-0.84,8.950454280722191,-0.2533333333333333,0.5255555555555556,-0.6611111111111111,0.020059393356438963,0.06719715837536433,-0.8787356170810748
1589985408.6630087,3.7021922646729855,-0.84,8.847418614234416,-0.2533333333333333,0.5255555555555556,-0.6611111111111111,0.023308601427319043,0.06550616405087933,-0.8898293977243985
1589985408.6730087,3.8940745314222713,-0.8306169790518192,8.939053142227122,-0.2533333333333333,0.5255555555555556,-0.6611111111111111,0.021475439380492962,0.06156230403761366,-0.8868454261696187
1589985408.6830087,3.9461613578953854,-0.7811351734335531,8.884540693734213,-0.25636046248947486,0.5239158605959788,-0.6621201541631583,0.01963495408493621,0.05174073649743394,-0.8868454261696187
1589985408.6930087,3.8231830802454323,-0.7674346141980599,8.88615192129709,-0.28,0.5111111111111111,-0.67,0.021111855132036096,0.051828727137680566,-0.8878300268676853
1589985408.7030087,4.024465773146402,-0.6955479381619991,8.778321907242999,-0.28,0.5111111111111111,-0.67,0.025816827076325214,0.06751196695197764,-0.8909666748305447
1589985408.7130086,3.7611934761047645,-0.7003978253682548,9.004801087315872,-0.28,0.5111111111111111,-0.67,0.016580924413352165,0.07038028347890893,-0.8982774513779439
1589985408.7230086,3.6751046241986085,-0.67,9.019690628836447,-0.28,0.5111111111111111,-0.67,0.020894520661642317,0.06833424697059452,-0.8999185219801552
1589985408.7330086,4.003559631168304,-0.660507650217854,8.996440368831696,-0.2831641165940487,0.5088698618569932,-0.6706591909570935,0.029433751382522168,0.04596300445149065,-0.9002683150364106
1589985408.7430086,4.029059479177222,-0.592508055527409,8.97094052082278,-0.3058306481575303,0.49281440199952714,-0.6753813850328189,0.01367134052682796,0.06265261594575511,-0.9104675220606834
1589985408.7530086,3.9640829914587394,-0.6037278902414419,8.972899320734413,-0.30666666666666664,0.4922222222222222,-0.6755555555555556,0.020067427517098193,0.06652776588765948,-0.9221457491077943
1589985408.7630086,4.035312094525578,-0.6255660768020319,8.964941887750877,-0.30666666666666664,0.4922222222222222,-0.6755555555555556,0.02976986610734234,0.06510470680131285,-0.9290703917070424
1589985408.7730086,5.4804300688828995,-0.7785277029050615,9.155053009883199,-0.30666666666666664,0.4922222222222222,-0.6755555555555556,0.022237615131323878,0.059444495164819894,-0.933448783764188
1589985408.7830086,5.713769826401899,-0.9512426626701636,9.232686399400524,-0.3191045335331585,0.4898037481092933,-0.6710641036315447,8.071902568117587e-06,0.022823219364700033,-0.7686387820290781
1589985408.7930086,2.534011478699081,-0.1264322710092856,9.15927348233867,-0.3466666666666667,0.4844444444444445,-0.6611111111111111,0.02080956572077545,0.030657328065636598,-0.16210780727142168
1589985408.8030086,5.28,0.19,9.17,-0.3466666666666667,0.4844444444444445,-0.6611111111111111,0.0839939702522271,0.1014472627721704,0.1134464013796314
1589985408.8130085,3.606267194480074,-0.5090280419302048,9.130155026759255,-0.3466666666666667,0.4844444444444445,-0.6611111111111111,-0.02036933133914376,0.002075637386810066,-0.00963925027832365
1589985408.8230085,3.9868277041470717,-0.5984266780675502,9.020406156477126,-0.3466666666666667,0.4844444444444445,-0.6611111111111111,-0.02649007237134724,0.013746146778145804,-0.013397304783572334
1589985408.8330085,3.7754387375615637,-0.3969826113177204,8.99161423258619,-0.34323583609743025,0.4837582783305972,-0.6633411509811148,0.010146623088206807,-0.0005052315052511478,0.0020132510632425295
1589985408.8430085,3.842148124398846,-0.49,9.07072587367746,-0.3244444444444444,0.48,-0.6755555555555556,0.0015578700344829155,-0.003661959856110097,0.0003118957652549982
1589985408.8530085,3.84422741606381,-0.47777592283435355,8.938879614171768,-0.3244444444444444,0.48,-0.6755555555555556,0.003829947143589857,-0.002229819184401956,-0.000557454796100489
1589985408.8630085,3.9326967456831885,-0.4443258135792029,8.784606508633624,-0.3244444444444444,0.48,-0.6755555555555556,0.001867079524223864,0.005307069252292968,0.001090830782496456
1589985408.8730085,3.8217041106641814,-0.4782958893358187,9.01696164034141,-0.3244444444444444,0.48,-0.6755555555555556,0.00022623528639237792,0.00977713139300267,0.0006383602097117002
1589985408.8830085,3.794279252110977,-0.5080548854041014,9.114942702050662,-0.3253089398203994,0.48,-0.6755555555555556,0.0010483949649626675,0.004944924102076817,-0.0009635233298950903
1589985408.8930085,3.9020668268424874,-0.46,8.977599038945074,-0.3466666666666667,0.48,-0.6755555555555556,0.0,-0.007861271311662732,0.001843477813711603
1589985408.9030085,3.905957507486097,-0.4635106231284757,8.882287180949664,-0.3466666666666667,0.48,-0.6755555555555556,-0.00019147478871426454,-0.008094203944039724,-0.0014737803599249853
1589985408.9130085,3.846150007129616,-0.4784624982175959,8.934618743761584,-0.3466666666666667,0.48,-0.6755555555555556,-0.0010069730688769775,-0.0007547194225753055,-0.0031047769202504115
1589985408.9230084,3.823605912324068,-0.4922251929576754,9.084731877112445,-0.3466666666666667,0.48,-0.6755555555555556,-0.00021202497124344675,0.009424133026260433,0.0030604673762459214
1589985408.9330084,3.8729763406144375,-0.4640135196488927,8.993043938858902,-0.3466666666666667,0.48,-0.6755555555555556,-0.0009813790130172929,0.004038654733843509,0.002291113334472075
1589985408.9430084,3.88878087302859,-0.4759143452285577,8.96365738091423,-0.3466666666666667,0.48,-0.6611111111111111,0.0005786619219528776,-0.0017925910119025242,0.001346915212768245
1589985408.9530084,3.931923015662331,-0.4390384921688346,8.79807698433767,-0.3466666666666667,0.48,-0.6611111111111111,-0.0008443441453685071,-0.0068963555660913455,0.0016886882907370141
1589985408.9630084,3.8757183111190625,-0.47,8.868577466678593,-0.3466666666666667,0.48,-0.6611111111111111,-0.0003118854896282581,-0.0024920101922162752,-0.0003118854896282581
1589985408.9730084,3.883791906080774,-0.4679306353602579,8.904485552478196,-0.3466666666666667,0.48,-0.6611111111111111,-0.001316563447420488,0.0033103248896130723,-0.0006393654526483919
1589985408.9830084,3.8568099163715366,-0.4610633612094878,8.968506889675902,-0.34300397805620864,0.47917294128150945,-0.6602840523926206,-0.0019496721369485182,0.006939847193342011,0.0009748360684742591
1589985408.9930084,3.8486713678083726,-0.47,9.015993955674949,-0.31222222222222223,0.4722222222222222,-0.6533333333333333,0.0008728844038579767,-0.0009458994931721562,0.0
1589985409.0030084,3.90461871009903,-0.46769064495048507,8.919978384356305,-0.31222222222222223,0.4722222222222222,-0.6533333333333333,0.002768669232344471,-0.006544984694978735,-0.0002519115575724485
1589985409.0130084,3.91504173768629,-0.46,8.837353918097985,-0.31222222222222223,0.4722222222222222,-0.6533333333333333,0.00163169329844516,-0.004651965889158272,-0.000820399524522104
1589985409.0230083,3.89106706231454,-0.46595529179030665,8.909354698318497,-0.31222222222222223,0.4722222222222222,-0.6533333333333333,0.002947681567308623,0.0017404523428579458,0.0004872161702711174
1589985409.0330083,3.841283086053412,-0.49914460929772503,9.017219980217606,-0.31222222222222223,0.4722222222222222,-0.6533333333333333,0.0011374851079515962,0.005360845261571999,0.003202510859306658
1589985409.0430083,3.85,-0.47,9.027876635759847,-0.3466666666666667,0.4655555555555556,-0.67,-0.00022040898167625285,0.005222530804921219,-0.0008704218008202031
1589985409.0530083,3.8559599799182385,-0.4690066700136269,8.961126730258911,-0.3466666666666667,0.4655555555555556,-0.67,-0.001090830782496456,-0.0005417774631562761,0.00010835549263125522
1589985409.0630083,3.901082622104282,-0.4614862296492864,8.818238363336441,-0.3466666666666667,0.4655555555555556,-0.67,-0.001090830782496456,-0.004643541386832032,0.0009287082773664064
1589985409.0730083,3.912778056402145,-0.4612036572663092,8.899629258130474,-0.3466666666666667,0.4655555555555556,-0.67,0.00013129863976655773,-0.00043433758366366734,-0.0026159991486565796
1589985409.0830083,3.8642347903244474,-0.4692942016125921,8.964353612900737,-0.3466666666666667,0.4655555555555556,-0.67,0.001013840121774367,0.003978369826375379,0.001796708261382468
1589985409.0930083,3.87765189184575,-0.47234810815424993,8.95704432446275,-0.32,0.48,-0.6888888888888889,0.001090830782496456,0.004429598450367552,0.0005785530514390922
1589985409.1030083,3.8743591702274953,-0.48,8.958204148862524,-0.32,0.48,-0.6888888888888889,0.0009323268801533292,-0.00033570433859168576,-0.001090830782496456
1589985409.1130083,3.8962863710604316,-0.4787621236868106,8.837427257879137,-0.32,0.48,-0.6888888888888889,-0.0001350313587350179,-0.008186520825031577,-0.0008207680650264202
1589985409.1230083,3.870914040287944,-0.47030468009598125,8.888171919424114,-0.32,0.48,-0.6888888888888889,-0.0010575953397454197,-0.004496264900989969,0.0010243598969943834
1589985409.1330082,3.8954614916350048,-0.47848716387833495,8.94092298327001,-0.32,0.48,-0.6888888888888889,0.000760781140419504,0.002117318600220036,0.002016636743954436
1589985409.1430082,3.8510126451077946,-0.4689873548922056,9.018987354892205,-0.3388888888888889,0.4655555555555556,-0.67,-0.00011046244553265313,0.009154702369272186,0.00011046244553265313
1589985409.1530082,3.8615658232489913,-0.46469746974697473,8.994341767510084,-0.3388888888888889,0.4655555555555556,-0.67,-0.0007492211425067334,0.002589273067509923,0.001090830782496456
1589985409.1630082,3.872875929391533,-0.4878430529563502,8.907124070608466,-0.3388888888888889,0.4655555555555556,-0.67,0.001090830782496456,-0.0014045460133535117,0.001090830782496456
1589985409.1730082,3.9067170283806347,-0.4610943238731219,8.879848914858096,-0.3388888888888889,0.4655555555555556,-0.67,0.0008520863491320396,-0.005096037262435655,0.0008520863491320396
1589985409.1830082,3.8804588898163606,-0.46984703672787975,8.95862333055092,-0.3388888888888889,0.4655555555555556,-0.67,-0.0010574593733324365,-0.0022317186787389406,-0.0010574593733324365
1589985409.1930082,3.8687618882558117,-0.49,8.98,-0.3511111111111111,0.4577777777777778,-0.6755555555555556,4.50190134243755e-05,0.003272492347489368,-0.0010458117690720805
1589985409.2030082,3.8415019822786456,-0.49,8.98,-0.3511111111111111,0.4577777777777778,-0.6755555555555556,0.001036217165686098,0.003272492347489368,-5.461361681035801e-05
1589985409.2130082,3.8680923605819495,-0.46893072956353776,8.895722918254151,-0.3511111111111111,0.4577777777777778,-0.6755555555555556,0.00032473049060193805,0.0009741914718058142,0.0015322005837890358
