time,acc_x,acc_y,acc_z,mag_x,mag_y,mag_z,gyr_x,gyr_y,gyr_z
1589986518.07141,-3.7,-0.61,9.05,0.3,-0.3533333333333333,-0.6344444444444445,0.001090830782496456,-0.003272492347489368,0.0
1589986518.08141,-3.7,-0.5928643216080401,9.05,0.3,-0.3533333333333333,-0.6344444444444445,-0.000778381764394456,-0.00046867352715300025,0.001869212546890912
1589986518.09141,-3.7087711356676873,-0.5987711356676874,8.946144321661563,0.3,-0.3533333333333333,-0.6344444444444445,0.0013589273907361654,0.001090830782496456,0.00026809660823970947
1589986518.10141,-3.701790873385701,-0.5917908733857009,8.981045633071496,0.3,-0.3533333333333333,-0.6344444444444445,0.0028817843841541144,0.001090830782496456,0.0017909536016576582
1589986518.11141,-3.7,-0.6068514915693903,9.032128728923475,0.3,-0.3533333333333333,-0.6344444444444445,0.0014342797740023114,0.001090830782496456,0.0031007678517364404
1589986518.12141,-3.701380242463958,-0.601380242463958,9.02309878768021,0.2933333333333333,-0.3466666666666667,-0.6344444444444445,0.0036105176464887203,-0.0018805393715940705,0.0
1589986518.13141,-3.709969487221494,-0.6099694872214941,8.98015256389253,0.2933333333333333,-0.3466666666666667,-0.6344444444444445,-0.0010741886434695912,-6.6568556107457315e-06,0.0
1589986518.1414099,-3.7002955859474773,-0.61,8.892660273527294,0.2933333333333333,-0.3466666666666667,-0.6344444444444445,0.0010263439324201568,-0.0021171747149166128,0.0
1589986518.1514099,-3.6988003654466466,-0.6,8.94359890366006,0.2933333333333333,-0.3466666666666667,-0.6344444444444445,0.0012216906123508776,-0.00013085982985442166,-0.00205080173513849
1589986518.1614099,-3.6909799936606196,-0.6,8.967060019018142,0.2933333333333333,-0.3466666666666667,-0.6344444444444445,0.00207476083982741,-0.0009839300573309538,-0.001197731507661958
1589986518.1714098,-3.7076336261820133,-0.6352672523640266,9.04,0.3055555555555556,-0.36,-0.6344444444444445,0.001478027793029493,-0.001090830782496456,0.0
1589986518.1814098,-3.6935691771175643,-0.6071383542351284,9.04,0.3055555555555556,-0.36,-0.6344444444444445,0.003779317889782671,-0.001090830782496456,0.0
1589986518.1914098,-3.6919901872434164,-0.6080098127565835,8.947960748973665,0.3055555555555556,-0.36,-0.6344444444444445,0.003381040222891889,-0.0019645658141878696,-0.0018560179387853487
1589986518.2014098,-3.708789225993792,-0.591210774006208,9.015156903975168,0.3055555555555556,-0.36,-0.6344444444444445,0.004297285652154908,-0.0001320749556618316,0.0008927183490037081
1589986518.2114098,-3.686928092951568,-0.5976906356828107,9.02769063568281,0.3055555555555556,-0.36,-0.6344444444444445,0.0077189959858960395,-0.0008389182139775538,-0.0014259238594362055
1589986518.2214098,-3.6845573128483204,-0.5863280614550384,9.03,0.29998550651871936,-0.35696179143445295,-0.6308998677846396,0.006738143403805793,0.0008976720736693985,-0.0011874101369099847
1589986518.2314098,-3.69,-0.5741538351527863,9.014769271106449,0.2933333333333333,-0.3533333333333333,-0.6266666666666667,0.003910210004978298,0.0028193792224818423,0.0
1589986518.2414098,-3.69,-0.6,8.92,0.2933333333333333,-0.3533333333333333,-0.6266666666666667,0.001090830782496456,-0.00030520626743464597,-0.00015260313371732298
1589986518.2514098,-3.691151152798347,-0.6011511527983471,8.924604611193388,0.2933333333333333,-0.3533333333333333,-0.6266666666666667,0.0009652594917170566,-0.0024328041465517107,-0.0008396882009376574
1589986518.2614098,-3.698819958678442,-0.6088199586784415,8.955279834713767,0.2933333333333333,-0.3533333333333333,-0.6266666666666667,0.00012872253981738302,-0.004105878050351058,0.0008333857028616899
1589986518.2714097,-3.6998442485641356,-0.5898442485641353,9.01968849712827,0.32,-0.3533333333333333,-0.6133333333333333,-0.0010398612442986815,1.698984606592478e-05,0.0010568510903646064
1589986518.2814097,-3.6914797383535416,-0.5814797383535417,9.002959476707083,0.32,-0.3533333333333333,-0.6133333333333333,0.0016974183211677068,0.0009294163678880542,-0.0007680019532796524
1589986518.2914097,-3.69,-0.5868382687927107,8.945293849658315,0.32,-0.3533333333333333,-0.6133333333333333,-5.6156664429202544e-05,0.0003448913726890845,0.0011469874469256585
1589986518.3014097,-3.6817602173536046,-0.59,8.992112260824324,0.32,-0.3533333333333333,-0.6133333333333333,-0.0009372228406407784,0.003349296318417207,0.0010524287970325365
1589986518.3114097,-3.722170067633967,-0.59,9.040604081160762,0.32,-0.3533333333333333,-0.6133333333333333,0.0025892018475106643,0.005112508662492928,0.00017082262499467597
1589986518.3214097,-3.7193950087802246,-0.6087900175604485,9.068790017560449,0.31222222222222223,-0.3533333333333333,-0.6055555555555555,0.00013198860913429697,0.0074378325637737466,-0.0009588421733621589
1589986518.3314097,-3.712312913683642,-0.5946258273672835,9.054625827367284,0.31222222222222223,-0.3533333333333333,-0.6055555555555555,0.00167706207631817,0.005120222362997936,0.0005862312938217141
1589986518.3414097,-3.701653654406923,-0.5624804816103848,8.885787790424232,0.31222222222222223,-0.3533333333333333,-0.6055555555555555,-0.00018038571306826917,0.0022718544215270466,0.0010006379259623213
1589986518.3514097,-3.717840998951763,-0.5905397502620593,8.950539750262058,0.31222222222222223,-0.3533333333333333,-0.6055555555555555,-0.0022994168051358806,0.003272492347489368,0.00011775524014296849
1589986518.3614097,-3.6869875131029666,-0.5982531217242584,8.958253121724258,0.31222222222222223,-0.3533333333333333,-0.6055555555555555,-0.003982213410695174,0.003272492347489368,0.0018005518457022622
1589986518.3714097,-3.700663850931677,-0.6003319254658385,8.989668074534162,0.32,-0.3655555555555556,-0.6344444444444445,-0.00447194548467516,0.005417946460919167,0.0031638699928000316
1589986518.3814096,-3.7206963698645885,-0.61,8.976518150677059,0.32,-0.3655555555555556,-0.6344444444444445,-0.0077877398143343666,0.004667171803704174,0.0
1589986518.3914096,-3.7290738609012326,-0.6096912869670775,8.932160991230457,0.32,-0.3655555555555556,-0.6344444444444445,-0.0096491002028333,0.008692970892044686,-6.735073585392213e-05
1589986518.4014096,-3.7027382322777793,-0.600912744092593,8.993610791351848,0.32,-0.3655555555555556,-0.6344444444444445,-0.004861147806356933,0.007735380412749414,-0.0019825316944444686
1589986518.4114096,-3.6924062960942394,-0.5924062960942393,9.030374815623041,0.32,-0.3655555555555556,-0.6344444444444445,-0.001049944740558913,0.0034940924906915532,0.001131716824433999
1589986518.4214096,-3.6900271878002413,-0.59,9.059918436599277,0.3055555555555556,-0.3466666666666667,-0.6577777777777778,0.0,0.003275458076430516,0.0021757301071106154
1589986518.4314096,-3.698601157014657,-0.59,9.034196528956029,0.3055555555555556,-0.3466666666666667,-0.6577777777777778,0.0,0.004210733031156672,0.0003051801976583022
1589986518.4414096,-3.6901512388114144,-0.59,8.92166362692556,0.3055555555555556,-0.3466666666666667,-0.6577777777777778,-0.002148666374793098,0.005437656317382373,-0.001074333187396549
1589986518.4514096,-3.6984766096836936,-0.5815233903163066,8.92,0.3055555555555556,-0.3466666666666667,-0.6577777777777778,-0.00680493495208302,0.007303463267318323,-0.0020154854599144776
1589986518.4614096,-3.7,-0.603280701754386,8.960741228070175,0.3055555555555556,-0.3466666666666667,-0.6577777777777778,-0.010175346088655538,0.007635815477475192,-0.00027701360660765235
1589986518.4714096,-3.706226873684974,-0.6324537473699485,8.977546252630052,0.3145499286560739,-0.354969164913299,-0.6301027836223366,-0.012678385156889719,0.012390541323476122,0.0017700773319251604
1589986518.4814095,-3.71,-0.6213710010827838,8.994838665222955,0.32,-0.36,-0.6133333333333333,-0.00970312181229203,0.011884783377284944,0.0015042920494598238
1589986518.4914095,-3.701322803931317,-0.6186771960686833,8.9579368235879,0.32,-0.36,-0.6133333333333333,-0.004796209704232094,0.007924406526972705,0.002037366040244155
1589986518.5014095,-3.721106012687154,-0.6129646624376154,8.999247362936691,0.32,-0.36,-0.6133333333333333,-0.001293578018664743,0.0037986340883238404,0.003716534120653452
1589986518.5114095,-3.723415576770495,-0.5968311535409895,9.02,0.32,-0.36,-0.6133333333333333,0.0007182491543729064,0.0028999107193658186,0.0036450739756129177
1589986518.5214095,-3.7066716379651856,-0.5966641810174073,9.026664181017408,0.3103739607526339,-0.35555721265506174,-0.6222189080232098,-0.0010900173556784782,0.003272492347489368,0.002545542968097723
1589986518.5314095,-3.7095180349329935,-0.5904819650670066,8.982409825335033,0.3055555555555556,-0.3533333333333333,-0.6266666666666667,-0.005296431213128656,0.005349005446246531,0.002181661564992912
1589986518.5414095,-3.71,-0.5814277861175127,8.885705647292639,0.3055555555555556,-0.3533333333333333,-0.6266666666666667,-0.011064654778778616,0.009194487823346507,0.0012465780872768558
1589986518.5514095,-3.7093821602430364,-0.6196910801215182,8.921081219574686,0.3055555555555556,-0.3533333333333333,-0.6266666666666667,-0.01638773518590481,0.014155526723995953,0.005445729429662955
1589986518.5614095,-3.6479744518868267,-0.5889872259434135,9.028544709198053,0.3055555555555556,-0.3533333333333333,-0.6266666666666667,-0.018899688381811747,0.011643573528089023,0.004608411697693979
1589986518.5714095,-3.666045077610036,-0.5709887305974909,9.041977461194982,0.3055555555555556,-0.35934084626833934,-0.6206591537316607,-0.006856253015223314,9.556076597672623e-05,0.008295231151435946
1589986518.5814095,-3.7030419558022847,-0.6030419558022846,9.081302444752856,0.3055555555555556,-0.36,-0.62,-0.0027509152247558216,-0.003794069470222914,0.01863852144830199
1589986518.5914094,-3.6920734650576845,-0.61,8.955550987932634,0.3055555555555556,-0.36,-0.62,0.001729301662722269,-0.005341063936914619,0.034414156164435786
1589986518.6014094,-3.748624653190646,-0.6183749504558066,8.948374950455806,0.3055555555555556,-0.36,-0.62,0.007663053820438838,-0.0027134577847593173,0.037824546574198356
1589986518.6114094,-3.7916849503437735,-0.6675274255156608,8.981684950343773,0.3055555555555556,-0.36,-0.62,0.009878743565866988,-0.010246342706260294,0.032994639510846926
1589986518.6214094,-3.828692165572546,-0.6969617516411809,8.988269586068634,0.3084529440797376,-0.3542052229516359,-0.6171026114758179,0.01327872826823686,-0.020297797051870056,0.023146675369708786
1589986518.6314094,-3.6588503366131535,-0.68,9.003915069911963,0.31222222222222223,-0.3466666666666667,-0.6133333333333333,0.022949249372821605,-0.029986265974353637,0.0073804785982994284
1589986518.6414094,-3.2935152804642165,-0.6874649903288201,8.957885106382978,0.31222222222222223,-0.3466666666666667,-0.6133333333333333,0.02917590446907939,-0.0251349355498282,-0.01710038660760218
1589986518.6514094,-3.0106837231309993,-0.7617655806408004,8.93,0.31222222222222223,-0.3466666666666667,-0.6133333333333333,0.03401900388912945,0.001016248158696595,-0.04834978039060851
1589986518.6614094,-2.540759965029304,-0.8452757180325746,8.959396431693813,0.31222222222222223,-0.3466666666666667,-0.6133333333333333,0.0261856255252435,0.031113066727542604,-0.12252827495494052
1589986518.6714094,-2.0907126029396434,-0.8578173668299802,8.99827394975503,0.3007164020060924,-0.3466666666666667,-0.6133333333333333,0.004590472465033767,0.05141846319015531,-0.22897974296057183
1589986518.6814094,-1.773265559833173,-0.42211661854347127,8.898378248315689,0.2933333333333333,-0.3466666666666667,-0.6133333333333333,-0.01146601562276883,0.06390205360898331,-0.3456878008377832
1589986518.6914093,-1.76,-0.46489956302293284,8.835527590528777,0.2933333333333333,-0.3466666666666667,-0.6133333333333333,-0.02685418386945164,0.09778286800676979,-0.3742728321199443
1589986518.7014093,-1.726172993154947,-0.6014810205351586,8.877654013690107,0.2933333333333333,-0.3466666666666667,-0.6133333333333333,-0.044885616361280745,0.11529137839694652,-0.3656910075394404
1589986518.7114093,-1.7382124064687425,-0.6139291978437525,8.780725561187547,0.2933333333333333,-0.3466666666666667,-0.6133333333333333,-0.013794634314944522,0.04410810998663367,-0.3409647226160854
1589986518.7214093,-1.8543554081068436,-0.6249079154438348,8.814355408106843,0.31817985907305796,-0.35163597181461154,-0.6232719436292232,0.010888218091273055,0.015706552810895336,-0.3036693157989023
1589986518.7314093,-1.9653321985072671,-0.6582495744402252,9.038330496268168,0.32666666666666666,-0.3533333333333333,-0.6266666666666667,-0.00649016462763264,0.026952533215232912,-0.28226175638674966
1589986518.7414093,-2.0258161697858865,-0.6771742060879652,9.032825793912036,0.32666666666666666,-0.3533333333333333,-0.6266666666666667,-0.0024839234944103294,0.016498631779639412,-0.2734723270011672
1589986518.7514093,-2.1145799213887977,-0.6951400262037339,9.044019816573861,0.32666666666666666,-0.3533333333333333,-0.6266666666666667,0.009134591247169591,0.010663915995541836,-0.2554682459549156
1589986518.7614093,-2.13,-0.7099353448275861,9.095948275862069,0.32666666666666666,-0.3533333333333333,-0.6266666666666667,0.012441113148644923,0.016155580037318203,-0.241529683043364
1589986518.7714093,-2.1246708302482054,-0.7453291697517948,9.00808743521231,0.3231138868321368,-0.345635643691852,-0.6231138868321369,0.008654832560386764,0.013814919030167908,-0.2271150565023791
1589986518.7814093,-2.1665904330597225,-0.75,8.902234927823379,0.32,-0.3388888888888889,-0.62,0.016106195236039518,0.021444689592585435,-0.21321206189485628
1589986518.7914093,-2.1643738669481607,-0.7812522661036786,8.939065332629598,0.32,-0.3388888888888889,-0.62,-0.0019104370307581296,0.009271072876960322,-0.21053034102181603
1589986518.8014092,-2.185929570253752,-0.7588845156954978,8.887769031390995,0.32,-0.3388888888888889,-0.62,-0.002544556263729734,0.009414022189839857,-0.20939895008542814
1589986518.8114092,-2.1985428009923003,-0.73,8.8376381326718,0.32,-0.3388888888888889,-0.62,0.005514425660669445,0.01308996938995747,-0.20584910638506568
1589986518.8214092,-2.1607217280813216,-0.7348195679796696,8.874097839898349,0.3258905830862629,-0.345850487081745,-0.6167869546802203,0.006176708025462461,0.012038502767845894,-0.207586761183458
1589986518.8314092,-2.2028270557791836,-0.7525654111558366,8.937696233467511,0.3322222222222222,-0.3533333333333333,-0.6133333333333333,0.001090830782496456,0.010222970960789009,-0.22202687573941193
1589986518.8414092,-2.178526837032452,-0.7488230612786276,8.937646122557256,0.3322222222222222,-0.3533333333333333,-0.6133333333333333,0.009015727509873662,0.011646299364170536,-0.23420809204607254
1589986518.8514092,-2.178581329713122,-0.788581329713122,8.974653995927262,0.3322222222222222,-0.3533333333333333,-0.6133333333333333,0.01990860682169767,0.016402095009062676,-0.25389369974946213
1589986518.8614092,-2.2147166217101755,-0.8294332434203507,9.071316082232281,0.3322222222222222,-0.3533333333333333,-0.6133333333333333,0.019820424741915327,0.015971605227014546,-0.277296319804027
1589986518.8714092,-2.210938836523689,-0.836979612174563,9.11885728522194,0.3322222222222222,-0.3513197414497086,-0.6133333333333333,0.016032988535940415,0.014737335397489592,-0.30298820333523296
1589986518.8814092,-2.234221777474763,-0.83,9.003667333787854,0.3322222222222222,-0.3466666666666667,-0.6133333333333333,0.015271630954950384,0.02276498996348049,-0.34315700173126135
1589986518.8914092,-2.2444661742983754,-0.83,8.867015066469719,0.3322222222222222,-0.3466666666666667,-0.6133333333333333,0.013878976801438807,0.02826892001018231,-0.3807712901917786
1589986518.9014091,-2.2748655589123867,-0.8235906344410876,8.845637462235649,0.3322222222222222,-0.3466666666666667,-0.6133333333333333,0.011691662740370624,0.030850737776991162,-0.4182602788489904
1589986518.9114091,-2.2865574075303803,-0.8233606481174048,8.863360648117403,0.3322222222222222,-0.3466666666666667,-0.6133333333333333,0.00980853830028336,0.029801143484595224,-0.4477323530556938
1589986518.9214091,-2.264275449897071,-0.8289311375257321,8.868931137525731,0.3322222222222222,-0.3466666666666667,-0.6133333333333333,0.00798559990423121,0.026762912824508305,-0.47386113673244123
1589986518.9314091,-2.349125052041107,-0.8225729123299077,8.914562526020553,0.34790162952575027,-0.3408900429232616,-0.6339641324169228,0.011686663404893445,0.035091804220235105,-0.5461187891110872
1589986518.941409,-2.328273305603132,-0.8569476388549058,8.878273305603132,0.3533333333333333,-0.3388888888888889,-0.6411111111111111,0.017120331570306804,0.03576086007916636,-0.6032687107780844
1589986518.951409,-2.317378553733632,-0.8995142149345288,8.978056859738114,0.3533333333333333,-0.3388888888888889,-0.6411111111111111,0.02337337542820983,0.03651633574847662,-0.6506430769169818
1589986518.961409,-2.3420579134696213,-0.8824276081629733,9.025514478367406,0.3533333333333333,-0.3388888888888889,-0.6411111111111111,0.026893716823191447,0.03889285543065246,-0.6866850304928938
1589986518.971409,-2.3555040123703646,-0.8824799381481778,9.043487962888907,0.3558311042386864,-0.33039646781068843,-0.6316195816707694,0.02885203651532083,0.04330335597484671,-0.725875399262139
1589986518.981409,-2.3568469105638785,-0.91,9.066846910563878,0.3588888888888889,-0.32,-0.62,0.028705549046596442,0.0491463698897712,-0.7803668615898764
1589986518.991409,-2.370409614356748,-0.9308192287134966,8.971108663610892,0.3588888888888889,-0.32,-0.62,0.025522818401343315,0.05074597238354988,-0.8162673088172233
1589986519.001409,-2.3952509477501236,-0.9449163507499587,8.88,0.3588888888888889,-0.32,-0.62,0.022907446432425576,0.055150827539885414,-0.8560761139875416
1589986519.011409,-2.3998298881735005,-0.9349149440867502,8.8901701118265,0.3588888888888889,-0.32,-0.62,0.02346213998451442,0.05945955580689747,-0.8942605618852673
1589986519.021409,-2.394423129530844,-0.9609619067159075,8.917692518123376,0.3682266067873372,-0.32294875302056264,-0.6293377178984483,0.022068322876036564,0.05854822728314097,-0.9265350453217319
1589986519.031409,-2.3934302116971655,-1.0262791532113384,8.946569788302835,0.38,-0.32666666666666666,-0.6411111111111111,0.01963495408493621,0.05815650615285913,-0.9636349033420424
1589986519.041409,-2.4176045719256702,-1.0607034289442525,8.860285141241572,0.38,-0.32666666666666666,-0.6411111111111111,0.024151741604059945,0.06041045809451654,-0.9936846346855379
1589986519.051409,-2.442909933275698,-1.0829099332756977,8.891004633016337,0.38,-0.32666666666666666,-0.6411111111111111,0.03251708745761281,0.06319890671236748,-1.0200766798856258
1589986519.061409,-2.4284132925738766,-1.1223800611391852,8.946190030569593,0.38,-0.32666666666666666,-0.6411111111111111,0.03835216031769908,0.0649477022911199,-1.0409292950294056
1589986519.071409,-2.4311004580803237,-1.1288995419196761,8.98532054969639,0.3935980729850976,-0.31822648343453713,-0.6481445971378857,0.04174176070429647,0.06498950636581148,-1.061518217559508
1589986519.081409,-2.4775429248075787,-1.146781132820209,9.031695283205051,0.4122222222222222,-0.30666666666666664,-0.6577777777777778,0.04171959506034551,0.06818628864631636,-1.0957863447191292
1589986519.091409,-2.4594269313095936,-1.1922292274761626,8.972739248881105,0.4122222222222222,-0.30666666666666664,-0.6577777777777778,0.037692735396938924,0.07290500352884209,-1.1267169289091903
1589986519.101409,-2.47029835107263,-1.242417691501682,8.89970164892737,0.4122222222222222,-0.30666666666666664,-0.6577777777777778,0.03467540086202667,0.07417649320975901,-1.1542616931482583
1589986519.111409,-2.4790459307968074,-1.286431103804789,8.912862207609578,0.4122222222222222,-0.30666666666666664,-0.6577777777777778,0.030828495287280357,0.07537139679780291,-1.1847231849089395
1589986519.121409,-2.502889799290805,-1.3131559197163218,8.933422040141838,0.4297634485106513,-0.2767004050906003,-0.6760498884948914,0.02979668856476944,0.07420552244495954,-1.2203783824967294
1589986519.131409,-2.472565309222959,-1.3437173453885205,8.876635972875828,0.4388888888888889,-0.2611111111111111,-0.6855555555555556,0.03183684243134569,0.07567282347015239,-1.2511544109991213
1589986519.141409,-2.436072060732408,-1.371783817802777,8.828216182197224,0.4388888888888889,-0.2611111111111111,-0.6855555555555556,0.03486728200732683,0.0791628723831949,-1.2786463305969746
1589986519.151409,-2.43,-1.4111047132397803,8.839546598535692,0.4388888888888889,-0.2611111111111111,-0.6855555555555556,0.03909994422168448,0.08365404235585124,-1.3120715976335982
1589986519.161409,-2.449423698826805,-1.4633084385921662,8.899423698826805,0.4388888888888889,-0.2611111111111111,-0.6855555555555556,0.04290329518319519,0.08871818804804635,-1.3407404675300938
1589986519.171409,-2.4798361297620257,-1.4998033557144308,8.929836129762025,0.4388888888888889,-0.2611111111111111,-0.6855555555555556,0.04688427308335751,0.09269916594820866,-1.3579913717641308
1589986519.181409,-2.490416172567621,-1.5868727765542945,8.97,0.4655555555555556,-0.2488888888888889,-0.6933333333333334,0.05126904677733343,0.09599310885968812,-1.4268066635053644
1589986519.1914089,-2.4811064312736444,-1.6362978562421184,8.913319293820933,0.4655555555555556,-0.2488888888888889,-0.6933333333333334,0.04852108859627729,0.09805407749548022,-1.4680260362212063
1589986519.2014089,-2.391093548243466,-1.6460697270581948,8.88,0.4655555555555556,-0.2488888888888889,-0.6933333333333334,0.041608887554203056,0.10058981023046362,-1.514768063851016
1589986519.2114089,-2.3596254923745077,-1.699063730936269,8.929063730936269,0.4655555555555556,-0.2488888888888889,-0.6933333333333334,0.036573470547093784,0.09984165593188822,-1.546471230023041
1589986519.2214088,-2.373293237906217,-1.7533533810468915,8.949819570577976,0.4674185450260509,-0.2332397773367281,-0.7026482806858101,0.03819875918413718,0.10366172733176536,-1.5741278645326697
1589986519.2314088,-2.349738470519556,-1.753158980346371,8.89684101965363,0.4711111111111111,-0.20222222222222225,-0.7211111111111111,0.04472406208235469,0.11602971112649624,-1.604151125977901
1589986519.2414088,-2.341887002967359,-1.8232090207715133,8.844621483679525,0.4711111111111111,-0.20222222222222225,-0.7211111111111111,0.045372397519775794,0.12084556160437698,-1.6398070856353293
1589986519.2514088,-2.344081015431511,-1.909594922842446,8.8,0.4711111111111111,-0.20222222222222225,-0.7211111111111111,0.051625842376437754,0.12411003081013196,-1.665277178224526
1589986519.2614088,-2.315626387879026,-1.9348747224241947,8.81949888969678,0.4711111111111111,-0.20222222222222225,-0.7211111111111111,0.05456887045203176,0.12650903944237993,-1.6872145759227186
1589986519.2714088,-2.29,-2.0040069944179164,8.888005245813437,0.4853348876484259,-0.1773306132819214,-0.7400761464941975,0.05112334834878826,0.12588168155693177,-1.7128966790923223
1589986519.2814088,-2.2638162651304894,-2.0338162651304894,8.910362198847867,0.4977777777777778,-0.15555555555555556,-0.7566666666666667,0.04908738521234052,0.12649686100432506,-1.7395985297250003
1589986519.2914088,-2.2682305612013507,-2.0746916836040517,8.831635395494935,0.4977777777777778,-0.15555555555555556,-0.7566666666666667,0.04610441661124771,0.13061017015317816,-1.76093427226424
1589986519.3014088,-2.2660423914212964,-2.146845031022487,8.784225155112434,0.4977777777777778,-0.15555555555555556,-0.7566666666666667,0.04142238493539101,0.1334255091924169,-1.7844301152331987
1589986519.3114088,-2.216655993652863,-2.1700320190414124,8.863376025388549,0.4977777777777778,-0.15555555555555556,-0.7566666666666667,0.03999945718193662,0.1352734952363601,-1.8078993229874587
1589986519.3214087,-2.2107136279274044,-2.187859116217786,8.887145488290383,0.4977777777777778,-0.15555555555555556,-0.7566666666666667,0.04129588027277291,0.14110739914512338,-1.8241046116229123
1589986519.3314087,-2.141550461115835,-2.183209169991497,8.827379815553666,0.5244444444444445,-0.14333333333333334,-0.7855555555555556,0.035647349681084156,0.14863880420450595,-1.8617216955778624
1589986519.3414087,-2.10093354683747,-2.2309335468374702,8.808267413931144,0.5244444444444445,-0.14333333333333334,-0.7855555555555556,0.030441427747179322,0.15072364380623407,-1.8900895710744743
1589986519.3514087,-2.0277643865583665,-2.208145597439689,8.752218396159533,0.5244444444444445,-0.14333333333333334,-0.7855555555555556,0.03809966630284331,0.151988462989796,-1.905076403316661
1589986519.3614087,-1.908018247083458,-2.2101734968591087,8.71,0.5244444444444445,-0.14333333333333334,-0.7855555555555556,0.04874868274382979,0.1542494439890969,-1.9187055963655963
1589986519.3714087,-1.9998495318049725,-2.3470679151867397,8.781053277365192,0.530835479974647,-0.1504762553965008,-0.797961683349478,0.027574196865638594,0.17285963703754084,-1.9334197092258696
1589986519.3814087,-1.5177496814004963,-2.035461130860554,7.965434301428667,0.5433333333333333,-0.16444444444444445,-0.8222222222222222,0.008976288397598446,0.1337409462824766,-1.9508224848787137
1589986519.3914087,-1.2606606088744443,-1.8981055581349073,7.950668236386549,0.5433333333333333,-0.16444444444444445,-0.8222222222222222,-0.038688878170102345,0.109544838199343,-1.9615924597283805
1589986519.4014087,-2.0416910297650555,-2.6036027525550716,10.211506168817948,0.5433333333333333,-0.16444444444444445,-0.8222222222222222,-0.059045085911323195,0.11449721267700921,-1.9601266206480878
1589986519.4114087,-1.8917171609035435,-2.469570709774114,9.18079541804946,0.5433333333333333,-0.16444444444444445,-0.8222222222222222,0.07879462768407705,0.17002222722226687,-1.9153983075158985
1589986519.4214087,-1.8935467797344558,-2.5616502120021045,8.974679830398316,0.5427285169481326,-0.17896003768926305,-0.849438959556257,0.06782228827250636,0.16213345631996415,-1.9063718775317973
1589986519.4314086,-1.93,-2.7040478781284003,8.98835188750314,0.5422222222222223,-0.19111111111111112,-0.8722222222222222,0.01687386570603834,0.1325578078202356,-1.9078630385863016
1589986519.4414086,-1.8799896014765904,-2.721103023370681,8.82884498401227,0.5422222222222223,-0.19111111111111112,-0.8722222222222222,0.02230470620620668,0.11938751154544848,-1.8969524621554514
1589986519.4514086,-1.8166333654592042,-2.701683317270398,8.683366634540796,0.5422222222222223,-0.19111111111111112,-0.8722222222222222,0.03872994167595337,0.13145055818815213,-1.8748463362751318
1589986519.4614086,-1.8034441967138617,-2.7272209835693086,8.82054688498516,0.5422222222222223,-0.19111111111111112,-0.8722222222222222,0.031683276664086255,0.12440389317628502,-1.8604364915335503
1589986519.4714086,-1.8094005708848715,-2.7570028544243574,9.029019980970505,0.5422222222222223,-0.19111111111111112,-0.8722222222222222,0.014790046289794953,0.1075106628019937,-1.8519898763464044
1589986519.4814086,-1.7597497114220557,-2.7970838142965735,8.71508150567302,0.4455555555555555,-0.16444444444444445,-0.6911111111111111,0.05177826903034094,0.12874533458311468,-1.8082971126452623
1589986519.4914086,-1.7508531664814924,-2.8734126659259696,8.691296220493928,0.4455555555555555,-0.16444444444444445,-0.6911111111111111,0.05419164318585702,0.12182315170063727,-1.7759172502347835
1589986519.5014086,-1.7645613620241192,-2.9626901552770555,8.835555292819421,0.4455555555555555,-0.16444444444444445,-0.6911111111111111,0.03719030510088513,0.10501956807296356,-1.7540749858584406
1589986519.5114086,-1.7401208061901703,-3.0201208061901705,8.681691286662385,0.4455555555555555,-0.16444444444444445,-0.6911111111111111,0.03285670258584762,0.10156586397202894,-1.724142240238558
1589986519.5214086,-1.738835835874474,-3.0318606940209207,8.879542208669472,0.4488634560371928,-0.13777449681124365,-0.6762255589437433,0.043836201531341004,0.10923503749981078,-1.680944193489486
1589986519.5314085,-1.6902663372833597,-3.0399556104527736,9.138579534488748,0.4632544185827082,-0.021747361288025985,-0.6114662274889241,0.0447192199339011,0.10040485347420981,-1.6571026966203632
1589986519.5414085,-1.3976447316601626,-2.7273337868318355,8.45302352225126,0.4633333333333333,-0.021111111111111112,-0.6111111111111112,0.07952889066512214,0.13340142648522388,-1.6035649131824978
1589986519.5514085,-1.271076460642495,-2.535475859477738,7.903658463272591,0.4633333333333333,-0.021111111111111112,-0.6111111111111112,0.047832325275402446,0.08485335555552923,-1.588796735606989
1589986519.5614085,-1.4367510723675108,-2.9390014298233478,8.881012868410128,0.4633333333333333,-0.021111111111111112,-0.6111111111111112,-0.012491650139671608,0.049604399054918515,-1.5550076819973684
1589986519.5714085,-1.4735020545981588,-3.0468043831427387,8.68010671168732,0.49926767113687764,0.015367686356123272,-0.6143778690932515,0.044167753324740947,0.08621920528268208,-1.495408428699648
1589986519.5814085,-1.55,-3.21,8.93,0.5366666666666666,0.05333333333333334,-0.6177777777777778,0.04472406208235469,0.0839939702522271,-1.473712387152712
1589986519.5914085,-1.4969812453542226,-3.1714409057121618,8.867341471782263,0.5366666666666666,0.05333333333333334,-0.6177777777777778,0.04998174295664932,0.08662281068937441,-1.4321767082457844
1589986519.6014085,-1.4440622708748956,-3.1787472504987466,8.852809521373642,0.5366666666666666,0.05333333333333334,-0.6177777777777778,0.047656119696404445,0.07659749882490222,-1.3746861299956847
1589986519.6114085,-1.448142592544283,-3.248142592544283,8.924427777632848,0.5366666666666666,0.05333333333333334,-0.6177777777777778,0.037820921327884116,0.05882709008647943,-1.3473929702840897
1589986519.6214085,-1.4213876843018214,-3.2283673026886386,8.881387684301822,0.5387347017442421,0.06651705695287656,-0.6128661944685362,0.04556110677863721,0.06453711581586416,-1.2971446793813326
1589986519.6314085,-1.3512472033926604,-3.1987527966073395,8.789365211874312,0.5455555555555556,0.11,-0.5966666666666667,0.04591753957888176,0.06848364379797131,-1.2432367114035698
1589986519.6414084,-1.309172682167526,-3.219172682167526,8.730527483218212,0.5455555555555556,0.11,-0.5966666666666667,0.047816061678129886,0.06487566181195535,-1.18507650333217
1589986519.6514084,-1.2783788962698008,-3.196679684648515,8.788457004160888,0.5455555555555556,0.11,-0.5966666666666667,0.04490089706740681,0.061806644133803046,-1.1426857158487156
1589986519.6614084,-1.2247981604496678,-3.1813709029856194,8.643023578363385,0.5455555555555556,0.11,-0.5966666666666667,0.05074564866554796,0.07015628927400468,-1.0950927385495661
1589986519.6714084,-1.311290002142537,-3.3270966673808458,8.77983833583296,0.5444264817592178,0.11983907165380062,-0.6018281468784965,0.033358332393453594,0.05267658201910984,-1.0231989127864651
1589986519.6814084,-1.2622730371438031,-3.3107576790479345,8.72265187666777,0.5380724307408634,0.17521008767088897,-0.6308752372481167,0.03692294667913161,0.054458889161948854,-0.967947391358456
1589986519.6914084,-1.2617267739061109,-3.3882732260938893,8.847267739061108,0.5377777777777778,0.17777777777777778,-0.6322222222222222,0.03381575425739013,0.04600325467797088,-0.8762069399062142
1589986519.7014084,-1.2420564648501617,-3.407943535149838,8.650564648501618,0.5377777777777778,0.17777777777777778,-0.6322222222222222,0.03381575425739013,0.043857556816026086,-0.8275711217021323
1589986519.7114084,-1.258916046003164,-3.442216790799367,8.753251861990508,0.5377777777777778,0.17777777777777778,-0.6322222222222222,0.031150463963936295,0.03685176452756776,-0.7357462344264221
1589986519.7214084,-1.221638018379935,-3.4496723963240132,8.865085944860194,0.5377777777777778,0.17777777777777778,-0.6322222222222222,0.029523903162249433,0.028718960519133453,-0.678816606367382
1589986519.7314084,-1.2045845570467304,-3.43,8.83272426484256,0.5811111111111111,0.1811111111111111,-0.6322222222222222,0.02667642717242411,0.02895955193745443,-0.581930950678476
1589986519.7414083,-1.112951320595673,-3.4359026411913463,8.826227170553526,0.5811111111111111,0.1811111111111111,-0.6322222222222222,0.02444522972646332,0.021172737378973953,-0.5199136203413451
1589986519.7514083,-1.1257300710339384,-3.4757300710339387,8.719977900552486,0.5811111111111111,0.1811111111111111,-0.6322222222222222,0.017610158635626684,0.01620559562176345,-0.4221780302595151
1589986519.7614083,-1.0907256747767542,-3.4409675663690056,8.76806486726199,0.5811111111111111,0.1811111111111111,-0.6322222222222222,0.015113313278037435,0.01833303306655582,-0.3605462567402084
1589986519.7714083,-1.116089822411256,-3.4747864298816746,8.70042714023665,0.5811111111111111,0.1811111111111111,-0.6322222222222222,0.009579714675737587,0.010954901596822691,-0.3042880042834933
1589986519.7814083,-1.06,-3.392282596953657,8.691304238234128,0.6255555555555555,0.22,-0.6322222222222222,0.012674981553110578,0.00806266572101662,-0.22970289692261955
1589986519.7914083,-1.0490601907832864,-3.449172824577903,8.778609655604818,0.6255555555555555,0.22,-0.6322222222222222,0.009624728918846814,0.00039778268827432453,-0.16645018126955644
1589986519.8014083,-1.0590834186650158,-3.519388945776677,8.589870692734504,0.6255555555555555,0.22,-0.6322222222222222,0.007449953685063071,-0.0013766760883948436,-0.11799046893332144
1589986519.8114083,-1.100316139767055,-3.5065723793677206,8.814376039933444,0.6255555555555555,0.22,-0.6322222222222222,-0.0016026681879274056,-0.006544984694978735,-0.06984947060498105
1589986519.8214083,-1.0551317161326197,-3.37,8.81026343226524,0.6519268745704069,0.2271273835175274,-0.6416303684653584,0.0046144788238079906,-0.007244713935540643,-0.03591120781517526
1589986519.8314083,-1.084285118509766,-3.37,8.868570237019533,0.8017429701196296,0.26761822015245246,-0.6950782728234595,-0.00015573548531644648,-0.011219892526477674,-0.016830350578677506
1589986519.8414083,-1.101156026018869,-3.4119078178679176,8.764219869905656,0.8311111111111111,0.27555555555555555,-0.7055555555555556,-0.0049497424057826644,-0.008392432737524614,0.024887179797704485
1589986519.8514082,-1.1084704323108314,-3.360706973824181,8.727647838445844,0.8311111111111111,0.27555555555555555,-0.7055555555555556,-0.001758230590199326,-0.01317970046089962,0.051217152276267025
1589986519.8614082,-1.0878616519118123,-3.498930825955906,8.721069174044095,0.8311111111111111,0.27555555555555555,-0.7055555555555556,-0.0018317751772497404,-0.016362461737446838,0.10435609660814373
1589986519.8714082,-1.0719593941347083,-3.4909796970673543,8.729020302932646,0.8311111111111111,0.27555555555555555,-0.7055555555555556,0.0007702256669190255,-0.016362461737446838,0.15032477818845857
1589986519.8814082,-1.1056515176020272,-3.528696964795946,8.821742411989865,1.5955555555555556,0.14333333333333334,-1.4677777777777778,-0.008790002147782826,-0.02795061038703374,0.22701786790908815
1589986519.8914082,-1.1282635182489622,-3.4834729635020754,8.708682408755188,1.5955555555555556,0.14333333333333334,-1.4677777777777778,-0.0046790244211983864,-0.026306219296399966,0.2755274050827845
1589986519.9014082,-1.1623694491470242,-3.532369449147024,8.729477796588098,1.5955555555555556,0.14333333333333334,-1.4677777777777778,-0.005138723550126064,-0.03571996116378869,0.36136879463642185
1589986519.9114082,-1.1466982985015337,-3.533444044755368,8.675166067133052,1.5955555555555556,0.14333333333333334,-1.4677777777777778,0.0007203195258283265,-0.03655059483394675,0.42529827063436904
1589986519.9214082,-1.1720845713570824,-3.6262537140712476,8.848680761892847,1.4851793005904288,0.1165088251545575,-1.3758708563127917,-0.00640107814130626,-0.04429234242133726,0.4935388868634649
1589986519.9314082,-1.0824926700312425,-3.4154438836818075,8.833180485460225,0.7588888888888888,-0.06,-0.7711111111111111,-0.00545415391248228,-0.044799091106615806,0.574599112557786
1589986519.9414082,-1.0326828601554263,-3.3582010778302807,8.766128207130864,0.7588888888888888,-0.06,-0.7711111111111111,-0.006382022490954828,-0.05157833630349095,0.6265093115918053
1589986519.9514081,-1.1077765237020316,-3.499257900677201,8.637406884875848,0.7588888888888888,-0.06,-0.7711111111111111,-0.010665764185967042,-0.054137402325325656,0.6618107908578533
1589986519.9614081,-1.2035679886168775,-3.614288007588748,8.703584041738115,0.7588888888888888,-0.06,-0.7711111111111111,-0.02017949391424438,-0.06365739256628315,0.6901869711484978
1589986519.9714081,-1.1806140318873362,-3.6295906454084426,8.787748549746432,0.7588888888888888,-0.06,-0.7711111111111111,-0.014337087978753446,-0.06115350430821562,0.7085488183743264
1589986519.981408,-1.17,-3.5515675969554183,8.817387338407636,0.6177777777777778,0.17,-0.7288888888888889,-0.018316125567303967,-0.06197785658405418,0.7177096554488841
1589986519.991408,-1.1815158134675656,-3.628425301548105,8.708484186532434,0.6177777777777778,0.17,-0.7288888888888889,-0.012329837805649703,-0.0557977195064136,0.7098065635623574
1589986520.001408,-1.216159783945019,-3.674639135780075,8.681520648164943,0.6177777777777778,0.17,-0.7288888888888889,-0.018840723219537916,-0.05915788786046297,0.685887956847625
1589986520.011408,-1.2008951907050895,-3.6108951907050892,8.733133167467814,0.6177777777777778,0.17,-0.7288888888888889,-0.010957132903830375,-0.055437069591855986,0.6647399052661651
1589986520.021408,-1.2147471072931275,-3.618443636044881,8.8,0.6158517171185912,0.1712256749649369,-0.7283052341436809,-0.011540737242516414,-0.051326346947951504,0.6249929932813573
1589986520.031408,-1.1228313464235624,-3.4162289621318376,8.8,0.5821492714664174,0.1926726858345021,-0.7180923718248402,-0.0035195739342680187,-0.05232899236148255,0.5858898221536464
1589986520.041408,-1.1028845101258895,-3.4442309797482213,8.894135194307609,0.5811111111111111,0.19333333333333333,-0.7177777777777777,-0.011674038792973157,-0.0448918362749554,0.5482785981543373
1589986520.051408,-1.08006015037594,-3.3483834586466164,8.650060150375941,0.5811111111111111,0.19333333333333333,-0.7177777777777777,0.003259369571158583,-0.03526582104194181,0.4798999304167867
1589986520.061408,-1.125111707841031,-3.3859264232008592,8.695111707841031,0.5811111111111111,0.19333333333333333,-0.7177777777777777,-0.006569355565307337,-0.03198957932978651,0.4307563047344571
1589986520.071408,-1.0096580910393065,-3.2372647283144524,8.78,0.5814150301872831,0.1915098188763014,-0.7187655147753367,-0.000717865963360625,-0.027951339043858436,0.3528135989503259
1589986520.081408,-1.0018557583198466,-3.174846066558774,8.78,0.5883504370490251,0.14989737770584916,-0.7413055870759984,0.007793158742305401,-0.018589211867625813,0.28898091365783074
1589986520.091408,-1.1164691824199986,-3.3478436058600005,8.849810482040008,0.59,0.14,-0.7466666666666667,0.00772111524853196,-0.010673081714253914,0.15890202891901395
1589986520.101408,-1.123284211077374,-3.3280601507695526,8.756715788922627,0.59,0.14,-0.7466666666666667,0.011999138607461015,-0.009036015737731808,0.0635132539798674
1589986520.111408,-4.269603316854109,-4.673201433889425,4.3867954147052455,0.59,0.14,-0.7466666666666667,-0.18337612927774663,0.5121528622930477,-0.275951376168028
1589986520.121408,-11.237599183395712,-7.936062606328683,-7.759198366791426,0.5790193943518204,0.14533779441230957,-0.7308057918415183,-0.8903771346513358,1.463306180682821,-2.3047784651945733
1589986520.131408,4.24,-2.82,-2.16,0.51,0.17888888888888888,-0.6311111111111111,-1.714785990084429,-2.167480764820458,-10.106547199829665
1589986520.141408,1.2806763023389633,-3.419862911688048,-0.40840029787090026,0.51,0.17888888888888888,-0.6311111111111111,-1.6816323109975004,-1.292398129973368,-11.479807486219816
1589986520.151408,-1.6908296729155228,-6.437776492273904,8.9848974429367,0.51,0.17888888888888888,-0.6311111111111111,-1.6880306891900818,-0.7608074116548459,-11.469239511896152
1589986520.161408,-0.2021476194211309,-2.794206604439564,-0.8930425915758118,0.51,0.17888888888888888,-0.6311111111111111,-0.9469579969894079,0.4037353903747841,-10.889659658189572
1589986520.171408,-0.6907069266764405,-4.180226537866768,5.392333661358022,0.5035026342390831,0.19572713255098328,-0.6335819403441358,-0.24455874955602608,1.4702294750742184,-10.165998627609595
1589986520.181408,-0.8002120780029321,-3.2620679613600307,3.370700098407407,0.43705079027172494,0.36794036198751723,-0.6588523598810185,0.3334031739261205,2.2825002864545323,-9.613764738877054
1589986520.191408,-0.7091335869093509,-3.0928177571286346,3.5460707630255532,0.4311111111111111,0.38333333333333336,-0.6611111111111111,1.095207221325994,3.2319738581379274,-8.895546535220108
1589986520.201408,-7.137468354430379,-3.3471900410763684,12.317355184843658,0.4311111111111111,0.38333333333333336,-0.6611111111111111,2.1229079504633313,3.6668066890541344,-8.093998423145338
1589986520.211408,-0.2858831168831169,-0.1521774891774892,-2.0551904761904765,0.4311111111111111,0.38333333333333336,-0.6611111111111111,3.29734865047563,0.822275327162598,-6.8789578862263605
1589986520.221408,-0.06109648297912357,-0.3988790671431258,-0.581764152717698,0.4151727164441101,0.40059076755898276,-0.6561647127661797,1.1645750055428297,0.07164667670064413,-5.945300421011541
1589986520.2314079,0.3681422106779765,0.4283745611721017,1.7319799508918605,0.27,0.5577777777777778,-0.6111111111111112,-0.037069453298717914,0.4793373741662203,-5.303764563981449
1589986520.2414079,0.9311864061403311,0.44308148617746285,8.162087078588085,0.27,0.5577777777777778,-0.6111111111111112,-1.1732526592898054,0.4999522207365711,-4.855127844793865
1589986520.2514079,-1.4986289577074186,-1.1030402126184424,5.678241275710654,0.27,0.5577777777777778,-0.6111111111111112,-1.753930794307961,0.2165022740129671,-4.3023748192412485
1589986520.2614079,-0.08372512796828702,-1.8509841049917253,10.254517954046877,0.27,0.5577777777777778,-0.6111111111111112,0.004986007276003901,0.2482146968627601,-3.558273471406249
1589986520.2714078,1.630710497062093,-2.5691672224868984,14.994527870414483,0.26574936918814956,0.5578774019374305,-0.6111775272175464,0.888842147136963,0.38855167273219765,-3.1236872301595247
1589986520.2814078,0.7686203972012157,-0.5667440572949796,5.682770160435366,0.12777777777777774,0.5611111111111111,-0.6133333333333333,0.8920537082063141,0.44172967288488335,-2.701877575317774
1589986520.2914078,1.0947020990882748,-1.6586236954319504,10.292379673475157,0.12777777777777774,0.5611111111111111,-0.6133333333333333,-0.11630177886786797,0.2207645474437211,-2.3763582197898176
1589986520.3014078,1.2809118824492767,-2.3547331907924667,12.899677008461468,0.12777777777777774,0.5611111111111111,-0.6133333333333333,-0.701590877951142,0.0983710326276095,-2.083786547245042
1589986520.3114078,1.015682958557889,-1.7149507526482066,8.996602861921575,0.12777777777777774,0.5611111111111111,-0.6133333333333333,-0.017944683305442535,0.2380974857197059,-1.8989494854351456
1589986520.3214078,0.7176560753632445,-0.667710362446112,3.980475810314546,0.12421257118526793,0.5622809445242783,-0.6136675714513811,0.5545232970615901,0.21802716832039415,-1.7408269406854466
1589986520.3314078,3.7615845734646824,-4.178506888207161,10.465882890951011,0.05666666666666665,0.5844444444444444,-0.62,0.10608355860973662,0.0078174370048366,-1.4973661280392356
1589986520.3414078,16.86053028715154,-17.860871172424307,8.156184714468093,0.05666666666666665,0.5844444444444444,-0.62,-0.31673740559579855,0.0017148663874371212,-1.2680838319855126
1589986520.3514078,3.4053122398001663,-5.035467413519037,3.6922239043221556,0.05666666666666665,0.5844444444444444,-0.62,-0.3621964441734262,-0.30498476002972746,-0.6442530327289897
1589986520.3614078,-1.0632522976578713,0.9337133115920545,14.57264664774893,0.05666666666666665,0.5844444444444444,-0.62,0.1146235570664985,0.17747767397100306,-0.3401675707325593
1589986520.3714077,-1.4363000296471982,1.7419833975689296,1.6580894498327048,0.05666666666666665,0.5844444444444444,-0.62,0.9527095957002976,0.7297424624348937,-0.09407062990829929
1589986520.3814077,0.977207015387317,-0.17387624294839438,7.4911796211339645,0.0,0.6,-0.6355555555555555,0.05117884857381555,-0.3630630935157934,0.16275287699871166
1589986520.3914077,1.0594212160309653,-1.8809745181840174,11.230811224901217,0.0,0.6,-0.6355555555555555,-0.5250206556227859,-0.22591366316183814,0.3531412921932001
1589986520.4014077,0.7463223118134098,-1.5699291087180043,8.190916716272525,0.0,0.6,-0.6355555555555555,-0.282934197315747,0.28316406338355593,0.5236909817610922
1589986520.4114077,13.665154075546718,-9.559067793240557,8.634064811133202,0.0,0.6,-0.6355555555555555,0.26518571256765916,-0.11300668597315233,0.5807623422894936
1589986520.4214077,7.202763419483102,-6.715615904572564,5.915691451292247,0.0,0.6,-0.6355555555555555,0.06598402873576056,-0.25490377582601154,0.41157735054185385
1589986520.4314077,0.648750697483187,-2.1728953628380956,9.64126369269625,0.006666666666666667,0.6166666666666667,-0.6355555555555555,-0.0354056935415839,0.23112004033628267,0.33936703175757155
1589986520.4414077,3.494139379166544,-3.5647954538780064,10.312578338374792,0.006666666666666667,0.6166666666666667,-0.6355555555555555,-0.15700625604129084,0.12161235145533111,0.39176948410551155
1589986520.4514077,5.135648530717844,-4.5961454994787045,9.316593813955285,0.006666666666666667,0.6166666666666667,-0.6355555555555555,0.004212610980324744,-0.1952362590954376,0.400985427762942
1589986520.4614077,2.1679403374538375,-3.215990579597974,9.699080073417218,0.006666666666666667,0.6166666666666667,-0.6355555555555555,0.0073488093376255035,0.06185404452561237,0.26292823519590064
1589986520.4714077,3.225303509431459,-3.3829426593839145,8.279987395236727,0.006666666666666667,0.6166666666666667,-0.6355555555555555,-0.06145074517680191,-0.007957268143438972,0.23358724871180664
1589986520.4814076,3.165993268172697,-3.2859932681726973,8.298005048870477,0.019185995497730885,0.6012582619515108,-0.6500009349760143,0.0027677827589538823,-0.05345346207399295,0.24558322688255396
1589986520.4914076,2.5734270665755776,-3.263427066575578,9.381561804438373,0.021111111111111112,0.5988888888888889,-0.6522222222222223,-0.004909952505290205,0.006717779098852604,0.20306731994821467
1589986520.5014076,2.684846022449976,-3.3686061493411423,9.298184724255735,0.021111111111111112,0.5988888888888889,-0.6522222222222223,0.00874786129495578,-0.02026081092627483,0.17433844960897615
1589986520.5114076,2.5684554504936057,-3.1653821801974424,8.374420793935101,0.021111111111111112,0.5988888888888889,-0.6522222222222223,-0.0033352422667057464,-0.0075094523164753735,0.17172203779714215
1589986520.5214076,2.917878535427167,-3.305151414170867,8.505454450785187,0.021111111111111112,0.5988888888888889,-0.6522222222222223,-0.013817182338616799,-0.036096561603505516,0.16600461593973612
1589986520.5314076,2.8660647755721578,-3.19579077056516,8.454159356581048,0.013333333333333334,0.5988888888888889,-0.6444444444444445,-0.007798830481952032,-0.009615068357975227,0.1608112807307904
1589986520.5414076,2.6593634804549664,-3.352883754854225,8.966778568471684,0.013333333333333334,0.5988888888888889,-0.6444444444444445,0.011141164899688171,-0.015026495609872428,0.1436750944331159
1589986520.5514076,2.6865965224941166,-3.2227630406470626,9.017447391870586,0.013333333333333334,0.5988888888888889,-0.6444444444444445,0.011999138607461015,0.008680737006393414,0.12393654120430522
1589986520.5614076,2.741006567188159,-3.180215692968891,8.589352921093326,0.013333333333333334,0.5988888888888889,-0.6444444444444445,0.003194064170811174,-0.013113497842960928,0.10462564130764593
1589986520.5714076,2.8589351916936114,-3.205486112505774,8.513541662482679,0.013333333333333334,0.5988888888888889,-0.6444444444444445,-0.0059945196683326525,-0.015870072994704075,0.09359934070067336
1589986520.5814075,2.9223293425056225,-3.2495738523614235,8.625767462627332,0.03333333333333333,0.6111111111111112,-0.6355555555555555,-0.010396967366712358,-0.03056492627968808,0.09039949845859159
1589986520.5914075,2.7974824712263526,-3.242637915068131,8.882397142479164,0.03333333333333333,0.6111111111111112,-0.6355555555555555,-0.0020744400712245734,-0.013163278298213617,0.08812971828709494
1589986520.6014075,2.8394651415256704,-3.233118066036487,8.635903301824344,0.03333333333333333,0.6111111111111112,-0.6355555555555555,0.008597856193004409,-0.010298497400232712,0.07825803210710694
1589986520.6114075,2.763319867635051,-3.2235177704241695,8.73280695345739,0.03333333333333333,0.6111111111111112,-0.6355555555555555,0.010584935495356045,-0.0020997168227262133,0.07064098542949658
1589986520.6214075,2.7536213042566575,-3.265961117934278,8.701475900907647,0.03333333333333333,0.6111111111111112,-0.6355555555555555,0.0022971067063690615,-0.009261458212675704,0.05953077555315567
1589986520.6314075,2.740151942458626,-3.242689928073282,8.784316258936185,0.03830800959022904,0.6177440127869721,-0.6413593445219339,-0.0032559179963856525,-0.00983405139357182,0.05428126219252646
1589986520.6414075,2.699634314627415,-3.2207313707451704,8.723291168353267,0.04,0.62,-0.6433333333333333,-0.003924532182748864,-0.008247965226622236,0.050098435822612065
1589986520.6514075,2.6899874562150905,-3.2400250875698196,8.810062718924549,0.04,0.62,-0.6433333333333333,0.007638552106816871,0.004352376612619107,0.04799518611517322
1589986520.6614075,2.6800605888478652,-3.2598788223042696,8.859697055760673,0.04,0.62,-0.6433333333333333,0.009804258606402636,-0.004310449385723949,0.046912332865380345
1589986520.6714075,2.705325219715686,-3.2262330403790855,8.885325219715686,0.04,0.62,-0.6433333333333333,0.0033715202199516335,-0.008046727028566663,0.04138061779947635
1589986520.6814075,2.7812354525022807,-3.288455684372149,8.738146821246579,0.04,0.6111111111111112,-0.6355555555555555,-0.007501048515495167,-0.018476739821449737,0.03698717138339448
1589986520.6914074,2.8185687264959167,-3.2417890918801042,8.682146910256124,0.04,0.6111111111111112,-0.6355555555555555,-0.003428620067131933,-0.01644052559726812,0.03393285004712206
1589986520.7014074,2.7257725552492644,-3.287113722375368,8.698845488950147,0.04,0.6111111111111112,-0.6355555555555555,0.0028946794899158395,-0.009167427927140764,0.03381575425739013
1589986520.7114074,2.7283284803983627,-3.2317006372114614,8.749970882390176,0.04,0.6111111111111112,-0.6355555555555555,0.010540462579451237,-0.0005501797490145444,0.0329072579783949
1589986520.7214074,2.6774972993231776,-3.2575019290548735,8.91750810203047,0.04,0.6111111111111112,-0.6355555555555555,0.007090147573534527,0.0002726656101753746,0.0319067583025726
1589986520.7314074,2.7793691872858473,-3.2207569752569833,8.681135462885475,0.021111111111111112,0.6133333333333333,-0.6522222222222223,-9.633538972229523e-05,-0.005509202706609305,0.029397382333277287
1589986520.7414074,2.7462550725553045,-3.2604939129336343,8.740740869400451,0.021111111111111112,0.6133333333333333,-0.6522222222222223,-0.005153400785369641,-0.008398954361264931,0.02650763067862166
1589986520.7514074,2.7556432631494676,-3.2714522456168442,8.616140421103195,0.021111111111111112,0.6133333333333333,-0.6522222222222223,0.0016883381248902398,-0.004222984881048845,0.02788635407812811
1589986520.7614074,2.676351926645563,-3.2520754128526206,8.817044770533473,0.021111111111111112,0.6133333333333333,-0.6522222222222223,0.005227761489879548,-1.3710443505733118e-05,0.0270580875833144
1589986520.7714074,2.689861411866609,-3.2458217843222177,8.88267323516674,0.021111111111111112,0.6133333333333333,-0.6522222222222223,0.009085217314070741,0.0002764871006739069,0.025544880625141937
1589986520.7814074,2.720334175247717,-3.2565552749174276,8.826555274917428,0.0291231137879671,0.6045929667767631,-0.6412967640265095,0.003042542590541892,-0.006096317749856335,0.020083621030058608
1589986520.7914073,2.7967517341147667,-3.26,8.59866204236062,0.03333333333333333,0.6,-0.6355555555555555,-0.002142291471466852,-0.015035410393794024,0.013247449764061711
1589986520.8014073,2.754849019175667,-3.2870905884946,8.6441811769892,0.03333333333333333,0.6,-0.6355555555555555,-0.003166703159854711,-0.012316506170364987,0.017030135769404667
1589986520.8114073,2.7317659486631536,-3.244414871657884,8.750287282352655,0.03333333333333333,0.6,-0.6355555555555555,0.004683613447651737,-0.0030485195879272724,0.02342037186629912
1589986520.8214073,2.7224415461415523,-3.24,8.90361062331051,0.03333333333333333,0.6,-0.6355555555555555,0.00545415391248228,-0.0013571621513054997,0.028945273697046504
1589986520.8314073,2.748539669261952,-3.268539669261952,8.854867769126825,0.03333333333333333,0.6,-0.6440117538553933,0.003378690595601918,-5.3099124056275046e-05,0.02950553025146059
1589986520.8414073,2.7317632332709354,-3.2517632332709354,8.758816166354677,0.03333333333333333,0.6,-0.6444444444444445,-0.004684798261019025,-0.005967967956381296,0.02845776980134076
1589986520.8514073,2.7214416867307216,-3.2842332530771134,8.724325060192166,0.03333333333333333,0.6,-0.6444444444444445,-0.00545415391248228,-0.00841211900705408,0.025560898876794833
1589986520.8614073,2.7026695927822484,-3.2553391855644964,8.789321628871008,0.03333333333333333,0.6,-0.6444444444444445,0.001162435670730556,-0.006836192093339409,0.028870016330682965
1589986520.8714073,2.6938292724196278,-3.2623414551607444,8.874048730964468,0.03333333333333333,0.6,-0.6444444444444445,0.0035279054840068966,-0.002506252937936781,0.03349116288444626
1589986520.8814073,2.6954675688683785,-3.2535972933948645,8.870791880184592,0.030295795073123008,0.6072900918245048,-0.6517345362689493,0.005556161615395159,-0.0011928384854093348,0.03719025430779238
1589986520.8914073,2.7161215926397912,-3.2722431852795824,8.781635222080626,0.027777777777777776,0.6133333333333333,-0.6577777777777778,0.000389909364955374,-0.011853922797886765,0.03993767033881121
1589986520.9014072,2.7866072802742345,-3.246696359862883,8.611807709348692,0.027777777777777776,0.6133333333333333,-0.6577777777777778,-0.0056319102613404575,-0.01872187965129793,0.043993602535444064
1589986520.9114072,2.8090706048113554,-3.2490706048113553,8.688847257736262,0.027777777777777776,0.6133333333333333,-0.6577777777777778,-0.0025871867173440453,-0.011719358129666825,0.04967130955439805
1589986520.9214072,2.7660044323023136,-3.2866629730814054,8.787991135395373,0.027777777777777776,0.6133333333333333,-0.6577777777777778,0.0010177864042099595,-0.005309273878859534,0.045379044041032664
1589986520.9314072,2.7083347396634734,-3.2791673698317365,8.88249789050479,0.02314830440705261,0.6133333333333333,-0.6423461998753606,0.004454148991783501,-0.00024250911176858236,0.040603248064137454
1589986520.9414072,2.732624507293495,-3.261475098541301,8.833275886871709,0.021111111111111112,0.6133333333333333,-0.6355555555555555,0.0035943089267027255,-0.00355878168195243,0.035550218198313305
1589986520.9514072,2.7275068716278126,-3.2724931283721874,8.726301537208592,0.021111111111111112,0.6133333333333333,-0.6355555555555555,-0.0001344799020261845,-0.005044717579888934,0.03354379614008037
1589986520.9614072,2.727756819160177,-3.272243180839823,8.708784095800885,0.021111111111111112,0.6133333333333333,-0.6355555555555555,-0.002181661564992912,-0.006300291623900205,0.030186510340639905
1589986520.9714072,2.701653685075737,-3.2770865787310655,8.790865787310658,0.021111111111111112,0.6133333333333333,-0.6355555555555555,0.0032295191907089587,-0.006544984694978735,0.028679405305161183
1589986520.9814072,2.665100312902632,-3.2634002086017544,8.919598748389472,0.031255428076705456,0.6133333333333333,-0.6355555555555555,0.00545415391248228,-0.002923472006933566,0.02836160034490785
1589986520.9914072,2.718518475989252,-3.2349206531474635,8.85640217715821,0.03333333333333333,0.6133333333333333,-0.6355555555555555,0.007277975482592447,-0.005829304705213244,0.03018542191501802
1589986521.0014071,2.7217443184513925,-3.26302272619443,8.699653413673673,0.03333333333333333,0.6133333333333333,-0.6355555555555555,0.0022324845392497567,-0.011047760476833264,0.029642706753529865
1589986521.0114071,2.7525560601425916,-3.286278030071296,8.653721969928705,0.03333333333333333,0.6133333333333333,-0.6355555555555555,-0.004236142101555274,-0.012886967421469636,0.02323762942934396
1589986521.0214071,2.7281007010834926,-3.2836201402166982,8.726558317399617,0.03333333333333333,0.6133333333333333,-0.6355555555555555,-0.0033663496805913574,-0.009610295670139268,0.02042474616200184
1589986521.031407,2.71,-3.2721748902181806,8.801300439127278,0.0446362696848503,0.6185500731878796,-0.6416417520525262,0.0029398608108607512,-0.002514293101621529,0.01878136702229393
1589986521.041407,2.6931380060537267,-3.2784309969731362,8.869016978811956,0.04777777777777778,0.62,-0.6433333333333333,0.00620268133507219,0.0007485274225899111,0.021303160610069302
1589986521.051407,2.7230135577372603,-3.29650677886863,8.714932211313698,0.04777777777777778,0.62,-0.6433333333333333,0.0029437641930259665,-0.004310999970432698,0.01821539514797635
1589986521.061407,2.7218113359939187,-3.2918113359939185,8.68818866400608,0.04777777777777778,0.62,-0.6433333333333333,-0.0013913171411487962,-0.006347398589017707,0.017453292519943295
1589986521.071407,2.72,-3.29,8.744791546091363,0.04777777777777778,0.62,-0.6433333333333333,-0.00143455775127999,-0.005797880881265814,0.014464877265091608
1589986521.081407,2.6947273825341225,-3.2710455369005915,8.833181543664693,0.035141469044839016,0.6108737770262108,-0.6440353504851632,0.005112002761861819,-0.0033865427310295214,0.011022358208504715
1589986521.091407,2.6864241549380488,-3.26,8.87,0.027777777777777776,0.6055555555555555,-0.6444444444444445,0.008726646259971648,-0.002181661564992912,0.009817477042468105
1589986521.101407,2.6992331821746394,-3.26,8.809984315864844,0.027777777777777776,0.6055555555555555,-0.6444444444444445,0.005705094459023369,-0.004699621399116479,0.009313885075643392
1589986521.111407,2.7175013569748505,-3.2675013569748503,8.728747964537725,0.027777777777777776,0.6055555555555555,-0.6444444444444445,-0.0002731517646055899,-0.008863222142274443,0.009135781814904731
1589986521.121407,2.7342124942377626,-3.28,8.714212494237763,0.027777777777777776,0.6055555555555555,-0.6444444444444445,-0.0020657639371655665,-0.009070260470708354,0.01165552439672431
1589986521.131407,2.734073664825046,-3.28,8.734815837937385,0.03139942705136075,0.6019339062819725,-0.6418105177000205,0.0027069879915542806,-0.004282364602297781,0.013534337288830795
1589986521.141407,2.695697016132465,-3.275139403226493,8.789442387094027,0.04,0.5933333333333334,-0.6355555555555555,0.006014775836794296,3.0413066127577557e-05,0.010938720891092137
1589986521.151407,2.6821608692680927,-3.2760804346340464,8.779597826829768,0.04,0.5933333333333334,-0.6355555555555555,0.002801063804572154,-0.0017541033094739874,0.00782765946153551
1589986521.161407,2.7125936086601916,-3.2724687971132695,8.744937594226538,0.04,0.5933333333333334,-0.6355555555555555,0.00026930398868928347,-0.0054677687402216015,0.0073665114887859085
1589986521.171407,2.72,-3.27,8.74,0.04,0.5933333333333334,-0.6355555555555555,0.000637870012332176,-0.006544984694978735,0.0069979454651430155
1589986521.181407,2.724358022455632,-3.27,8.770506157189425,0.04,0.6020493782445974,-0.6326502072518009,0.0034677633052035556,-0.005118825181354475,0.006544984694978735
1589986521.191407,2.70547164372703,-3.2577358218635153,8.828396267204727,0.04,0.6133333333333333,-0.6288888888888889,0.005207170391648968,-0.003941399499154252,0.007882798998308503
1589986521.201407,2.69,-3.2560463043688848,8.797675869417805,0.04,0.6133333333333333,-0.6288888888888889,0.003044224144801308,-0.004363323129985824,0.007407547274787131
1589986521.211407,2.7085543206685623,-3.2847390942247494,8.776184773556187,0.04,0.6133333333333333,-0.6288888888888889,0.0015070074272069875,-0.007061939681129522,0.007894292970550585
1589986521.221407,2.7142807535722837,-3.3057192464277163,8.762842260716852,0.04,0.6133333333333333,-0.6288888888888889,-0.0001569152287106742,-0.008726646259971648,0.006855027243160953
1589986521.231407,2.7264725898933606,-3.2990182734044264,8.755490863297787,0.03633942446814212,0.6133333333333333,-0.6325494644207468,0.0007060500298153071,-0.006929765447659885,0.006652074454023455
1589986521.241407,2.714946129289705,-3.277473064644852,8.810107741420591,0.03333333333333333,0.6133333333333333,-0.6355555555555555,0.006281091573714381,1.1752765813010518e-05,0.009685530481835927
1589986521.251407,2.6904605042016807,-3.2747697478991595,8.801842016806722,0.03333333333333333,0.6133333333333333,-0.6355555555555555,0.007165749910026299,0.0017115959975440192,0.009867710258334326
1589986521.261407,2.6888601796514333,-3.2844300898257166,8.777720359302867,0.03333333333333333,0.6133333333333333,-0.6355555555555555,0.004487658242259066,-0.002416239175558034,0.00824339842486004
1589986521.271407,2.7,-3.27969972666927,8.76909918000781,0.03333333333333333,0.6133333333333333,-0.6355555555555555,0.002710699586624979,-0.004892361151617891,0.007635815477475192
1589986521.2814069,2.7105525560731807,-3.2647237219634095,8.771657668219541,0.04095462383063037,0.6092295615270964,-0.644349352283206,0.0016061089150606505,-0.003212217830121301,0.00706026282754293
1589986521.2914069,2.7131142539493758,-3.2737714921012486,8.78622850789875,0.04777777777777778,0.6055555555555555,-0.6522222222222223,0.0040953042834862554,-0.004435016690735261,0.008798339820721087
1589986521.3014069,2.71,-3.2653760179999507,8.750752035999902,0.04777777777777778,0.6055555555555555,-0.6522222222222223,0.00545415391248228,-0.0062517683988986515,0.00822224806963536
1589986521.3114069,2.7037016462161447,-3.266298353783855,8.74,0.04777777777777778,0.6055555555555555,-0.6522222222222223,0.0020189348192410955,-0.008606116150923448,0.008322859296123428
1589986521.3214068,2.705298592366208,-3.2911943694648316,8.76649296183104,0.04777777777777778,0.6055555555555555,-0.6522222222222223,-0.001155973531392055,-0.009239490276772077,0.00814865949427562
1589986521.3314068,2.7142144804604666,-3.301571039079067,8.7773565586186,0.04449984853074826,0.6055555555555555,-0.6550318758625332,-0.002181661564992912,-0.008266917758120976,0.0071760869756245195
1589986521.3414068,2.7148707661445877,-3.2848707661445875,8.790775403132475,0.04,0.6055555555555555,-0.6588888888888889,0.0011754141430711756,-0.0053977650054324675,0.009342547785032141
1589986521.3514068,2.704255510923876,-3.2914889781522483,8.768299598314883,0.04,0.6055555555555555,-0.6588888888888889,0.0049899496813809174,-0.00013935959051389986,0.011372512056065922
1589986521.3614068,2.7,-3.280732590263885,8.76853481947223,0.04,0.6055555555555555,-0.6588888888888889,0.006154736700453155,7.9913201080287e-05,0.0074053938851101845
1589986521.3714068,2.71135365199208,-3.2813536519920796,8.81270730398416,0.04,0.6055555555555555,-0.6588888888888889,0.002829510768964881,-0.002948567745503383,0.00545415391248228
1589986521.3814068,2.72,-3.2674673336365014,8.801834167045627,0.03624455560608357,0.6136923517423745,-0.6551334444949725,0.0,-0.004977806282011492,0.004839670760456612
1589986521.3914068,2.713524501504891,-3.2759019939804364,8.760573504514673,0.03333333333333333,0.62,-0.6522222222222223,0.0014127346180948974,-0.004747786603434831,0.005776057748080721
1589986521.4014068,2.714260760974376,-3.285739239025624,8.732956956102496,0.03333333333333333,0.62,-0.6522222222222223,0.002646438487763805,-0.004363323129985824,0.006544984694978735
1589986521.4114068,2.715494984213261,-3.2822525078933693,8.730272571040327,0.03333333333333333,0.62,-0.6522222222222223,0.0035182028422797453,-0.004854744119566578,0.006299274200188359
1589986521.4214067,2.6967038779625354,-3.2867038779625353,8.796703877962536,0.03333333333333333,0.62,-0.6522222222222223,0.002565567439320181,-0.006544984694978735,0.0043755004980828936
1589986521.4314067,2.6905752652035417,-3.2805752652035416,8.790575265203541,0.03333333333333333,0.62,-0.6522222222222223,-0.000777072286435164,-0.006544984694978735,0.0023699166626296874
1589986521.4414067,2.7119754052193503,-3.297983603479567,8.788065586081732,0.06,0.6055555555555555,-0.6355555555555555,-0.00043990947884142706,-0.006329501412861578,0.0015262688040343273
1589986521.4514067,2.7238498566715346,-3.31,8.715399426686137,0.06,0.6055555555555555,-0.6355555555555555,0.00419429126282955,-0.003021569998094732,0.001510784999047366
1589986521.4614067,2.7106284457973957,-3.291256891594791,8.74217199391172,0.06,0.6055555555555555,-0.6355555555555555,0.00545415391248228,-0.001670522574791165,0.0016019697726982031
1589986521.4714067,2.696898676336193,-3.27,8.802405294655228,0.06,0.6055555555555555,-0.6355555555555555,0.004439248116792643,-0.0021057365781860923,0.0025199634968894576
1589986521.4814067,2.693762123118127,-3.266237876881873,8.83,0.0478776032860357,0.6034654871565962,-0.6388996649938905,0.002181661564992912,-0.0039529391595063915,0.003272492347489368
1589986521.4914067,2.708961709278598,-3.277923418557196,8.816557436082103,0.027777777777777776,0.6,-0.6444444444444445,0.002181661564992912,-0.0037612777647333087,0.003272492347489368
1589986521.5014067,2.7143503131021194,-3.2830509393063583,8.743503131021194,0.027777777777777776,0.6,-0.6444444444444445,0.0034142320409279127,-0.003130752654050823,0.0026562071095218675
1589986521.5114067,2.7046433385310675,-3.27,8.742853291751459,0.027777777777777776,0.6,-0.6444444444444445,0.0031946808856409673,-0.0033503038093377685,0.0015973404428204837
1589986521.5214067,2.685363012190484,-3.27,8.804394979682527,0.027777777777777776,0.6,-0.6444444444444445,0.002181661564992912,-0.003298891338942782,0.001090830782496456
1589986521.5314066,2.684069084133582,-3.274689694711194,8.825310305288806,0.03976255315082892,0.6026053859506633,-0.6439233672543118,0.002181661564992912,-0.0032047942352891436,0.001090830782496456
1589986521.5414066,2.7161763757771125,-3.2961763757771125,8.787647248445776,0.05333333333333334,0.6055555555555555,-0.6433333333333333,0.002769851186556394,-0.005539702373112787,0.0005026411609329744
1589986521.5514066,2.73,-3.3057203629622403,8.725762903697921,0.05333333333333334,0.6055555555555555,-0.6433333333333333,0.004206164311229431,-0.00514447674936864,0.0004668359818700317
1589986521.5614066,2.725958978625368,-3.304041021374632,8.704246128247792,0.05333333333333334,0.6055555555555555,-0.6433333333333333,0.004572539810847329,-0.0019500711950369417,0.0006500237316789805
1589986521.5714066,2.7133320942999704,-3.299998141449955,8.76667162280012,0.05333333333333334,0.6055555555555555,-0.6433333333333333,0.0036361701871081846,-0.0007273556792376329,0.0
1589986521.5814066,2.701339299755529,-3.2820089496332936,8.814642800977884,0.05333333333333334,0.6055555555555555,-0.6433333333333333,0.004290275659969763,-0.0020355666249607905,0.0
1589986521.5914066,2.708860999589037,-3.271139000410963,8.836708500616444,0.027777777777777776,0.6055555555555555,-0.6444444444444445,0.0029134454626743612,-0.004722370014800831,0.001215076453451937
1589986521.6014066,2.72,-3.2838784725630705,8.767467360361245,0.027777777777777776,0.6055555555555555,-0.6444444444444445,0.0005698833242805672,-0.004982142320331069,0.0005209474582158887
1589986521.6114066,2.716586902323925,-3.30317380464785,8.733891683732526,0.027777777777777776,0.6055555555555555,-0.6444444444444445,0.0011169336026189672,-0.004389425950108335,0.001090830782496456
1589986521.6214066,2.71,-3.2959167005963645,8.788875050894546,0.027777777777777776,0.6055555555555555,-0.6444444444444445,0.0039179042616223035,-0.0058995727808458,0.0007681248254299883
1589986521.6314065,2.707313541532794,-3.31,8.820745833868825,0.031061227015474542,0.6040630786293297,-0.6465339121411606,0.00545415391248228,-0.00407027597079312,0.0002930471591927034
1589986521.6414065,2.7092019979548496,-3.3038653346967672,8.822394006135452,0.04,0.6,-0.6522222222222223,0.004450371649520368,-0.0036070864351433387,0.0017600189578043976
1589986521.6514065,2.73,-3.298106684447408,8.731626604434073,0.04,0.6,-0.6522222222222223,0.0017395105180320215,-0.005247625223907605,0.0023881902535675867
1589986521.6614065,2.7274457075337164,-3.3074457075337165,8.707880047263986,0.04,0.6,-0.6522222222222223,0.0022053511223848613,-0.005987724525034533,0.0008122006975243547
1589986521.6714065,2.715608230971908,-3.2912164619438156,8.77756707611237,0.04,0.6,-0.6522222222222223,0.00545415391248228,-0.0010098493381655782,0.0
1589986521.6814065,2.7064385143760257,-3.28,8.814245942495898,0.04,0.6047486474986322,-0.6522222222222223,0.00545415391248228,0.0017185010874694944,0.0011654934450149054
1589986521.6914065,2.7075966552613764,-3.287596655261376,8.824806689477247,0.04,0.6133333333333333,-0.6522222222222223,0.004625487372169985,-0.0019194973228087511,0.0012008259967086305
1589986521.7014065,2.72,-3.3,8.77147318264157,0.04,0.6133333333333333,-0.6522222222222223,0.002926737564142358,-0.003964001914183388,-0.0007986424316048716
1589986521.7114065,2.7256595264937995,-3.305659526493799,8.749616685456596,0.04,0.6133333333333333,-0.6522222222222223,0.001564302993613858,-0.006071512483861333,0.001564302993613858
1589986521.7214065,2.724178249791882,-3.307089124895941,8.797465250624352,0.04,0.6133333333333333,-0.6522222222222223,0.0023609396495004775,-0.0062274574782277305,0.001090830782496456
1589986521.7314065,2.7135975379026767,-3.301798768951338,8.82920738629197,0.04,0.6133333333333333,-0.6522222222222223,0.004669292895394822,-0.005650369166754144,0.001090830782496456
