time,acc_x,acc_y,acc_z,mag_x,mag_y,mag_z,gyr_x,gyr_y,gyr_z
1589986561.4868982,-3.75,-0.62,9.01,0.2933333333333333,-0.36777777777777776,-0.6377777777777778,-0.00545415391248228,-0.002181661564992912,-0.001090830782496456
1589986561.4968982,-3.744364741055068,-0.621547111582602,9.065635258944932,0.2933333333333333,-0.36777777777777776,-0.6377777777777778,-0.0023504252588188177,-0.00047611939004942234,-0.0013981864787199728
1589986561.5068982,-3.731551343332784,-0.6031026866655678,9.08,0.294022819259015,-0.3700186070362434,-0.6367435488892551,0.00016922530616213358,0.0012600560886585894,-0.0020124362588307783
1589986561.5168982,-3.7433850686807486,-0.6233850686807486,9.08,0.2977777777777777,-0.38222222222222224,-0.6311111111111111,0.001090830782496456,0.0014431541414278548,-0.001090830782496456
1589986561.5268981,-3.7449906663016153,-0.6174766657540384,9.052448664658884,0.2977777777777777,-0.38222222222222224,-0.6311111111111111,0.0008176140125967163,0.0005464335397994791,-0.0013640475523961956
1589986561.5368981,-3.732851942040167,-0.5914077681606673,8.984259710200835,0.2977777777777777,-0.38222222222222224,-0.6311111111111111,-0.00031109861673097325,0.0028038587984548584,-0.0018705629482619387
1589986561.5468981,-3.732610289698281,-0.6101470529310413,9.022463236767239,0.2977777777777777,-0.38222222222222224,-0.6311111111111111,-0.0018969231295810772,0.004632020579014031,-0.0005534358844400418
1589986561.556898,-3.712752211826109,-0.5809174039420363,9.034587019710182,0.2973700426924282,-0.3828338248502465,-0.6303975747117494,-0.004963762605959941,0.005654300404473652,0.0013910505204835144
1589986561.566898,-3.739448793838712,-0.5898162646129039,9.07908132306452,0.293414993505376,-0.38876639863082485,-0.623476238634408,-0.01078805329531757,0.007595730634259529,0.004303195865162329
1589986561.576898,-3.7428090052663605,-0.6096630368645224,9.033145968401838,0.2933333333333333,-0.3888888888888889,-0.6233333333333333,-0.014180800172453925,0.011386308724912914,0.0007844158412224048
1589986561.586898,-3.748655046643754,-0.6573100932875079,8.992689906712492,0.2933333333333333,-0.3888888888888889,-0.6233333333333333,-0.013447241911446367,0.009083918781460545,-0.00014671165220151184
1589986561.596898,-3.7413002384793437,-0.6426004769586869,9.007399523041313,0.2933333333333333,-0.3888888888888889,-0.6233333333333333,-0.009435816338898773,0.005072493208912949,-0.0009489967667110308
1589986561.606898,-3.7222144622748856,-0.6094463844312786,9.051660846706165,0.29400997458399264,-0.3880892219562915,-0.6225336664007358,-0.006424204514172638,0.00454449340119497,6.039009040304859e-05
1589986561.616898,-3.755127712166987,-0.6012180719582532,9.076345784125241,0.30406680093991273,-0.37620388171747693,-0.6106483261619213,-0.0046290652074574955,0.007237202361267684,0.0009579597437606201
1589986561.626898,-3.74,-0.597805519520907,9.016097240239546,0.3055555555555556,-0.3744444444444445,-0.6088888888888889,-0.006757847219148294,0.00545415391248228,-0.0002128625241695588
1589986561.636898,-3.74,-0.6276194622643186,9.001190268867841,0.3055555555555556,-0.3744444444444445,-0.6088888888888889,-0.0075708963814507995,0.00545415391248228,-0.0010259116864720637
1589986561.646898,-3.7484035367041257,-0.65,9.08,0.3055555555555556,-0.3744444444444445,-0.6088888888888889,-0.006590932693715892,0.003666734607479624,0.000916683651869906
1589986561.656898,-3.7419201459199605,-0.65,9.08,0.3055555555555556,-0.3744444444444445,-0.6088888888888889,-0.0023475633483231433,0.0008378217105511248,0.0002094554276377812
1589986561.666898,-3.7414568413537697,-0.6392715793231154,9.089271579323116,0.2933333333333333,-0.3744444444444445,-0.6233333333333333,-0.0013292058915822555,0.0,0.001249747521886989
1589986561.676898,-3.759755950683021,-0.6297559506830211,9.078657728756616,0.2933333333333333,-0.3744444444444445,-0.6233333333333333,-0.00429676900313388,-1.3310825370388754e-05,0.0032458706967485908
1589986561.686898,-3.73748447784884,-0.6049689556976798,8.97754656645348,0.2933333333333333,-0.3744444444444445,-0.6233333333333333,0.001090830782496456,-0.0013652316821501675,0.0008164298828427445
1589986561.696898,-3.733772821022076,-0.5918864105110381,9.00943205255519,0.2933333333333333,-0.3744444444444445,-0.6233333333333333,-0.0001438220098226937,-0.0011527842380602872,0.0004115509307730499
1589986561.706898,-3.7497926056069053,-0.5998963028034527,9.049481514017264,0.2933333333333333,-0.3744444444444445,-0.6233333333333333,-0.005386284256050887,0.003215934300463208,0.0021590383461824476
1589986561.716898,-3.7687660297677295,-0.6212339702322707,9.04246794046454,0.2977777777777777,-0.38222222222222224,-0.6022222222222222,-0.008726646259971648,0.006141168880765184,0.0013600413253054902
1589986561.726898,-3.756685405042581,-0.6349718924361287,9.045084322691615,0.2977777777777777,-0.38222222222222224,-0.6022222222222222,-0.008726646259971648,0.002007010573618254,0.001826227463065238
1589986561.736898,-3.736821816690589,-0.6593643633381178,8.97254254664753,0.2977777777777777,-0.38222222222222224,-0.6022222222222222,-0.008102611426433589,-0.004918020759797431,-0.006078188746020338
1589986561.746898,-3.69783549698529,-0.6441233772610326,9.019794371231612,0.2977777777777777,-0.38222222222222224,-0.6022222222222222,0.002372910978653298,-0.01244892929187905,-0.016767391183800034
1589986561.756898,-3.731229067445076,-0.620614533722538,9.061229067445076,0.2976412147283248,-0.3819832368856797,-0.6027001928953073,0.007635815477475192,-0.00954933612189746,-0.02300799927763957
1589986561.766898,-3.7721181934853023,-0.6357636130293955,9.093645419544092,0.2933333333333333,-0.3744444444444445,-0.6177777777777778,0.007635815477475192,-0.0015529489139066762,-0.023869348122863843
1589986561.776898,-3.7775968519647507,-0.6187984259823754,9.063992129911878,0.2933333333333333,-0.3744444444444445,-0.6177777777777778,0.007701351173768833,-0.0030758852586084463,-0.01487841677718854
1589986561.786898,-3.74660200631824,-0.6033010031591198,8.9865050157956,0.2933333333333333,-0.3744444444444445,-0.6177777777777778,0.008546604467017348,-0.0005401253788629018,-0.009806897017697451
1589986561.796898,-3.7584771546509144,-0.61,9.007614226745428,0.2933333333333333,-0.3744444444444445,-0.6177777777777778,0.0026080257139837696,0.00512192059572948,-0.0035327398381038255
1589986561.8068979,-3.7510145185396055,-0.61,9.044927407301971,0.2933333333333333,-0.3744444444444445,-0.6177777777777778,-0.0006481635615303467,0.0034938259579724226,0.0005374967562888199
1589986561.8168979,-3.75,-0.62,9.033960543223563,0.31222222222222223,-0.38222222222222224,-0.5955555555555555,0.000864056492734097,0.008953420549734007,0.00043920169075293826
1589986561.8268979,-3.752262467423473,-0.6222624674234728,8.9851128583418,0.31222222222222223,-0.38222222222222224,-0.5955555555555555,-0.005844104595937548,0.01566158163840565,0.0039092399419365905
1589986561.8368979,-3.7519211880261927,-0.6267684752104771,8.916157623947615,0.31222222222222223,-0.38222222222222224,-0.5955555555555555,-0.011789569503667554,0.020549532531692064,0.012108757407095893
1589986561.8468978,-3.7012105035348433,-0.6087443576478347,9.010045138817322,0.31222222222222223,-0.38222222222222224,-0.5955555555555555,-0.016362461737446838,0.01908707675311698,0.025094031878560494
1589986561.8568978,-3.6406954263454048,-0.600099346620772,9.079205227033823,0.31222222222222223,-0.38222222222222224,-0.5955555555555555,-0.016362461737446838,0.015314979095780466,0.03263822719323352
1589986561.8668978,-3.7411734142702815,-0.5723468285405627,9.13178610010803,0.2933333333333333,-0.3622222222222222,-0.6322222222222222,-0.013156803047139077,0.00128566408034242,0.048886884240795694
1589986561.8768978,-3.75,-0.5935414296659159,9.054063566503379,0.2933333333333333,-0.3622222222222222,-0.6322222222222222,-0.0056473089371636455,-0.00545415391248228,0.07450584696562383
1589986561.8868978,-3.75,-0.6115659572416785,8.989395743450071,0.2933333333333333,-0.3622222222222222,-0.6322222222222222,-0.006203345822319501,-0.005624973348811896,0.08412579858126462
1589986561.8968978,-3.7557145206042546,-0.6228572603021272,9.038571369848935,0.2933333333333333,-0.3622222222222222,-0.6322222222222222,-0.0045191625045440985,-0.006233305945862185,0.07012471431065533
1589986561.9068978,-3.789717952500369,-0.6399294881250922,9.03028204749963,0.2933646719444034,-0.36230840340266507,-0.6322143875694547,-0.005438770607746085,-0.004363323129985824,0.05221373616483604
1589986561.9168978,-3.75,-0.6259360517862835,9.063904077679425,0.2977777777777777,-0.3744444444444445,-0.6311111111111111,-0.004159108309488057,-0.0036983611584868073,0.028530936825401813
1589986561.9268978,-3.7534372100638542,-0.6065627899361458,9.026251159744582,0.2977777777777777,-0.3744444444444445,-0.6311111111111111,-0.007635815477475192,-0.0005284186009626449,0.016362461737446838
1589986561.9368978,-3.768697811493751,-0.5913021885062489,8.965208754024996,0.2977777777777777,-0.3744444444444445,-0.6311111111111111,-0.007635815477475192,0.001968591468908493,0.016362461737446838
1589986561.9468977,-3.744842490842491,-0.57,8.991604395604396,0.2977777777777777,-0.3744444444444445,-0.6311111111111111,-0.0045039723737362826,-0.0038007261549839887,0.023223108087433705
1589986561.9568977,-3.7133271344040573,-0.57,9.06251394759087,0.2977777777777777,-0.3744444444444445,-0.6311111111111111,-0.005363420396846057,-0.0003629340625448899,0.03181758831853146
1589986561.9668977,-3.72,-0.590880979622128,9.099119020377872,0.2977777777777777,-0.3888888888888889,-0.6233333333333333,-0.006064484849694032,-0.0009947308134395153,0.0416100385501091
1589986561.9768977,-3.72,-0.5973658740220786,9.092634125977922,0.2977777777777777,-0.3888888888888889,-0.6233333333333333,-0.0025275236333415748,-0.0002873385701690238,0.05080613771262549
1589986561.9868977,-3.680560570071259,-0.5408408551068884,8.951961995249405,0.2977777777777777,-0.3888888888888889,-0.6233333333333333,0.002135800033282254,-0.004302174421038279,0.06637251878267807
1589986561.9968977,-3.6969071111928256,-0.45304100018385735,9.033866111008967,0.2977777777777777,-0.3888888888888889,-0.6233333333333333,-0.0073040938164622956,0.0040259412982153525,0.07745464572800595
1589986562.0068977,-3.6626336540622257,-0.37592572164000737,9.076707932422218,0.2977777777777777,-0.3888888888888889,-0.6233333333333333,-0.0157160657801043,0.0002872870921522405,0.08960527189771106
1589986562.0168977,-3.5779200186003255,-0.29143989769820977,9.103119972099512,0.3055555555555556,-0.36777777777777776,-0.6233333333333333,-0.022226774111090076,-0.006998766242535736,0.11364709293931276
1589986562.0268977,-3.5646727946220333,-0.3946727946220332,9.121433209859607,0.3055555555555556,-0.36777777777777776,-0.6233333333333333,-0.015937692719613695,-0.0113330768427977,0.13672080035406295
1589986562.0368977,-3.621611736234126,-0.4487911978244056,9.022417604351189,0.3055555555555556,-0.36777777777777776,-0.6233333333333333,-0.010952261112400795,-0.01645036831231931,0.16896291423146084
1589986562.0468976,-3.642264138389887,-0.4068908848968729,9.079228875582169,0.3055555555555556,-0.36777777777777776,-0.6233333333333333,-0.012335605108302903,-0.01888058980328164,0.22254022101023574
1589986562.0568976,-3.414618822628017,-0.25273911377857233,9.07,0.3054267937967338,-0.3678480114644078,-0.6233333333333333,-0.01643141349805669,-0.022907446432425576,0.2754409712739857
1589986562.0668976,-1.97,-0.51,9.07,0.2933333333333333,-0.3744444444444445,-0.6233333333333333,-0.022907446432425576,-0.022907446432425576,0.3272492347489368
1589986562.0768976,-1.8591607075649228,-0.354824990590892,9.02566428302597,0.2933333333333333,-0.3744444444444445,-0.6233333333333333,-0.01662028700331352,-0.008398616980628527,0.2996824587905224
1589986562.0868976,-2.088776958702146,-0.3953895481077526,9.048463182702585,0.2933333333333333,-0.3744444444444445,-0.6233333333333333,-0.0018794418612018624,0.004682073743390766,0.15979611251555334
1589986562.0968976,-2.926247959209303,-0.5712932961595458,8.933023635495944,0.2933333333333333,-0.3744444444444445,-0.6233333333333333,0.0233465679492937,0.003272492347489368,0.07860338169315682
1589986562.1068976,-3.2574904507257445,-0.6151503576637266,8.972875894159317,0.2933333333333333,-0.3744444444444445,-0.6233333333333333,0.010124029355918475,0.0019007531309699342,0.0670696916467343
1589986562.1168976,-2.8849849528522706,-0.8362562696448873,9.140628970775095,0.2834024759059869,-0.3698609717856692,-0.6294446302117004,0.0044998137602306485,0.0018407997425348975,0.09394866743124813
1589986562.1268976,-2.020494213696893,-0.8912420735573875,8.83179969879518,0.2788888888888889,-0.36777777777777776,-0.6322222222222222,0.05305115784724739,0.06489453142184003,0.14424728300389872
1589986562.1368976,-1.7284961127308065,-0.7780775371373039,8.479581424406497,0.2788888888888889,-0.36777777777777776,-0.6322222222222222,0.10315199821724429,0.05642217349449329,0.18203513170039037
1589986562.1468976,-1.8884993614303958,-0.7748499361430397,8.902923052362707,0.2788888888888889,-0.36777777777777776,-0.6322222222222222,0.005940012450663168,0.001830067160481362,0.17572197254663696
1589986562.1568975,-2.0141452827779904,-0.7985363206944976,9.402921932848207,0.2788888888888889,-0.36777777777777776,-0.6322222222222222,-0.04360642357285318,-0.04956578128607612,0.17032926471366164
1589986562.1668975,-2.0351622339917017,-0.7241888300414906,9.02061968222405,0.2729924645587826,-0.37872828010511805,-0.6145329492319034,0.006548175783289131,-0.010184327057445451,0.18340114732509716
1589986562.1768975,-2.1168416022672973,-0.6976312017004729,8.856841602267297,0.27111111111111114,-0.38222222222222224,-0.6088888888888889,0.025863774179013414,0.01369237169804244,0.1832306870640863
1589986562.1868975,-2.0891970538318314,-0.6768977903738733,8.829197053831832,0.27111111111111114,-0.38222222222222224,-0.6088888888888889,0.004001018987838462,-0.009678159713213542,0.17343014163355963
1589986562.1968975,-2.0419688837556897,-0.6985233371832326,9.000647802160472,0.27111111111111114,-0.38222222222222224,-0.6088888888888889,-0.016755283842387562,-0.01952756813454302,0.15668681057454892
1589986562.2068975,-2.108270847821964,-0.6487968641335272,9.02706771195549,0.27111111111111114,-0.38222222222222224,-0.6088888888888889,0.000233793788497378,-0.007533263452845223,0.14667980910307704
1589986562.2168975,-2.1208707693006152,-0.6326123079018455,9.054353846503076,0.2788888888888889,-0.3744444444444445,-0.6233333333333333,0.0035084473681782817,-0.00265659254377488,0.12288091270166983
1589986562.2268975,-2.130650424886477,-0.6590243626702843,9.097073088010852,0.2788888888888889,-0.3744444444444445,-0.6233333333333333,-0.005276778040514529,-0.007529389954294542,0.09507075432545582
1589986562.2368975,-2.146456201835208,-0.6353156972471878,9.025947091741564,0.2788888888888889,-0.3744444444444445,-0.6233333333333333,-0.0009664210312773603,-0.00494317574875224,0.07265689787742255
1589986562.2468975,-2.139703553243759,-0.6201482233781206,9.011037563646845,0.2788888888888889,-0.3744444444444445,-0.6233333333333333,0.004314817142923961,0.0,0.035463849964702546
1589986562.2568974,-2.1281907140798486,-0.6259046429600758,9.05133250072053,0.2788888888888889,-0.3744444444444445,-0.6233333333333333,0.0024310332398353347,0.0,0.014742227030727664
1589986562.2668974,-2.0885262649528196,-0.6389924957277658,9.08,0.28538346913671975,-0.38593485565214525,-0.6233333333333333,-0.00038056289020076605,-0.001471393672697222,-0.017166259514800924
1589986562.2768974,-2.099530765017345,-0.6252346174913274,8.98093846996531,0.2933333333333333,-0.4,-0.6233333333333333,0.005922790909234912,0.008433939004173042,-0.0732983714423632
1589986562.2868974,-2.0727134177736586,-0.6349146328905365,8.900341468437855,0.2933333333333333,-0.4,-0.6233333333333333,0.004381947344148929,0.014975642991622387,-0.11326015923800034
1589986562.2968974,-2.102108183473708,-0.6484216366947416,8.955794730252675,0.2933333333333333,-0.4,-0.6233333333333333,0.0005165181838016029,0.00993185535550872,-0.16845029582360022
1589986562.3068974,-2.165016843741902,-0.61070225447007,9.017157294635915,0.2933333333333333,-0.4,-0.6233333333333333,0.005144062860811221,0.01644274055118848,-0.21872443346105086
1589986562.3168974,-2.216998405987941,-0.6221990435927646,9.052199043592765,0.28757802573520924,-0.38684501120428766,-0.6299108277311896,0.010580884710473455,0.020965663311736583,-0.27213865526789727
1589986562.3268974,-2.159970081341353,-0.6300299186586468,9.069760650730826,0.2855555555555556,-0.38222222222222224,-0.6322222222222222,0.01090830782496456,0.024004804453686617,-0.34707021513866365
1589986562.3368974,-2.1534342568641507,-0.6365657431358495,9.017474054913205,0.2855555555555556,-0.38222222222222224,-0.6322222222222222,0.01090830782496456,0.0254307001594319,-0.38770824275240423
1589986562.3468974,-2.2086900593417123,-0.6179912277468578,8.997336257417714,0.2855555555555556,-0.38222222222222224,-0.6322222222222222,0.01570987707670083,0.03178176957360726,-0.45787749749548967
1589986562.3568974,-2.200400306944622,-0.6173999232638445,9.022199769791532,0.2855555555555556,-0.38222222222222224,-0.6322222222222222,0.018260498928374613,0.03785178629954674,-0.524034605674334
1589986562.3668973,-2.249743673375415,-0.6210253064983404,9.097436733754149,0.2788888888888889,-0.38222222222222224,-0.6533333333333333,0.012083021299202266,0.038318881873611384,-0.615899267072071
1589986562.3768973,-2.241696437136663,-0.653214251453349,9.016964371366628,0.2788888888888889,-0.38222222222222224,-0.6533333333333333,0.014716473200177816,0.04270796837523729,-0.6712017569925576
1589986562.3868973,-2.2217161953159525,-0.6782838046840478,8.92686478126381,0.2788888888888889,-0.38222222222222224,-0.6533333333333333,0.022252218894629635,0.05061381923953749,-0.7436909076028435
1589986562.3968973,-2.2535349610344753,-0.6716162597413812,8.945151220775855,0.2788888888888889,-0.38222222222222224,-0.6533333333333333,0.017420301264491844,0.05584166775061153,-0.8051867234490583
1589986562.4068973,-2.254466766231472,-0.6921329350741116,8.977666168842639,0.2788888888888889,-0.38222222222222224,-0.6533333333333333,0.020587536942468197,0.05732678286196161,-0.8539671021525413
1589986562.4168973,-2.282736541283695,-0.742736541283695,9.038192631497644,0.30798803669661784,-0.3888907769281601,-0.6496959398573672,0.028164447025139438,0.06198020128252957,-0.919778624433601
1589986562.4268973,-2.2760503445366336,-0.77,9.053025172268317,0.3322222222222222,-0.3944444444444444,-0.6466666666666666,0.031634092692397225,0.06637568018065208,-1.0110536072398537
1589986562.4368973,-2.2630356360588917,-0.7769643639411081,8.987320724530028,0.3322222222222222,-0.3944444444444444,-0.6466666666666666,0.03239378694914413,0.06881976050252453,-1.0707288756309814
1589986562.4468973,-2.2912691637106954,-0.8112691637106956,8.991269163710696,0.3322222222222222,-0.3944444444444444,-0.6466666666666666,0.031019455158966286,0.07748777750144645,-1.1490548018625202
1589986562.4568973,-2.344587958003,-0.8497253053353332,9.0222939790015,0.3322222222222222,-0.3944444444444444,-0.6466666666666666,0.0354070536217339,0.08125191102618566,-1.2144558247765185
1589986562.4668972,-2.3485097813578824,-0.8829804372842348,9.035745109321057,0.34307409538422196,-0.3874226441631505,-0.658156885308784,0.03646155239525768,0.08431908552572145,-1.2704029944350512
1589986562.4768972,-2.379604714560616,-0.9079209429121232,9.063762828736369,0.3511111111111111,-0.38222222222222224,-0.6666666666666666,0.03772549749337126,0.08876775432370235,-1.3484297895764432
1589986562.4868972,-2.395949178603221,-0.9337967144128834,8.980762320951687,0.3511111111111111,-0.38222222222222224,-0.6666666666666666,0.03817907738737596,0.09334185245528692,-1.3983472353160638
1589986562.4968972,-2.424374954967937,-1.0109373874198428,8.938281216225953,0.3511111111111111,-0.38222222222222224,-0.6666666666666666,0.038843801167400736,0.09998145153983674,-1.4580998077191631
1589986562.5068972,-2.445834896810507,-1.0441651031894934,8.96750469043152,0.3511111111111111,-0.38222222222222224,-0.6666666666666666,0.04372532770738609,0.10572053608146235,-1.513991262631723
1589986562.5168972,-2.48930989168525,-1.0950338483593502,8.97213802166295,0.3685821740823334,-0.37086603129092777,-0.6771493044494,0.04776333244548505,0.1071346386690117,-1.5800942344287379
1589986562.5268972,-2.484002274516665,-1.1979874901583414,8.97,0.37333333333333335,-0.36777777777777776,-0.68,0.04886909500020154,0.1095190383957251,-1.635149140180203
1589986562.5368972,-2.48,-1.2793262347194583,8.97,0.37333333333333335,-0.36777777777777776,-0.68,0.052785378529003085,0.1157208990071359,-1.6932130655745998
1589986562.5468972,-2.4365317542632483,-1.2986936491473504,8.891757157673847,0.37333333333333335,-0.36777777777777776,-0.68,0.05534736836275711,0.11861555374755153,-1.7481641911950254
1589986562.5568972,-2.4612430236287826,-1.3781075590719554,9.036215118143911,0.37333333333333335,-0.36777777777777776,-0.68,0.05052024212043829,0.11975257658992719,-1.8028599217143533
1589986562.5668972,-2.4341321809172567,-1.4143471276330972,9.036958617100709,0.39565108742926247,-0.3486482742669814,-0.6903618144016813,0.05143492848172872,0.12625150145964537,-1.8569240028593281
1589986562.5768971,-2.437392665209945,-1.4373926652099451,8.993911002185083,0.4044444444444445,-0.3411111111111111,-0.6944444444444444,0.058051613940028876,0.13251252325471444,-1.9213362127781066
1589986562.5868971,-2.4832011788000186,-1.491841414560022,8.946798821199982,0.4044444444444445,-0.3411111111111111,-0.6944444444444444,0.05136483414677767,0.1340238589780715,-1.981369020209951
1589986562.5968971,-2.421725477194146,-1.6024117842087815,8.931465684649268,0.4044444444444445,-0.3411111111111111,-0.6944444444444444,0.053902013551681074,0.14068883197154128,-2.0343609179556648
1589986562.606897,-2.4169935842265864,-1.62,8.936993584226586,0.4044444444444445,-0.3411111111111111,-0.6944444444444444,0.05683018421112541,0.1456224102017103,-2.077890664518773
1589986562.616897,-2.3450778882075136,-1.6855568478184253,8.94936526397406,0.4419055003406875,-0.27451367840667906,-0.7350272549987077,0.05781403147231216,0.14930533928284367,-2.1372327199958745
1589986562.626897,-2.3245583935990153,-1.7749288352054162,8.926837590398522,0.4444444444444444,-0.27,-0.7377777777777778,0.05781403147231216,0.14944381720201447,-2.176424981383832
1589986562.636897,-2.3250637746516793,-1.8354464225617555,8.879489802786566,0.4444444444444444,-0.27,-0.7377777777777778,0.060023519978583004,0.15551991059425926,-2.208105859714967
1589986562.646897,-2.3394814814814815,-1.8984444444444444,8.863703703703704,0.4444444444444444,-0.27,-0.7377777777777778,0.0626944891954815,0.16506289796176002,-2.2482184031812324
1589986562.656897,-2.354681178834561,-1.9534058941728063,8.932130609511052,0.4444444444444444,-0.27,-0.7377777777777778,0.06377882278190548,0.16856813388983963,-2.2868698924797894
1589986562.666897,-2.334402112410411,-2.026929460580913,8.950135797812147,0.4586654931053271,-0.25009053187476427,-0.7472584768850329,0.0662205470839314,0.17031485415025482,-2.3213739042597923
1589986562.676897,-2.2507384382988613,-2.1064205205670463,8.948314547989774,0.4777777777777778,-0.22333333333333333,-0.76,0.06573700441408503,0.1722479604636598,-2.361716900248956
1589986562.686897,-2.183076226032114,-2.1536547174598573,8.899228678096343,0.4777777777777778,-0.22333333333333333,-0.76,0.0603312572422798,0.17346312895882957,-2.40224076301802
1589986562.696897,-2.1930423067501836,-2.239126920250551,8.854239423312453,0.4777777777777778,-0.22333333333333333,-0.76,0.06267515088023257,0.18018835813756887,-2.4341167276669182
1589986562.706897,-2.21,-2.2783936703469516,8.896425318612193,0.4777777777777778,-0.22333333333333333,-0.76,0.05911957612111399,0.18371737515903372,-2.465373810859095
1589986562.716897,-2.1716897889407587,-2.27,8.923614964823459,0.4820344678954713,-0.2027593310978149,-0.7649661384706424,0.053148540541244245,0.1874385672101402,-2.494689189344184
1589986562.726897,-2.172099458708426,-2.3657643210698467,8.942099458708425,0.4844444444444445,-0.19111111111111112,-0.7677777777777778,0.05637767253244,0.19542946911603745,-2.5198150975077813
1589986562.736897,-2.139822629969419,-2.4964256880733946,8.781255045871559,0.4844444444444445,-0.19111111111111112,-0.7677777777777778,0.0595670999518765,0.2035761113103337,-2.538421275076028
1589986562.746897,-2.09250221141088,-2.52,8.85249336576736,0.4844444444444445,-0.19111111111111112,-0.7677777777777778,0.05508724398907831,0.20262196258522033,-2.546544172264969
1589986562.756897,-1.9769634036112922,-2.5071204254514114,8.838481701805646,0.4844444444444445,-0.19111111111111112,-0.7677777777777778,0.0513432928848676,0.19618392020862105,-2.5488831797308737
1589986562.766897,-2.0289687801537646,-2.6167522644504624,8.848917421483486,0.5190377079853221,-0.18592212157997945,-0.7729667673089095,0.05357440170120313,0.20241655919437965,-2.543328213708077
1589986562.776897,-2.044714119532056,-2.7646441035095806,8.86,0.5288888888888889,-0.18444444444444444,-0.7744444444444445,0.03870094562042781,0.2250853578517274,-2.5332985687407454
1589986562.786897,-1.9627700227700227,-2.715047025047025,8.775047025047025,0.5288888888888889,-0.18444444444444444,-0.7744444444444445,0.038027996082088115,0.2059826749410608,-2.522302931742382
1589986562.796897,-1.94,-2.7667309156951196,8.730817271076221,0.5288888888888889,-0.18444444444444444,-0.7744444444444445,0.03926990816987242,0.1992287061210998,-2.502381514898193
1589986562.806897,-1.94,-2.8380198104200764,8.788048111020187,0.5288888888888889,-0.18444444444444444,-0.7744444444444445,0.03490349792331038,0.1930724178270084,-2.483815517511278
1589986562.816897,-1.9346833254754046,-2.8853166745245953,8.887341662737702,0.535682417448094,-0.18060462395445895,-0.785963905914401,0.029521518791296508,0.1818096734014188,-2.461452374783364
1589986562.826897,-1.911230888147352,-2.908769111852648,8.858077220368381,0.5544444444444444,-0.17,-0.8177777777777778,0.03750773204690508,0.17589229411811774,-2.4171721838837414
1589986562.836897,-1.865706629055007,-2.9248990529921417,8.810403788031433,0.5544444444444444,-0.17,-0.8177777777777778,0.0441676350807492,0.16863246038891777,-2.3681657590953487
1589986562.846897,-1.8042924611116964,-2.9248584922223393,8.795141507777661,0.5544444444444444,-0.17,-0.8177777777777778,0.04416321058712296,0.1636246173744684,-2.3117277092773776
1589986562.8568969,-1.8059093384978515,-2.993409792410579,8.825909338497851,0.5544444444444444,-0.17,-0.8177777777777778,0.043162186233398625,0.15938521177633186,-2.258614484309182
1589986562.8668969,-1.8196330484931604,-3.0981467806027356,8.868146780602736,0.5209521241887525,-0.1781467806027359,-0.7684444952389884,0.04343107642333271,0.1538071403320003,-2.200169687849124
1589986562.8768969,-1.7835494987468672,-3.1358020050125313,8.850972744360902,0.4722222222222222,-0.19,-0.6966666666666667,0.04472406208235469,0.15064075793374812,-2.143028316518463
1589986562.8868968,-1.7318667148088926,-3.2027110950637026,8.809066642595553,0.4722222222222222,-0.19,-0.6966666666666667,0.046803910148563506,0.14121653253458707,-2.0608315046402548
1589986562.8968968,-1.6709272267490867,-3.1644150978739347,8.767902968998783,0.4722222222222222,-0.19,-0.6966666666666667,0.04373437604788404,0.13039162033196633,-1.9925385609739632
1589986562.9068968,-1.619242636746143,-3.1810098176718093,8.816893408134643,0.4722222222222222,-0.19,-0.6966666666666667,0.042010754378627536,0.12097206283699477,-1.9303658219865107
1589986562.9168968,-1.5837212721504295,-3.194885088601718,8.858606360752148,0.4889654964877436,-0.10070253725055242,-0.6687612095574643,0.041857497556038854,0.11740379668844372,-1.8443692251985964
1589986562.9268968,-1.5277183456561922,-3.150124768946396,8.810124768946396,0.4988888888888889,-0.04777777777777778,-0.6522222222222223,0.04145156973486533,0.11047723963443748,-1.7589267046977242
1589986562.9368968,-1.5475402805708334,-3.2075725050274997,10.061353427179997,0.4988888888888889,-0.04777777777777778,-0.6522222222222223,0.035718556626634736,0.10062123061370981,-1.6858209744899586
1589986562.9468968,-1.4515952946863795,-3.204493010514442,9.153636546750997,0.4988888888888889,-0.04777777777777778,-0.6522222222222223,0.04146730181479659,0.19138453157854146,-1.6024943145828805
1589986562.9568968,-1.3386510901518862,-3.1533222072513474,8.425674454924057,0.4988888888888889,-0.04777777777777778,-0.6522222222222223,0.10462851295030684,0.14352274656128206,-1.5473380034684994
1589986562.9668968,-1.2528074442601806,-3.0908638290031325,8.50800847613783,0.49920082714002006,-0.04540224801916344,-0.6514063837192638,0.19844022949890297,-0.029082710445384047,-1.5153360536843294
1589986562.9768968,-1.2791819480828768,-3.070425696594427,9.565517385091688,0.5133333333333333,0.06222222222222223,-0.6144444444444445,-0.08564021808949313,0.04358679500493772,-1.4282225483523046
1589986562.9868968,-1.301525318499019,-3.283050636998038,9.163297737601509,0.5133333333333333,0.06222222222222223,-0.6144444444444445,0.0637650149611469,0.10079935257709831,-1.3036892062315848
1589986562.9968967,-1.2805404135338345,-3.2632029727095517,8.983132658033973,0.5133333333333333,0.06222222222222223,-0.6144444444444445,0.06228758440463671,0.10389204435621473,-1.2293586217322476
1589986563.0068967,-1.1777066996835879,-3.092228642179117,8.675571605447791,0.5133333333333333,0.06222222222222223,-0.6144444444444445,-0.004040230727356182,0.05729645335031047,-1.1709688032430774
1589986563.0168967,-1.2121219822109275,-3.239356734434562,8.757619123252859,0.5133333333333333,0.10965004235493432,-0.609621276295355,0.03576958188353571,0.057049445029625244,-1.0497437470637465
1589986563.0268967,-1.2433311939669869,-3.25999839547524,8.813324775867947,0.5133333333333333,0.12777777777777774,-0.6077777777777778,0.04145200730111514,0.05708701514823111,-0.9737502621421689
1589986563.0368967,-1.2509001081135445,-3.28,8.767200864908355,0.5133333333333333,0.12777777777777774,-0.6077777777777778,0.03669190748945304,0.04551314745291275,-0.9031863307452964
1589986563.0468967,-1.246411978729359,-3.3312958298348727,8.853123425692695,0.5133333333333333,0.12777777777777774,-0.6077777777777778,0.046880383889455854,0.04595624597212679,-0.8287667010817386
1589986563.0568967,-1.2546377494892347,-3.406377494892346,9.028841741316988,0.5133333333333333,0.12777777777777774,-0.6077777777777778,0.04375957772241047,0.04554608527928547,-0.7714066257087089
1589986563.0668967,-1.2049646895538229,-3.3361705514961013,8.803546964934482,0.5204675402430229,0.15223791575385645,-0.6144023984796324,0.03681746479533707,0.04195185482452315,-0.7037922473573492
1589986563.0768967,-1.227006283856988,-3.3950862405200435,8.958252437703141,0.5288888888888889,0.1811111111111111,-0.6222222222222222,0.02951398092930292,0.036441099129387186,-0.6220197452305742
1589986563.0868967,-1.2057082146359688,-3.3828459347125577,8.828534535095503,0.5288888888888889,0.1811111111111111,-0.6222222222222222,0.026024360523260376,0.028361243747724953,-0.5532035756077116
1589986563.0968966,-1.1887515913104183,-3.4156305695864644,8.727353496776313,0.5288888888888889,0.1811111111111111,-0.6222222222222222,0.02254927890249044,0.02561750085582007,-0.48337282822839195
1589986563.1068966,-1.209061746824027,-3.518123493648054,8.906716113884094,0.5288888888888889,0.1811111111111111,-0.6222222222222222,0.018075468569651004,0.023610428531608694,-0.4203227077362063
1589986563.1168966,-1.1568865357403866,-3.4137730714807732,8.724102875091353,0.5288888888888889,0.1811111111111111,-0.6222222222222222,0.022344043044647398,0.017207566819114103,-0.3641198104820871
1589986563.1268966,-1.2313973810725385,-3.575662301787564,9.059927222502589,0.5311111111111111,0.20444444444444448,-0.6355555555555555,0.015897231057361166,0.008879076888851934,-0.2409783374103789
1589986563.1368966,-1.193311675744422,-3.481590865105477,8.863977162763693,0.5311111111111111,0.20444444444444448,-0.6355555555555555,0.01426756840384662,0.0015388467982553888,-0.13739506658876932
1589986563.1468966,-1.164506871676057,-3.5043694381549155,8.819300721394344,0.5311111111111111,0.20444444444444448,-0.6355555555555555,0.008619062348876085,-0.007850983299666322,-0.033660553121362256
1589986563.1568966,-1.155053401346989,-3.5009612242458057,8.870854421551826,0.5311111111111111,0.20444444444444448,-0.6355555555555555,0.0065566350616032545,-0.01143624766627601,0.05404057335996848
1589986563.1668966,-1.1319138338483912,-3.4160287220505365,8.835215415379022,0.5498671352683351,0.20812866347532774,-0.6355555555555555,0.0051253381328902736,-0.013418785169549476,0.12775252513953084
1589986563.1768966,-1.0937233854736768,-3.412624201122842,8.92014194414039,0.5933333333333334,0.21666666666666667,-0.6355555555555555,0.0027386897340711137,-0.01567004745204241,0.19805536739839646
1589986563.1868966,-1.1336743202537454,-3.337860120888109,8.821022960761235,0.5933333333333334,0.21666666666666667,-0.6355555555555555,-0.008353737023409144,-0.025807029543352438,0.2848639666116426
1589986563.1968966,-1.156678540947716,-3.4067497866340126,8.906642918104568,0.5933333333333334,0.21666666666666667,-0.6355555555555555,-0.00836044543288176,-0.027262997863638186,0.34209637713599816
1589986563.2068965,-1.1267298347910593,-3.2669193391642373,8.906037900874637,0.5933333333333334,0.21666666666666667,-0.6355555555555555,-0.010325153292941917,-0.03366479769429247,0.396135993729756
1589986563.2168965,-1.1136250393205411,-3.228125196602705,8.844583202264863,0.6589353745063088,0.22120834644018034,-0.6592732165950159,-0.012394569055321636,-0.038969938283097194,0.4327507919619718
1589986563.2268965,-1.1627743440233236,-3.326387172011662,8.863742274052479,0.7377777777777778,0.22666666666666666,-0.6877777777777778,-0.012840127797325046,-0.04209550972565215,0.46372278772324793
1589986563.2368965,-1.21,-3.355121768894834,8.939269386630995,0.7377777777777778,0.22666666666666666,-0.6877777777777778,-0.01230505361779405,-0.04256896636912892,0.4952234846124965
1589986563.2468965,-1.2044055859137826,-3.336433515482696,8.833216757741347,0.7377777777777778,0.22666666666666666,-0.6877777777777778,-0.018193229466030147,-0.04398412513626784,0.5543327838745378
1589986563.2568965,-1.177262914565184,-3.287262914565184,8.779073246217331,0.7377777777777778,0.22666666666666666,-0.6877777777777778,-0.020131000338867187,-0.04700681680274059,0.6017530583625396
1589986563.2668965,-1.1749226927368364,-3.2956038467669093,8.819009616917274,0.9957078676891652,0.25831453045947494,-0.8923020975388012,-0.02344442890943687,-0.05235987755982988,0.6804523134431613
1589986563.2768965,-1.2488824233195561,-3.364813737219926,8.90779394170111,1.4622222222222223,0.31555555555555553,-1.262222222222222,-0.02836160034490785,-0.05235987755982988,0.7668540400950085
1589986563.2868965,-1.2847581400187247,-3.3652418599812752,8.834758140018725,1.4622222222222223,0.31555555555555553,-1.262222222222222,-0.027842567784922542,-0.05651213803971237,0.7964388960141712
1589986563.2968965,-1.2928735651905359,-3.3341379132851774,8.791149391760891,1.4622222222222223,0.31555555555555553,-1.262222222222222,-0.026330397552807364,-0.0642210971851483,0.8603771283507743
1589986563.3068964,-1.3012545696812328,-3.2711151730499846,8.671951552837474,1.4622222222222223,0.31555555555555553,-1.262222222222222,-0.023967865587653688,-0.07199483164476607,0.9387683229332213
1589986563.3168964,-1.3813461665674407,-3.341346166567441,8.831634583581398,1.1872226264764467,0.06699822863148922,-1.085299405378786,-0.02276060243941239,-0.0748267920132159,1.0057879059629315
1589986563.3268964,-1.391325132792843,-3.356656415991054,8.923975398378529,0.8266666666666667,-0.2588888888888889,-0.8533333333333334,-0.025161382779484927,-0.07912136912202627,1.058023520662246
1589986563.3368964,-1.376008016128258,-3.30230403686459,8.82460807372918,0.8266666666666667,-0.2588888888888889,-0.8533333333333334,-0.02617993877991494,-0.08227918300548552,1.1011107617374452
1589986563.3468964,-1.3618544881084307,-3.2331126928650584,8.71682166908192,0.8266666666666667,-0.2588888888888889,-0.8533333333333334,-0.02617993877991494,-0.08460801006743598,1.140243389826415
1589986563.3568964,-1.39,-3.266413698340556,8.796565479336222,0.8266666666666667,-0.2588888888888889,-0.8533333333333334,-0.028328486868453677,-0.08578442699267605,1.1721194324533295
1589986563.3668964,-1.414154561498778,-3.3103519549280476,8.872111729568287,0.7511357362657254,-0.14693441337074245,-0.8126923250972939,-0.03272492347489368,-0.08794249335210534,1.2031554763330492
1589986563.3768964,-1.4711938970539775,-3.3486564950899624,8.96014960785606,0.6077777777777778,0.06555555555555556,-0.7355555555555555,-0.03353896664039868,-0.08874799527949608,1.2266147353890606
1589986563.3868964,-1.4777172799621778,-3.3707879599716333,8.8823638799149,0.6077777777777778,0.06555555555555556,-0.7355555555555555,-0.03373422774275788,-0.09423235962168955,1.234485486558237
1589986563.3968964,-1.3952717717357395,-3.2709059057857983,8.73981881884284,0.6077777777777778,0.06555555555555556,-0.7355555555555555,-0.031555037499021985,-0.09214555542343482,1.2246057818398504
1589986563.4068964,-1.3840160409159594,-3.2240160409159597,8.818272695571313,0.6077777777777778,0.06555555555555556,-0.7355555555555555,-0.03293084108395728,-0.09249720097822703,1.2022576951078878
1589986563.4168963,-1.3932189028651292,-3.2332189028651293,8.913562194269742,0.5956174780650672,0.08093475813339546,-0.7337672761860392,-0.028712728178022756,-0.08913444361474622,1.1641644736210315
1589986563.4268963,-1.4045832923832924,-3.2170835380835383,8.886250122850123,0.57,0.11333333333333333,-0.73,-0.029452431127404314,-0.08367583360878159,1.094921692749948
1589986563.4368963,-1.454743529200117,-3.2213204704400815,8.829730823719894,0.57,0.11333333333333333,-0.73,-0.029452431127404314,-0.07779302076659675,1.0212707879885676
1589986563.4468963,-1.5276230090291163,-3.2335654864563255,8.806434513543675,0.57,0.11333333333333333,-0.73,-0.024165907926881707,-0.07033174906392438,0.9385859913862867
1589986563.4568963,-1.5347347816074308,-3.207632609196285,8.855265218392569,0.57,0.11333333333333333,-0.73,-0.017869586773046935,-0.06253578717806187,0.852134951185202
1589986563.4668963,-1.5041946849805912,-3.2054867124514783,8.897415945058226,0.5722576225075479,0.09946508078696792,-0.7341927275140174,-0.01727760003738773,-0.055914246574734136,0.7665779286425385
1589986563.4768963,-1.4612013582342953,-3.1494295415959255,8.886516808149405,0.5777777777777777,0.06555555555555556,-0.7444444444444445,-0.010141800109752956,-0.04723004671463246,0.6597300865227076
1589986563.4868963,-1.4663015223757776,-3.143150761187889,8.78299077861413,0.5777777777777777,0.06555555555555556,-0.7444444444444445,-0.0035215376985867144,-0.03850532072496844,0.5666117564546789
1589986563.4968963,-1.517339807153115,-3.142233011921858,8.823087373771912,0.5777777777777777,0.06555555555555556,-0.7444444444444445,-0.001769687633414775,-0.033403780325811996,0.4696015950750036
1589986563.5068963,-2.0424739326089343,-3.6639015109940365,8.357349357919,0.5777777777777777,0.06555555555555556,-0.7444444444444445,-0.15389745424049145,0.4701052848830592,0.3307005191026305
1589986563.5168962,-3.805071578874746,-5.359296284797682,5.7296146814308875,0.5729232927432244,0.06386384107381728,-0.7383395617494759,-0.5903700069959162,1.6974302698925756,-0.08757483330110519
1589986563.5268962,-6.112458383811191,-4.524411989051913,-5.547425629290617,0.5044444444444445,0.04,-0.6522222222222223,-0.6757705018166478,-0.7170172134620378,-3.3727678249264215
1589986563.5368962,-2.717565995798191,-0.17182291508083913,-0.17417014280059678,0.5044444444444445,0.04,-0.6522222222222223,-0.334508940620682,-1.121788980586539,-3.8734880298863676
1589986563.5468962,-0.003269605930550132,-0.36,0.20006882559500586,0.5044444444444445,0.04,-0.6522222222222223,-0.34072005432126223,-0.698833339500343,-3.714688027034359
1589986563.5568962,-0.16691767460007806,-0.36,0.02332891143191579,0.5044444444444445,0.04,-0.6522222222222223,-0.2964489913226601,-0.7645258845950428,-3.5975839249090247
1589986563.5668962,0.11236988523210216,-0.04769950931077669,0.07993060545712116,0.5027719948992045,0.07094031658693822,-0.6522222222222223,-0.2773484575561932,-0.6555249572323869,-3.3358600820730078
1589986563.5768962,0.01644744280707044,-0.1747695322805563,0.059062676666792296,0.4977777777777778,0.16333333333333333,-0.6522222222222223,-0.27336072227579955,-0.5882950353833042,-3.143930212728646
1589986563.5868962,2.806794373559858,-1.1409481720947827,4.224845926333527,0.4977777777777778,0.16333333333333333,-0.6522222222222223,0.5562462676072548,0.34010595310233027,-2.9911082760337493
1589986563.5968962,6.737672846072025,-1.72142607506458,13.247526971584866,0.4977777777777778,0.16333333333333333,-0.6522222222222223,1.976380422365791,2.2680325385632347,-2.96884333037107
1589986563.6068962,2.35,5.07,21.85,0.4977777777777778,0.16333333333333333,-0.6522222222222223,1.9449512851911808,3.894265893512348,-2.7739826798884875
1589986563.6168962,2.3216418712068316,1.9931430259412433,16.617925237660454,0.47572145538309135,0.1916914621265016,-0.6443449642241199,0.8302990409533286,1.836644660046451,-2.174895766010419
1589986563.6268961,2.29,-1.44,10.78,0.4511111111111111,0.22333333333333333,-0.6355555555555555,-0.4134248665661568,-0.45923975943100803,-1.5064373106276057
1589986563.6368961,2.3995078070379865,0.07319878816126768,13.448008389652763,0.4511111111111111,0.22333333333333333,-0.6355555555555555,1.0048256771972734,0.6104208727336005,-1.4065299216335507
1589986563.6468961,-0.09766998407643313,0.6126214171974522,-0.5011238057324843,0.4511111111111111,0.22333333333333333,-0.6355555555555555,0.8163863123044304,0.046368645816220355,-1.2054951190256367
1589986563.656896,1.0722186726742253,-0.3384837685120213,5.17319551649001,0.4511111111111111,0.22333333333333333,-0.6355555555555555,-0.3771018371307617,-0.16069270498174598,-0.9458776534027803
1589986563.666896,1.5136913247405548,-2.23604165897256,12.616269527643386,0.4511111111111111,0.22333333333333333,-0.6355555555555555,-0.9406255148893018,0.1485271841631202,-0.7084711264910115
1589986563.676896,-0.0453460635273761,-2.533031145717464,10.140931281670992,0.4666666666666667,0.23777777777777775,-0.62,0.09618832860669775,0.09417330489205283,-0.5011729745707019
1589986563.686896,-0.13350154719527232,-1.9070284544333542,6.695833042507154,0.4666666666666667,0.23777777777777775,-0.62,0.26607568506298085,0.14916088796436827,-0.328920694801156
1589986563.696896,-0.39102293097427543,-2.7090443487370504,9.439596321732045,0.4666666666666667,0.23777777777777775,-0.62,-0.16051074053314762,-0.0645675069302823,-0.23096540697880705
1589986563.706896,-0.5407079721593578,-2.473923310132798,9.244837952090183,0.4666666666666667,0.23777777777777775,-0.62,-0.16239549389829444,-0.04641664541103466,-0.07134808390084178
1589986563.716896,-0.4898395721925134,-2.3409358288770052,7.912967914438502,0.46497326203208555,0.2431402257872846,-0.6245157456922162,0.17313876179292675,0.06612067871442422,0.1067847502908028
1589986563.726896,-0.5296447675216021,-2.4280715951172676,8.539172952955699,0.46,0.2588888888888889,-0.6377777777777778,-0.01403133645667914,-0.03334327536408005,0.2230703318139876
1589986563.736896,-0.6581382009582293,-3.0565547607800796,10.8120156555773,0.46,0.2588888888888889,-0.6377777777777778,-0.03588541777693003,-0.05112668449017855,0.3384349429250612
1589986563.746896,-0.63,-2.7398133191100276,9.182146830234684,0.46,0.2588888888888889,-0.6377777777777778,0.05117878144437159,0.008258280559014048,0.43829878400460826
1589986563.756896,-0.6204876993540109,-2.6557919706395743,9.141277506750809,0.46,0.2588888888888889,-0.6377777777777778,-0.061984328540277224,-0.04171097749379047,0.5584724057629142
1589986563.766896,-0.595457936117203,-2.4868410687911204,8.434186695310984,0.46,0.2588888888888889,-0.6377777777777778,-0.02990302598494004,-0.04239355839922317,0.6301434008333484
1589986563.776896,-0.7132811597247755,-2.7850170702242765,9.24126634802248,0.4488888888888889,0.26666666666666666,-0.6377777777777778,-0.020367865864425398,-0.05647889676331931,0.7775046943652231
1589986563.786896,-0.7236074495102189,-2.810919095416616,9.313289394122627,0.4488888888888889,0.26666666666666666,-0.6377777777777778,-0.012004415331526786,-0.06143782172448022,0.8783381597126814
1589986563.796896,-0.6417228556652793,-2.5568914226611175,8.36592188538922,0.4488888888888889,0.26666666666666666,-0.6377777777777778,-0.024428167751339172,-0.07115458006140099,0.9654133950608953
1589986563.806896,-0.6758623112649745,-2.728314795454935,8.875213285574732,0.4488888888888889,0.26666666666666666,-0.6377777777777778,-0.043077449566960725,-0.07465717738737214,1.0375052367462703
1589986563.816896,-0.611167629265283,-2.562983941455723,8.192324975577987,0.4488888888888889,0.26666666666666666,-0.6377777777777778,-0.02112204271702383,-0.061327108942767605,1.0963143622371725
1589986563.826896,-0.6816705388593269,-2.7891763471483175,9.079422918384171,0.4688888888888889,0.27555555555555555,-0.6466666666666666,-0.021068411848579528,-0.08360768714892981,1.1844574679258701
1589986563.836896,-0.6721428741516847,-2.797922133587332,8.727337778306941,0.4688888888888889,0.27555555555555555,-0.6466666666666666,-0.0024154128737602794,-0.08332105532779913,1.245643762580584
1589986563.846896,-0.6871040306088791,-3.00236801020296,8.932572948963212,0.4688888888888889,0.27555555555555555,-0.6466666666666666,-0.02097291703428758,-0.0855326516304091,1.2979455041553867
1589986563.856896,-2.1800102997435573,-9.876689368142262,6.609806196662043,0.4688888888888889,0.27555555555555555,-0.6466666666666666,-0.10566856282512291,-0.014966444136204266,1.1763473162592164
1589986563.866896,-5.658760890609874,-24.964147144240076,2.905163601161665,0.47424782187802517,0.27315327525008065,-0.6536887167903624,-0.36290028803825225,0.09274828327551085,0.03224867499192585
1589986563.876896,-0.4873684908965444,-3.4700538775943524,11.356547587451564,0.5011111111111111,0.2611111111111111,-0.6888888888888889,-0.5274192310600807,-0.23693500055478944,-3.644370683734466
1589986563.886896,0.5975473865594486,-2.534371689322867,13.185939753653711,0.5011111111111111,0.2611111111111111,-0.6888888888888889,0.594117027952954,0.49010722830715325,-3.950381267055442
1589986563.896896,0.7606568935632657,-0.06048561943652872,5.955426422632862,0.5011111111111111,0.2611111111111111,-0.6888888888888889,1.124776164842662,0.595543326285994,-3.6300897130152516
1589986563.9068959,0.5511587711636032,-1.310729830691174,4.922585351348338,0.5011111111111111,0.2611111111111111,-0.6888888888888889,0.22436662136752356,0.10128442981651387,-3.329335665866219
1589986563.9168959,0.33177446102819236,-2.3885682697622994,8.467716970702044,0.5012044714698114,0.26559240832872677,-0.687768564584485,-0.5062950275969067,0.05144090237324912,-3.076137379621188
1589986563.9268959,-0.4891285392496427,-2.5121713856661905,8.9766185482113,0.5022222222222222,0.3144444444444445,-0.6755555555555556,-0.058297952721427015,0.28245407460579547,-2.6094793369831004
1589986563.9368958,-0.2568400911733339,-2.1027360364693335,7.090390205140001,0.5022222222222222,0.3144444444444445,-0.6755555555555556,0.23771255942265293,0.24150367598692657,-2.3360621942795348
1589986563.9468958,-0.5816412471318667,-2.3540099878526117,8.299068700229451,0.5022222222222222,0.3144444444444445,-0.6755555555555556,-0.023942918546516218,0.10697709316220747,-2.195978995070367
1589986563.9568958,-0.6062800574476815,-2.7948256052523592,9.920897414854329,0.5022222222222222,0.3144444444444445,-0.6755555555555556,0.051711399473600206,0.11758235992366359,-1.9821403788109537
1589986563.9668958,-0.2708793964322636,-2.390550117678112,7.694288542331127,0.49587293207907773,0.32103793805463304,-0.6770207763578197,0.11779746367047651,0.1556050928176609,-1.800194203742984
1589986563.9768958,-0.43421176470588235,-2.7893882352941173,9.380317647058824,0.4444444444444444,0.3744444444444445,-0.6888888888888889,-0.0454953436120963,0.08333818845239689,-1.642821958367639
1589986563.9868958,0.7826895240880178,-5.232077637254186,8.284420644783976,0.4444444444444444,0.3744444444444445,-0.6888888888888889,0.044179723247548,0.10152014963050812,-1.392808851591973
1589986563.9968958,3.21,-11.07,8.03,0.4444444444444444,0.3744444444444445,-0.6888888888888889,0.03817907738737596,0.07526732399225547,-1.2675453692608818
1589986564.0068958,-3.212563991233511,-21.824007774056152,6.774271182235454,0.4444444444444444,0.3744444444444445,-0.6888888888888889,-0.07054546517709108,0.005194628836722722,-1.9005173986215336
1589986564.0168958,-10.713844849687797,-17.31456725799115,10.10431956332961,0.4444444444444444,0.3744444444444445,-0.6888888888888889,-0.20960284391435655,0.14614394469966524,-1.989438443528356
1589986564.0268958,2.568406254194068,1.4263471346128036,11.103369346396457,0.4033333333333333,0.3944444444444444,-0.6888888888888889,0.39026971033853813,0.022196781377274134,0.8187141426469539
1589986564.0368958,0.16193296201852148,-0.7338496510535495,4.4468671990336865,0.4033333333333333,0.3944444444444444,-0.6888888888888889,0.5652733866292496,0.230205536968427,0.9791341792467728
1589986564.0468957,3.3479414248255637,-4.598209857339674,7.905569974667793,0.4033333333333333,0.3944444444444444,-0.6888888888888889,-0.09726932415452927,-0.18675652256530284,0.9376727788329429
1589986564.0568957,1.8806045427887588,-4.94854760734835,10.567053844568784,0.4033333333333333,0.3944444444444444,-0.6888888888888889,-0.32880107808756354,-0.20387023718800384,-0.012638656719211022
1589986564.0668957,0.45123571462537027,-2.9939688376737625,8.84516302366498,0.4033333333333333,0.3944444444444444,-0.6888888888888889,0.02945220635287671,0.19571996468787184,-0.38394570456031507
1589986564.0768957,0.06791185150453705,-3.045855145213338,7.745414402736023,0.4122222222222222,0.4033333333333333,-0.6966666666666667,0.11737019705556724,0.17564093513014367,-0.5191095422489141
1589986564.0868957,-0.3828309351611521,-5.52902502330973,9.764832295945368,0.4122222222222222,0.4033333333333333,-0.6966666666666667,-0.14912915500492158,-0.07799928017798763,-0.5628899049803802
1589986564.0968957,-1.1477974390322374,-6.5425455247410085,9.106690903631256,0.4122222222222222,0.4033333333333333,-0.6966666666666667,-0.045422761858381365,0.011063007718447745,-0.42708660788547637
1589986564.1068957,0.9777692551505546,-2.313159640781828,9.17850818806128,0.4122222222222222,0.4033333333333333,-0.6966666666666667,0.053683303660364834,0.004141469008875873,0.017655946175299
1589986564.1168957,-0.1263239708609778,-3.853176421100935,7.94274564539875,0.4110964311283617,0.40364605308162793,-0.6950405239755347,0.08224963378326267,0.044359402029943304,0.08991802756100477
1589986564.1268957,-0.3588906521863827,-4.895716716697578,9.121618133496492,0.39505734965764416,0.40810135349016063,-0.671872961851165,-0.03584785180752133,-0.022999904566281648,-0.058797324664426956
1589986564.1368957,0.006279409971961476,-4.236512251615262,8.508915843796986,0.3922222222222223,0.4088888888888889,-0.6677777777777778,-0.0013022238501434794,-0.0015136169177905028,0.004363323129985824
1589986564.1468956,0.13608627038400842,-4.4875508735014815,8.947046429856863,0.3922222222222223,0.4088888888888889,-0.6677777777777778,0.0031402420638006728,0.00545415391248228,0.0040437962970499034
1589986564.1568956,-0.021162113521929912,-4.32486239459689,8.57623844862799,0.3922222222222223,0.4088888888888889,-0.6677777777777778,0.013777162122408376,0.004146493684008023,0.0001868086040677509
1589986564.1668956,0.06901744320073769,-4.2997543608001845,8.800245639199817,0.39271350062185345,0.4088888888888889,-0.6682963494218329,0.00641100929470542,-0.002101276324828923,0.0010372406223871297
1589986564.1768956,0.035908638763486114,-4.299847731272477,8.81886295814523,0.4122222222222222,0.4088888888888889,-0.6888888888888889,-0.00019823422667603345,0.0007685645302033335,-0.001090830782496456
1589986564.1868956,0.07919309166647165,-4.39,8.858316210713534,0.4122222222222222,0.4088888888888889,-0.6888888888888889,-0.011662324085351582,-0.002181661564992912,-0.001090830782496456
1589986564.1968956,0.025876729305242922,-4.388530817673689,8.631469182326311,0.4122222222222222,0.4088888888888889,-0.6888888888888889,-0.009176425319812305,-0.002021398634328962,-0.0007703049211685562
1589986564.2068956,0.06,-4.374265966173878,8.661502626847957,0.4122222222222222,0.4088888888888889,-0.6888888888888889,-0.004046810276265106,-0.0006217162370907314,0.0012472022976316975
1589986564.2168956,0.06,-4.34498280767284,8.771314471226852,0.4122222222222222,0.4088888888888889,-0.6888888888888889,0.003140358131607404,0.0017740065655334387,0.002045776565173087
1589986564.2268956,0.059246609153522485,-4.3669864366140905,8.822260172539433,0.4188888888888889,0.4155555555555556,-0.7122222222222222,0.003272492347489368,0.0012551951678142033,0.0
1589986564.2368956,0.05,-4.331592871690428,8.843628513238288,0.4188888888888889,0.4155555555555556,-0.7122222222222222,0.0030408185511579416,0.0033304107965722246,-5.791844908285664e-05
1589986564.2468956,0.05,-4.357219959266803,8.741120162932791,0.4188888888888889,0.4155555555555556,-0.7122222222222222,-0.000686490248047668,0.004262237996373626,-0.000989745648884259
1589986564.2568955,0.05780826494602101,-4.352191735053979,8.706575205161936,0.4188888888888889,0.4155555555555556,-0.7122222222222222,0.0023161675219066412,0.001808074401683501,-0.0019425803585972302
1589986564.2668955,0.026212361331220284,-4.35,8.776022187004754,0.4188888888888889,0.4155555555555556,-0.7122222222222222,0.006958151980266617,0.001090830782496456,-0.00033883174860428744
1589986564.2768955,0.02,-4.31165323435843,8.85135482502651,0.4137759868033463,0.42066845764109817,-0.7011442677035467,0.006799218830055163,0.00025423413507642747,0.001673193294840057
1589986564.2868955,0.04,-4.315982528802156,8.797037854261996,0.4122222222222222,0.4222222222222222,-0.6977777777777778,-0.003816319562036307,-0.00010876544290938783,-0.00021753088581877566
1589986564.2968955,0.04,-4.361497712105044,8.698421623772404,0.4122222222222222,0.4222222222222222,-0.6977777777777778,-0.007953766480182919,-0.0009362548265387101,-0.0018725096530774201
1589986564.3068955,0.058783844457024614,-4.399391922228513,8.666080777714877,0.4122222222222222,0.4222222222222222,-0.6977777777777778,-0.008262329294068213,-0.0020489995747347877,-0.00211533056986385
1589986564.3168955,0.04240849551994066,-4.39120424775997,8.747957522400297,0.4122222222222222,0.4222222222222222,-0.6977777777777778,-0.0020103721509260814,-0.00026272610526560745,-0.0012221938351292597
1589986564.3268955,0.05841549365289321,-4.34,8.828415493652892,0.4,0.4211111111111111,-0.6888888888888889,0.007462972647626682,8.642141492425479e-05,-0.0008315665377236916
1589986564.3368955,0.04185457919570411,-4.34,8.811854579195705,0.4,0.4211111111111111,-0.6888888888888889,0.0056564571200074356,0.0009896791787338782,0.0018782067537051787
1589986564.3468955,0.04,-4.3791877531695516,8.702233678783733,0.4,0.4211111111111111,-0.6888888888888889,0.0011794331670603219,-0.001046529590214523,4.430119228193306e-05
1589986564.3568954,0.04,-4.350719929277861,8.712519752472513,0.4,0.4211111111111111,-0.6888888888888889,0.0011300968333719983,3.926605087554235e-05,-0.0021031294632418273
1589986564.3668954,0.04,-4.362307033537764,8.753074617382175,0.4,0.4211111111111111,-0.6888888888888889,0.0017620753337069456,0.0006712445512104897,-0.0008391724625719326
1589986564.3768954,0.028604228141800397,-4.3586042281418,8.802791543716399,0.410762673421633,0.41098153612604477,-0.6812917076500892,0.0028032045016544603,-0.0001522550908266407,0.0
1589986564.3868954,0.060374914010548036,-4.330749828021096,8.76625085989452,0.4188888888888889,0.4033333333333333,-0.6755555555555556,-0.00016358709739800096,0.0,-0.0010499340081469557
1589986564.3968954,0.06838970419628526,-4.34677940839257,8.686102958037146,0.4188888888888889,0.4033333333333333,-0.6755555555555556,-0.0036606990373390584,0.0,-0.00017565602316169137
1589986564.4068954,0.06961371855502127,-4.35012876048166,8.74987123951834,0.4188888888888889,0.4033333333333333,-0.6755555555555556,-0.008684509490882645,0.0032444011680967002,-0.004307140771200488
1589986564.4168954,0.044610936692763184,-4.358463021102413,8.741536978897589,0.4188888888888889,0.4033333333333333,-0.6755555555555556,-0.005957129080543128,0.0014261475612036883,-0.0006706335574144648
1589986564.4268954,0.04670679345162239,-4.353293206548377,8.786947554161356,0.40100410635122924,0.4070593296953458,-0.6844979468243854,-0.0017961655380446008,0.0018224284573839919,-0.0014631953497750718
1589986564.4368954,0.03991651701208562,-4.379582585060428,8.80924865310877,0.3922222222222223,0.4088888888888889,-0.6888888888888889,0.006526771532372378,0.002181661564992912,-0.001118150526405992
1589986564.4468954,0.0331306120467893,-4.345653060233946,8.748175508421104,0.3922222222222223,0.4088888888888889,-0.6888888888888889,0.005046316727724225,0.002181661564992912,-0.0033388327333782218
1589986564.4568954,0.03831633967681378,-4.354949019030442,8.736632679353628,0.3922222222222223,0.4088888888888889,-0.6888888888888889,0.0016418073348362936,0.001274489633276402,0.00017253652859672633
1589986564.4668953,0.04,-4.344195478864006,8.78741356340798,0.3922222222222223,0.4088888888888889,-0.6888888888888889,0.001090830782496456,0.00022882787460857374,-0.0006331750332793085
1589986564.4768953,0.05954965951432609,-4.378198638057304,8.792251702428368,0.3922222222222223,0.4088888888888889,-0.6966666666666667,0.001139955308934206,0.0009434572031832061,-0.002132537038555162
1589986564.4868953,0.05056790440704099,-4.342271617628164,8.837160477964796,0.3922222222222223,0.4088888888888889,-0.6966666666666667,0.0021197128041213417,-0.0019958152823782004,-0.0011527795433680264
1589986564.4968953,0.040356827909577786,-4.349286344180844,8.711427311638312,0.3922222222222223,0.4088888888888889,-0.6966666666666667,-0.0002335433206927865,0.0,-0.0010519068957143248
1589986564.5068953,0.04937818596347838,-4.331243628073043,8.747512743853914,0.3922222222222223,0.4088888888888889,-0.6966666666666667,-0.006138008359763036,0.0,-6.782938920261647e-05
1589986564.5168953,0.05565127418491238,-4.3639076451094745,8.755651274184912,0.3922222222222223,0.4088888888888889,-0.6966666666666667,-0.006544984694978735,-0.001849375152368997,-0.000616458384122999
1589986564.5268953,0.05063105648782794,-4.385315528243914,8.764684471756086,0.3854557630189869,0.41201187005961293,-0.6997896478373907,-0.0034790051002144117,-0.001739502550107206,-0.001090830782496456
1589986564.5368953,0.04950081466395112,-4.369168024439919,8.779168024439917,0.37777777777777777,0.4155555555555556,-0.7033333333333334,0.004381474021010256,0.002145359782944048,-0.001072679891472024
1589986564.5468953,0.023873727087576374,-4.326456211812627,8.736456211812628,0.37777777777777777,0.4155555555555556,-0.7033333333333334,0.0053133012208116575,0.00028170538334124345,-0.00014085269167062172
1589986564.5568953,0.042170122672644625,-4.342170122672645,8.744780081781764,0.37777777777777777,0.4155555555555556,-0.7033333333333334,0.0014235118686417208,0.0,0.0
1589986564.5668952,0.05,-4.35,8.778631035071044,0.37777777777777777,0.4155555555555556,-0.7033333333333334,0.0007807903597557558,0.0,-0.0007807903597557558
1589986564.5768952,0.038091005623943054,-4.355954497188028,8.801908994376056,0.3910099937511744,0.4155555555555556,-0.6907627281586065,-0.00020823898290155325,0.0006495348826990046,-0.00044129589979745136
1589986564.5868952,0.03751195163104612,-4.367511951631046,8.81,0.4,0.4155555555555556,-0.6822222222222222,0.0005480228326574573,-0.001367449640234414,-0.0008194268075769566
1589986564.5968952,0.04607203190581515,-4.357855936188369,8.761423744753479,0.4,0.4155555555555556,-0.6822222222222222,0.002415542645529213,-0.0015193056334765335,-0.0004284748509800775
1589986564.6068952,0.04224222782379066,-4.3655155443524185,8.761031088704836,0.4,0.4155555555555556,-0.6822222222222222,0.0015800090088086344,-0.001090830782496456,-0.0008462416693403667
1589986564.6168952,0.052291222729578896,-4.363854388635211,8.77614561136479,0.4,0.4155555555555556,-0.6822222222222222,-0.002931462449886975,-0.0004204485770992175,-0.001090830782496456
1589986564.6268952,0.053081924577373214,-4.366918075422627,8.793836150845253,0.39000722438953905,0.4109435052738044,-0.6922149978326831,-0.006963443837808976,-0.0007546449626633479,-0.0026001207078231526
1589986564.6368952,0.05663416861919701,-4.376634168619197,8.760194988284818,0.3855555555555555,0.4088888888888889,-0.6966666666666667,-0.0032937622698199246,0.0003565202867219662,-0.0003777902090525238
1589986564.6468952,0.05191249757297262,-4.371912497572973,8.715737492718919,0.3855555555555555,0.4088888888888889,-0.6966666666666667,0.003320217517961674,0.00020862112240482996,-0.000673588537686796
1589986564.6568952,0.04337031517359386,-4.350110945520782,8.72988905447922,0.3855555555555555,0.4088888888888889,-0.6966666666666667,0.0050865095586751724,0.0007231864286893489,-0.001090830782496456
1589986564.6668952,0.046435576137292295,-4.34,8.772177880686462,0.3855555555555555,0.4088888888888889,-0.6966666666666667,0.003348116546384859,0.001090830782496456,-0.001090830782496456
1589986564.6768951,0.05,-4.352114775088684,8.802114775088684,0.38959381391845027,0.4169654056146783,-0.6879171068803948,-0.00046137235295866125,0.00043007230300856267,-0.001090830782496456
1589986564.6868951,0.05900186567164179,-4.350998134328358,8.782994402985073,0.3922222222222223,0.4222222222222222,-0.6822222222222222,-0.0002177591300879119,0.0009819512174525,0.0008730716524085441
1589986564.6968951,0.041056961416337925,-4.35,8.713699364957183,0.3922222222222223,0.4222222222222222,-0.6822222222222222,0.0010331824800538332,-0.0009755341776112104,-0.0009755341776112104
1589986564.706895,0.05866579002982131,-4.35,8.728665790029822,0.3922222222222223,0.4222222222222222,-0.6822222222222222,0.002108891699703682,-0.001090830782496456,-0.002108891699703682
1589986564.716895,0.05267519622351685,-4.357324803776483,8.788598430211866,0.3922222222222223,0.4222222222222222,-0.6822222222222222,-0.0010143870090607325,-0.00029181863898304487,-0.0005836372779660897
1589986564.726895,0.05,-4.365263638612449,8.799472722775104,0.3963161633652377,0.41227979373204193,-0.6857313146305212,-0.002755835467632475,0.0,-0.0005741739026395632
1589986564.736895,0.04302319872345649,-4.3630231987234565,8.81093040382963,0.4,0.4033333333333333,-0.6888888888888889,-0.004033543307070791,0.0,-0.00032977982291503265
1589986564.746895,0.05105975738565439,-4.36,8.753641455686074,0.4,0.4033333333333333,-0.6888888888888889,-0.0013472421791822409,-0.0012064323803214333,-0.0012064323803214333
1589986564.756895,0.05508230669334176,-4.36,8.734423853146607,0.4,0.4033333333333333,-0.6888888888888889,0.0021637050300523752,-0.002181661564992912,-0.0027180986887708715
1589986564.766895,0.044828060263653484,-4.36,8.790687758945387,0.4,0.4033333333333333,-0.6888888888888889,0.0038366634544517064,0.0012033650767811184,-0.002144150133564691
1589986564.776895,0.05760907127429806,-4.3541303095752335,8.798260619150467,0.407174066074714,0.41050739940804737,-0.6849757619390449,0.0011619036304560885,0.0018021875303620353,-0.00045054688259050883
1589986564.786895,0.052742651084637604,-4.355752449638454,8.784247550361545,0.4122222222222222,0.4155555555555556,-0.6822222222222222,-0.0004633358684578184,-0.0018824847421159128,0.0
1589986564.796895,0.032584188246062316,-4.374831623507875,8.705841882460623,0.4122222222222222,0.4155555555555556,-0.6822222222222222,0.0016178791476788518,-3.673405213166451e-05,-0.0008089395738394259
1589986564.806895,0.04238252847661133,-4.349043678808472,8.729530113906446,0.4122222222222222,0.4155555555555556,-0.6822222222222222,0.002181661564992912,0.001090830782496456,-0.0017661929438677851
1589986564.816895,0.05,-4.3472773933756805,8.788795655626135,0.4122222222222222,0.4155555555555556,-0.6822222222222222,0.0009252140626267297,0.001090830782496456,-0.0009252140626267297
1589986564.826895,0.05,-4.36,8.802557703444283,0.40312608198745586,0.4105940245184103,-0.6937991279755613,-0.003247314470177796,0.001090830782496456,-0.001623657235088898
1589986564.836895,0.05885527635466645,-4.36,8.782289447290667,0.4,0.4088888888888889,-0.6977777777777778,-0.004363323129985824,0.002056791586014773,-0.00024973995795627845
1589986564.846895,0.06,-4.37635307378826,8.698234631058702,0.4,0.4088888888888889,-0.6977777777777778,0.0009882077530150848,0.001289739751159427,0.0017838436276669696
1589986564.856895,0.06,-4.37158379558746,8.738913430887779,0.4,0.4088888888888889,-0.6977777777777778,0.004017792533989106,-0.0007453001864997373,0.0003455305959967187
1589986564.866895,0.06,-4.356042148145247,8.79187355556426,0.4,0.4088888888888889,-0.6977777777777778,0.0028407576839167958,-0.000329548059461942,0.0007612827230345139
1589986564.876895,0.03458582244513305,-4.3415286074817105,8.801528607481712,0.3877635441402492,0.4192428130779087,-0.6846000560826615,0.0031057471379488913,0.0,-0.0016814259363714817
1589986564.886895,0.03,-4.355934303908746,8.74422993631939,0.3855555555555555,0.4211111111111111,-0.6822222222222222,0.0015343294273580052,0.0008690814600656813,-0.0013125801049272308
1589986564.896895,0.04528306772439444,-4.36,8.691792330689013,0.3855555555555555,0.4211111111111111,-0.6822222222222222,-0.0005762932899782951,0.001090830782496456,-0.0019243928187338316
1589986564.906895,0.05645777283301305,-4.36,8.718746636998079,0.3855555555555555,0.4211111111111111,-0.6822222222222222,-0.0017952645217584537,0.001090830782496456,-0.002181661564992912
1589986564.916895,0.051869280175713,-4.355934640087857,8.760326799560717,0.3855555555555555,0.4211111111111111,-0.6822222222222222,-0.0017381995915835902,0.0006473688090871343,-0.0012947376181742685
1589986564.926895,0.04756052515357129,-4.34747982494881,8.797560525153571,0.3855555555555555,0.41803089715965613,-0.6897827473757935,-0.001090830782496456,0.0,0.0
1589986564.936895,0.07,-4.349759293369056,8.805361059946417,0.3855555555555555,0.4088888888888889,-0.7122222222222222,-0.002155404544734395,0.0010645737622379386,0.0005322868811189693
1589986564.946895,0.06418844338054391,-4.36,8.737695990424895,0.3855555555555555,0.4088888888888889,-0.7122222222222222,-0.003272492347489368,0.0002798341085757912,0.00045688829702408243
1589986564.9568949,0.06,-4.370928015491751,8.694535992254124,0.3855555555555555,0.4088888888888889,-0.7122222222222222,-0.0014843999939892843,0.00010123078650359977,-0.0011920615690000557
1589986564.9668949,0.06488144816480648,-4.370237103670387,8.743695929812871,0.3855555555555555,0.4088888888888889,-0.7122222222222222,0.0015974501763995244,-0.0005066193939030684,-0.0005842113885933876
1589986564.9768949,0.06014815280484483,-4.350148152804845,8.809851847195155,0.39486007790653543,0.4088888888888889,-0.7045596744037682,0.003272492347489368,-0.0011069917465002489,0.001090830782496456
1589986564.9868948,0.05,-4.347047903001391,8.82,0.4044444444444445,0.4088888888888889,-0.6966666666666667,0.003272492347489368,0.0007688069545966872,0.00032202382789976876
1589986564.9968948,0.05,-4.343840869347988,8.733772170871847,0.4044444444444445,0.4088888888888889,-0.6966666666666667,0.0012569215549000506,0.0004189738516333503,0.0
1589986565.0068948,0.05,-4.34,8.705826771653543,0.4044444444444445,0.4088888888888889,-0.6966666666666667,0.0007043159383047984,0.0007043159383047984,0.0007043159383047984
1589986565.0168948,0.05625022875617641,-4.346250228756176,8.757501372537059,0.4044444444444445,0.4088888888888889,-0.6966666666666667,0.0017726249749846332,0.00040903659000827877,-0.0002727576024798984
1589986565.0268948,0.052695571095571096,-4.342695571095571,8.787304428904427,0.3955168091168092,0.41375850815850823,-0.6861158249158249,0.0005880823854913294,-0.002390368769252374,0.001299537986755918
1589986565.0368948,0.04317594453788407,-4.367296221848464,8.769527833613651,0.3922222222222223,0.4155555555555556,-0.6822222222222222,-0.0014887779519078266,-0.00029493644367371494,0.0006928836130850853
1589986565.0468948,0.05480430829486641,-4.3725978458525665,8.700782766820534,0.3922222222222223,0.4155555555555556,-0.6822222222222222,-0.003796561085153702,-0.0005240687376643345,-0.0008074497600803952
1589986565.0568948,0.06,-4.37,8.702168393899624,0.3922222222222223,0.4155555555555556,-0.6822222222222222,-0.004363323129985824,0.0005213003151180058,-0.00028476523368922506
1589986565.0668948,0.05164888284650984,-4.365824441423255,8.74340446861396,0.3922222222222223,0.4155555555555556,-0.6822222222222222,-0.002085909215170512,0.0001798652165703312,0.0004554827829630624
1589986565.0768948,0.04012908718878315,-4.360064543594392,8.789483651244867,0.3922222222222223,0.4155555555555556,-0.6822222222222222,0.0010556277127088086,-0.0010767495545813972,0.0010837901685389266
1589986565.0868948,0.044725434870236586,-4.359450869740473,8.821098260519054,0.37777777777777777,0.4088888888888889,-0.6822222222222222,0.002061859926854484,0.003212591528420154,0.001606295764210077
1589986565.0968947,0.05,-4.353091599602134,8.766183199204269,0.37777777777777777,0.4088888888888889,-0.6822222222222222,0.0037485163420935726,0.004978129917878075,0.00033724120131615695
1589986565.1068947,0.05,-4.344393874699169,8.744393874699169,0.37777777777777777,0.4088888888888889,-0.6822222222222222,0.0013553028369748688,0.004016261779596405,-0.0006115334048678311
1589986565.1168947,0.05,-4.358247852450733,8.766495704901464,0.37777777777777777,0.4088888888888889,-0.6822222222222222,-0.0006409802153590533,0.0012819604307181065,0.0
1589986565.1268947,0.04156824135127812,-4.365784120675639,8.785784120675638,0.38902012264274033,0.4088888888888889,-0.6911224119069842,0.00045988109423032773,0.0,0.00045988109423032773
1589986565.1368947,0.046404280814842366,-4.351797859592579,8.800505351018552,0.4044444444444445,0.4088888888888889,-0.7033333333333334,0.00019611605861915129,0.00044735736193865234,0.00019611605861915129
1589986565.1468947,0.0566748543081443,-4.353325145691856,8.743386553002937,0.4044444444444445,0.4088888888888889,-0.7033333333333334,-0.0018176047375927677,0.00036405682740014414,-0.00036405682740014414
1589986565.1568947,0.04267367542326455,-4.352673675423264,8.736631622883676,0.4044444444444445,0.4088888888888889,-0.7033333333333334,-0.0013824835279065773,-0.0007991780370863348,0.0007991780370863348
1589986565.1668947,0.04,-4.355420001368083,8.75,0.4044444444444445,0.4088888888888889,-0.7033333333333334,-0.000499600349148712,-0.000499600349148712,0.000499600349148712
1589986565.1768947,0.04574650343023917,-4.35425349656976,8.790225524011674,0.40189044291989373,0.4056963869832005,-0.6995023310465073,0.0006268462833426362,0.0012536925666852723,0.0
1589986565.1868947,0.05,-4.35,8.792173007246376,0.4,0.4033333333333333,-0.6966666666666667,0.003367421303493306,0.0006639345509950123,-0.0015177270139978996
1589986565.1968946,0.06327496274217587,-4.343362518628912,8.740175111773473,0.4,0.4033333333333333,-0.6966666666666667,0.002915249330419925,0.0,-0.0014576246652099624
1589986565.2068946,0.05582538782662475,-4.34,8.734174612173376,0.4,0.4033333333333333,-0.6966666666666667,0.001408556400559576,0.0015462103288666716,0.0004553795463702157
1589986565.2168946,0.05396505985118085,-4.34,8.755860239404724,0.4,0.4033333333333333,-0.6966666666666667,0.0006583098484855674,0.0013166196969711349,0.001090830782496456
1589986565.2268946,0.05939281785829828,-4.34,8.777571271433192,0.4,0.4033333333333333,-0.6966666666666667,6.623329707503554e-05,0.00013246659415007108,0.001090830782496456
1589986565.2368946,0.08,-4.352474398966506,8.81505120206699,0.4,0.4033333333333333,-0.6755555555555556,-0.001090830782496456,0.001090830782496456,0.0
1589986565.2468946,0.08,-4.34,8.775128875270369,0.4,0.4033333333333333,-0.6755555555555556,-2.1627863387636316e-06,0.0005464967844176098,0.0
1589986565.2568946,0.06567154412432973,-4.347164227937835,8.720746341906754,0.4,0.4033333333333333,-0.6755555555555556,0.0007000827641258723,0.00039074801837058365,0.00039074801837058365
1589986565.2668946,0.04225365986209707,-4.357746340137903,8.751268299310485,0.4,0.4033333333333333,-0.6755555555555556,-0.0002458361550852208,0.0013366669375816768,0.0008449946274112351
1589986565.2768946,0.05701747309363599,-4.357017473093636,8.79,0.39220280767373783,0.4033333333333333,-0.6880310632775751,0.0008228881339732346,0.002947149131580788,0.00038274378329393807
1589986565.2868946,0.06484102564102565,-4.367420512820513,8.79,0.37777777777777777,0.4033333333333333,-0.7111111111111111,0.004363323129985824,0.002956431120766036,0.001090830782496456
1589986565.2968946,0.0384035593432761,-4.3657982203283625,8.755210678029828,0.37777777777777777,0.4033333333333333,-0.7111111111111111,0.0024658599646236465,-0.001090830782496456,0.002355806226071241
1589986565.3068945,0.03642330552792021,-4.36357669447208,8.73642330552792,0.37777777777777777,0.4033333333333333,-0.7111111111111111,-0.00031051709655054594,0.001011191036074047,0.001871144468442366
1589986565.3168945,0.04510326424681069,-4.354896735753189,8.765516321234053,0.37777777777777777,0.4033333333333333,-0.7111111111111111,-0.001090830782496456,0.0005116222455025048,-2.2528763830481895e-05
1589986565.3268945,0.060260386686079984,-4.36026038668608,8.80026038668608,0.3914582933592178,0.4033333333333333,-0.6997106814599111,-0.00221006534624574,-0.001090830782496456,2.840378125282825e-05
1589986565.3368945,0.06533623257073237,-4.3653362325707326,8.805336232570733,0.4044444444444445,0.4033333333333333,-0.6888888888888889,-0.0022550161326394683,-0.001090830782496456,0.001090830782496456
1589986565.3468945,0.06,-4.36,8.76233079985523,0.4044444444444445,0.4033333333333333,-0.6888888888888889,-0.0015017380131958087,-0.001090830782496456,0.001090830782496456
1589986565.3568945,0.04891086888260889,-4.354455434441304,8.74990109002826,0.4044444444444445,0.4033333333333333,-0.6888888888888889,-0.0015768432862934348,-0.0004860125037969788,0.001090830782496456
1589986565.3668945,0.0494785875281743,-4.359478587528174,8.79,0.4044444444444445,0.4033333333333333,-0.6888888888888889,-0.001607807535012432,0.0010339535050319525,-0.00046009947505147304
1589986565.3768945,0.056214995875483,-4.362429991750966,8.793785004124517,0.4027622203891036,0.4003894412364868,-0.6922533369995707,-0.0009430218617231549,0.002181661564992912,-0.002181661564992912
1589986565.3868945,0.05343756455277835,-4.356875129105556,8.775937048130553,0.4,0.3955555555555556,-0.6977777777777778,0.001840791028694314,0.001806681441893983,-0.0014317013187950542
1589986565.3968945,0.056414283854731635,-4.359242851564195,8.726414283854732,0.4,0.3955555555555556,-0.6977777777777778,0.003272492347489368,0.0003085488727858028,0.0003911409548553266
1589986565.4068944,0.0476289726250455,-4.34,8.727113082124864,0.4,0.3955555555555556,-0.6977777777777778,0.002496575453466727,-0.0005735528531480283,0.001090830782496456
1589986565.4168944,0.04,-4.34,8.752076433121019,0.4,0.3955555555555556,-0.6977777777777778,-7.550123887342773e-05,0.001090830782496456,0.0008643270658761727
1589986565.4268944,0.04426158331748748,-4.344261583317487,8.792784749952462,0.39384437965251806,0.39887012035804587,-0.6939897037177889,-0.0015556974089853271,0.0020205640354741985,-0.0017167949385040408
1589986565.4368944,0.04009988993416817,-4.35,8.795149834901252,0.3855555555555555,0.4033333333333333,-0.6888888888888889,-0.0016416943244972932,-0.0005072783359799625,-0.001090830782496456
1589986565.4468944,0.034464199782184735,-4.354464199782185,8.748750601524707,0.3855555555555555,0.4033333333333333,-0.6888888888888889,-0.0015777994366585645,-0.0038763544758237153,-0.00011689347417223877
1589986565.4568944,0.04,-4.36,8.721386621315194,0.3855555555555555,0.4033333333333333,-0.6888888888888889,-0.0009395738610686593,-0.0014093607916029892,-0.0013933446253520494
1589986565.4668944,0.05376685537828101,-4.355411048207239,8.748355807171041,0.3855555555555555,0.4033333333333333,-0.6888888888888889,-0.0005005769874935272,0.0,-0.0007696074100217317
1589986565.4768944,0.06609020860740462,-4.3460902086074045,8.781729374177786,0.3912030320115266,0.4081119672576166,-0.6923642590156404,-0.0019438149433330008,-0.0012794762412548172,0.0013286774041563673
1589986565.4868944,0.046829717560376585,-4.348780188293082,8.804390094146541,0.4,0.4155555555555556,-0.6977777777777778,-0.0008780674309370774,-0.001356952414247536,0.000478884983310458
1589986565.4968944,0.044450963956412404,-4.363612740989104,8.766647108130764,0.4,0.4155555555555556,-0.6977777777777778,0.0025757504730029475,0.001090830782496456,0.001090830782496456
1589986565.5068944,0.05613151563753008,-4.35613151563753,8.713114140604116,0.4,0.4155555555555556,-0.6977777777777778,0.0017596753825740747,-0.0009262585040572689,8.228613921959353e-05
1589986565.5168943,0.04,-4.342956738016279,8.754783690081398,0.4,0.4155555555555556,-0.6977777777777778,-0.00032253008439354816,-0.0026274321787022716,-0.001413360866890004
1589986565.5268943,0.04313186813186813,-4.35,8.799395604395604,0.3954761904761905,0.4155555555555556,-0.6974297924297924,-6.592933300802756e-05,-0.00040756314950417033,-0.0014983939320006262
1589986565.5368943,0.042532872198114136,-4.353733563900943,8.7938650526934,0.3855555555555555,0.4155555555555556,-0.6966666666666667,0.0005525869923664712,0.001498099425653066,0.0
1589986565.5468943,0.04012355573365391,-4.365061777866827,8.719629332799038,0.3855555555555555,0.4155555555555556,-0.6966666666666667,-0.002181661564992912,-2.6955679524723764e-05,0.0005521543111294089
1589986565.5568943,0.05,-4.375149043722966,8.695149043722965,0.3855555555555555,0.4155555555555556,-0.6966666666666667,-0.0004966409469633793,-0.0016199880256497344,0.0005291572431532785
1589986565.5668943,0.04547067961165049,-4.366412038834952,8.745293203883495,0.3855555555555555,0.4155555555555556,-0.6966666666666667,0.0005967585721564107,-0.00010268636181636533,-0.0014822166310201358
