time,acc_x,acc_y,acc_z,mag_x,mag_y,mag_z,gyr_x,gyr_y,gyr_z
1589986571.729137,-0.11,-4.29,8.75,0.4577777777777778,0.2911111111111111,-0.6111111111111112,0.008726646259971648,0.014180800172453925,0.0
1589986571.739137,-0.11,-4.2999052994521065,8.740094700547894,0.4577777777777778,0.2911111111111111,-0.6111111111111112,0.015209649591293515,0.013100299617233616,0.002161001110440622
1589986571.749137,-0.10161512998546747,-4.2664605199418695,8.77353948005813,0.4577777777777778,0.2911111111111111,-0.6111111111111112,0.01801557325067546,0.014004616821865828,0.0003523667011761924
1589986571.759137,-0.09090611899542325,-4.279093881004577,8.809546940502289,0.4388888888888889,0.2788888888888889,-0.5966666666666667,0.01854412330243975,0.009817477042468105,0.003173650098208123
1589986571.769137,-0.10703742163762932,-4.26296257836237,8.801481289181186,0.4388888888888889,0.2788888888888889,-0.5966666666666667,0.01854412330243975,0.009817477042468105,0.0014139979498196432
1589986571.779137,-0.11,-4.2765410628019325,8.750376811594203,0.4388888888888889,0.2788888888888889,-0.5966666666666667,0.014033248182551025,0.011621827090423593,0.001993005806474201
1589986571.789137,-0.11,-4.28,8.811172808060226,0.4388888888888889,0.2788888888888889,-0.5966666666666667,0.01533559771165307,0.01652237862920355,-0.0031125754557326567
1589986571.7991369,-0.11,-4.28,8.842827305145185,0.4388888888888889,0.2788888888888889,-0.5966666666666667,0.017062082702889038,0.020838591107293476,0.0012036370223572719
1589986571.8091369,-0.1295473529557423,-4.260452647044257,8.800452647044258,0.4388888888888889,0.2733333333333333,-0.6044444444444445,0.015819324275016245,0.02028139967089854,0.0031243639486446604
1589986571.8191369,-0.12262343793849151,-4.267376562061508,8.80737656206151,0.4388888888888889,0.2733333333333333,-0.6044444444444445,0.00751122267518896,0.01348386199831258,0.000858518057782674
1589986571.8291368,-0.11012172000606704,-4.279878279993933,8.730973760048537,0.4388888888888889,0.2733333333333333,-0.6044444444444445,0.001130663561335531,0.0033654354981138774,-0.0010775531895500976
1589986571.8391368,-0.11793994773087121,-4.287939947730871,8.769699738654356,0.4388888888888889,0.2733333333333333,-0.6044444444444445,0.0002247168428717351,0.005004720226738809,0.0006413970967529858
1589986571.8491368,-0.12,-4.274401482520284,8.81899629369929,0.4388888888888889,0.2733333333333333,-0.6044444444444445,0.0025523014542274086,0.002051085306845735,0.001090830782496456
1589986571.8591368,-0.100245479190872,-4.2798772604045645,8.849754520809128,0.4454737291585982,0.2854055404944672,-0.5901772905267408,0.00434993431709255,0.0021682727520996375,-0.0021414951263130895
1589986571.8691368,-0.11966678752093368,-4.2603332124790665,8.818167331365135,0.4455555555555555,0.2855555555555556,-0.59,0.003236144504561619,0.001090830782496456,-5.4521764391623764e-05
1589986571.8791368,-0.10518395745929801,-4.274816042540702,8.73851176602614,0.4455555555555555,0.2855555555555556,-0.59,0.0016563128196718947,0.001090830782496456,-0.0024242692917262098
1589986571.8891368,-0.11994839730309992,-4.3097935892124,8.7901548080907,0.4455555555555555,0.2855555555555556,-0.59,-0.001090830782496456,-0.0010739438394249262,0.0032443474423701517
1589986571.8991368,-0.11204922972616671,-4.2781969189046665,8.8138523108215,0.4455555555555555,0.2855555555555556,-0.59,-0.001090830782496456,0.0015110527052800825,-0.0010639801321381962
1589986571.9091368,-0.12991111500317448,-4.2700888849968255,8.800222212492065,0.4455555555555555,0.2733333333333333,-0.5755555555555556,-0.0010956787070284257,0.004348779356389915,-0.001090830782496456
1589986571.9191368,-0.11154607351621165,-4.288453926483788,8.84613481620947,0.4455555555555555,0.2733333333333333,-0.5755555555555556,-0.0020973363358186012,0.001343806470019388,-0.001090830782496456
1589986571.9291368,-0.13405008869873736,-4.281983303767087,8.769833037670875,0.4455555555555555,0.2733333333333333,-0.5755555555555556,-0.005679605174906623,-0.0006581410224603995,0.0006581410224603995
1589986571.9391367,-0.10988332063545811,-4.270233358729083,8.830466717458167,0.4455555555555555,0.2733333333333333,-0.5755555555555556,-0.008726646259971648,-0.00985566027522543,0.0
1589986571.9491367,-0.10396568751939954,-4.282068624961201,8.8541372499224,0.4455555555555555,0.2733333333333333,-0.5755555555555556,-0.008726646259971648,-0.011792201183980566,0.0
1589986571.9591367,-0.10526546146527117,-4.268938154138915,8.864734538534728,0.4379498889946083,0.27976889734644256,-0.5907668886774501,-0.007003528024861642,-0.011366851154847465,0.0
1589986571.9691367,-0.10441981426490893,-4.255580185735091,8.826518885589454,0.4311111111111111,0.2855555555555556,-0.6044444444444445,-0.007280265424047766,-0.011034884716845095,-0.0006087038371884953
1589986571.9791367,-0.0928154250792914,-4.267184574920708,8.74970797555504,0.4311111111111111,0.2855555555555556,-0.6044444444444445,-0.007942930711705551,-0.011999138607461015,-0.001090830782496456
1589986571.9891367,-0.10964522527628223,-4.27,8.73,0.4311111111111111,0.2855555555555556,-0.6044444444444445,-0.007635815477475192,-0.008427535864053332,0.0003378103148666176
1589986571.9991367,-0.11308402477503798,-4.27,8.76457987612481,0.4311111111111111,0.2855555555555556,-0.6044444444444445,-0.009899063077386618,-0.009562648161527305,-0.0004180009507778286
1589986572.0091367,-0.10319213083463474,-4.290423607496096,8.827655084157556,0.4447268494418416,0.28101697611197873,-0.5893158462991883,-0.016106671099116777,-0.013878801124480113,-0.00034820745761756776
1589986572.0191367,-0.11970185975830377,-4.290149070120848,8.840149070120848,0.4511111111111111,0.2788888888888889,-0.5822222222222222,-0.019618693057279053,-0.01634620070978968,-0.0021491395096785953
1589986572.0291367,-0.11301248401642103,-4.303975031967157,8.770124840164211,0.4511111111111111,0.2788888888888889,-0.5822222222222222,-0.01658607507370663,-0.014075802479024655,0.00010499769342927267
1589986572.0391366,-0.10014108768763842,-4.3001410876876385,8.828730210811255,0.4511111111111111,0.2788888888888889,-0.5822222222222222,-0.013120749948498918,-0.01308996938995747,-0.0010600502239550087
1589986572.0491366,-0.1,-4.2926504832070105,8.844699033585979,0.4511111111111111,0.2788888888888889,-0.5822222222222222,-0.009081429812823668,-0.009883137728250429,-0.001090830782496456
1589986572.0591366,-0.1,-4.29,8.859002238781033,0.42710514102835423,0.27388764512164787,-0.5822222222222222,-0.007635815477475192,-0.011672622012092175,-0.00010883886512294636
1589986572.0691366,-0.1197380554288899,-4.280130972285555,8.78104777828444,0.4244444444444445,0.2733333333333333,-0.5822222222222222,-0.005482727632629752,-0.011999138607461015,0.0010765439224227197
1589986572.0791366,-0.12929730457616087,-4.28,8.742810781695356,0.4244444444444445,0.2733333333333333,-0.5822222222222222,-0.003425796707297991,-0.0038857097867238607,0.005147545192865034
1589986572.0891366,-0.12090478757059499,-4.29819042485881,8.75819042485881,0.4244444444444445,0.2733333333333333,-0.5822222222222222,-0.003272492347489368,-0.002280358578355432,0.008430555219884088
1589986572.0991366,-0.10902013925930197,-4.289020139259302,8.776469791111046,0.4244444444444445,0.2733333333333333,-0.5822222222222222,-0.00027819982661993117,0.00021377245170263676,0.009924363268319423
1589986572.1091366,-0.08760505504729416,-4.292394944952706,8.802394944952706,0.4354621732912941,0.2756286935097603,-0.5941580951396427,0.002181661564992912,0.002181661564992912,0.01090830782496456
1589986572.1191366,-0.079507004788083,-4.290985990423834,8.781971980847667,0.4511111111111111,0.2788888888888889,-0.6111111111111112,0.0032187149122111245,0.0052928216066475495,0.006760094436091709
1589986572.1291366,-0.08838010414944619,-4.29,8.71295916680443,0.4511111111111111,0.2788888888888889,-0.6111111111111112,0.005100747460837805,0.00545415391248228,0.004716729581630299
1589986572.1391366,-0.10233150130170668,-4.277668498698293,8.77398900781024,0.4511111111111111,0.2788888888888889,-0.6111111111111112,0.0020912586089080884,0.0020912586089080884,0.0030181650085561473
1589986572.1491365,-0.11592157870687686,-4.2759215787068765,8.837764736120631,0.4511111111111111,0.2788888888888889,-0.6111111111111112,0.0006459440334436833,-0.0006459440334436833,0.0015357175315492285
1589986572.1591365,-0.12,-4.28,8.867672764444066,0.44391109596723244,0.28281616987645913,-0.6026020023047091,0.001090830782496456,-0.002376030480322849,0.002376030480322849
1589986572.1691365,-0.1293563579277865,-4.270643642072213,8.861287284144426,0.4388888888888889,0.2855555555555556,-0.5966666666666667,-0.0029916505133772506,-0.003272492347489368,0.004293112671457795
1589986572.1791365,-0.11688883838711772,-4.256888838387118,8.794444191935588,0.4388888888888889,0.2855555555555556,-0.5966666666666667,-0.005417801149732049,-0.003987595281570262,0.005078426064066718
1589986572.1891365,-0.11,-4.266290531776913,8.76,0.4388888888888889,0.2855555555555556,-0.5966666666666667,-0.0029909419898800364,-0.0016977911011617991,0.00723117526503163
1589986572.1991365,-0.1230053804765565,-4.27,8.792513451191391,0.4388888888888889,0.2855555555555556,-0.5966666666666667,-0.002181661564992912,0.00032783615369416934,0.011182482817951754
1589986572.2091365,-0.14626516303742998,-4.25373483696257,8.82626516303743,0.4271418266951895,0.28013383454307894,-0.5840159843042212,-0.002181661564992912,0.001090830782496456,0.017525604520845513
1589986572.2191365,-0.28413528369599783,-4.157781992459001,8.813233089538,0.4244444444444445,0.2788888888888889,-0.5811111111111111,-0.006754127079820708,-0.0007381554234346616,0.024945575023198663
1589986572.2291365,-0.4152116118755321,-4.101741232045261,8.762176540056576,0.4244444444444445,0.2788888888888889,-0.5811111111111111,-0.011809199656017014,-0.01361098331812192,0.04496016758335315
1589986572.2391365,-0.5346208463504687,-3.9853791536495313,8.855517371958724,0.4244444444444445,0.2788888888888889,-0.5811111111111111,-0.009915272815546222,-0.04439685415521846,0.08749220870314706
1589986572.2491364,-0.43406956729619894,-4.051340903657662,8.85351446330385,0.4244444444444445,0.2788888888888889,-0.5811111111111111,-0.00840255242863371,-0.055483544392719505,0.10312572876510853
1589986572.2591364,-0.1024248496993988,-4.268809046664758,8.781319782421987,0.42694086585870156,0.2768085377103413,-0.5869360944110443,-0.0004131603564966539,-0.06970667901283034,0.17559096547744554
1589986572.2691364,-0.2223006060606061,-4.216150303030303,8.7,0.4311111111111111,0.2733333333333333,-0.5966666666666667,0.0008398735915657561,-0.0014338144248959434,0.23406266821522073
1589986572.2791364,-0.24271697573873585,-4.264509415085575,8.814452781648622,0.4311111111111111,0.2733333333333333,-0.5966666666666667,-0.01525927545568103,-0.012182307909720712,0.24305356194554595
1589986572.2891364,-0.44313868613138685,-4.182700729927007,8.794160583941606,0.4311111111111111,0.2733333333333333,-0.5966666666666667,-0.015414951787687143,-0.03383167879436089,0.25167934455423707
1589986572.2991364,-0.6598604036974156,-4.077062818336163,8.906853423882287,0.4311111111111111,0.2733333333333333,-0.5966666666666667,-0.018101699951681895,-0.04275599839554162,0.2640802345060332
1589986572.3091364,-0.9279789639241128,-3.9053189816180085,9.015212818244372,0.44919623840886,0.267304957567417,-0.5775768100745984,-0.03157608232639599,-0.05261518750705528,0.30484082758336845
1589986572.3191364,-0.8422277932397119,-3.0941437039240265,8.580621003208057,0.4511111111111111,0.26666666666666666,-0.5755555555555556,-0.027299020061123145,-0.03807731533664316,0.39009366265305506
1589986572.3291364,-0.14831592382359848,-2.2355469720888053,8.171234675712894,0.4511111111111111,0.26666666666666666,-0.5755555555555556,-0.05970998792052454,-0.0019974627352142282,0.5018816877695719
1589986572.3391364,-0.05618993951688639,-2.040503775498704,9.22141290055975,0.4511111111111111,0.26666666666666666,-0.5755555555555556,-0.20392409211631726,0.16978746911754133,0.7019631932092368
1589986572.3491364,-0.20163234743541747,-2.2795919131411457,9.975884188194184,0.4511111111111111,0.26666666666666666,-0.5755555555555556,-0.2851706381097686,0.15475298986111363,0.8192622447392994
1589986572.3591363,-0.14557400456919062,-2.2058530515665797,9.115397356396867,0.4463966401943719,0.2739526671743545,-0.589270380040615,-0.1418800503144896,-0.014853179508809156,0.8983787187983275
1589986572.3691363,-0.27329859832318726,-2.173966940358327,8.100459931974262,0.4388888888888889,0.2855555555555556,-0.6111111111111112,0.09027477250569871,-0.05525647886924676,1.0727628918231649
1589986572.3791363,-0.2979739711572283,-2.509219134716848,9.284720365810763,0.4388888888888889,0.2855555555555556,-0.6111111111111112,-0.09213855872217162,-0.11574355364653478,1.2532448577960822
1589986572.3891363,-0.3728822492656315,-2.5153383130507763,9.084485942089803,0.4388888888888889,0.2855555555555556,-0.6111111111111112,-0.10498127985430344,-0.12216665737618566,1.373622112380904
1589986572.3991363,-0.42576744909062647,-2.491534898181253,8.824604694543758,0.4388888888888889,0.2855555555555556,-0.6111111111111112,-0.012902155900964288,-0.10136607362579089,1.5218917019458973
1589986572.4091363,-0.43,-2.5554695645788974,9.044143476026141,0.46585326055918613,0.25859118388525837,-0.6010957730621436,-0.028045140074576445,-0.10246576664398367,1.6753171228379926
1589986572.4191363,-0.4970198222829802,-2.6721522556390975,9.171887388926862,0.4777777777777778,0.2466666666666667,-0.5966666666666667,-0.07334932957385196,-0.12682893039247475,1.8217053946656143
1589986572.4291363,-0.5263218804881344,-2.63287341829153,8.918849912189849,0.4777777777777778,0.2466666666666667,-0.5966666666666667,-0.042529776411849934,-0.12555837100016912,1.9474592086581572
1589986572.4391363,-0.5754739251413697,-2.657894937617808,8.935789875235617,0.4777777777777778,0.2466666666666667,-0.5966666666666667,-0.05888202442337362,-0.1359290592517966,2.056285370746929
1589986572.4491363,-0.59,-2.63578739292774,8.761566878980892,0.4777777777777778,0.2466666666666667,-0.5966666666666667,-0.07101909752554908,-0.1485831797460769,2.15364870466272
1589986572.4591362,-0.6310565352079114,-2.636422614083165,8.661788692958417,0.49420039186094233,0.21929564319472575,-0.5911924619722785,-0.05785851340193321,-0.1580905974407965,2.276492067626325
1589986572.4691362,-0.7486548211544723,-2.706864505325829,8.802087073817386,0.4977777777777778,0.21333333333333332,-0.59,-0.06365877170804937,-0.16746680356938648,2.386459399728983
1589986572.4791362,-0.7858123054606994,-2.7358123054606995,8.814187694539301,0.4977777777777778,0.21333333333333332,-0.59,-0.06602479860107961,-0.17425333614858096,2.4628361130539993
1589986572.4891362,-0.8,-2.7416274679461967,8.833490128215214,0.4977777777777778,0.21333333333333332,-0.59,-0.06334412224017943,-0.17980954989859146,2.5583809581879438
1589986572.4991362,-0.8453673165694849,-2.7629944120505345,8.954237427113704,0.4977777777777778,0.21333333333333332,-0.59,-0.06295388579025682,-0.18242758440622775,2.6598337878577922
1589986572.5091362,-0.9149387972325705,-2.8087653006918574,9.051357104843001,0.499424043521968,0.2075714032286677,-0.5908231328720951,-0.06885702409852162,-0.18421571744065615,2.731562772875706
1589986572.5191362,-0.9931840454723637,-2.8493531948255586,9.020845746765973,0.5111111111111111,0.16666666666666666,-0.5966666666666667,-0.07183201948465809,-0.1846054710626612,2.8768354937316363
1589986572.5291362,-1.0270579991123776,-2.837652005325734,8.92001401508958,0.5111111111111111,0.16666666666666666,-0.5966666666666667,-0.07693520377456965,-0.19468013225793454,2.9767414981438702
1589986572.5391362,-1.0612378924960086,-2.8252063154160014,8.807524215007982,0.5111111111111111,0.16666666666666666,-0.5966666666666667,-0.07910773725166084,-0.2019387278858511,3.0524662635494373
1589986572.5491362,-1.1157777137921105,-2.8385925712640367,8.780073999424129,0.5111111111111111,0.16666666666666666,-0.5966666666666667,-0.08431716774004422,-0.21023135978891697,3.1415440640355023
1589986572.5591362,-1.1724797383762262,-2.8679837907009813,8.824495947675246,0.5171057080114382,0.13769278164841936,-0.6031608133086876,-0.08955809132307566,-0.22394137108570605,3.2450168435841587
1589986572.5691361,-1.2306883483773168,-2.8593116516226833,8.819770550540895,0.5244444444444445,0.10222222222222224,-0.6111111111111112,-0.08835729338221293,-0.23402074642544277,3.3544152199525996
1589986572.5791361,-1.273356907459527,-2.83,8.789964638810709,0.5244444444444445,0.10222222222222224,-0.6111111111111112,-0.0854432682190512,-0.2421760056363484,3.4747818005790267
1589986572.5891361,-1.345144069976846,-2.844476459994855,8.83066760998199,0.5244444444444445,0.10222222222222224,-0.6111111111111112,-0.08557310707062371,-0.24464735765250425,3.58263248934654
1589986572.599136,-1.3943346719170338,-2.8560836679792585,8.923004015751102,0.5244444444444445,0.10222222222222224,-0.6111111111111112,-0.08816650750789896,-0.24700059620011136,3.6690489103231845
1589986572.609136,-1.5005511049723756,-2.8449081491712707,9.037913328729282,0.5445669122160834,0.0418548189073051,-0.6220107811540823,-0.09109438970959165,-0.2520019494989565,3.7716704879458063
1589986572.619136,-1.5796427892836786,-2.806904807144214,8.960714421432643,0.5511111111111111,0.022222222222222227,-0.6255555555555555,-0.09523991124167708,-0.2575853984291463,3.8505806389317736
1589986572.629136,-1.6195035239729427,-2.7754137300225477,8.905579222031566,0.5511111111111111,0.022222222222222227,-0.6255555555555555,-0.09706588726441505,-0.2601360630587505,3.8905240393428513
1589986572.639136,-1.6673391594728053,-2.7326608405271946,8.859163025329496,0.5511111111111111,0.022222222222222227,-0.6255555555555555,-0.09841119653587542,-0.26274509224392695,3.927393489290376
1589986572.649136,-1.7403789169825756,-2.659621083017424,8.830378916982577,0.5511111111111111,0.022222222222222227,-0.6255555555555555,-0.10266209384724814,-0.268804427426968,3.965877949892619
1589986572.659136,-1.7712749581706637,-2.6271143335192417,8.858053541550474,0.5478896944909215,0.00790481502137944,-0.6314614860259032,-0.11013728437341015,-0.2746770315097476,3.9847682238008213
1589986572.669136,-1.8259689664496537,-2.535813798697922,8.883875865798615,0.5311111111111111,-0.06666666666666668,-0.6622222222222223,-0.11167060501082995,-0.2779335276744946,3.9876206970828396
1589986572.679136,-1.903180658581577,-2.474006044193257,8.849602417677303,0.5311111111111111,-0.06666666666666668,-0.6622222222222223,-0.10467638561604233,-0.2720104869702047,3.969536514100633
1589986572.689136,-1.98,-2.425509430229491,8.874286797678712,0.5311111111111111,-0.06666666666666668,-0.6622222222222223,-0.10149171894623943,-0.2678100711463972,3.938277002291793
1589986572.699136,-1.9941618106306944,-2.3787572840539584,8.92062135797302,0.5311111111111111,-0.06666666666666668,-0.6622222222222223,-0.09463115951562337,-0.2633915069686699,3.9008172347435504
1589986572.709136,-2.02877722951017,-2.2917252376940667,8.94877722951017,0.5194081384308848,-0.10762707104745858,-0.6680737085623354,-0.08426073739027415,-0.2501218269990931,3.836356813118802
1589986572.719136,-2.0971311710090395,-2.144303243486441,8.97142623420181,0.5044444444444445,-0.16,-0.6755555555555556,-0.0818123086872342,-0.24715006891235158,3.7454559886894776
1589986572.729136,-2.14,-2.08,8.98,0.5044444444444445,-0.16,-0.6755555555555556,-0.0818123086872342,-0.2508910799741849,3.706642998922957
1589986572.739136,-2.1332872208187976,-1.9115052728657926,8.873287220818797,0.5044444444444445,-0.16,-0.6755555555555556,-0.07990712738913892,-0.2366130896177337,3.565349335350364
1589986572.749136,-2.1636295369211513,-1.7602816020025032,8.903629536921152,0.5044444444444445,-0.16,-0.6755555555555556,-0.0900024136486813,-0.23402279495148778,3.444077708659502
1589986572.759136,-2.242611262163709,-1.6478219805380654,8.995655767029193,0.48705177129046623,-0.2201496613241748,-0.6857012815620429,-0.09992980913212345,-0.22741394451189081,3.3120879204732043
1589986572.769136,-2.2485937804208924,-1.5743751216835697,9.014296890210446,0.4777777777777778,-0.25222222222222224,-0.6911111111111111,-0.09958092445784975,-0.2173991826973713,3.197054773654813
1589986572.779136,-2.25089552238806,-1.5127611940298507,8.922835820895521,0.4777777777777778,-0.25222222222222224,-0.6911111111111111,-0.08688385777301996,-0.20320386561698905,3.077909301265392
1589986572.789136,-2.27217404935728,-1.4473908272495184,8.935218345500964,0.4777777777777778,-0.25222222222222224,-0.6911111111111111,-0.07412902861061019,-0.19193875312022743,2.9480879106968256
1589986572.799136,-2.28,-1.387293383827133,9.033608821563822,0.4777777777777778,-0.25222222222222224,-0.6911111111111111,-0.07258945470664374,-0.18861531003062798,2.8322358138834036
1589986572.809136,-2.2471254009469988,-1.335344050710249,9.028906751183749,0.45860092833019367,-0.278247946472515,-0.6938506610321946,-0.06412050627495186,-0.17955425405231082,2.7304420450766957
1589986572.819136,-2.221143946615825,-1.2459654697595595,8.981746637008792,0.4311111111111111,-0.31555555555555553,-0.6977777777777778,-0.05024395931813329,-0.166450309315654,2.636197152781238
1589986572.829136,-2.2720566502463053,-1.0408420566502463,8.988599137931034,0.4311111111111111,-0.31555555555555553,-0.6977777777777778,-0.04959703290705677,-0.1602196334186986,2.5133668166205934
1589986572.839136,-2.260269958467928,-0.8897300415320719,8.900945816028303,0.4311111111111111,-0.31555555555555553,-0.6977777777777778,-0.05981879589033586,-0.15096216690159336,2.3551629746969756
1589986572.8491359,-2.353685593049101,-0.8064653754005138,9.004440435297173,0.4311111111111111,-0.31555555555555553,-0.6977777777777778,-0.06846851639112819,-0.14398966328953214,2.2256280943279503
1589986572.8591359,-2.4,-0.6722469788519637,9.066192094662638,0.39186772686583865,-0.33484467662526574,-0.7323651672820857,-0.080291132528058,-0.1341946372582597,2.0359149555978857
1589986572.8691359,-2.4233994027697054,-0.5883002986151472,9.004150149307574,0.3655555555555556,-0.3477777777777778,-0.7555555555555555,-0.06194870359814683,-0.11358856769381012,1.8861577861847845
1589986572.8791358,-2.44,-0.5565786135774555,8.953157227154911,0.3655555555555556,-0.3477777777777778,-0.7555555555555555,-0.05081693522679838,-0.09851917048147209,1.7308026681491355
1589986572.8891358,-2.4212067039106144,-0.5337355679702048,8.963851024208566,0.3655555555555556,-0.3477777777777778,-0.7555555555555555,-0.04511895501367185,-0.09011887337212154,1.5679804801827986
1589986572.8991358,-2.4047089352485647,-0.5088357409942584,9.00058212950287,0.3655555555555556,-0.3477777777777778,-0.7555555555555555,-0.031639754019684246,-0.07976330940575448,1.4300609459930367
1589986572.9091358,-2.394818054679573,-0.4848180546795733,9.015181945320426,0.34540354597611844,-0.3610205269299793,-0.7699498481122964,-0.017254820963690683,-0.06799829950540115,1.2800383984282957
1589986572.9191358,-2.3796672036628794,-0.4748336018314397,9.045831990842801,0.32666666666666666,-0.37333333333333335,-0.7833333333333333,-0.010872005376081241,-0.0565053859965158,1.1247416861660469
1589986572.9291358,-2.364901438465637,-0.41901438465636653,8.998620138518913,0.32666666666666666,-0.37333333333333335,-0.7833333333333333,-0.007592809895213744,-0.04183571419263312,0.9648633639570557
1589986572.9391358,-2.369659657400759,-0.3506806851984819,8.968638629603037,0.32666666666666666,-0.37333333333333335,-0.7833333333333333,-0.007034711658649931,-0.027493523272719526,0.8024747618039079
1589986572.9491358,-2.391349574020926,-0.33,9.036482339382161,0.32666666666666666,-0.37333333333333335,-0.7833333333333333,-0.009964692730996472,-0.01701164545435819,0.6480523352568464
1589986572.9591358,-2.420609379594237,-0.3229270802705087,9.090609379594238,0.29758910777875786,-0.39140857264203344,-0.7860839132281355,-0.012384906535613797,-0.003578717190061696,0.47560446633619297
1589986572.9691358,-2.4353107770178664,-0.29124310807146514,8.99745864842879,0.24444444444444444,-0.4244444444444445,-0.7911111111111111,-0.006440275982585806,0.02311686385721144,0.28120086709035075
1589986572.9791358,-2.4584510799616224,-0.2984510799616222,8.875690215992325,0.24444444444444444,-0.4244444444444445,-0.7911111111111111,0.006056480993281344,0.046868965256249506,0.09577674488541905
1589986572.9891357,-2.48,-0.32,8.894706737306016,0.24444444444444444,-0.4244444444444445,-0.7911111111111111,0.007010028733857272,0.05665922069502442,-0.039658544445187266
1589986572.9991357,-2.4823819473464273,-0.3209527789385708,8.920476389469286,0.24444444444444444,-0.4244444444444445,-0.7911111111111111,0.0027013218625465936,0.06254111681058556,-0.15479722995154993
1589986573.0091357,-2.53,-0.3471601875896283,8.941933645982713,0.2386102175195621,-0.4329305926988188,-0.7858072684521271,0.016214190602443737,0.07033387361518756,-0.3770293552184846
1589986573.0191357,-2.543271728271728,-0.3689790978252517,8.985104510873741,0.22,-0.46,-0.7688888888888888,0.02617993877991494,0.07199483164476607,-0.605411084285533
1589986573.0291357,-2.6669866466052286,-0.36349332330261425,9.009040060184315,0.22,-0.46,-0.7688888888888888,0.023512501565722273,0.07199483164476607,-0.6534249541410011
1589986573.0391357,-2.6930562268979243,-0.38305622689792435,8.996112453795849,0.22,-0.46,-0.7688888888888888,0.019398651354650596,0.07142514627662551,-0.7770368849685204
1589986573.0491357,-2.734239193603335,-0.441195968016673,9.074239193603335,0.22,-0.46,-0.7688888888888888,0.023203888512572955,0.0781368072556362,-0.9736391028900174
1589986573.0591357,-2.7587795298001936,-0.48502362384015485,9.068732282119884,0.19662991847087025,-0.46208661442224375,-0.7743140863867225,0.025498813781155698,0.09231606465086988,-1.1495260726051424
1589986573.0691357,-2.7855203994804962,-0.5323980025975189,9.023122396882977,0.15777777777777774,-0.4655555555555556,-0.7833333333333333,0.02813453323589968,0.09708393964218458,-1.2666071297251553
1589986573.0791357,-2.721873979444818,-0.5641518586110844,8.919418403611566,0.15777777777777774,-0.4655555555555556,-0.7833333333333333,0.032354851980918316,0.09798973467769335,-1.3770919274804028
1589986573.0891356,-2.72270365581286,-0.590675913953215,8.894433290231575,0.15777777777777774,-0.4655555555555556,-0.7833333333333333,0.03445550657195829,0.10558069975817366,-1.4927140259402754
1589986573.0991356,-2.850499752903385,-0.633999670537847,8.975500576558767,0.15777777777777774,-0.4655555555555556,-0.7833333333333333,0.039160699306012396,0.11568257752968979,-1.5969208525211005
1589986573.1091356,-2.8764013819483005,-0.6834717338104346,8.957739321775968,0.16394207150577067,-0.4560720267432588,-0.7648404521493546,0.04955290684432206,0.11804248532560802,-1.6887419256551746
1589986573.1191356,-2.9015015454693347,-0.7775077273466732,9.052492272653327,0.18666666666666668,-0.4211111111111111,-0.6966666666666667,0.052251805988894416,0.12070228051330881,-1.788759826916506
1589986573.1291356,-2.9600773275595422,-0.8149922672440458,9.145208784410764,0.18666666666666668,-0.4211111111111111,-0.6966666666666667,0.036509934213540526,0.11778948020186908,-1.9308582103523022
1589986573.1391356,-2.106508620689655,-0.7997910578609001,7.973255406195207,0.18666666666666668,-0.4211111111111111,-0.6966666666666667,-0.06323877885654042,0.07632237284741841,-2.057651924263492
1589986573.1491356,-1.7094347421721607,-0.9886070063036065,8.155387000103337,0.18666666666666668,-0.4211111111111111,-0.6966666666666667,-0.0430140380076961,0.08453865293704915,-2.1446335130390457
1589986573.1591356,-2.1299677242555264,-1.0705907070214968,9.023248888618232,0.2340726982387052,-0.4070455852600667,-0.6799964138061696,0.18457891803824644,0.18235095545288935,-2.1834032672209296
1589986573.1691356,-2.04118418744274,-0.952082025691507,8.02522445956219,0.2877777777777778,-0.3911111111111111,-0.6611111111111111,0.20617971210787178,0.25997401481705956,-2.264280158400551
1589986573.1791356,-2.3050922439759036,-1.2276675451807229,8.773303840361445,0.2877777777777778,-0.3911111111111111,-0.6611111111111111,0.05254223029606047,0.18201719076774356,-2.392565030926588
1589986573.1891356,-2.477678913918243,-1.5038069271558046,9.349880410665262,0.2877777777777778,-0.3911111111111111,-0.6611111111111111,-0.0023224509766557994,0.08118527892113067,-2.518502324546718
1589986573.1991355,-2.389692904565449,-1.4741979727329855,8.603049097019207,0.2877777777777778,-0.3911111111111111,-0.6611111111111111,0.026129094340830248,0.15663785828291726,-2.605261339643707
1589986573.2091355,-2.6287053864168617,-1.5331175644028103,8.995627478532397,0.3251871281117183,-0.3707060109289617,-0.6577102610807529,0.09688508655527703,0.1941015949220666,-2.7042141648955482
1589986573.2191355,-2.768498149204816,-1.6374957936473102,9.059996634917848,0.37333333333333335,-0.34444444444444444,-0.6533333333333333,0.07826738394926049,0.17796961112825227,-2.788925556607258
1589986573.2291355,-2.8360006730164304,-1.7909106204918872,9.182728496393509,0.37333333333333335,-0.34444444444444444,-0.6533333333333333,0.0682264070124548,0.15721825879218718,-2.843816230528463
1589986573.2391355,-2.581163336129967,-1.8182074212493327,8.813301616962857,0.37333333333333335,-0.34444444444444444,-0.6533333333333333,0.08499561099591368,0.17399778496657373,-2.9276319904596457
1589986573.2491355,-2.819522730799069,-1.9862044996121024,9.158090923196276,0.37333333333333335,-0.34444444444444444,-0.6533333333333333,0.08825316939503033,0.1933869493804997,-2.9770903955730352
1589986573.2591355,-2.7218156296924985,-2.0830547757393743,9.019567800483124,0.39592377387506983,-0.33138009328777757,-0.6533333333333333,0.08323636381074398,0.17833982991173614,-3.0339587700645074
1589986573.2691355,-2.5234662284608533,-2.0512037349878676,8.814633719323034,0.4655555555555556,-0.2911111111111111,-0.6533333333333333,0.07539072386853198,0.1853296940105163,-3.0658475445756252
1589986573.2791355,-2.729138677203876,-2.194788314987299,8.992204346598927,0.4655555555555556,-0.2911111111111111,-0.6533333333333333,0.08176453545087592,0.19886402433811415,-3.0845366309762183
1589986573.2891355,-2.65,-2.239488342129389,8.791529274759037,0.4655555555555556,-0.2911111111111111,-0.6533333333333333,0.08074380319095252,0.19523638478065083,-3.0890324701024356
1589986573.2991354,-2.6128087850940056,-2.3937191214905993,8.848179327206813,0.4655555555555556,-0.2911111111111111,-0.6533333333333333,0.077422038974391,0.19774676255605436,-3.075664757705901
1589986573.3091354,-2.577387480266761,-2.4391249718096586,8.870412384419602,0.4807708223704229,-0.2585069679363954,-0.6472472266073864,0.08247635223358783,0.1908953869368798,-3.0517191128001238
1589986573.3191354,-2.62,-2.5,9.12,0.5044444444444445,-0.20777777777777776,-0.6377777777777778,0.0818123086872342,0.1908953869368798,-3.0357820676876366
1589986573.3291354,-2.41212372032237,-2.386612938357656,8.63810498802004,0.5044444444444445,-0.20777777777777776,-0.6377777777777778,0.0828430261637033,0.18780323450747252,-3.0079526958229716
1589986573.3391354,-2.3121662053124448,-2.467177101124919,8.816433241062489,0.5044444444444445,-0.20777777777777776,-0.6377777777777778,0.08228014717937975,0.1878568138354632,-2.966508370255289
1589986573.3491354,-2.4213450321551426,-2.634710852983698,8.84288498928162,0.5044444444444445,-0.20777777777777776,-0.6377777777777778,0.08331211264385521,0.18797941717825561,-2.9349953995079376
1589986573.3591354,-2.258914444670602,-2.555469841916005,8.905093968383202,0.5096799119494011,-0.2029668076380879,-0.6377777777777778,0.07009100295564615,0.1751090916721743,-2.900437047774094
1589986573.3691354,-2.298220760037599,-2.751779239962401,8.980447159930174,0.5455555555555556,-0.17,-0.6377777777777778,0.06961908510772968,0.18313814018255628,-2.8608121949624645
1589986573.3791354,-2.229699172218857,-2.793909751665657,9.005037351100343,0.5455555555555556,-0.17,-0.6377777777777778,0.06546625455998238,0.1780596804458507,-2.8327726888719313
1589986573.3891354,-2.1315947580645163,-2.7805172811059906,8.72633611751152,0.5455555555555556,-0.17,-0.6377777777777778,0.06837909833245029,0.18504156544420922,-2.792018963652671
1589986573.3991354,-2.089313508064516,-2.804677995391705,8.671974510368663,0.5455555555555556,-0.17,-0.6377777777777778,0.06508469197370541,0.17911163399846844,-2.7682992378697078
1589986573.4091353,-2.0067225260186983,-2.881354736285059,8.721806315046745,0.5604200231277318,-0.16442582466043396,-0.6410293800591913,0.07253110707091139,0.18016583758729698,-2.7149117588992824
1589986573.4191353,-2.022922776854728,-2.9855147005706857,8.916213248573287,0.6166666666666667,-0.14333333333333334,-0.6533333333333333,0.06257237986507735,0.17276433413663222,-2.665461052865114
1589986573.4291353,-1.9263664034584675,-3.01453438616613,8.959549605187702,0.6166666666666667,-0.14333333333333334,-0.6533333333333333,0.06624257474152262,0.16803707095700746,-2.6212696906144255
1589986573.4391353,-1.8592577784034914,-3.103024074334788,8.852096297339152,0.6166666666666667,-0.14333333333333334,-0.6533333333333333,0.0697726881715279,0.17161054914336066,-2.5711144153696015
1589986573.4491353,-1.762561035432625,-3.0804633787404248,8.76882910078865,0.6166666666666667,-0.14333333333333334,-0.6533333333333333,0.06544984694978735,0.16864776532025055,-2.5145459424076098
1589986573.4591353,-1.7378280574781295,-3.1391402873906475,8.896530934897937,0.697266665885926,-0.18508297321669068,-0.6492743405668958,0.06288812113049878,0.16552164273731815,-2.4593923403405076
1589986573.4691353,-1.76,-3.25,9.0,0.9255555555555556,-0.3033333333333333,-0.6377777777777778,0.05563236990731925,0.16471544815696484,-2.411826860099664
1589986573.4791353,-1.6409340057005044,-3.297626397719798,8.841245340934007,0.9255555555555556,-0.3033333333333333,-0.6377777777777778,0.06082760397653675,0.16211783112235612,-2.3520816683036627
1589986573.4891353,-1.5580146528711445,-3.3380146528711445,8.813659125893883,0.9255555555555556,-0.3033333333333333,-0.6377777777777778,0.05665856406134838,0.15605343852546052,-2.2311674197683122
1589986573.4991353,-1.42,-3.2011149393856533,8.700557469692825,0.9255555555555556,-0.3033333333333333,-0.6377777777777778,0.06100912862509775,0.15156466825688297,-2.157226557750733
1589986573.5091352,-1.42,-3.36933041655273,8.784665208276365,0.9255555555555556,-0.3033333333333333,-0.6377777777777778,0.049332198224159206,0.14238993722757412,-2.091335307631151
1589986573.5191352,-1.335317722652992,-3.528164715331624,8.908988291989743,1.2711111111111109,-0.3566666666666667,-0.7411111111111112,0.0608863253187107,0.1353733772536091,-1.9676047177705138
1589986573.5291352,-1.2448410638988,-3.52943460103795,8.768798856633149,1.2711111111111109,-0.3566666666666667,-0.7411111111111112,0.05519296819534624,0.12905341061157136,-1.8682964071063508
1589986573.5391352,-1.1598171846435101,-3.5546435100548446,8.653583180987203,1.2711111111111109,-0.3566666666666667,-0.7411111111111112,0.04421753371168906,0.10540177363449302,-1.794725739165147
1589986573.5491352,-1.0445874432120492,-3.5669174886424098,8.822112102484345,1.2711111111111109,-0.3566666666666667,-0.7411111111111112,0.053638644829000874,0.11664473705664533,-1.710210956580334
1589986573.5591352,-1.0130325044239545,-3.579711278755705,8.648231349538978,1.1777773638405098,-0.2980382478035454,-0.7345406848592096,0.07142772561627628,0.12359071111533701,-1.6497614218582635
1589986573.5691352,-1.0286580981652231,-3.68127763807395,8.999807208717518,0.6968563120259125,0.004056564527645856,-0.7006852317531279,0.034781236523593016,0.09717114921130957,-1.6182283963599082
1589986573.5791352,-0.996945614747963,-3.763399559443102,8.818300220278449,0.6555555555555556,0.03,-0.6977777777777778,0.04659136823354193,0.10174279185432925,-1.5665242892110498
1589986573.5891352,-0.8904243898947971,-3.866293089052697,8.7523939025263,0.6555555555555556,0.03,-0.6977777777777778,0.04694153039743027,0.09888655969431116,-1.5436076577386704
1589986573.5991352,-0.7227212157809983,-3.6984512882447667,8.768539855072465,0.6555555555555556,0.03,-0.6977777777777778,0.0497438159102776,0.10352273960157247,-1.5258285184863645
1589986573.6091352,-0.8297134201757043,-3.879713420175704,8.628883974553165,0.6524350196910027,0.03331158908074994,-0.6981917264128715,0.04222979042337764,0.09272061651219876,-1.5188395378107982
1589986573.6191351,-0.8079911018185354,-3.874803559272586,8.88916974618302,0.5466666666666666,0.14555555555555555,-0.7122222222222222,0.035563995432459396,0.09245862299619462,-1.4871452102905085
1589986573.6291351,-0.7530735823022462,-3.9117625370399693,8.767254179013323,0.5466666666666666,0.14555555555555555,-0.7122222222222222,0.04826032382215981,0.09268486329896532,-1.4498078726778088
1589986573.6391351,-0.7,-3.997832345469941,8.778111769686706,0.5466666666666666,0.14555555555555555,-0.7122222222222222,0.04930351933859299,0.0953447064809307,-1.4057400517465337
1589986573.649135,-0.6703107208134624,-3.9908285888359,8.749792852791025,0.5466666666666666,0.14555555555555555,-0.7122222222222222,0.05017821599483697,0.09272061651219876,-1.35563320344562
1589986573.659135,-0.5277355124336468,-3.5924173476355143,8.844681835201868,0.545646008776116,0.1482952162091388,-0.7140486626579444,0.0495980942080178,0.09229870975814845,-1.3082946660735297
1589986573.669135,-0.6755489967181341,-3.638609061474417,8.743060064756284,0.5261428407108018,0.20064582522656135,-0.7489490686695595,0.038512878670634555,0.08423673482186972,-1.2740312725943452
1589986573.679135,-0.6904172966434835,-3.6841185364378592,9.070834593286968,0.5255555555555556,0.20222222222222225,-0.75,0.02773322639853478,0.0751175697814138,-1.2387961891852712
1589986573.689135,-0.5653637943878819,-3.518236900918798,8.806781723367271,0.5255555555555556,0.20222222222222225,-0.75,0.043165151937515585,0.08087614996254888,-1.2172084180193246
1589986573.699135,-0.6175915992003008,-3.6946726974009776,8.793285298600527,0.5255555555555556,0.20222222222222225,-0.75,0.037820706903061274,0.07412080618927051,-1.192349451618667
1589986573.709135,-0.6492478259792385,-3.8017550727151104,8.848746376632064,0.5245247985641416,0.20147004820146067,-0.7483006438790201,0.03185289124590146,0.07848511670136878,-1.1686595035373122
1589986573.719135,-0.6126417058322556,-3.858553764627953,8.798364823518279,0.4844444444444445,0.17222222222222222,-0.6822222222222222,0.04044992399442265,0.07609059964859059,-1.1384226322717332
1589986573.729135,-0.13571060413328273,-4.09673153486528,8.394189945979878,0.4844444444444445,0.17222222222222222,-0.6822222222222222,0.04075785520224703,0.07262318607218368,-1.0996629023422393
1589986573.739135,1.153073695339732,-5.295439512332116,7.13312143789338,0.4844444444444445,0.17222222222222222,-0.6822222222222222,0.03849036232182236,0.07111152415190057,-1.0679180020162942
1589986573.749135,1.473258168944456,-6.239272648986557,-5.555770647615099,0.4844444444444445,0.17222222222222222,-0.6822222222222222,-2.071286179217777,0.8394189107132803,-11.370146655254993
1589986573.759135,0.9782923756518411,-3.229345527612547,4.497385937774093,0.4844444444444445,0.17222222222222222,-0.6822222222222222,-3.2036671649435524,2.004633108009713,-15.866107759663647
1589986573.769135,0.19169715342719143,0.3186419689651629,-0.7725033398417429,0.4355555555555555,0.31555555555555553,-0.6822222222222222,-3.99395107951234,0.242945031818613,-2.199288946527881
1589986573.779135,-0.3071705481735486,-0.3485588417392961,-0.07714411582607039,0.4355555555555555,0.31555555555555553,-0.6822222222222222,-3.7289129714726084,-0.1405628482845486,-1.2228491792895337
1589986573.789135,-0.1067358029164025,-0.298319445702382,0.3085617244814781,0.4355555555555555,0.31555555555555553,-0.6822222222222222,-3.5204133069673293,-0.0331782589558723,-1.020996469604668
1589986573.799135,-0.06030052229811169,-0.10474266773804741,2.2302372438730416,0.4355555555555555,0.31555555555555553,-0.6822222222222222,-2.232787147143226,0.28008842148449314,-0.8729595315952128
1589986573.809135,-0.27156359708344585,-0.6985822306238185,6.184636780988388,0.43065622468268966,0.3246946919914784,-0.6794427941308848,-0.09383177333412061,0.4446727645094714,-0.7377188719308093
1589986573.819135,1.4746455576559545,-1.5575283553875237,11.63092155009452,0.3215837009031716,0.528156899810964,-0.6175651123713506,0.877110947121471,-0.17104700943797685,-0.5019332059877228
1589986573.829135,0.7638009017390682,-1.0316143037763306,6.700641236670722,0.32,0.5311111111111111,-0.6166666666666667,2.7526413624146193,0.02216565339619275,-0.1962839645338037
1589986573.839135,1.4801949501463367,-1.91,7.402211419217223,0.32,0.5311111111111111,-0.6166666666666667,4.0838086048253945,-0.002259744248615234,-0.06358284290749978
1589986573.849135,1.0233341803823448,-1.9379094178818561,6.77999491770593,0.32,0.5311111111111111,-0.6166666666666667,5.285763760377485,0.00788228549223098,0.008905288511344946
1589986573.859135,0.5401265375598163,-1.9111064007450942,8.899065420560747,0.3198738192860941,0.5321205568223585,-0.6159726727401841,6.033067551504236,0.026221348099531826,0.0689973504300961
1589986573.869135,0.20733533949309146,0.26197592608290243,-1.5737145036873783,0.31777777777777777,0.5488888888888889,-0.6044444444444445,2.9592470701671423,-0.11320460071028937,0.41822874774168
1589986573.879135,0.1436192218271335,0.33371221963894965,-0.3052906181619256,0.31777777777777777,0.5488888888888889,-0.6044444444444445,0.8284841518064567,-0.13620675274209781,0.6987468595411158
1589986573.889135,-0.17904130196936546,0.2404991794310722,-1.0223140043763677,0.31777777777777777,0.5488888888888889,-0.6044444444444445,0.1511412286685413,0.22671139545188923,0.8708201194606788
1589986573.8991349,1.0267919503755323,-0.2399838943725981,3.6798711549807845,0.31777777777777777,0.5488888888888889,-0.6044444444444445,-1.574399141997381,-0.12526075748637547,1.0098996304635397
1589986573.9091349,0.3914034220471687,0.034236417853327206,1.4861086571733826,0.31777777777777777,0.5488888888888889,-0.6044444444444445,-1.7626308812718976,-0.1500664905690637,1.0638885789376258
1589986573.9191349,1.0536304246383574,-2.72978916557078,11.730912484622236,0.3145669009271437,0.44400024510150504,-0.694348996262202,0.08233317541135854,-0.2633663840570579,1.0697354950710871
1589986573.9291348,0.23720954865538144,-3.166141111394441,12.199439987446304,0.3144444444444445,0.44,-0.6977777777777778,0.6670724548090586,0.5203907946336624,1.3286907343088243
1589986573.9391348,0.03152998175790983,-1.8497918832506228,5.996144249818561,0.3144444444444445,0.44,-0.6977777777777778,0.23988796288307712,0.03307739312986446,1.339460091248135
1589986573.9491348,0.28484206660137124,-2.646999877571009,10.044462536728698,0.3144444444444445,0.44,-0.6977777777777778,-0.38413309526139494,-0.3300807472673611,1.36270599848263
1589986573.9591348,0.3308922697368421,-3.2610559210526313,11.525279605263156,0.31529449926900593,0.44016191520467834,-0.696482456140351,-0.35463052269325906,-0.17866758651489711,1.5271533174888463
1589986573.9691348,0.0884168201207431,-2.6618428474860725,8.622621850306519,0.3377777777777778,0.4444444444444444,-0.6622222222222223,0.3075987449513574,-0.007292427917334057,1.6949851013665802
1589986573.9791348,0.07866633138258962,-2.3000402340892467,7.075475493782005,0.3377777777777778,0.4444444444444444,-0.6622222222222223,0.11437968212363545,0.0575840153983878,1.826342788469948
1589986573.9891348,0.07856399639008335,-3.2886160216594997,10.601200562722301,0.3377777777777778,0.4444444444444444,-0.6622222222222223,-0.20728920636762818,-0.2502274724277593,1.8662861828505901
1589986573.9991348,2.8667560099474994,-6.604142028184581,8.70293174910196,0.3377777777777778,0.4444444444444444,-0.6622222222222223,-0.22314648173255702,-0.23572162963135557,1.96965427707023
1589986574.0091348,16.592231476729957,-25.520132041211067,5.383320372636482,0.3377777777777778,0.4444444444444444,-0.6622222222222223,0.06582183949429399,-0.0984616770486014,2.083435553553303
1589986574.0191348,-4.560952380952381,-9.867318982387475,9.555557729941292,0.41,0.4188888888888889,-0.6911111111111111,-0.3971278689069811,-0.24382522891730962,-0.9558410068370706
1589986574.0291348,-16.24570410106764,-18.835139527162802,8.739175592793863,0.41,0.4188888888888889,-0.6911111111111111,-0.43399444814045907,0.235598139039769,-3.7036777667445056
1589986574.0391347,-1.426513480927504,-2.8872865155777667,5.792927012528613,0.41,0.4188888888888889,-0.6911111111111111,0.10484652853059445,0.17883595900468768,-1.330059280488781
1589986574.0491347,-0.7617391370014046,1.0956498164957484,-0.04451798039600674,0.41,0.4188888888888889,-0.6911111111111111,1.162239991344487,0.3105212736094316,-0.0835877444800138
1589986574.0591347,0.4038544954765825,0.11376387609309635,3.8576867892042106,0.41,0.4188888888888889,-0.6911111111111111,0.6647100466618939,0.11841943385698592,-0.0061941975293881985
1589986574.0691347,0.9623045249269458,-2.457160630479058,13.094678119188877,0.4233348583685076,0.4188888888888889,-0.689059594439033,-0.5985624095188136,-0.13427394753541616,0.20794916859908769
1589986574.0791347,-0.009703450469072977,-2.0961166322149785,8.587406185403085,0.4244444444444445,0.4188888888888889,-0.6888888888888889,-0.46292875001612954,0.027588877950883092,0.37910805690680505
1589986574.0891347,-1.22684409286055,-4.822178207982191,7.145177889966608,0.4244444444444445,0.4188888888888889,-0.6888888888888889,0.23456554153182851,0.07123910740890395,0.5036930868182395
1589986574.0991347,-1.274200015541223,-7.858788561659802,6.723344471209884,0.4244444444444445,0.4188888888888889,-0.6888888888888889,0.1653105777648526,0.046191839363395076,0.7768108695196683
1589986574.1091347,7.561107521091366,-12.094747083108956,10.227880811344463,0.4244444444444445,0.4188888888888889,-0.6888888888888889,-0.3256356823981487,-0.29346872542797625,1.2803488756397476
1589986574.1191347,0.3173874591820871,-4.3898264266832525,11.207805162494168,0.4191924100278167,0.42501626237495466,-0.6836368544722611,-0.10219745276490652,-0.09518688042506623,0.10684777413528801
1589986574.1291347,-2.2544915254237288,-4.400021186440679,6.287683615819208,0.4177777777777778,0.4266666666666667,-0.6822222222222222,0.34744886324317376,0.2969193627590583,-0.3398746766234667
1589986574.1391346,-0.022601497832085204,-3.8833799763500196,7.500068322165287,0.4177777777777778,0.4266666666666667,-0.6822222222222222,0.05514485697778804,0.05871789749909101,0.036588837872569835
1589986574.1491346,0.9889835913247313,-5.2872348108884335,9.998482039152746,0.4177777777777778,0.4266666666666667,-0.6822222222222222,-0.20041074487997848,-0.1881385357575403,0.17382071656846043
1589986574.1591346,-0.32192891685848846,-4.073754989124237,8.563564293708952,0.4177777777777778,0.4266666666666667,-0.6822222222222222,-0.02939242195821959,0.011865943591635314,-0.0793250495643126
1589986574.1691346,0.17883872189946956,-4.291161278100531,8.662027658499621,0.41,0.4066666666666667,-0.7111111111111111,0.04864302114452765,0.015634575347030066,-0.0011380845029304396
1589986574.1791346,0.11253382860175112,-4.346800212257893,8.620533297957017,0.41,0.4066666666666667,-0.7111111111111111,-0.004174330691415862,-0.0051051112158278025,0.004246975564434331
1589986574.1891346,-0.0016359166365932862,-4.315427192349333,8.628587378202816,0.41,0.4066666666666667,-0.7111111111111111,0.013459049879136226,0.0012449239165359567,0.00171938216287441
1589986574.1991346,0.10684472286013236,-4.458430650487152,8.629465831419603,0.41,0.4066666666666667,-0.7111111111111111,-0.016592824162074544,0.002066932450610412,-0.001033466225305206
1589986574.2091346,0.07264787813727222,-4.333042219836665,8.732056365588184,0.41,0.4066666666666667,-0.7111111111111111,-0.007267081440087714,0.0008235000876788345,-0.00041175004383941724
1589986574.2191346,0.06599902112119273,-4.372659161929144,8.698672866232446,0.4141478943647537,0.4066666666666667,-0.6992599843546721,-0.00807172067401965,0.0,-0.0011634816485871992
1589986574.2291346,0.06209815207512875,-4.33678521660103,8.75321478339897,0.4177777777777778,0.4066666666666667,-0.6888888888888889,0.011205452641571892,0.0009763943390009932,0.0017239157910110608
1589986574.2391346,0.03596702335845443,-4.400109922138485,8.689890077861515,0.4177777777777778,0.4066666666666667,-0.6888888888888889,0.0036944358862074436,0.001090830782496456,0.002181661564992912
1589986574.2491345,0.03,-4.214571268265313,8.820120996267654,0.4177777777777778,0.4066666666666667,-0.6888888888888889,0.011433353129515031,0.0019527076447480043,0.002181661564992912
1589986574.2591345,0.03,-4.27876299677168,8.77092775242124,0.4177777777777778,0.4066666666666667,-0.6888888888888889,-0.006871128891308356,0.000562282406241967,0.000562282406241967
1589986574.2691345,0.04245289208751102,-4.363585122306288,8.783585122306288,0.4177777777777778,0.4066666666666667,-0.6888888888888889,-0.001955201954306712,0.0,0.0006791999010081787
1589986574.2791345,0.05963646784296066,-4.418909403528882,8.713635321570393,0.4177777777777778,0.4066666666666667,-0.6888888888888889,0.0001982760336629247,-0.001051175575763871,3.965520673258503e-05
1589986574.2891345,0.046279326248245434,-4.289653599358332,8.806044716262281,0.4177777777777778,0.4066666666666667,-0.6888888888888889,0.01197354662800401,-0.00034248411824620536,0.0007483466642502506
1589986574.2991345,0.030923559388475106,-4.302611524892199,8.804617796942376,0.4177777777777778,0.4066666666666667,-0.6888888888888889,-0.004328601272071783,0.000990086081455231,0.001090830782496456
1589986574.3091345,0.04402998298837539,-4.3240299829883755,8.807014991494189,0.4177777777777778,0.4066666666666667,-0.6888888888888889,-0.0057797678288976605,0.0003256139164153814,0.0018560476485775306
1589986574.3191345,0.07999338901253884,-4.479980167037617,8.68001851076489,0.3911111111111111,0.4066666666666667,-0.6966666666666667,-0.015269323284990277,-0.0021818057943654187,0.0010906865531239494
1589986574.3291345,0.03377928116529672,-4.34133784349589,8.809418012737169,0.3911111111111111,0.4066666666666667,-0.6966666666666667,0.0008624435711321946,-0.0031900412228730735,8.245112461629481e-05
1589986574.3391345,0.06920197470544825,-4.339800493676362,8.741596050589104,0.3911111111111111,0.4066666666666667,-0.6966666666666667,0.003250729583576672,-0.0022034243289056083,0.004276272074335039
1589986574.3491344,0.051708737001155455,-4.2759805795040435,8.785728157497111,0.3911111111111111,0.4066666666666667,-0.6966666666666667,0.012251195075934501,-0.0031792952014868155,0.0003727885840102106
1589986574.3591344,0.06480770351944343,-4.381057776395825,8.767788444720834,0.3911111111111111,0.4066666666666667,-0.6966666666666667,-0.0014474595454235205,-0.0008495875249258694,0.0
1589986574.3691344,0.060470729430590744,-4.4009414588611815,8.731412188291772,0.4345222325939755,0.4066666666666667,-0.6966666666666667,-0.002387056026239078,0.0010394821671849146,0.0010394821671849146
1589986574.3791344,0.0687822582392581,-4.382435483521483,8.765129032957033,0.43666666666666665,0.4066666666666667,-0.6966666666666667,-0.0050556488531576654,0.00013283501977487129,0.001090830782496456
1589986574.3891344,0.04899028265144796,-4.3589902826514475,8.741987043535264,0.43666666666666665,0.4066666666666667,-0.6966666666666667,0.006004869295192912,0.0007639348805116796,0.00032689590198477637
1589986574.3991344,0.050308875785856536,-4.344845562107071,8.735154437892929,0.43666666666666665,0.4066666666666667,-0.6966666666666667,0.007534736112921164,0.001090830782496456,0.0
1589986574.4091344,0.06,-4.357677723487716,8.757677723487715,0.43666666666666665,0.4066666666666667,-0.6966666666666667,0.005006103294814528,-0.0014802898768183617,0.0019283404944861135
1589986574.4191344,0.06,-4.364073825370806,8.781852349258388,0.43666666666666665,0.41061744975279624,-0.6920574197328488,-0.004242526649479875,-0.003272492347489368,0.0019796016058944137
1589986574.4291344,0.06863975356679637,-4.394559014267186,8.815919260700388,0.43666666666666665,0.4133333333333333,-0.6888888888888889,-0.0052536023386575426,-0.002330041433104865,0.00014837986811195312
1589986574.4391344,0.07,-4.358083643699565,8.778083643699565,0.43666666666666665,0.4133333333333333,-0.6888888888888889,-0.002403738055302828,-0.00152846654009858,0.0013063900497886638
1589986574.4491343,0.0757202787258248,-4.352881114903299,8.73855944254835,0.43666666666666665,0.4133333333333333,-0.6888888888888889,0.0039010541123749827,0.00015714044122140365,0.0009336903412750523
1589986574.4591343,0.05646341223461819,-4.334695118351927,8.777073175530765,0.43666666666666665,0.4133333333333333,-0.6888888888888889,0.005068372032534396,-0.000834751801209141,0.000641860861235199
1589986574.4691343,0.05367613100465086,-4.330514196506976,8.830514196506977,0.42375032071782975,0.40497569771937997,-0.6888888888888889,-0.00045709382384246777,-0.0014357443307265448,0.001090830782496456
1589986574.4791343,0.04687749450191415,-4.3465612527490425,8.767826219760527,0.4177777777777778,0.4011111111111111,-0.6888888888888889,-0.005044548153151118,0.0010563341586221997,-0.0010563341586221997
1589986574.4891343,0.07470360110803324,-4.393379501385041,8.686620498614959,0.4177777777777778,0.4011111111111111,-0.6888888888888889,-0.0008666212421606194,-0.001603914070219166,0.0006575201614161465
1589986574.4991343,0.05443393695506372,-4.357389894925106,8.722610105074894,0.4177777777777778,0.4011111111111111,-0.6888888888888889,0.0018592165704441048,0.0006071632906732454,-0.0007683857879476489
1589986574.5091343,0.05706244503078276,-4.378249780123131,8.77943711521548,0.4177777777777778,0.4011111111111111,-0.6888888888888889,0.003722448052846305,-0.0004499557053569375,0.0004499557053569375
1589986574.5191343,0.07678649539475711,-4.348033761513107,8.816786495394757,0.4112496962353722,0.4160324403508952,-0.7010124688962135,-0.0029611672327485962,-0.0020063920778382585,0.0020063920778382585
1589986574.5291343,0.06213493530499076,-4.393595194085028,8.802134935304991,0.41,0.4188888888888889,-0.7033333333333334,-0.006312099380046498,0.0007415028100980995,0.001207273439962575
1589986574.5391343,0.0688620917500472,-4.408862091750048,8.667068623749293,0.41,0.4188888888888889,-0.7033333333333334,-0.0046115761993268615,0.0030242392781483305,0.00012412653467051892
1589986574.5491343,0.06513288492047883,-4.385664424602394,8.698671150795212,0.41,0.4188888888888889,-0.7033333333333334,0.00041495592563911554,0.0011488127672116175,0.0010618397901388753
1589986574.5591342,0.05879108996539792,-4.361208910034603,8.757253460207613,0.41,0.4188888888888889,-0.7033333333333334,0.00571789716828484,-0.0006952158987926159,0.002181661564992912
1589986574.5691342,0.05454780687914169,-4.34271315872515,8.81,0.41656905438098246,0.40777202762876474,-0.6937324076995898,0.006643637930151814,0.002677750338654601,0.001189484017669534
1589986574.5791342,0.06,-4.348528669311215,8.81,0.4244444444444445,0.3944444444444444,-0.6822222222222222,-0.0008500848615127449,0.002572021372601032,-0.0014009419497766722
1589986574.5891342,0.06,-4.364604207188506,8.739854693450582,0.4244444444444445,0.3944444444444444,-0.6822222222222222,-0.0014203746826105764,0.0027702512544679615,-0.001004482186042813
1589986574.5991342,0.06,-4.3701227309473065,8.715429558315572,0.4244444444444445,0.3944444444444444,-0.6822222222222222,-1.3387869528691792e-05,0.0010640550434390726,0.0005521093260125739
1589986574.6091342,0.0507370576191869,-4.356842644047967,8.763894413571219,0.4244444444444445,0.3944444444444444,-0.6822222222222222,0.0024456751574222233,-8.040051394826156e-05,-0.00042481462032583554
1589986574.6191342,0.04312048783906918,-4.342481951356277,8.808084390551622,0.4261780487994829,0.3965247696704905,-0.6843025474482684,0.005523807437599983,6.965352511770304e-05,-0.00150087672674041
1589986574.6291342,0.05,-4.375039410980871,8.814566479210425,0.43,0.4011111111111111,-0.6888888888888889,-2.5794426661105742e-05,-0.0016319471026344998,0.0005497144623584123
1589986574.6391342,0.057154777252542616,-4.372845222747458,8.681297450222031,0.43,0.4011111111111111,-0.6888888888888889,-0.004833422601285149,-0.0003103656555985655,0.0003103656555985655
1589986574.6491342,0.06,-4.382507771830105,8.67501554366021,0.43,0.4011111111111111,-0.6888888888888889,-0.00408976765921022,0.0,0.0
1589986574.6591341,0.04866880218452975,-4.361672005461324,8.769318384708292,0.43,0.4011111111111111,-0.6888888888888889,0.0010536544353956737,0.0006180209689835773,0.0018540629069507323
1589986574.6691341,0.03477785077813822,-4.345222149221861,8.83,0.4236173731732801,0.407493737937831,-0.696431993320467,0.006641915578784523,0.0005211826702967812,0.0027028442352896934
1589986574.6791341,0.036676678824286636,-4.336646642351426,8.843353357648573,0.4177777777777778,0.4133333333333333,-0.7033333333333334,0.005085082866784595,0.002184938035912232,0.0007250362077180906
1589986574.6891341,0.048284445572189805,-4.363137782288759,8.692595534128394,0.4177777777777778,0.4133333333333333,-0.7033333333333334,-0.0012459717755411819,0.001465106698277148,0.0009036928246061098
1589986574.699134,0.05834507459854361,-4.378345074598544,8.718415522189806,0.4177777777777778,0.4133333333333333,-0.7033333333333334,-0.002181661564992912,0.001090830782496456,-0.0016400884937997314
1589986574.709134,0.05349808471865819,-4.373498084718658,8.762509576406709,0.4177777777777778,0.4133333333333333,-0.7033333333333334,0.0006553341686357894,0.00038158184908928063,0.0006553341686357894
1589986574.719134,0.05,-4.349514225617182,8.800485774382818,0.4075348905863685,0.4133333333333333,-0.7033333333333334,0.002740324397494307,0.0022346513300055817,0.002181661564992912
1589986574.729134,0.0547828280401672,-4.349131312160669,8.791303031758996,0.3977777777777778,0.4133333333333333,-0.7033333333333334,0.002229041136769052,0.0033198719192655077,0.0011382103542725956
1589986574.739134,0.053492696737661674,-4.356985393475323,8.72095618042597,0.3977777777777778,0.4133333333333333,-0.7033333333333334,-0.0031681892432625014,5.215155211343338e-05,0.0014196733419196523
1589986574.749134,0.05,-4.381564892472027,8.712625956988811,0.3977777777777778,0.4133333333333333,-0.7033333333333334,-0.00545415391248228,0.0002864474716906297,0.0008043833108058263
1589986574.759134,0.053732640795894994,-4.392534718408211,8.731197922387686,0.3977777777777778,0.4133333333333333,-0.7033333333333334,-0.0034183141724001167,0.0014979987305128884,0.00040716794801643255
1589986574.769134,0.06,-4.37851530650063,8.758165814246535,0.3986850904718372,0.4133333333333333,-0.7044056119717672,0.00032390987433702486,0.0020197066278243997,0.0010098533139121998
1589986574.779134,0.06,-4.356357155127985,8.841785775639924,0.41,0.4133333333333333,-0.7177777777777777,0.004363323129985824,0.00039737273222534525,-0.00039737273222534525
1589986574.789134,0.06,-4.344998784046692,8.76999027237354,0.41,0.4133333333333333,-0.7177777777777777,0.0032722270676298114,0.001090830782496456,-0.0016363788136744622
1589986574.799134,0.07035405192761605,-4.350354051927616,8.745531077891425,0.41,0.4133333333333333,-0.7177777777777777,-0.0012066940048701944,0.0005261048541859382,0.0006419680765596771
1589986574.809134,0.06374044504841175,-4.355935111262103,8.764064888737897,0.41,0.4133333333333333,-0.7177777777777777,-0.0025896808248973106,-0.0004434105762721283,0.0019422606186729832
1589986574.819134,0.04437728211655226,-4.354377282116552,8.783131846349656,0.4134045527573184,0.4079833218575472,-0.7114550369427578,0.0009549748152812882,-0.0001358559672151678,0.0004774874076406441
1589986574.829134,0.044541119079689835,-4.349082238159379,8.81637664276093,0.4177777777777778,0.4011111111111111,-0.7033333333333334,0.002181661564992912,0.0004953592479107646,-0.00010011228667492671
1589986574.839134,0.05387952147701582,-4.353879521477016,8.73284334966089,0.4177777777777778,0.4011111111111111,-0.7033333333333334,0.001424651101320435,0.0,0.00042319014484849793
1589986574.849134,0.05233368644067797,-4.367666313559322,8.720665254237288,0.4177777777777778,0.4011111111111111,-0.7033333333333334,-0.002254229545014922,0.0,0.0002545657006186115
1589986574.859134,0.05561570927335288,-4.37,8.74684712782006,0.4177777777777778,0.4011111111111111,-0.7033333333333334,-0.003885071201581781,0.0012251577081848258,0.0
1589986574.869134,0.06,-4.358411720185966,8.783176559628068,0.4177777777777778,0.40433007772612056,-0.6949640201343088,-0.0005710674287866622,0.0009175763312598581,0.0012640852337330538
1589986574.879134,0.04553365350154111,-4.35723317324923,8.8,0.4177777777777778,0.4066666666666667,-0.6888888888888889,0.006126745582687608,0.001578033607077878,-0.00018538884562390497
1589986574.889134,0.032778795157799606,-4.338336385473399,8.749451566104598,0.4177777777777778,0.4066666666666667,-0.6888888888888889,0.006060392971758261,0.0029693728178513774,0.00048459172322047476
1589986574.899134,0.049483387706043956,-4.342988925137362,8.749483387706045,0.4177777777777778,0.4066666666666667,-0.6888888888888889,0.0019119740696379867,0.00043874847321393384,0.0003823948139275974
1589986574.909134,0.06390366587912506,-4.3578073317582495,8.756096334120874,0.4177777777777778,0.4066666666666667,-0.6888888888888889,-0.0004258238905530712,0.00018664088916275781,0.0
1589986574.919134,0.06923831867057674,-4.3677149560117305,8.753046725317693,0.4192165091777995,0.4066666666666667,-0.6872808949712176,-0.001090830782496456,0.002181661564992912,8.30865440587721e-05
1589986574.929134,0.05060236018471011,-4.34939763981529,8.79939763981529,0.43666666666666665,0.4066666666666667,-0.6677777777777778,-6.570730316320366e-05,0.0011565380856596596,0.0016033925221630822
1589986574.939134,0.05812572759022119,-4.347916181606519,8.743538998835856,0.43666666666666665,0.4066666666666667,-0.6677777777777778,0.001090830782496456,-0.000659070053685286,0.0008635214576223399
1589986574.9491339,0.06017697097255109,-4.344911514513724,8.724557572568623,0.43666666666666665,0.4066666666666667,-0.6677777777777778,-0.0010522217056030448,-0.001626593904521331,-0.0005357631220248752
1589986574.9591339,0.05330521688009611,-4.353305216880096,8.76652608440048,0.43666666666666665,0.4066666666666667,-0.6677777777777778,-0.003633035579052941,-0.0014605751018657658,-0.0007302875509328829
1589986574.9691339,0.05693255954351594,-4.372269761825937,8.803067440456484,0.42848682544937583,0.40496253307973107,-0.6766392724298429,-0.003694111435304265,0.0006692116946815587,-0.00033460584734077933
1589986574.9791338,0.05225479744136461,-4.390980810234542,8.80549040511727,0.41,0.4011111111111111,-0.6966666666666667,-0.001197820582059008,0.002181661564992912,-0.0008448705367629799
1589986574.9891338,0.06885587446705639,-4.351144125532944,8.750148564898245,0.41,0.4011111111111111,-0.6966666666666667,0.002181661564992912,0.0016986485412634365,0.0
1589986574.9991338,0.08,-4.345822949208467,8.711645898416933,0.41,0.4011111111111111,-0.6966666666666667,0.003452032013294622,-0.00017953966580525407,0.0019055556724525652
1589986575.0091338,0.06521554410944523,-4.354928151963518,8.739712607854074,0.41,0.4011111111111111,-0.6966666666666667,0.0016754331986727905,-0.0005532527962338493,0.0021973363749641546
1589986575.0191338,0.054481118653713266,-4.364481118653713,8.777924474614853,0.41,0.40360062147428516,-0.6901939397224142,-0.0006020165657475055,0.0,0.001090830782496456
1589986575.0291338,0.05422351647456523,-4.3584470329491305,8.8,0.41,0.4066666666666667,-0.6822222222222222,0.0,0.0,0.001090830782496456
1589986575.0391338,0.05,-4.356325477326969,8.73041974940334,0.41,0.4066666666666667,-0.6822222222222222,0.0013800050764482311,0.0,0.0017808333207205715
1589986575.0491338,0.05628095318860244,-4.347438093622795,8.746528578697422,0.41,0.4066666666666667,-0.6822222222222222,-0.0012440669757804944,-0.0013702914163093625,0.0008113701486835495
1589986575.0591338,0.06,-4.351232105319688,8.78,0.41,0.4066666666666667,-0.6822222222222222,-0.003272492347489368,-0.002181661564992912,0.000408410874498581
1589986575.0691338,0.05953788476716653,-4.37,8.78,0.41066749978075945,0.4064099359817592,-0.6818114531263703,-0.003171674443282316,-0.002030434708682334,0.00104042183039293
1589986575.0791337,0.05,-4.361026555821076,8.788973444178923,0.4244444444444445,0.4011111111111111,-0.6733333333333333,0.000214303768888015,0.0007645471446503382,0.0009788509135383533
1589986575.0891337,0.049874302271081,-4.340125697728919,8.80886872043973,0.4244444444444445,0.4011111111111111,-0.6733333333333333,0.003272492347489368,0.0,0.0032587808522898942
1589986575.0991337,0.043505668764825645,-4.346494331235174,8.734022675059302,0.4244444444444445,0.4011111111111111,-0.6733333333333333,0.002125264926916927,0.0003824091401908138,0.0014168432846112843
1589986575.1091337,0.0520661347466659,-4.34,8.768264538986664,0.4244444444444445,0.4011111111111111,-0.6733333333333333,0.0,0.000865450444251588,0.0
1589986575.1191337,0.06,-4.345745695417091,8.805745695417091,0.4260404709491919,0.4011111111111111,-0.677802207546626,-0.0009401372141716928,-0.0006267581427811284,0.0006267581427811284
1589986575.1291337,0.06,-4.3624287499023975,8.810285000390412,0.43,0.4011111111111111,-0.6888888888888889,-0.002212750284881349,-0.0016517905336889023,0.0016517905336889023
1589986575.1391337,0.06,-4.365691878570201,8.745535028561603,0.43,0.4011111111111111,-0.6888888888888889,0.0006208876354606521,-0.00046994314703580384,0.0
1589986575.1491337,0.06,-4.3555856706874,8.7044143293126,0.43,0.4011111111111111,-0.6888888888888889,-0.000963057259652081,-0.001090830782496456,0.0
1589986575.1591337,0.051212211417609316,-4.35,8.736363365747172,0.43,0.4011111111111111,-0.6888888888888889,-0.0017023620502057792,-0.001090830782496456,0.0
1589986575.1691337,0.04,-4.35,8.77616351237453,0.42623340910445345,0.4048777020066576,-0.6847798806392018,-0.001090830782496456,-0.001090830782496456,0.00033616745132179494
1589986575.1791337,0.045795220186825185,-4.367385660560475,8.79,0.4177777777777778,0.4133333333333333,-0.6755555555555556,-0.00045867032538307855,-0.00045867032538307855,0.00045867032538307855
