time,acc_x,acc_y,acc_z,mag_x,mag_y,mag_z,gyr_x,gyr_y,gyr_z
1589986601.816019,-3.7,-0.68,8.97,0.31555555555555553,-0.36,-0.6377777777777778,-0.016362461737446838,0.007635815477475192,0.001090830782496456
1589986601.826019,-3.716791976939707,-0.6464160461205861,9.003583953879414,0.31555555555555553,-0.36,-0.6377777777777778,-0.011783160401246096,0.007635815477475192,0.0020066910497366043
1589986601.836019,-3.7254602510460253,-0.6454602510460251,8.99907949790795,0.3088819153881915,-0.3527196652719665,-0.6377777777777778,-0.007334581872266965,0.008231436469591458,0.0015860405728766462
1589986601.846019,-3.7195331732784576,-0.6238329331961434,8.974299759917686,0.3033333333333333,-0.3466666666666667,-0.6377777777777778,-0.0026506926125485506,0.00815576942082589,-5.092289579505956e-05
1589986601.856019,-3.7197254344809356,-0.6097254344809357,8.906510110354853,0.3033333333333333,-0.3466666666666667,-0.6377777777777778,0.0005004897132471103,0.006574935146979481,0.0010309298784949657
1589986601.866019,-3.7257871431345895,-0.6242128568654107,8.871064284327053,0.3033333333333333,-0.3466666666666667,-0.6377777777777778,0.0008030073796804363,0.0036159483320656457,0.004191595137697685
1589986601.876019,-3.724712401331266,-0.6441372039937967,8.932986809318859,0.3033333333333333,-0.3466666666666667,-0.6377777777777778,-0.0016048740256586326,-0.00045129894699007396,0.003397980939833573
1589986601.886019,-3.7218217395903115,-0.6640891302048444,8.994534781229067,0.3033333333333333,-0.3443949276639754,-0.6350516909745482,-0.002181661564992912,-0.002181661564992912,0.0015368856926044803
1589986601.896019,-3.70363725960931,-0.6636372596093099,9.017274519218619,0.3033333333333333,-0.3411111111111111,-0.6311111111111111,-0.0028757288729127466,-0.0014875942570730775,0.0014875942570730775
1589986601.906019,-3.7074087021997526,-0.6303651912009897,8.965547786801483,0.3033333333333333,-0.3411111111111111,-0.6311111111111111,-0.004080656389273301,-0.00028266674071252213,0.004323486949632191
1589986601.916019,-3.7039402408373037,-0.62,8.986358554976178,0.3033333333333333,-0.3411111111111111,-0.6311111111111111,-0.0030412887641489703,0.0026440687316737067,0.00545415391248228
1589986601.926019,-3.703739439512744,-0.6349577580509761,9.017478879025488,0.3033333333333333,-0.3411111111111111,-0.6311111111111111,-0.002997480710949859,0.005587051848921245,0.005862063485460753
1589986601.936019,-3.7054135888733613,-0.6577067944366807,9.025413588873361,0.3061361401329458,-0.3454427216196032,-0.6277987030752054,-0.0038630232861736474,0.00788596539938128,0.0072954344606970005
1589986601.946019,-3.6778081080203835,-0.6439040540101918,8.97342432406115,0.31555555555555553,-0.36,-0.6166666666666667,0.0011431612020663794,0.007396717153147931,0.01580215802317483
1589986601.956019,-3.6910664068918573,-0.647022135630619,8.865734372432572,0.31555555555555553,-0.36,-0.6166666666666667,0.0009745038360660578,0.0042469961835554255,0.024996927278257267
1589986601.966019,-3.7193247319403775,-0.65,8.868649463880756,0.31555555555555553,-0.36,-0.6166666666666667,-0.0014053341642704072,0.0018671581832189607,0.03148677205522262
1589986601.976019,-3.74139088940927,-0.6443045552953652,8.969736225864887,0.31555555555555553,-0.36,-0.6166666666666667,-0.0028029382053751223,0.0017121074228786662,0.03692213745930119
1589986601.986019,-3.7400733734087694,-0.6300733734087695,9.04985325318246,0.3094892837498035,-0.3666177510608204,-0.6271447725129656,-0.0038139058400924754,0.0016402480723898044,0.04089414864768174
1589986601.996019,-3.73,-0.6144823115925329,9.053446934777599,0.3033333333333333,-0.37333333333333335,-0.6377777777777778,-0.001955777384750214,-0.0007148285264302514,0.045551832698906294
1589986602.0060189,-3.73,-0.6185095952265763,8.988942428640541,0.3033333333333333,-0.37333333333333335,-0.6377777777777778,-0.00046412642098671975,-0.004038167248939791,0.04706830158787062
1589986602.0160189,-3.719762580017827,-0.6325593549955433,8.922559354995544,0.3033333333333333,-0.37333333333333335,-0.6377777777777778,-0.001090830782496456,-0.006265802373731263,0.04441898125861379
1589986602.0260189,-3.6855761942286764,-0.6355761942286765,8.938847611542647,0.3033333333333333,-0.37333333333333335,-0.6377777777777778,-0.001090830782496456,-0.004489029210253249,0.03987817660125436
1589986602.0360188,-3.6649420992115638,-0.6099227989487517,8.955019300262812,0.29273703277850777,-0.3666409329829172,-0.6377777777777778,-0.0016383515058232539,-0.0021774509008357723,0.04310255323316001
1589986602.0460188,-3.689882282121597,-0.556764764898669,8.906823623837871,0.2822222222222222,-0.36,-0.6377777777777778,-0.004356902615715227,0.0018094906184666314,0.050531125398551466
1589986602.0560188,-3.722662493528498,-0.54,8.867337506471502,0.2822222222222222,-0.36,-0.6377777777777778,-0.008907313343494264,0.000509964802679781,0.059956828308056244
1589986602.0660188,-3.6958182368455184,-0.5229091184227593,8.916969605257469,0.2822222222222222,-0.36,-0.6377777777777778,-0.014015517779040514,-0.0017122727733116468,0.07678785598359472
1589986602.0760188,-3.6794340753424657,-0.51,9.011887414383562,0.2822222222222222,-0.36,-0.6377777777777778,-0.01739155971624208,-0.006298053480173886,0.09646661160517248
1589986602.0860188,-3.6866344297775266,-0.4999032893325794,9.090193421334842,0.2934407896304673,-0.35775628651835095,-0.6385256822716608,-0.01707561626270872,-0.01090830782496456,0.1153347826658043
1589986602.0960188,-3.6832831550136853,-0.48656631002737,9.13,0.31555555555555553,-0.3533333333333333,-0.64,-0.013464526861926892,-0.01198271779075511,0.1366134595670851
1589986602.1060188,-3.6745167886138117,-0.4741946476896863,9.07322822491731,0.31555555555555553,-0.3533333333333333,-0.64,-0.01143615315439589,-0.014743785625519052,0.16573525521726928
1589986602.1160188,-3.664905223716112,-0.4647156711483359,9.024905223716111,0.31555555555555553,-0.3533333333333333,-0.64,-0.009303077117594582,-0.017411938564777022,0.20032000140526826
1589986602.1260188,-3.646093826455717,-0.48,9.00131259174686,0.31555555555555553,-0.3533333333333333,-0.64,-0.003984952878342288,-0.020678057684688465,0.24125761724207345
1589986602.1360188,-3.62,-0.4726074667028469,8.944126133459966,0.31309137778983787,-0.355797511099051,-0.6416427851771451,0.0016128005762329168,-0.021010215361812662,0.2745830227593345
1589986602.1460187,-3.6235188752407876,-0.4564811247592125,8.882405623796062,0.3088888888888889,-0.36,-0.6444444444444445,0.002827924157019557,-0.018867254598453075,0.30220130613887447
1589986602.1560187,-3.5788394186458703,-0.47558029067706487,8.85,0.3088888888888889,-0.36,-0.6444444444444445,-0.0043405862104499175,-0.01652316690341831,0.32657230870574705
1589986602.1660187,-3.439684485460561,-0.5514013581751698,8.855972139996517,0.3088888888888889,-0.36,-0.6444444444444445,-0.015212407371808751,-0.01429924733873719,0.3558325341517116
1589986602.1760187,-3.26,-0.7016738384443597,8.955972819870363,0.3088888888888889,-0.36,-0.6444444444444445,-0.006712747683942116,-0.01460527291662053,0.4790775620529801
1589986602.1860187,-2.5347420482646883,-0.8134475995565789,9.026792018419034,0.30651876486361007,-0.36,-0.6325938243180504,0.004363323129985824,-0.018048984541014952,0.6790964385397552
1589986602.1960187,-1.5205041694429302,-1.0387330143154239,9.07531346538252,0.3033333333333333,-0.36,-0.6166666666666667,0.010328698664866498,-0.028168397291541834,0.8779284401026259
1589986602.2060187,-1.4665773566410716,-0.9351339650383924,8.849412269237051,0.3033333333333333,-0.36,-0.6166666666666667,0.030980725864047667,-0.02474498216160724,1.0181008741860955
1589986602.2160187,-1.571804024496938,-0.7838351706036746,8.711576902887138,0.3033333333333333,-0.36,-0.6166666666666667,0.027878122764494292,-0.029378105754402715,1.0456558055163638
1589986602.2260187,-1.661537417428287,-0.735348233945646,8.909119536693511,0.3033333333333333,-0.36,-0.6166666666666667,-0.013349408979737715,-0.0630603375866154,1.026887461925523
1589986602.2360187,-1.8288418930476928,-0.6736213497332302,9.028400806418768,0.29077207130153815,-0.3650245048127181,-0.6300653461672482,-0.04194085085764597,-0.06897499903987671,0.9965601537757642
1589986602.2460186,-1.8409914862237715,-0.618594891734263,8.887189783468525,0.27,-0.37333333333333335,-0.6522222222222223,-0.013369313332381316,-0.05346862438051845,0.9658808951904497
1589986602.2560186,-1.8288059342421814,-0.5717910986367282,8.91111928628709,0.27,-0.37333333333333335,-0.6522222222222223,-0.008075384417494816,-0.045936988058489434,0.9189517165014639
1589986602.2660186,-1.824600523903078,-0.527300261951539,8.95883376991923,0.27,-0.37333333333333335,-0.6522222222222223,-0.01963495408493621,-0.05252715732946615,0.8699670760038203
1589986602.2760186,-1.80730154440957,-0.49702384169282254,8.942976158307177,0.27,-0.37333333333333335,-0.6522222222222223,-0.014444863347596912,-0.047022608901328554,0.8164955589100726
1589986602.2860186,-1.8666395596146628,-0.45710027524083574,8.969159889903667,0.2674555861378706,-0.3789310438300179,-0.6425534495461307,-0.008635004464594897,-0.036955219292826656,0.7538320685078008
1589986602.2960186,-1.9356974024889333,-0.40430259751106656,9.01083688298672,0.2644444444444444,-0.3855555555555555,-0.6311111111111111,-0.008696216335862919,-0.03667976587212056,0.681886312271302
1589986602.3060186,-1.9212819582015246,-0.38,9.073878286573665,0.2644444444444444,-0.3855555555555555,-0.6311111111111111,-0.013971040252239393,-0.0435633113264534,0.6067745237669275
1589986602.3160186,-1.8712406612621204,-0.362481322524241,9.044304959465904,0.2644444444444444,-0.3855555555555555,-0.6311111111111111,-0.01260407198727893,-0.03721543216821779,0.5236933628168414
1589986602.3260186,-1.8675097604340416,-0.34,8.980026027824112,0.2644444444444444,-0.3855555555555555,-0.6311111111111111,0.0005489643852158786,-0.025633813589873183,0.45048330162170797
1589986602.3360186,-1.8887735183443084,-0.3391823455628724,9.041226481655691,0.2641718929654019,-0.38614608376014764,-0.6311111111111111,0.008013108156400746,-0.023819892689029305,0.3771527762005487
1589986602.3460186,-1.8467107764849038,-0.32885948234339746,9.012413364767916,0.2577777777777778,-0.4,-0.6311111111111111,-0.008726646259971648,-0.01480285605635531,0.22002339220831918
1589986602.3560185,-1.8415584966815868,-0.34,8.91303017440963,0.2577777777777778,-0.4,-0.6311111111111111,-0.007045531062683932,-0.004523858266752358,0.11513202031568001
1589986602.3660185,-1.880653131466268,-0.3276081211202393,8.894783757759521,0.2577777777777778,-0.4,-0.6311111111111111,-0.004363323129985824,0.002857533711743446,0.020392664799335464
1589986602.3760185,-1.9619821709491347,-0.2809910854745674,8.992973256423703,0.2577777777777778,-0.4,-0.6311111111111111,-0.00393088051248854,0.006427149801851169,-0.08476161309968923
1589986602.3860185,-1.963486321794373,-0.2947181937730362,9.005845418680892,0.2577777777777778,-0.4028833406390777,-0.6381884017706655,0.002058700402164414,0.017587668907385348,-0.2186878423660994
1589986602.3960185,-1.9102682186234816,-0.31053643724696356,8.961609311740892,0.2577777777777778,-0.4122222222222222,-0.6611111111111111,0.008814420599251475,0.02523539856288486,-0.3119235038867573
1589986602.4060185,-1.92,-0.3344691794371324,8.970839026191543,0.2577777777777778,-0.4122222222222222,-0.6611111111111111,0.01394918600847069,0.033468333011415274,-0.4813477773483684
1589986602.4160185,-1.9592028223639635,-0.34980070559099086,8.92960141118198,0.2577777777777778,-0.4122222222222222,-0.6611111111111111,0.020104280709540123,0.04189915671185658,-0.601029869909798
1589986602.4260185,-2.046251652583779,-0.35229139123603687,8.992397348201797,0.2577777777777778,-0.4122222222222222,-0.6611111111111111,0.023157398441926734,0.048587481193338194,-0.7010762186546206
1589986602.4360185,-2.107034555248982,-0.35296544475101826,9.040551832873472,0.2639003489102031,-0.40826055854829996,-0.6585900524095242,0.0232309262742459,0.054804823338125384,-0.8061914533625758
1589986602.4460185,-2.094495273845597,-0.4089905476911944,9.004831757948532,0.2766666666666667,-0.4,-0.6533333333333333,0.02617993877991494,0.06375854369344731,-0.9314622601435316
1589986602.4560184,-2.0965574309256088,-0.4355191436418695,8.965191436418696,0.2766666666666667,-0.4,-0.6533333333333333,0.02422479636095747,0.06838256057822355,-1.033409971463497
1589986602.4660184,-2.1008615342825454,-0.4466892274260362,8.91,0.2766666666666667,-0.4,-0.6533333333333333,0.023637127951169554,0.07745636854848739,-1.136249611215909
1589986602.4760184,-2.1369552149083257,-0.49086564472497746,8.926228834786095,0.2766666666666667,-0.4,-0.6533333333333333,0.027950230034786958,0.08533769978541958,-1.2188964584598603
1589986602.4860184,-2.154965004937954,-0.5448950148138607,8.968251678188558,0.2766666666666667,-0.4,-0.6533333333333333,0.03253421114993062,0.0859925542304401,-1.2765236496216665
1589986602.4960184,-2.1645916423218594,-0.539183284643719,8.99612218976248,0.2766666666666667,-0.3855555555555555,-0.6755555555555556,0.04363323129985824,0.1014472627721704,-1.4824390334126836
1589986602.5060184,-2.2107500509545486,-0.631500101909097,8.971208188962112,0.2766666666666667,-0.3855555555555555,-0.6755555555555556,0.04476497101583782,0.10446523534811593,-1.5141277454601119
1589986602.5160184,-2.261995186124279,-0.7076009627751442,8.881591335023701,0.2766666666666667,-0.3855555555555555,-0.6755555555555556,0.04821419547396138,0.11043560339746479,-1.5950043683682065
1589986602.5260184,-2.299446284446445,-0.7018457185118492,8.95036914370237,0.2766666666666667,-0.3855555555555555,-0.6755555555555556,0.05240014489120086,0.11148621013717885,-1.6643754652606109
1589986602.5360184,-2.278621913463717,-0.8021554783659293,8.974310956731859,0.2867255657076695,-0.3800471108426254,-0.6755555555555556,0.054306412909566726,0.12467463571363595,-1.8427446911822485
1589986602.5460184,-2.3105100134386576,-0.8102550067193288,8.988979973122685,0.3233333333333333,-0.36,-0.6755555555555556,0.05340898296544824,0.1298227715760376,-1.9044037652886745
1589986602.5560184,-2.3425047546595663,-0.8449904906808672,8.897507924432611,0.3233333333333333,-0.36,-0.6755555555555556,0.050723285617484175,0.13226236795619273,-1.9896656657527068
1589986602.5660183,-2.331101540157806,-0.8988812321262447,8.868881232126244,0.3233333333333333,-0.36,-0.6755555555555556,0.05235987755982988,0.1370804419162923,-2.0480845379451322
1589986602.5760183,-2.373802230600063,-0.9718245366006912,8.919011153000314,0.3233333333333333,-0.36,-0.6755555555555556,0.054848431668248994,0.1425296532860353,-2.1096333195871364
1589986602.5860183,-2.3858364730360457,-1.042918236518023,8.95,0.3330607883934094,-0.3483270539279087,-0.683661768105619,0.06081484358948737,0.14821714630436092,-2.1501248821460193
1589986602.5960183,-2.4060722245374984,-1.0651805613437462,8.940891663193751,0.3566666666666667,-0.32,-0.7033333333333334,0.06544984694978735,0.1495410825679509,-2.1914026884266393
1589986602.6060183,-2.417356131364869,-1.1092535402229589,8.912068394094607,0.3566666666666667,-0.32,-0.7033333333333334,0.06501724495597568,0.14755055696622935,-2.2230758315359083
1589986602.6160183,-2.384741260999435,-1.1928881085008476,8.871444054250423,0.3566666666666667,-0.32,-0.7033333333333334,0.06425794237778494,0.15152440497750141,-2.2618776739501203
1589986602.6260183,-2.3626042050903724,-1.2560420509037256,8.903021025451864,0.3566666666666667,-0.32,-0.7033333333333334,0.06734743380712904,0.15518204582214798,-2.2849951482034236
1589986602.6360183,-2.3738833766438305,-1.3397084416095757,8.941941688321915,0.36680659457000114,-0.31892128426560273,-0.6992342135426237,0.06590526171481614,0.15641241257530497,-2.3067680832939805
1589986602.6460183,-2.390811179824914,-1.382433539474741,8.95121676973737,0.4088888888888889,-0.3144444444444445,-0.6822222222222222,0.06340091437326784,0.1583474354466173,-2.324398669636765
1589986602.6560183,-2.4141379547486417,-1.4689656832404925,8.917930678770373,0.4088888888888889,-0.3144444444444445,-0.6822222222222222,0.06518653520736506,0.16253378659197193,-2.3517935832495516
1589986602.6660182,-2.3993405012493376,-1.534791398500795,8.84652759900053,0.4088888888888889,-0.3144444444444445,-0.6822222222222222,0.06371890572855785,0.15892802384186477,-2.3693828301026287
1589986602.6760182,-2.3324102636288684,-1.57,8.854964105451547,0.4088888888888889,-0.3144444444444445,-0.6822222222222222,0.06394897575189533,0.15790754448595598,-2.3904359468164804
1589986602.6860182,-2.3011262960966485,-1.6218771601610806,8.84729238672036,0.42233852300472463,-0.2940778556404647,-0.6995146089425824,0.0659090148680307,0.16773353899494914,-2.4084228260879126
1589986602.6960182,-2.3250520619824546,-1.7243684922521931,8.853789046486842,0.4477777777777778,-0.25555555555555554,-0.7322222222222222,0.07185705802662755,0.17248903725257858,-2.428177963674499
1589986602.7060182,-2.2413120598983864,-1.7396719850254034,8.787760049915322,0.4477777777777778,-0.25555555555555554,-0.7322222222222222,0.07062387932876645,0.1712604328519436,-2.444337098275712
1589986602.7160182,-2.1461431454519246,-1.7793995963673057,8.797598385469223,0.4477777777777778,-0.25555555555555554,-0.7322222222222222,0.06968218232688006,0.17881817459675198,-2.462478707681193
1589986602.7260182,-2.130530758907312,-1.8607961383609681,8.930708688687822,0.4477777777777778,-0.25555555555555554,-0.7322222222222222,0.08128136749984047,0.1943320304510845,-2.479014272650178
1589986602.7360182,-2.1685365853658536,-1.9660975609756097,8.813170731707316,0.46149051490514903,-0.2397560975609756,-0.7384823848238482,0.07353795811756596,0.17953478342161183,-2.4970979005362777
1589986602.7460182,-2.125295483387171,-2.025295483387171,9.009409033225657,0.4988888888888889,-0.19666666666666666,-0.7555555555555555,0.0533356853456487,0.17635561182129353,-2.5174579585302546
1589986602.7560182,-2.1555381864328567,-2.0555381864328566,8.948923627134286,0.4988888888888889,-0.19666666666666666,-0.7555555555555555,0.0638923802026512,0.18427313296404538,-2.52141671910163
1589986602.7660182,-2.16,-2.164570334317402,8.781332482246867,0.4988888888888889,-0.19666666666666666,-0.7555555555555555,0.06657192390246784,0.1859710253305537,-2.530342974350823
1589986602.7760181,-2.16,-2.239868945982606,8.839898069097583,0.4988888888888889,-0.19666666666666666,-0.7555555555555555,0.06109605433689109,0.1887089601133421,-2.5339935540612073
1589986602.7860181,-2.1645702312400132,-2.31,8.83185534686002,0.5043186576488756,-0.18128232184670426,-0.7630969010555371,0.06019807998401686,0.193466957445684,-2.536773865194783
1589986602.7960181,-2.15,-2.31,8.81,0.5188888888888888,-0.14,-0.7833333333333333,0.05781403147231216,0.1974403716318585,-2.538363230869253
1589986602.806018,-2.066039145746794,-2.4131686834025645,8.71920782914936,0.5188888888888888,-0.14,-0.7833333333333333,0.06039522434070093,0.1987904397190177,-2.5328765460857285
1589986602.816018,-2.02,-2.450399378130938,8.712795646916566,0.5188888888888888,-0.14,-0.7833333333333333,0.05257770453937141,0.20184726015775264,-2.519209192024097
1589986602.826018,-2.0065220537822808,-2.49504266016607,8.76652205378228,0.5188888888888888,-0.14,-0.7833333333333333,0.05751998829992976,0.20495282775101759,-2.5007249153708924
1589986602.836018,-1.9611498221016663,-2.5887356888716666,8.740114489026668,0.5224008642453705,-0.14140479014259266,-0.7860024346042593,0.054102816644681806,0.20915119152437714,-2.4887116970424827
1589986602.846018,-1.8964007557468248,-2.6015954655190514,8.835194709772226,0.5466666666666666,-0.1511111111111111,-0.8044444444444444,0.03521218253736565,0.19805156662681667,-2.4698169908417866
1589986602.856018,-1.892843840786631,-2.66275072629305,8.825967025054007,0.5466666666666666,-0.1511111111111111,-0.8044444444444444,0.03536682879267828,0.19618935478803853,-2.4472444749702897
1589986602.866018,-1.7469929819054237,-2.617014507051728,8.598784277674387,0.5466666666666666,-0.1511111111111111,-0.8044444444444444,0.016480988295709983,0.18344557939906433,-2.4190114381703305
1589986602.876018,-1.4965404803562907,-2.499026960394465,8.667189040878004,0.5466666666666666,-0.1511111111111111,-0.8044444444444444,-0.040449183519153914,0.1440840070525324,-2.3974750699898553
1589986602.886018,-1.9248691206543966,-2.9698254942058626,9.672817314246762,0.5493886237976218,-0.15031053548435963,-0.8092478982049534,-0.03289654156937233,0.1408719097871945,-2.351450157046714
1589986602.896018,-1.7075644087606077,-2.7000286261158255,8.442807730745127,0.5844444444444444,-0.14,-0.8711111111111111,0.15332573874982028,0.2416580511333724,-2.240316358582133
1589986602.906018,-1.6436236597388079,-2.67161051543947,8.137313040974304,0.5844444444444444,-0.14,-0.8711111111111111,0.08977707144219275,0.20290886375067269,-2.217841829900167
1589986602.916018,-1.7811992448830893,-3.035837583625886,8.953915016228391,0.5844444444444444,-0.14,-0.8711111111111111,-0.026695585191737557,0.10322679022310198,-2.1880854145082616
1589986602.926018,-1.8159271709611182,-3.146966947075578,9.18311932834338,0.5844444444444444,-0.14,-0.8711111111111111,0.008913768139747105,0.13580556029233262,-2.1403537281277605
1589986602.936018,-1.6925113774758027,-3.0333940132042816,8.735068264854817,0.5745849625024037,-0.14093013980585292,-0.8588332656738528,0.07325340187006807,0.17133685603284665,-2.0482864033013044
1589986602.946018,-1.7193961925517596,-3.176779693609384,8.896377155310557,0.4690371699819812,-0.1508874787228739,-0.7273963919691757,0.04001638015461264,0.13712227485517192,-1.9984308707281213
1589986602.956018,-1.7298232971882703,-3.317279121485338,8.954381540158947,0.4666666666666667,-0.1511111111111111,-0.7244444444444444,0.029290556329953494,0.12221159821288073,-1.9173335604692703
1589986602.966018,-1.7009005809643662,-3.281125726205458,8.853152033375283,0.4666666666666667,-0.1511111111111111,-0.7244444444444444,0.04743168510295888,0.12852155604696955,-1.8605439399624708
1589986602.976018,-1.4904585422571035,-3.132385364435724,8.844770728871447,0.4666666666666667,-0.1511111111111111,-0.7244444444444444,0.05583244671096878,0.1241844378201906,-1.7678961556579444
1589986602.986018,-1.4600394665215024,-3.140088799673381,8.860118399564508,0.46668968880420975,-0.15098284491622815,-0.7243731854472872,0.04252302743392196,0.0992709826192441,-1.7179809900981589
1589986602.996018,-1.475283658332924,-3.2021941156245397,8.853328748956235,0.49,-0.021111111111111112,-0.6522222222222223,0.02931076618369781,0.10438273829064544,-1.61356837025807
1589986603.006018,-1.42,-3.14,8.57,0.49,-0.021111111111111112,-0.6522222222222223,0.04363323129985824,0.10362892433716332,-1.5555246958399462
1589986603.016018,-1.3384032403240325,-3.0529634563456347,8.140257065706571,0.49,-0.021111111111111112,-0.6522222222222223,0.07092909684318828,0.13211156664324683,-1.500932964753286
1589986603.026018,-1.3370203752269518,-3.1944652007262455,8.356375226951785,0.49,-0.021111111111111112,-0.6522222222222223,0.04848455651644163,0.09238493903073414,-1.4186143196742613
1589986603.036018,-1.37,-3.3171677681748855,9.275207422470768,0.49,-0.021111111111111112,-0.6522222222222223,-0.04779222468820156,0.007714203342806092,-1.3547452562452251
1589986603.046018,-1.3686678724103913,-3.319324893127261,8.820711279184478,0.5155555555555555,0.06555555555555556,-0.6611111111111111,0.057304451002198886,0.09272061651219876,-1.2222499213339237
1589986603.0560179,-1.3617716211772444,-3.3675986517592897,8.56554998355804,0.5155555555555555,0.06555555555555556,-0.6611111111111111,0.060313508253777244,0.09272061651219876,-1.1628210406152513
1589986603.0660179,-1.3256064787914004,-3.4446720656595002,8.86261457728065,0.5155555555555555,0.06555555555555556,-0.6611111111111111,0.009113781058851174,0.04044208776889475,-1.0791687849179912
1589986603.0760179,-1.4169988378849505,-3.5208323649041255,9.068247385241138,0.5155555555555555,0.06555555555555556,-0.6611111111111111,0.03320640071670301,0.05955002749753586,-1.0135371658500498
1589986603.0860178,-1.3248898355291,-3.4425990916015463,8.464757525319492,0.5155555555555555,0.06555555555555556,-0.6611111111111111,0.08466674206837338,0.09816516907042994,-0.9120210079024396
1589986603.0960178,-1.350951938252654,-3.520094264155839,9.092563725596177,0.5255660293506488,0.12470835525383339,-0.6247093882198632,0.019957771885961262,0.02927661240248894,-0.8679692165538948
1589986603.1060178,-1.3335632035748046,-3.477462404399759,8.754924808799519,0.5277777777777778,0.13777777777777778,-0.6166666666666667,0.04825503736210616,0.04433537686798488,-0.7530455209617128
1589986603.1160178,-1.2324804817063837,-3.3624024085319184,8.542168189008521,0.5277777777777778,0.13777777777777778,-0.6166666666666667,0.053484774191124004,0.05116782333609396,-0.6782857833681172
1589986603.1260178,-1.2514188496317702,-3.4528376992635406,8.825811503682297,0.5277777777777778,0.13777777777777778,-0.6166666666666667,0.02414562631568062,0.020718361482784373,-0.6123398477978085
1589986603.1360178,-1.2592389298033,-3.4684778596066,8.747610701967,0.5277777777777778,0.13777777777777778,-0.6166666666666667,0.030969933653836504,0.02668963040367077,-0.5543332354234835
1589986603.1460178,-1.24,-3.43,8.838083111882991,0.5366666666666666,0.17222222222222222,-0.6311111111111111,0.022071046206571333,0.019007653915545528,-0.4494296092216504
1589986603.1560178,-1.234906864126675,-3.42660457608445,8.830848855978887,0.5366666666666666,0.17222222222222222,-0.6311111111111111,0.017062590131757125,0.014695736920428885,-0.37885934606901545
1589986603.1660178,-1.1815050514816068,-3.406555566297675,8.836989897036787,0.5366666666666666,0.17222222222222222,-0.6311111111111111,0.002732587267875059,-0.0017949115106486255,-0.2999927814507226
1589986603.1760178,-1.1848289899182043,-3.487072474795511,8.778631919345635,0.5366666666666666,0.17222222222222222,-0.6311111111111111,0.012281173456152128,0.005698880148905395,-0.22318082408928397
1589986603.1860178,-1.152914970515503,-3.407287426288758,8.523319764124025,0.5366666666666666,0.17222222222222222,-0.6311111111111111,0.014021813194034905,0.0004769609352570578,-0.16661003260809362
1589986603.1960177,-1.15,-3.4240358216485527,8.708310454287457,0.5491296852992494,0.19625804387077486,-0.6417936985104679,-0.0015506083096476237,-0.01310950706841796,-0.11512269750106535
1589986603.2060177,-1.1685401209907544,-3.4361800403302514,8.76,0.5522222222222222,0.20222222222222225,-0.6444444444444445,0.007354464723202717,-0.007598670039346578,-0.06318065496131596
1589986603.2160177,-1.1461091303673847,-3.4230545651836923,8.751527282591846,0.5522222222222222,0.20222222222222225,-0.6444444444444445,0.003256639706680338,-0.012348192621221409,0.0071081973176418956
1589986603.2260177,-1.1657261326518522,-3.5100414642814832,8.724273867348149,0.5522222222222222,0.20222222222222225,-0.6444444444444445,0.005300259394180615,-0.009971371560769767,0.04684234554258158
1589986603.2360177,-1.147579078262221,-3.5113686173933316,8.742420921737779,0.5522222222222222,0.20222222222222225,-0.6444444444444445,0.010288245934611013,-0.012056532906034895,0.1059137599957521
1589986603.2460177,-1.1254470858444083,-3.354470858444082,8.815488113700162,0.586179021918603,0.2264770791482085,-0.6614228442926349,-0.002585243900591165,-0.013883707726754865,0.14737759641652015
1589986603.2560177,-1.113006786255917,-3.3752618759478548,8.77947624810429,0.5988888888888889,0.23555555555555555,-0.6677777777777778,-0.005889005694110449,-0.022308599900580334,0.2072652513311787
1589986603.2660177,-1.138707547603364,-3.420238208305887,8.689523583388226,0.5988888888888889,0.23555555555555555,-0.6677777777777778,-0.0002819693718323678,-0.02651387714228889,0.2353004329425691
1589986603.2760177,-1.1215384305023202,-3.3925640508372,8.73538470849304,0.5988888888888889,0.23555555555555555,-0.6677777777777778,-0.006097473402002179,-0.016977789765289603,0.2848746949781734
1589986603.2860177,-1.1283155118480506,-3.4232620473922024,8.698422440759748,0.5988888888888889,0.23555555555555555,-0.6677777777777778,-0.011987474472619247,-0.029061604551941372,0.3104726181663435
1589986603.2960176,-1.208567253639105,-3.388625702691635,8.898479580060311,0.7444444444444445,0.27111111111111114,-0.6888888888888889,-0.017137527851863132,-0.03801960110269321,0.3492380782886901
1589986603.3060176,-1.2007598376828859,-3.4901221101224826,8.726716429023492,0.7444444444444445,0.27111111111111114,-0.6888888888888889,-0.009472615160745164,-0.031206345377255,0.37989772905316194
1589986603.3160176,-1.18,-3.379768521462639,8.756527821939587,0.7444444444444445,0.27111111111111114,-0.6888888888888889,-0.01933194938808759,-0.03797707425614355,0.42006578887462953
1589986603.3260176,-1.18,-3.370877583465819,8.623163751987281,0.7444444444444445,0.27111111111111114,-0.6888888888888889,-0.007693738765448771,-0.03021826717438434,0.4656487804799649
1589986603.3360176,-1.2283373113971527,-3.5150119341914583,8.859742775551956,0.7444444444444445,0.27111111111111114,-0.6888888888888889,-0.017969347258257138,-0.03824040232992616,0.5044211549458077
1589986603.3460176,-1.280377257909089,-3.5365409140303035,8.792138683287885,1.2566374382912222,0.3443883569461246,-1.172668256799641,-0.025864339715436488,-0.04256297674437051,0.5479262724453605
1589986603.3560176,-1.3284117325560212,-3.4921176899253052,8.701588267443979,1.5055555555555555,0.38,-1.4077777777777778,-0.020096962356597307,-0.04053399205424178,0.6187704922571827
1589986603.3660176,-1.3214061137229043,-3.334061137229041,8.83,1.5055555555555555,0.38,-1.4077777777777778,-0.027211226245431968,-0.04901069360570879,0.6676903772321375
1589986603.3760176,-1.339250781765194,-3.512507817651939,8.83,1.5055555555555555,0.38,-1.4077777777777778,-0.012612091342461627,-0.048037417945510766,0.7105145062808506
1589986603.3860176,-1.2632614692526418,-3.4091554555871495,8.787367482918134,1.5055555555555555,0.38,-1.4077777777777778,-0.014789430325553316,-0.05450723510539276,0.743005709869201
1589986603.3960176,-1.3456381368096109,-3.4818215065180205,8.739814192178375,0.7777777777777778,-0.26666666666666666,-0.8633333333333333,-0.014656605636165389,-0.05622712673695858,0.7836720388070212
1589986603.4060175,-1.2796627932126075,-3.3581177372736386,8.888258715271634,0.7777777777777778,-0.26666666666666666,-0.8633333333333333,-0.021853399204304576,-0.06522311869713256,0.8070616179034736
1589986603.4160175,-1.337136748931063,-3.3265726502137873,8.816008551496513,0.7777777777777778,-0.26666666666666666,-0.8633333333333333,-0.0192457048138886,-0.06580832940857641,0.8309930244586738
1589986603.4260175,-1.284965757399884,-3.1499315147997677,8.713310504933256,0.7777777777777778,-0.26666666666666666,-0.8633333333333333,-0.017453292519943295,-0.06338855874102119,0.8698885682274942
1589986603.4360175,-1.3817823274508572,-3.2545051183822142,8.735445581862715,0.7777777777777778,-0.26666666666666666,-0.8633333333333333,-0.02022897491738152,-0.06465602658351356,0.8805947630063425
1589986603.4460175,-1.4585314155942468,-3.3261771385314156,8.81794852384557,0.6761981663722769,-0.03399444865001264,-0.7823441836992178,-0.02518572207883566,-0.0688189533786939,0.8951880933880604
1589986603.4560175,-1.47,-3.33,8.783705064023547,0.6133333333333333,0.11,-0.7322222222222222,-0.028103018209528513,-0.0692395035680354,0.911013210107478
1589986603.4660175,-1.4580062189631966,-3.316510883185594,8.7007476678888,0.6133333333333333,0.11,-0.7322222222222222,-0.024161393044559734,-0.0709583728054822,0.9274508388664442
1589986603.4760175,-1.3801429433331784,-3.180250150833063,8.729946396250059,0.6133333333333333,0.11,-0.7322222222222222,-0.030531567385801976,-0.07308176425256295,0.9370061003783073
1589986603.4860175,-1.4457805012176919,-3.278670751826538,8.795780501217692,0.6133333333333333,0.11,-0.7322222222222222,-0.02605854968388177,-0.06949789264644736,0.9343328148288443
1589986603.4960175,-1.4245136581366244,-3.2858054632546496,8.81,0.5904643574658247,0.1439091711138921,-0.7322222222222222,-0.028185875522439497,-0.072593298703553,0.9298801904106899
1589986603.5060174,-1.4593441843887371,-3.2996720921943683,8.84923488178686,0.5811111111111111,0.15777777777777774,-0.7322222222222222,-0.02719923117677067,-0.07195906245194571,0.9138181191251938
1589986603.5160174,-1.409512890578591,-3.2747564452892957,8.791098372341688,0.5811111111111111,0.15777777777777774,-0.7322222222222222,-0.021763480254797414,-0.0692411869909591,0.8911691569503052
1589986603.5260174,-1.4297823543178094,-3.379201965831968,8.730362742803651,0.5811111111111111,0.15777777777777774,-0.7322222222222222,-0.02072578486743266,-0.06655650537293786,0.8467774985693498
1589986603.5360174,-1.4540437105951098,-3.39602914039674,8.762058280793479,0.5811111111111111,0.15777777777777774,-0.7322222222222222,-0.018103022903174452,-0.06042089981568132,0.8036462418010323
1589986603.5460174,-1.4808653757915022,-3.4002163439478754,8.829134624208498,0.5955555555555555,0.10222222222222224,-0.7688888888888888,-0.01946975783837158,-0.05544357419695967,0.7171819237357231
1589986603.5560174,-1.5193557859961457,-3.4098389464990366,8.790644214003853,0.5955555555555555,0.10222222222222224,-0.7688888888888888,-0.012122116088996934,-0.047046269340531514,0.6426558431349232
1589986603.5660174,-1.4800811135202105,-3.338146004336379,8.734113558928295,0.5955555555555555,0.10222222222222224,-0.7688888888888888,-0.010257348600455584,-0.046034828643844894,0.5673824248101851
1589986603.5760174,-1.4890922578496382,-3.329546128924819,8.681815484300724,0.5955555555555555,0.10222222222222224,-0.7688888888888888,0.0005957342424043523,-0.031236397066029712,0.45496898203186514
1589986603.5860174,-1.4960206922218087,-3.293875846669148,8.776331075548939,0.5955555555555555,0.10222222222222224,-0.7688888888888888,-0.0015361917804979119,-0.02922975062840358,0.38680781601842285
1589986603.5960174,8.840722259887006,-0.6779439548022599,0.8713184180790963,0.5405517137476459,0.0754842435655995,-0.6947864908976773,-0.697771147328245,1.6111352244800727,-0.6430455597825835
1589986603.6060174,6.642901554404145,0.4576493955094991,-2.259943005181347,0.5155555555555555,0.06333333333333334,-0.6611111111111111,-0.684060737299923,0.010689388072070205,-3.6043971123706493
1589986603.6160173,1.4897452000717746,-0.13127256414857352,-0.5094394401579041,0.5155555555555555,0.06333333333333334,-0.6611111111111111,-0.34884650983276766,-0.9666034575863599,-5.31340624603765
1589986603.6260173,-0.4566330954994513,-0.8903581229418221,-0.05924066959385291,0.5155555555555555,0.06333333333333334,-0.6611111111111111,-0.2199977583724478,-0.7638175252189358,-5.156519655818732
1589986603.6360173,0.009530118625789452,-0.574191958095825,0.07312894777384067,0.5155555555555555,0.06333333333333334,-0.6611111111111111,-0.1431129317855599,-0.5351828237678048,-4.900248157223378
1589986603.6460173,0.12,-0.4582451897802544,-0.010903164756597639,0.524592109720908,0.18080853748291448,-0.648788537249267,-0.13573875733928562,-0.45543383695320727,-4.659352193637783
1589986603.6560173,0.03526240321193003,-0.2799400949558678,-0.040584711467992224,0.5277777777777778,0.2222222222222222,-0.6444444444444445,-0.1682561382649533,-0.3616766717680251,-4.340579327288032
1589986603.6660173,0.4173161080622748,-1.091865887839461,1.6793056504227806,0.5277777777777778,0.2222222222222222,-0.6444444444444445,0.38319754657707844,0.2605551721856121,-4.156145519306026
1589986603.6760173,4.118754570383913,5.229720553669365,15.274681705406111,0.5277777777777778,0.2222222222222222,-0.6444444444444445,2.5805630196420863,3.3772981917777614,-4.012643966784325
1589986603.6860173,1.722559414990859,1.9435100548446074,6.141755027422304,0.5277777777777778,0.2222222222222222,-0.6444444444444445,0.4222751536095197,2.973272677755749,-3.427143037037083
1589986603.6960173,0.5003286080150056,-0.6028640479024638,5.413141434909642,0.45519612676197463,0.30045958630419195,-0.6519853951993331,-0.6812499700837454,-0.23215494086470478,-2.648946235873895
1589986603.7060173,3.074935289042277,-1.758244052754838,21.769161839023788,0.44222222222222224,0.3144444444444445,-0.6533333333333333,0.26012932627451146,0.3520552080906445,-2.3416859164119073
1589986603.7160172,0.6172759458888186,0.12681462692876755,6.151711054745299,0.44222222222222224,0.3144444444444445,-0.6533333333333333,1.1023452611367204,0.5460664080975999,-2.1926174280596626
1589986603.7260172,1.0999126319621406,0.27614342919548596,2.3984324717874044,0.44222222222222224,0.3144444444444445,-0.6533333333333333,0.6009770775445955,-0.1402999787978525,-1.8904912307684216
1589986603.7360172,0.641752063890883,-1.4953303720985884,9.896968024647045,0.44222222222222224,0.3144444444444445,-0.6533333333333333,-0.3449237474383384,-0.1304748728661904,-1.6551577900808419
1589986603.7460172,0.3437935210414774,-2.5633454435361793,12.01072055706933,0.4364025969657214,0.32841154506004644,-0.6510054832307329,-0.8095638796698108,0.1613732720991798,-1.3886893437190564
1589986603.7560172,0.5881618201868941,-2.498161820186894,9.354080910093447,0.4311111111111111,0.3411111111111111,-0.6488888888888888,0.27738461123571245,0.23216037136116316,-1.164458757946382
1589986603.7660172,0.33399967912722606,-2.199666292315097,7.534942242900689,0.4311111111111111,0.3411111111111111,-0.6488888888888888,0.4149519946598619,0.27178662352267347,-1.0177389072514846
1589986603.7760172,0.13731276751020732,-2.6718943174421588,9.731013432217598,0.4311111111111111,0.3411111111111111,-0.6488888888888888,-0.0035320162216974094,0.05446943959717637,-0.9450174594445298
1589986603.7860172,0.06659353952788857,-2.536362061073694,9.509512849015888,0.4311111111111111,0.3411111111111111,-0.6488888888888888,-0.2015617475955442,-0.06143286063170317,-0.8196433524763921
1589986603.7960172,0.15447430376112548,-2.2762032730404824,7.565934539190353,0.4237363703065684,0.36993964334705076,-0.6301168213864166,0.09318576204138732,0.06246918237236121,-0.6479464694111268
1589986603.8060172,0.09490431548771984,-2.47264352676842,7.813458588362904,0.4188888888888889,0.3888888888888889,-0.6177777777777778,0.0668560864624517,0.07374665162304042,-0.42881245164162973
1589986603.8160172,-0.013078910447250458,-3.0084734626835026,9.637968894364029,0.4188888888888889,0.3888888888888889,-0.6177777777777778,-0.03825810037497289,-0.002957800190221585,-0.27894646157617753
1589986603.8260171,0.00495209907313654,-2.8515733312563283,8.306676532440221,0.4188888888888889,0.3888888888888889,-0.6177777777777778,0.038981121361732735,0.014549366566602197,-0.015893215035076874
1589986603.8360171,-0.07911642048606118,-2.7804973601495573,8.382322862953757,0.4188888888888889,0.3888888888888889,-0.6177777777777778,-0.02270892002565983,0.006478607539900268,0.1849778030557876
1589986603.8460171,-0.07,-2.71,7.91,0.4011111111111111,0.41,-0.6466666666666666,-0.04908738521234052,-0.06763150851478028,0.4188790204786391
1589986603.856017,-0.07,-2.71,7.91,0.4011111111111111,0.41,-0.6466666666666666,-0.04908738521234052,-0.06763150851478028,0.4188790204786391
1589986603.866017,-0.08750364276267121,-3.086328319397431,8.645152996032191,0.4011111111111111,0.41,-0.6466666666666666,-0.01376438739935585,-0.06954085974791457,0.7386953520286355
1589986603.876017,-0.11595433464145558,-3.1659543346414556,8.810560114163396,0.4011111111111111,0.41,-0.6466666666666666,-0.026657444798510434,-0.06320708640767994,0.9371909833119667
1589986603.886017,-0.1252920836859152,-3.1382474978845085,8.756494995769017,0.4011111111111111,0.41,-0.6466666666666666,-0.029452431127404314,-0.0679501223904416,1.0476134362015317
1589986603.896017,-0.1374401076716016,-3.113720053835801,8.744640646029609,0.40565784357708984,0.41289337520562286,-0.6524534170779124,-0.03472776513503051,-0.07714361166389809,1.1798346463720892
1589986603.906017,-0.15677709568162573,-3.126777095681626,8.69123518204911,0.4133333333333333,0.4177777777777778,-0.6622222222222223,-0.02884790212897592,-0.09582223358893295,1.3594936988230257
1589986603.916017,-0.2076465291257279,-3.2491163228143196,8.71933724211074,0.4133333333333333,0.4177777777777778,-0.6622222222222223,-0.018568221859337996,-0.09430079643286993,1.4707920306022177
1589986603.926017,-0.24,-3.33874127702363,8.77125872297637,0.4133333333333333,0.4177777777777778,-0.6622222222222223,-0.02208361417086958,-0.0980298528148435,1.561345092485737
1589986603.936017,-0.2557330275919104,-3.36573302759191,8.833420795428916,0.4133333333333333,0.4177777777777778,-0.6622222222222223,-0.04718657095316365,-0.11251549240946998,1.6635208798440142
1589986603.946017,0.39291162721673956,-7.862804036506641,9.296660235957559,0.407899631470901,0.42140024568606604,-0.6857682636260956,-0.10120258061327103,-0.09784631518127593,1.6260414788893893
1589986603.956017,0.2710367770113066,-3.263192783378914,3.6819992652761346,0.4033333333333333,0.4244444444444445,-0.7055555555555556,-0.4987693849752345,-0.28503449755368576,-1.8288317940516747
1589986603.966017,-1.511029188128526,-2.568943994767394,10.931203989861828,0.4033333333333333,0.4244444444444445,-0.7055555555555556,-0.23707164258192215,0.14421739015732932,-4.328201946219027
1589986603.976017,-0.73902275389585,-3.178774981363814,12.473176316069718,0.4033333333333333,0.4244444444444445,-0.7055555555555556,0.7143759062712993,0.7268097353890122,-4.875751219093787
1589986603.986017,0.5962593059439871,-2.4841330208374366,7.50737542836885,0.4033333333333333,0.4244444444444445,-0.7055555555555556,0.8767743729715236,0.47523673463456284,-4.39836942575519
1589986603.996017,-16.676455591766018,-22.031445072398004,12.666207252176065,0.40897116455591764,0.4141084205363732,-0.6989780857958738,-0.30507775372419765,0.16010980318531642,-3.8520149091967695
1589986604.006017,-5.952520633504349,-10.461101940664733,6.85828574615213,0.41,0.4122222222222222,-0.6977777777777778,-0.4827161022206668,0.18031848922250188,-2.2088137130950365
1589986604.016017,-0.6881206748005892,-1.9885989827964758,5.071286234401489,0.41,0.4122222222222222,-0.6977777777777778,-0.03677552823903507,-0.1520899026784346,0.6521788965566109
1589986604.026017,-0.5513700163293764,-1.4364148762453441,5.809411041594041,0.41,0.4122222222222222,-0.6977777777777778,0.38112456312835186,0.06760779175648701,1.5869660523446945
1589986604.036017,-0.13937855877945785,-2.215768151478,9.061841983381012,0.41,0.4122222222222222,-0.6977777777777778,0.11734786369526556,0.06955090113397475,1.66696079460546
1589986604.046017,0.36348805551848395,-2.349822234085146,9.89581075670626,0.38554348503047287,0.4515008674763112,-0.683696754007444,-0.3392882331546425,-0.35681262693631954,1.68643623994981
1589986604.056017,5.120831357802665,-6.762801983705278,6.733599008147361,0.37333333333333335,0.4711111111111111,-0.6766666666666666,-0.005613116364450721,-0.09593710937212108,1.8464453628073785
1589986604.066017,4.7917734433608405,-13.644786946736684,10.023884471117778,0.37333333333333335,0.4711111111111111,-0.6766666666666666,-0.03785941132235779,-0.09715289738707457,1.7691540437434683
1589986604.076017,2.114609328318864,-8.51553231872342,9.87078907595515,0.37333333333333335,0.4711111111111111,-0.6766666666666666,-0.1736681127453895,-0.18246910159041124,0.7507692032458277
1589986604.086017,-0.7142625667464555,-1.5164518504879396,10.430184741913706,0.37333333333333335,0.4711111111111111,-0.6766666666666666,-0.006652976473789651,0.058429912670875106,-0.9996711258869089
1589986604.096017,-2.185344008767657,-5.183864466634194,10.460649050170483,0.38268753044325377,0.45878057855712506,-0.6847452914434161,0.37760471738761714,0.3189715001584058,-1.2903700602649715
1589986604.1060169,-3.1445811236492682,-6.708591251644803,8.106973164799236,0.3977777777777778,0.4388888888888889,-0.6977777777777778,0.20262502566283247,0.216739973217371,-0.7756586742968048
1589986604.1160169,-0.26363434492968185,-2.5970301834032403,7.987405214244593,0.3977777777777778,0.4388888888888889,-0.6977777777777778,-0.15756857319800316,-0.02441939405783991,0.17190655204723426
1589986604.1260169,0.13287726520563425,-2.6112362271461436,8.822164507406063,0.3977777777777778,0.4388888888888889,-0.6977777777777778,-0.15307815877262762,-0.23938912633773457,0.7676842813226115
1589986604.1360168,-1.1771636077018355,-3.815812783845663,8.782309799947454,0.3977777777777778,0.4388888888888889,-0.6977777777777778,-0.08372673861474804,-0.07874432408131185,0.2311581505087542
1589986604.1460168,-1.4490275185641108,-4.322493745780884,8.311471230592065,0.3977777777777778,0.4429553887763791,-0.7065885275340066,0.09527059536042112,0.1230435291312859,-0.3201574702037634
1589986604.1560168,0.733144706407499,-4.42,9.06631152862882,0.3977777777777778,0.4455555555555555,-0.7122222222222222,0.0030312462425262643,-0.00998738955144074,0.0012350915267303475
1589986604.1660168,0.24633665866902388,-4.255731152923349,8.588569263795934,0.3977777777777778,0.4455555555555555,-0.7122222222222222,-0.05227240722937336,-0.048068596922487786,0.06318415876813542
1589986604.1760168,0.019296696706701588,-4.320918525428529,8.596810148090153,0.3977777777777778,0.4455555555555555,-0.7122222222222222,-0.011698551863877596,-0.0070698576298358976,-0.006208764376001336
1589986604.1860168,0.12055501404735969,-4.41458373946448,8.7056937675592,0.3977777777777778,0.4455555555555555,-0.7122222222222222,0.006226604206572207,0.004044942641579298,-0.016255980491692572
1589986604.1960168,0.04642785448218946,-4.397856712689314,8.637142283585751,0.4055159765747949,0.4485317858621005,-0.7044840234252051,0.003077771522375743,-0.003194560221681678,0.0
1589986604.2060168,0.06397577592732778,-4.344409689629069,8.71515639666919,0.4122222222222222,0.4511111111111111,-0.6977777777777778,0.005542213106006446,0.001307675720788333,0.0006978674571562489
1589986604.2160168,0.12524078546676468,-4.367861178200147,8.685347054499633,0.4122222222222222,0.4511111111111111,-0.6977777777777778,0.004363323129985824,0.0018958210594125636,-0.0002858405055803483
1589986604.2260168,0.10338407611417126,-4.377794692038057,8.562870806209315,0.4122222222222222,0.4511111111111111,-0.6977777777777778,-0.0002965508421719212,-0.0002405617809771853,0.0002405617809771853
1589986604.2360168,0.07451176629699757,-4.386464701109007,8.624276440357047,0.4122222222222222,0.4511111111111111,-0.6977777777777778,0.0027142419172801998,0.0013038629234113713,-0.00010651607045745765
1589986604.2460167,0.07881458437574781,-4.351519785933387,8.718814584375748,0.4122222222222222,0.44866261545118113,-0.6977777777777778,0.005232010484480685,0.0013494483530937624,0.0003514522133002485
1589986604.2560167,0.09411857226210711,-4.31883000583475,8.795897156193714,0.4122222222222222,0.4455555555555555,-0.6977777777777778,0.002181661564992912,-0.001090830782496456,-6.46711367283349e-05
1589986604.2660167,0.10668245939013965,-4.37336491878028,8.796445568538045,0.4122222222222222,0.4455555555555555,-0.6977777777777778,-0.002191997878335177,-0.0018197740230511375,-0.0025435491069346863
1589986604.2760167,0.11668990559186637,-4.4,8.611655047204065,0.4122222222222222,0.4455555555555555,-0.6977777777777778,-0.011088845468632636,-0.003272492347489368,-0.001271368426164533
1589986604.2860167,0.1,-4.4,8.632320137749549,0.4122222222222222,0.4455555555555555,-0.6977777777777778,-0.010319240419735401,-0.0026005330723991226,-0.0018456819274477892
1589986604.2960167,0.1,-4.4,8.6595731063498,0.4122222222222222,0.4455555555555555,-0.6977777777777778,-0.006603193286790124,-0.001114114219221011,-0.0011024725008587336
1589986604.3060167,0.08984801664879864,-4.323383994450401,8.73,0.4044444444444445,0.4511111111111111,-0.6977777777777778,0.006175848163549337,0.003272492347489368,-0.0007382730628587984
1589986604.3160167,0.07419236005445665,-4.346769440217827,8.69226875950989,0.4044444444444445,0.4511111111111111,-0.6977777777777778,0.0059114694523532615,0.0019005457278764232,-0.0017243460251219304
1589986604.3260167,0.08927588654879821,-4.388551773097596,8.626086170176803,0.4044444444444445,0.4511111111111111,-0.6977777777777778,0.003003536791147868,0.0010118422582373907,-0.002102673040733847
1589986604.3360167,0.09468524922644896,-4.396713123066123,8.625944252320652,0.4044444444444445,0.4511111111111111,-0.6977777777777778,-0.0005110814079878218,0.002181661564992912,-0.0024028682857264168
1589986604.3460166,0.0829804910937602,-4.35701950890624,8.696824419843841,0.4024574503819377,0.44945528272568874,-0.7000959375173691,0.001090830782496456,0.0008811769921808514,0.00032512114320301514
1589986604.3560166,0.08626876616108989,-4.3462687661610895,8.77119370151673,0.3977777777777778,0.4455555555555555,-0.7055555555555556,0.0014978452553140137,-0.00258867603781047,0.001090830782496456
1589986604.3660166,0.09194848667999442,-4.351948486679994,8.700386349900041,0.3977777777777778,0.4455555555555555,-0.7055555555555556,-0.000425093849964447,-0.0019691146400106882,-0.0002125469249822235
1589986604.3760166,0.08163866381667248,-4.372240890788885,8.64,0.3977777777777778,0.4455555555555555,-0.7055555555555556,-0.004852209660531534,-0.001090830782496456,-0.0004231937586118004
1589986604.3860166,0.08477584304337256,-4.394775843043373,8.654775843043373,0.3977777777777778,0.4455555555555555,-0.7055555555555556,-0.006007719880677173,-0.002165360411099582,-0.000537264814301563
1589986604.3960166,0.0910882450281313,-4.3877206125703285,8.696735264915606,0.40421404525746074,0.4455555555555555,-0.7055555555555556,-0.0030238497501372252,-0.0023003706825513465,-0.00011870911755843439
1589986604.4060166,0.07530008993704407,-4.364699910062956,8.739399820125913,0.4122222222222222,0.4455555555555555,-0.7055555555555556,0.002563403285818593,-0.0005781501253327374,0.001090830782496456
1589986604.4160166,0.07,-4.365561694290976,8.687863720073665,0.4122222222222222,0.4455555555555555,-0.7055555555555556,0.0069065860593422014,0.0,0.0001225426845898413
1589986604.4260166,0.07462455523291481,-4.355375444767085,8.656245552329148,0.4122222222222222,0.4455555555555555,-0.7055555555555556,0.004690960497236814,0.0010089214406837084,-8.190934181274761e-05
1589986604.4360166,0.08750689266620316,-4.365013785332406,8.71,0.4122222222222222,0.4455555555555555,-0.7055555555555556,0.0,0.002181661564992912,0.000271955822377326
1589986604.4460166,0.1,-4.371864255872885,8.731762892952538,0.40940110646911554,0.4455555555555555,-0.7003163405855003,0.0015826422365868725,0.00257732212413963,-0.0006951702233497378
1589986604.4560165,0.09634620894433882,-4.350961373166983,8.755384835777354,0.4044444444444445,0.4455555555555555,-0.6911111111111111,0.004363323129985824,0.003272492347489368,0.0
1589986604.4660165,0.09528900255754476,-4.3435549872122765,8.698265984654732,0.4044444444444445,0.4455555555555555,-0.6911111111111111,0.0014786197307496717,-0.00018915173159401479,-0.0005769406798472304
1589986604.4760165,0.10878983447584016,-4.3419745861896,8.67439491723792,0.4044444444444445,0.4455555555555555,-0.6911111111111111,-0.003487886287320218,-0.002313670145559863,-0.001090830782496456
1589986604.4860165,0.11304598017621145,-4.374636013215859,8.684636013215858,0.4044444444444445,0.4455555555555555,-0.6911111111111111,-0.006292129398782764,-0.000837975486300485,-0.001090830782496456
1589986604.4960165,0.09280688428248746,-4.3928068842824874,8.697193115717512,0.4044444444444445,0.4455555555555555,-0.6970367557074735,-0.0033108688677123224,0.00030618357782427955,-0.0007846472046721764
1589986604.5060165,0.09516042563561043,-4.392740638453416,8.702098935910973,0.4044444444444445,0.4455555555555555,-0.7122222222222222,0.0035014507377071277,0.001090830782496456,-0.00026395783454284314
1589986604.5160165,0.08890193304143325,-4.378901933041433,8.695490334792835,0.4044444444444445,0.4455555555555555,-0.7122222222222222,0.005208189831145772,0.002061881041028224,-0.00011978052396468804
1589986604.5260165,0.09185899253378699,-4.381858992533787,8.660352518665533,0.4044444444444445,0.4455555555555555,-0.7122222222222222,0.0026256846422268443,0.0023844461930215034,0.0006468077052625238
1589986604.5360165,0.08453495214184842,-4.374534952141849,8.699069904283697,0.4044444444444445,0.4455555555555555,-0.7122222222222222,0.0012937461900987706,0.0015855173218441054,-0.0004946865393476494
1589986604.5460165,0.08588977113498365,-4.388220457730033,8.718220457730034,0.3989641392910893,0.44281540297887795,-0.7035450723960766,-0.001090830782496456,0.0012849487311798514,-0.0015391871994029863
1589986604.5560164,0.08480677501987458,-4.385579674940376,8.710772899920501,0.3911111111111111,0.4388888888888889,-0.6911111111111111,0.0004821826643678026,0.0,-0.002181661564992912
1589986604.5660164,0.0853698864207458,-4.365369886420746,8.662219318524475,0.3911111111111111,0.4388888888888889,-0.6911111111111111,0.0011715274812518475,0.0005050670418705322,-0.002181661564992912
1589986604.5760164,0.084190959278046,-4.36,8.65095479639023,0.3911111111111111,0.4388888888888889,-0.6911111111111111,-0.002285813694340849,-0.00028065743410805345,-0.0008101733483884025
1589986604.5860164,0.09,-4.364073169621866,8.682036584810932,0.3911111111111111,0.4388888888888889,-0.6911111111111111,-0.005898467793068362,-0.0015151907441137884,0.0006465169019103736
1589986604.5960164,0.09,-4.376796857225197,8.688398428612597,0.3911111111111111,0.4388888888888889,-0.6911111111111111,-0.007286406803526548,0.00056671777157349,-0.0007414221085478118
1589986604.6060164,0.09798854373209959,-4.396034368803701,8.7179885437321,0.3911111111111111,0.4388888888888889,-0.6977777777777778,-0.001736581457219518,-0.0004325832580950916,-0.0008714149410293345
1589986604.6160164,0.09,-4.399979362827293,8.683305817103058,0.3911111111111111,0.4388888888888889,-0.6977777777777778,0.004363323129985824,0.002545647020212612,-0.00036398545521969966
1589986604.6260164,0.09279584258745141,-4.36,8.64957089811216,0.3911111111111111,0.4388888888888889,-0.6977777777777778,0.004973281361467133,0.0029675132317487137,-0.001090830782496456
1589986604.6360164,0.1,-4.359732500552034,8.700267499447966,0.3911111111111111,0.4388888888888889,-0.6977777777777778,0.006457445705335791,0.002123302238564282,-0.0011054206141036134
1589986604.6460164,0.1,-4.344064244479585,8.724064244479585,0.3924658592709729,0.43775993208900404,-0.6977777777777778,-0.0004433402985923066,-0.001516651117104452,-0.0019599914156967586
1589986604.6560163,0.09995140216698535,-4.360145793499044,8.740048597833015,0.3977777777777778,0.43333333333333335,-0.6977777777777778,-0.002181661564992912,0.001069625977610451,-0.0010855295812749546
1589986604.6660163,0.08153853828885009,-4.385769269144425,8.703461960588676,0.3977777777777778,0.43333333333333335,-0.6977777777777778,-0.0007971581300772928,-0.002349490057545622,-0.000461501144971873
1589986604.6760163,0.07484547233954879,-4.3751545276604515,8.669072834037292,0.3977777777777778,0.43333333333333335,-0.6977777777777778,-0.0004948463326180227,-0.001090830782496456,-3.37127057534704e-05
1589986604.6860163,0.08363839989381294,-4.362723200212374,8.71091519968144,0.3977777777777778,0.43333333333333335,-0.6977777777777778,-0.0029754372856335112,9.983279846444322e-05,0.00029705506185585654
1589986604.6960163,0.08858629082914572,-4.355654836683417,8.73,0.39683530499720826,0.43506120009771077,-0.6947932806393077,-0.004209111381879286,0.0018732380687798357,-0.0009366190343899179
1589986604.7060163,0.08,-4.39377918361199,8.71866244916403,0.3911111111111111,0.4455555555555555,-0.6766666666666666,-0.00162351242082354,-0.0008244899633329141,0.0
1589986604.7160163,0.08290624795978324,-4.4,8.668031272442384,0.3911111111111111,0.4455555555555555,-0.6766666666666666,0.0020418982033261826,-0.0015476166177730943,-0.00031702247360990886
1589986604.7260163,0.09450758251561106,-4.386477252453167,8.612537912578055,0.3911111111111111,0.4455555555555555,-0.6766666666666666,0.00485502410625296,0.0009834019525342716,-0.0005991298062293202
1589986604.7360163,0.09668523623554637,-4.373314763764454,8.67646240140899,0.3911111111111111,0.4455555555555555,-0.6766666666666666,0.005092569277385294,0.0007353230246049699,-0.000723169270193971
1589986604.7460163,0.09160348922177566,-4.375189532334673,8.754810467665328,0.39022028376568013,0.44751537571550354,-0.67791382495027,0.004013496049482987,-0.0020067480247414936,-0.0018318344844900753
1589986604.7560163,0.09632625523755416,-4.359184361906115,8.776326255237553,0.3855555555555555,0.4577777777777778,-0.6844444444444444,0.0013801747902106995,-0.0008904590888009028,-0.00020037169369555312
1589986604.7660162,0.08,-4.387855968220746,8.719519894069155,0.3855555555555555,0.4577777777777778,-0.6844444444444444,-0.0008569531961503882,0.0,-0.0006492613262156148
1589986604.7760162,0.08247150759504786,-4.372471507595048,8.667414522785144,0.3855555555555555,0.4577777777777778,-0.6844444444444444,0.0005516314697260592,-0.0008087989691555951,-0.0002695996563851984
1589986604.7860162,0.08983703573623672,-4.379837035736236,8.689511107208709,0.3855555555555555,0.4577777777777778,-0.6844444444444444,-0.0010552774954244845,-0.0032191624168814107,-0.0010730541389604702
1589986604.7960162,0.06705091228290175,-4.362350304094301,8.724700608188602,0.3868612800523892,0.4549051838847437,-0.6894061975324123,-0.002438039970421965,-0.001090830782496456,-0.00025637840542905294
1589986604.8060162,0.08643650842017592,-4.380690474739472,8.711492067361407,0.3911111111111111,0.4455555555555555,-0.7055555555555556,-0.003272492347489368,-0.001090830782496456,-0.0003133975208086492
1589986604.8160162,0.08274388123578975,-4.3972561187642105,8.640792831349472,0.3911111111111111,0.4455555555555555,-0.7055555555555556,-0.0017759372897324273,-0.0004922087593936797,0.001090830782496456
