time,acc_x,acc_y,acc_z,mag_x,mag_y,mag_z,gyr_x,gyr_y,gyr_z
1589985421.1634805,-3.72,-0.7,9.06,0.3022222222222222,-0.3622222222222222,-0.5966666666666667,-0.001090830782496456,-0.002181661564992912,0.002181661564992912
1589985421.1734805,-3.72,-0.6794987474796848,9.003621555569133,0.3022222222222222,-0.3622222222222222,-0.5966666666666667,-0.0016499157157187794,-0.0010634916985482648,0.0010634916985482648
1589985421.1834805,-3.7218417744252874,-0.6627626616379311,8.958287984913792,0.3022222222222222,-0.3622222222222222,-0.5966666666666667,-0.002181661564992912,0.0,-0.00010045321187590837
1589985421.1934805,-3.7316646201074444,-0.69,9.048335379892556,0.3022222222222222,-0.3622222222222222,-0.626303572951309,-0.0030909104620530817,0.0027277466911805083,-0.00018158188543628646
1589985421.2034805,-3.73,-0.6963469425644314,9.043653057435568,0.3022222222222222,-0.3622222222222222,-0.6322222222222222,-0.0011954602502837158,-0.0008815718469219365,-0.001384688064803768
1589985421.2134805,-3.737652491894745,-0.6770425243157657,8.955822589157806,0.3022222222222222,-0.3622222222222222,-0.6322222222222222,0.0,-0.004942007091807815,0.00032261055148475855
1589985421.2234805,-3.7212706153805817,-0.6606353076902908,8.967458769238837,0.3022222222222222,-0.3622222222222222,-0.6322222222222222,0.0010215294640038652,-0.004432624448478415,6.930131849259072e-05
1589985421.2334805,-3.72,-0.6902533874301462,9.022943428002755,0.3022222222222222,-0.3622222222222222,-0.6322222222222222,0.001090830782496456,-0.001888223658716211,0.0
1589985421.2434804,-3.72,-0.7,9.07628695652174,0.30827004830917876,-0.3622222222222222,-0.6261743961352657,0.002080404011922045,-0.00010125755307086666,0.0
1589985421.2534804,-3.729180335595777,-0.6908196644042232,9.08,0.3088888888888889,-0.3622222222222222,-0.6255555555555555,0.0011802422988407874,0.0010014192661521246,0.002002838532304249
1589985421.2634804,-3.73,-0.6820954749085529,8.96933664871974,0.3088888888888889,-0.3622222222222222,-0.6255555555555555,-0.0014959190047333854,-0.003220418862886613,0.0030439114940695256
1589985421.2734804,-3.721531690140845,-0.6884683098591549,8.990809859154929,0.3088888888888889,-0.3622222222222222,-0.6255555555555555,-0.002181661564992912,-0.0062108217440027084,0.0023487430404809254
1589985421.2834804,-3.72,-0.6831167645884434,9.006883235411557,0.3088888888888889,-0.3622222222222222,-0.6255555555555555,-0.0006799725509737762,-0.0035416066669404648,0.001430817057983344
1589985421.2934804,-3.72,-0.6721742725880552,9.002174272588055,0.30367173728092567,-0.3622222222222222,-0.6090345754636719,0.0,-0.003035316000630491,0.0002371763468588772
1589985421.3034804,-3.7119194823867723,-0.6942415528396837,8.991919482386772,0.3022222222222222,-0.3622222222222222,-0.6044444444444445,-0.0008814477351013778,-0.0023910446123879903,0.0008814477351013778
1589985421.3134804,-3.7155423670217145,-0.6944576329782856,8.956745797869713,0.3022222222222222,-0.3622222222222222,-0.6044444444444445,0.0019320614950931994,0.0014458091681146747,0.00048625232697852494
1589985421.3234804,-3.72,-0.6959796468364104,8.965877881018463,0.3022222222222222,-0.3622222222222222,-0.6044444444444445,0.003711044846224418,0.004363323129985824,0.0
1589985421.3334804,-3.72,-0.6871226747818376,9.022193313045406,0.3022222222222222,-0.3622222222222222,-0.6044444444444445,0.0025701432102798964,0.004363323129985824,0.0
1589985421.3434803,-3.727828414771811,-0.6721715852281891,9.079142073859055,0.30744116540342953,-0.34830504040566934,-0.620971097851601,0.003035609146117053,0.0035093755488616834,0.001707895162248281
1589985421.3534803,-3.73,-0.67,9.055129982668978,0.3088888888888889,-0.34444444444444444,-0.6255555555555555,-0.0005312364815970604,-0.0024331008961402754,-0.0006711350568219098
1589985421.3634803,-3.7217772707955894,-0.6782227292044108,8.94310452034266,0.3088888888888889,-0.34444444444444444,-0.6255555555555555,-0.002884752008957223,-0.003272492347489368,0.0007030904439643108
1589985421.3734803,-3.711902584256282,-0.696194831487436,8.960487078718591,0.3088888888888889,-0.34444444444444444,-0.6255555555555555,-0.0023892013122974658,-0.0006226192419136614,0.001090830782496456
1589985421.3834803,-3.722740610108439,-0.6808890848373419,8.963629694945782,0.3088888888888889,-0.34444444444444444,-0.6255555555555555,-0.002876554049696435,0.0006948924847035226,0.0003959382977929334
1589985421.3934803,-3.7151853794459924,-0.6848146205540075,9.004443861662022,0.29983550966143985,-0.36255120289934256,-0.613210038427216,-0.0008484557277919492,0.001090830782496456,0.0008080122065658063
1589985421.4034803,-3.718753375684782,-0.69,9.028753375684781,0.2966666666666667,-0.3688888888888889,-0.6088888888888889,-0.000954845164771595,0.0020456759472680507,0.0030005211120396466
1589985421.4134803,-3.72,-0.69,8.979287764866713,0.2966666666666667,-0.3688888888888889,-0.6088888888888889,0.0016750925741329718,-0.0033501851482659437,-0.0004154054613498691
1589985421.4234803,-3.7282244893183893,-0.6735510213632215,9.002897957273557,0.2966666666666667,-0.3688888888888889,-0.6088888888888889,0.002181661564992912,-0.0016718652943421473,-0.00019367817061523057
1589985421.4334803,-3.716664208217689,-0.6766678958911555,9.030003687673466,0.2966666666666667,-0.3688888888888889,-0.6088888888888889,0.0007269523464821209,-0.002545540001007247,-0.001454709218510791
1589985421.4434803,-3.726204990679269,-0.6881024953396343,9.064307486018903,0.3065697165262198,-0.36348722532913263,-0.6106894434088077,0.0,-0.002388647214338644,-0.00041397129869146323
1589985421.4534802,-3.722056923076923,-0.6820569230769231,9.022341538461538,0.3088888888888889,-0.3622222222222222,-0.6111111111111112,0.0008664552815429541,-0.002181661564992912,0.0008664552815429541
1589985421.4634802,-3.72,-0.6884642560266001,8.942285951787198,0.3088888888888889,-0.3622222222222222,-0.6111111111111112,-0.0007557834224528647,-0.002181661564992912,-0.0007557834224528647
1589985421.4734802,-3.72,-0.69,8.93,0.3088888888888889,-0.3622222222222222,-0.6111111111111112,-0.001090830782496456,-0.002181661564992912,-0.001090830782496456
1589985421.4834802,-3.72513391311432,-0.70026782622864,8.984598260657041,0.3088888888888889,-0.3622222222222222,-0.6111111111111112,-0.0027124693015131126,-0.0019162576967328116,-0.0013854499602126112
1589985421.4934802,-3.7133697984452496,-0.67,9.03336979844525,0.30439582429522277,-0.3622222222222222,-0.6099878449626946,-0.004179529136241478,-0.0009070367887521096,0.0018260067574738417
1589985421.5034802,-3.723900089979005,-0.6760999100209951,9.043900089979005,0.2822222222222222,-0.3622222222222222,-0.6044444444444445,-0.001941698423217356,0.0,0.0007963751775302381
1589985421.5134802,-3.7138827527612577,-0.6861172472387426,8.991062022090059,0.2822222222222222,-0.3622222222222222,-0.6044444444444445,0.0009110336951520953,-0.0006672881592161837,-0.0008470852465605446
1589985421.5234802,-3.7195463701216953,-0.6947731850608476,8.983865925304238,0.2822222222222222,-0.3622222222222222,-0.6044444444444445,0.0016609878455004262,-0.002132178221481428,0.0010413474389849716
1589985421.5334802,-3.720902681337464,-0.704548659331268,9.023645977993803,0.2822222222222222,-0.3622222222222222,-0.6044444444444445,0.0025793760677875286,-0.0007915835386709141,0.0011892980414655303
1589985421.5434802,-3.7191625175539382,-0.6962562236690923,9.04,0.2852763947402017,-0.35967707845723934,-0.6044444444444445,0.0038635853203358135,0.0001827103263928702,-0.0004997378096500104
1589985421.5534801,-3.73,-0.6737298778399361,8.996109144879552,0.2888888888888889,-0.3566666666666667,-0.6044444444444445,0.001220599668826095,-0.00012976888632963875,-0.001090830782496456
1589985421.5634801,-3.7416321656050955,-0.6758160828025478,8.935103503184713,0.2888888888888889,-0.3566666666666667,-0.6044444444444445,-0.0006344362154567365,0.001090830782496456,-0.0017252669979531923
1589985421.5734801,-3.7371190500633062,-0.6671190500633063,8.942202374841735,0.2888888888888889,-0.3566666666666667,-0.6044444444444445,-0.001793377617433519,-0.0003142628873776703,-0.0007765678951187857
1589985421.5834801,-3.7242711057832025,-0.6829155768671897,8.98291557686719,0.2888888888888889,-0.3566666666666667,-0.6044444444444445,-0.003431512397262627,-0.0029656070309010286,0.0012498508322697152
1589985421.59348,-3.72,-0.7,9.034143630030387,0.29799385689699187,-0.3566666666666667,-0.608996928448496,-0.0036184246767195123,-0.0021286277701868883,0.0014367631117266
1589985421.60348,-3.7265109702584107,-0.7,9.04348902974159,0.3022222222222222,-0.3566666666666667,-0.6111111111111112,-0.0004315456347721235,-0.001801067460675767,0.0003805941043171448
1589985421.61348,-3.73,-0.6930690986629783,8.970690986629783,0.3022222222222222,-0.3566666666666667,-0.6111111111111112,0.001090830782496456,-0.001425617512106004,0.001512088105773816
1589985421.62348,-3.737785047891529,-0.6977850478915287,8.994495335240702,0.3022222222222222,-0.3566666666666667,-0.6111111111111112,0.002789264759154205,-0.00194004777082533,0.0013324445766640376
1589985421.63348,-3.734390622343139,-0.6962604148954259,9.013739585104574,0.3022222222222222,-0.3566666666666667,-0.6111111111111112,0.0034764550747810982,-0.0027935497468681023,0.0012947935097881863
1589985421.64348,-3.71,-0.6758395312147848,9.03,0.3003731249843488,-0.3566666666666667,-0.6120356597300479,0.003909486387932982,-0.004546480428376597,0.002181661564992912
1589985421.65348,-3.7289908440153154,-0.6753211253537539,9.042660562676877,0.2888888888888889,-0.3566666666666667,-0.6177777777777778,0.001090830782496456,-0.000980748941253015,0.0008006084158265982
1589985421.66348,-3.7339953393533354,-0.6960046606466647,8.977944072240023,0.2888888888888889,-0.3566666666666667,-0.6177777777777778,-0.0002191829518689355,-0.0002166409634448245,0.0006550068671826957
1589985421.67348,-3.73,-0.6822354310416493,8.947764568958352,0.2888888888888889,-0.3566666666666667,-0.6177777777777778,-0.001090830782496456,0.0017367687377481192,-0.0008469830832585337
1589985421.68348,-3.7192146182034267,-0.67,8.997748836288006,0.2888888888888889,-0.3566666666666667,-0.6177777777777778,-0.001090830782496456,0.001593410241758961,-0.00100515891852501
1589985421.69348,-3.713934339924611,-0.6660656600753891,9.03393433992461,0.29675756873811077,-0.3566666666666667,-0.6142805867336791,0.00019667894707466591,0.001090830782496456,0.0
1589985421.70348,-3.714881573821582,-0.6702368523568368,9.03488157382158,0.3088888888888889,-0.3566666666666667,-0.6088888888888889,0.0010649941983220171,-2.583658417443886e-05,0.0
1589985421.71348,-3.7250015301438335,-0.690001020095889,8.979994899520554,0.3088888888888889,-0.3566666666666667,-0.6088888888888889,0.0,-0.002727243869040665,0.0010909420576961394
1589985421.72348,-3.730945072406197,-0.6954725362030985,8.943582391390704,0.3088888888888889,-0.3566666666666667,-0.6088888888888889,0.0,-0.0028817140670962856,0.001687791877363066
1589985421.73348,-3.725425949931135,-0.69,8.997981649517946,0.3088888888888889,-0.3566666666666667,-0.6088888888888889,0.0,0.0006848071802535377,0.0016827101034131205
1589985421.74348,-3.73,-0.695901719302524,9.035901719302524,0.29708545028384076,-0.3599453996125134,-0.6141348616022436,0.0,0.004112994690446947,0.0008941061480235554
1589985421.75348,-3.73,-0.678507001181528,9.054328665878982,0.2888888888888889,-0.3622222222222222,-0.6177777777777778,0.0007815074906449759,0.003109631440547352,0.0015630149812899518
1589985421.76348,-3.729156757428048,-0.6725297277158558,9.05072433170853,0.2888888888888889,-0.3622222222222222,-0.6177777777777778,0.0006309133051981273,0.0022736450604525778,0.0019057110786139147
1589985421.77348,-3.717309097196706,-0.697309097196706,8.971527222426351,0.2888888888888889,-0.3622222222222222,-0.6177777777777778,-0.004950387052093628,0.00356602430854327,-0.0007972988214425541
1589985421.78348,-3.705302980674746,-0.688434326891582,9.02217163445791,0.2888888888888889,-0.3622222222222222,-0.6177777777777778,-0.006886561579376577,0.005217265340980429,0.0005123653265967632
1589985421.79348,-3.681058939134121,-0.6803529797113737,8.981764898556868,0.2888888888888889,-0.3622222222222222,-0.6177777777777778,-0.008649638033019045,0.009624956475086599,0.003156980007060465
1589985421.80348,-3.6001688213882264,-0.6652532320823397,8.985422053470566,0.3022222222222222,-0.3622222222222222,-0.6255555555555555,-0.031226793976414882,0.07079135105352118,-0.0028099469614006702
1589985421.81348,-3.6803883978111966,-0.6749722572992003,9.020055485401599,0.3022222222222222,-0.3622222222222222,-0.6255555555555555,-0.03981834982032284,0.10147752536419236,-0.016959323535132402
1589985421.82348,-3.7699852193301098,-0.677994087732044,9.033997043866021,0.3022222222222222,-0.3622222222222222,-0.6255555555555555,-0.03338458137149618,0.08815299318605732,-0.02966801757035129
1589985421.83348,-3.8288725512685233,-0.7106232509060879,9.044124650181217,0.3022222222222222,-0.3622222222222222,-0.6255555555555555,-0.015258644278432614,0.03974886380614724,-0.03490658503988659
1589985421.8434799,-3.856880899779072,-0.7268808997790721,9.046720224944767,0.30040012496931556,-0.36040012496931556,-0.6230046194014862,-0.0032900192530125084,0.0030374127271602467,-0.032759977285939955
1589985421.8534799,-3.83,-0.6966020428600039,9.033204085720007,0.2966666666666667,-0.3566666666666667,-0.6177777777777778,-0.000720171157905331,-0.014943267512913095,-0.025766982972769976
1589985421.8634799,-3.83,-0.6940414927221067,8.983626565501039,0.2966666666666667,-0.3566666666666667,-0.6177777777777778,0.0013225754005528152,-0.019866698702992566,-0.016758058665774216
1589985421.8734798,-3.82228167928231,-0.7046309924306139,8.94543664143538,0.2966666666666667,-0.3566666666666667,-0.6177777777777778,0.0034408799840500944,-0.022658553832732752,-0.010066369642160927
1589985421.8834798,-3.78,-0.7268467639144597,9.048919416513241,0.2966666666666667,-0.3566666666666667,-0.6177777777777778,0.006427111321937411,-0.03071041654899738,-0.0047662245151650845
1589985421.8934798,-3.7770974190395803,-0.7170974190395806,9.082743547598952,0.29553788518205915,-0.3574729391556721,-0.6158427238041648,0.011858175223058626,-0.03897063355245435,-0.002797558648442335
1589985421.9034798,-3.7447705416648027,-0.6949235138882676,9.055229458335196,0.2888888888888889,-0.3622222222222222,-0.6044444444444445,0.01966832744698065,-0.04086443764106155,0.0022150349270373534
1589985421.9134798,-3.697175094712568,-0.6790583649041894,8.960583649041894,0.2888888888888889,-0.3622222222222222,-0.6044444444444445,0.018832747556590656,-0.026243605014022106,0.0031697758926504385
1589985421.9234798,-3.720906968989663,-0.6813126597754807,8.920906968989664,0.2888888888888889,-0.3622222222222222,-0.6044444444444445,0.013277412358695886,-0.0027882444709426465,0.002181661564992912
1589985421.9334798,-3.750884072320859,-0.69,8.96,0.2888888888888889,-0.3622222222222222,-0.6044444444444445,0.010245378856736688,0.009293137898044868,0.0018501970808789767
1589985421.9434798,-3.733817190445834,-0.69,8.96,0.2888888888888889,-0.3622222222222222,-0.6044444444444445,0.009004240182702784,0.01239598458312963,0.0012296277438620243
1589985421.9534798,-3.661677177492818,-0.6852350921449093,8.962617546072455,0.3022222222222222,-0.34444444444444444,-0.6111111111111112,0.0061568764125790616,0.022724494748738007,-5.128914967802707e-05
1589985421.9634798,-3.6017291117671535,-0.7,8.912103782370075,0.3022222222222222,-0.34444444444444444,-0.6111111111111112,-0.005150793549836003,0.036481525879586946,-0.00823466906312659
1589985421.9734797,-3.60897276942388,-0.7,8.8774319235597,0.3022222222222222,-0.34444444444444444,-0.6111111111111112,-0.015392458690265972,0.05144590124930669,-0.02010071650219806
1589985421.9834797,-3.686213815867588,-0.7072427631735175,9.00897105269407,0.3022222222222222,-0.34444444444444444,-0.6111111111111112,-0.023904013644417774,0.054559516293806024,-0.03449357641990313
1589985421.9934797,-3.7353354508329555,-0.7053354508329551,9.025782718610229,0.29570464481464676,-0.34770323314823215,-0.6111111111111112,-0.017550871211837057,0.03570814449735595,-0.04358444195391136
1589985422.0034797,-3.7147864456751267,-0.6847864456751265,8.984786445675127,0.2888888888888889,-0.3511111111111111,-0.6111111111111112,-0.0102464166180627,0.020586013888648304,-0.049227156191124874
1589985422.0134797,-3.6739063208259886,-0.6830078065978343,8.949921934021658,0.2888888888888889,-0.3511111111111111,-0.6111111111111112,-0.010588722699717425,0.02696821579161271,-0.05268797836230124
1589985422.0234797,-3.5878924731182793,-0.6895784946236558,8.880105376344087,0.2888888888888889,-0.3511111111111111,-0.6111111111111112,-0.017775146247596012,0.049788566547583936,-0.053657614310103074
1589985422.0334797,-3.381573905377608,-0.6921304731119601,8.971452248016456,0.2888888888888889,-0.3511111111111111,-0.6111111111111112,-0.05780076071286598,0.12910884658377947,-0.08135796147856231
1589985422.0434797,-3.3433333333333333,-0.8270833333333334,9.213333333333333,0.29305555555555557,-0.3534259259259259,-0.6111111111111112,-0.07722172914422828,0.14658038639796128,-0.10821950388016924
1589985422.0534797,-3.139834372185828,-0.8638106757544188,9.133645047940247,0.3088888888888889,-0.3622222222222222,-0.6111111111111112,-0.03142368117494289,0.06100133065413872,-0.12938414927966815
1589985422.0634797,-2.8817799792282495,-0.76,8.786479987217385,0.3088888888888889,-0.3622222222222222,-0.6111111111111112,0.0007723050566815996,0.039265550772802436,-0.12903873675893163
1589985422.0734797,-2.612009534286762,-0.6386428642864287,8.734045237857119,0.3088888888888889,-0.3622222222222222,-0.6111111111111112,-0.0298581153028062,0.06412604595666771,-0.13378026609643717
1589985422.0834796,-2.21470521609538,-0.4840935916542474,8.825254247391952,0.3088888888888889,-0.3622222222222222,-0.6111111111111112,-0.0507003191455174,0.05914481251337267,-0.14023284857733143
1589985422.0934796,-1.5916007663686345,-0.6062281335036375,8.997148331204532,0.3088888888888889,-0.3550097184428278,-0.6025462628730802,0.0020310945682752504,0.03298083587788453,-0.12785200707404037
1589985422.1034796,-1.5983863368669022,-0.5977424420887318,8.7,0.3088888888888889,-0.34444444444444444,-0.59,0.04105298322200967,0.005383915888010578,-0.09290848895163932
1589985422.1134796,-1.723905304993952,-0.611952652496976,8.861817373916907,0.3088888888888889,-0.34444444444444444,-0.59,-0.009773207230662714,0.012854833138932783,-0.07723598421212638
1589985422.1234796,-1.7800984045439745,-0.6400615028399841,8.97012300567997,0.3088888888888889,-0.34444444444444444,-0.59,-0.03596118765920762,0.02288195253982065,-0.07415502466861802
1589985422.1334796,-1.8942884477397752,-0.6868828683872932,9.07,0.3088888888888889,-0.34444444444444444,-0.59,0.0012756204723581655,0.0042218194347329735,-0.05298291126195892
1589985422.1434796,-1.9662201484311852,-0.6875597031376295,9.08511940627526,0.3114087899347654,-0.34696434549032096,-0.5979796866452756,0.012359355635643766,0.010788235482236974,-0.04472406208235469
1589985422.1534796,-1.9810052065838093,-0.7052513016459523,9.152010413167618,0.31555555555555553,-0.3511111111111111,-0.6111111111111112,-0.0029737917702282557,0.007879690540516942,-0.04243274948892306
1589985422.1634796,-2.0404672266561183,-0.7055036414826534,9.055109244479606,0.31555555555555553,-0.3511111111111111,-0.6111111111111112,-0.0017500959416411836,0.0031626148209652465,-0.0383988324404242
1589985422.1734796,-2.0788837115072933,-0.6888837115072933,8.852945705024311,0.31555555555555553,-0.3511111111111111,-0.6111111111111112,0.004645754600818577,0.010426317967463593,-0.032359618919896374
1589985422.1834795,-2.053175477412167,-0.6734122612939164,8.784881608059125,0.31555555555555553,-0.3511111111111111,-0.6111111111111112,0.0015975025016930166,0.01774802514157248,-0.02562160883131616
1589985422.1934795,-2.026849628897362,-0.6865751855513188,8.76513722167302,0.31555555555555553,-0.3511111111111111,-0.6111111111111112,-0.004863832833746731,0.006261206767457377,-0.023467830386169578
1589985422.2034795,-2.087342229166227,-0.7,8.919720879167283,0.3288888888888889,-0.3622222222222222,-0.6111111111111112,-0.008055468533402138,0.003753040122689177,-0.01867385853453659
1589985422.2134795,-2.13126665841482,-0.7,8.86569996286669,0.3288888888888889,-0.3622222222222222,-0.6111111111111112,0.0020434905660134954,0.006061386198550778,-0.013159054889447179
1589985422.2234795,-2.169214739855531,-0.7,8.959607369927765,0.3288888888888889,-0.3622222222222222,-0.6111111111111112,0.0027946706282765965,0.0010051721887109914,-0.013482132515384776
1589985422.2334795,-2.208386341006267,-0.7,8.983227317987467,0.3288888888888889,-0.3622222222222222,-0.6111111111111112,0.008656237103859009,0.005137312709975402,-0.012280775231911572
1589985422.2434795,-2.164480302076778,-0.7,9.102401510383888,0.3288888888888889,-0.3622222222222222,-0.6126045451367038,0.00556753441093232,-0.004363323129985824,-0.0231694105775487
1589985422.2534795,-2.182927452271231,-0.7058549045424621,9.162435286372613,0.3288888888888889,-0.3622222222222222,-0.6177777777777778,0.004736345606391327,-0.001169968078237805,-0.035466118754494846
1589985422.2634795,-2.199685807846243,-0.7167713973845857,9.065113755537958,0.3288888888888889,-0.3622222222222222,-0.6177777777777778,0.009147378266293344,0.009010286077118436,-0.05247215214050804
1589985422.2734795,-2.235831114297419,-0.71,8.94208444285129,0.3288888888888889,-0.3622222222222222,-0.6177777777777778,0.00372724723279783,0.012166075712822067,-0.07534214823606712
1589985422.2834795,-2.2825446058291377,-0.707455394170862,8.92,0.3288888888888889,-0.3622222222222222,-0.6177777777777778,-0.0013684042192708178,0.009043145625947994,-0.10019563634050553
1589985422.2934794,-2.2834474522292996,-0.7,8.90427388535032,0.32714154281670205,-0.361494161358811,-0.6177777777777778,-0.0020387071487517365,0.016505416153688012,-0.12247441569814307
1589985422.3034794,-2.2569825657478155,-0.7169825657478154,8.872175904428216,0.31555555555555553,-0.3566666666666667,-0.6177777777777778,-0.0038695966050195105,0.015137654334507417,-0.15821264341879168
1589985422.3134794,-2.291032893253501,-0.728967106746499,8.933223689154996,0.31555555555555553,-0.3566666666666667,-0.6177777777777778,-0.002821807645108639,0.00878980005254998,-0.18416094086416604
1589985422.3234794,-2.3132929906173616,-0.7067070093826381,8.896343924938893,0.31555555555555553,-0.3566666666666667,-0.6177777777777778,0.007968620784805478,0.010097473858080908,-0.2086154741495065
1589985422.3334794,-2.3176173350387477,-0.7035739974418779,8.95595666240313,0.31555555555555553,-0.3566666666666667,-0.6177777777777778,0.013869694675190286,0.022308872430250933,-0.22860976762043397
1589985422.3434794,-2.3049943570837406,-0.7225084643743886,8.987514107290648,0.31555555555555553,-0.3566666666666667,-0.6177777777777778,0.018000554551219076,0.01335867603218856,-0.2492640670005779
1589985422.3534794,-2.3541180656869374,-0.7480393552289791,9.090196776144895,0.32758179237487495,-0.36167759867471644,-0.6177777777777778,0.01176380049287268,0.011785265440483986,-0.2869528906394018
1589985422.3634794,-2.36,-0.75,9.034111515100564,0.3288888888888889,-0.3622222222222222,-0.6177777777777778,0.014501967201982371,0.018288042517242187,-0.3198086780044543
1589985422.3734794,-2.356579898064793,-0.75,8.953420101935206,0.3288888888888889,-0.3622222222222222,-0.6177777777777778,0.01003779891525142,0.026304297195588248,-0.3682209871982521
1589985422.3834794,-2.332008240738933,-0.75,8.977991759261068,0.3288888888888889,-0.3622222222222222,-0.6177777777777778,0.003783644204717296,0.027197747868521693,-0.40395901411558993
1589985422.3934793,-2.347444186461868,-0.7149627909745787,8.83109186164196,0.3315081396810277,-0.3608436691737281,-0.620534883874766,0.011880034978533318,0.040241635323441174,-0.45469239067158856
1589985422.4034793,-2.3973852473656008,-0.7482568315770673,8.972591534202536,0.34907999444345217,-0.3515953245619257,-0.6390315730983708,-0.0035551848756912568,0.024806415469216598,-0.4973662337979741
1589985422.4134793,-2.2703512903070786,-0.7607895622086597,8.966841751165362,0.35,-0.3511111111111111,-0.64,0.007281815752635047,0.03620799140281883,-0.5654714964940357
1589985422.4234793,-2.3174169296454425,-0.7906457675886394,8.953874605531837,0.35,-0.3511111111111111,-0.64,0.01713664380337956,0.05095239806076969,-0.6116052242274911
1589985422.4334793,-2.187477077671991,-0.8072356356669469,9.089350550331373,0.35,-0.3511111111111111,-0.64,0.02547966683205789,0.06894487295674283,-0.656139716547818
1589985422.4434793,-2.0705897757030627,-0.7831538198793123,9.025820334737562,0.3545755057117917,-0.352150998772882,-0.64249573038825,0.05200467136172675,0.12623991021194128,-0.6949123651819865
1589985422.4534793,-2.137608,-0.7137319999999999,8.515072,0.3744444444444445,-0.3566666666666667,-0.6533333333333333,0.08510050899799151,0.1250602585547147,-0.759906757007445
1589985422.4634793,-2.1530337737713015,-0.77995122252408,8.720581625092615,0.3744444444444445,-0.3566666666666667,-0.6533333333333333,0.04492012335722794,0.014773900683114818,-0.8269158389864145
1589985422.4734793,-2.3114560589222286,-0.9540384824911202,9.404697871042252,0.3744444444444445,-0.3566666666666667,-0.6533333333333333,-0.04622547271942093,0.009074259285689721,-0.9177363011052375
1589985422.4834793,-2.291213381942955,-0.8931799270855673,9.083389234398457,0.3744444444444445,-0.3566666666666667,-0.6533333333333333,0.018265695938655218,0.06098153457356855,-0.9583290668587958
1589985422.4934793,-2.315097446891444,-0.8647076593256675,8.683928084194115,0.3788022694298275,-0.3514009614759956,-0.6522438770869876,0.0690494184551155,0.11065799043766619,-0.9966072175888452
1589985422.5034792,-2.290574157084389,-0.9382775287468329,8.953684272071722,0.40060074925832084,-0.32506113168323264,-0.6467942571298642,0.03249004726197182,0.08034046310676655,-1.0545671963096828
1589985422.5134792,-2.35102114515433,-1.0157330395875446,8.955288105566785,0.4011111111111111,-0.3244444444444444,-0.6466666666666666,0.004891631190717487,0.055438230816909705,-1.1416144815477656
1589985422.5234792,-2.4357939514788964,-1.04,8.980042539049517,0.4011111111111111,-0.3244444444444444,-0.6466666666666666,0.020606442396978078,0.07767374962675579,-1.1910093608530647
1589985422.5334792,-2.4079155865736124,-1.04,8.715198072449319,0.4011111111111111,-0.3244444444444444,-0.6466666666666666,0.04873622760600445,0.10808432823110861,-1.2259815262480704
1589985422.5434792,-2.4789639102229515,-1.1305920513011705,8.74444038475878,0.4015058119785582,-0.3243457692275826,-0.6472916097067912,0.04735072664571,0.0984260250878032,-1.294871652357635
1589985422.5534792,-2.4505731984473362,-1.201210152651797,9.011910862613382,0.42777777777777776,-0.31777777777777777,-0.6888888888888889,0.010831872225394605,0.05309634904144979,-1.3851327416460324
1589985422.5634792,-2.530512147883008,-1.2643072887298046,8.906355880261835,0.42777777777777776,-0.31777777777777777,-0.6888888888888889,0.033368820916610004,0.08567283180884237,-1.4239710757766115
1589985422.5734792,-2.509141975751489,-1.2633957481407083,8.743395748140708,0.42777777777777776,-0.31777777777777777,-0.6888888888888889,0.061762120501435216,0.12242944517556113,-1.4712011573234711
1589985422.5834792,-2.575345316934721,-1.360860927152318,8.868789025543993,0.42777777777777776,-0.31777777777777777,-0.6888888888888889,0.033289430984851626,0.10787975876772424,-1.5274066490093894
1589985422.5934792,-2.553701040681173,-1.411364238410596,9.049157994323558,0.42777777777777776,-0.31777777777777777,-0.6888888888888889,0.020697301490330576,0.09213959689957292,-1.569118077959991
1589985422.6034791,-2.43220150060723,-1.4358488745445772,8.813899249696385,0.4477777777777778,-0.27111111111111114,-0.7333333333333333,0.03341788748077678,0.12012163100508606,-1.626661711180035
1589985422.6134791,-2.4042902061255385,-1.456782345405846,8.82785489693723,0.4477777777777778,-0.27111111111111114,-0.7333333333333333,0.028089750120785063,0.13230023068506713,-1.654824722939991
1589985422.6234791,-2.397318596828448,-1.5364668428640078,8.864511052378663,0.4477777777777778,-0.27111111111111114,-0.7333333333333333,0.017081644742533403,0.11375265697053655,-1.7174080988214508
1589985422.633479,-2.4199518987341775,-1.618373417721519,8.846698734177215,0.4477777777777778,-0.27111111111111114,-0.7333333333333333,0.03709874067316681,0.12327961952453048,-1.754264813061126
1589985422.643479,-2.367738892686261,-1.661695830485304,8.875477785372523,0.4477777777777778,-0.2685359611149085,-0.7350919723551302,0.04848985152191491,0.13919470520398436,-1.7845756733770188
1589985422.653479,-2.3297532176444764,-1.6904935647110473,8.80320817062181,0.4477777777777778,-0.2255555555555556,-0.7644444444444445,0.056507842457829895,0.1321251235770623,-1.8210407523400558
1589985422.663479,-2.310369711394043,-1.7292605772119138,9.055193751877441,0.4477777777777778,-0.2255555555555556,-0.7644444444444445,0.03959254222528187,0.14269718622240482,-1.855928559069686
1589985422.673479,-2.3198454138648925,-1.8284541386489268,8.794173825647897,0.4477777777777778,-0.2255555555555556,-0.7644444444444445,0.053231492833187434,0.1547124810683023,-1.8920349374927674
1589985422.683479,-2.2723867233973905,-1.8738672339739066,8.87,0.4477777777777778,-0.2255555555555556,-0.7644444444444445,0.031423167799304555,0.1431097574001284,-1.9459070571725938
1589985422.693479,-2.2734607457373053,-1.9578471051152333,8.86738429829492,0.448649678346137,-0.22715403993088087,-0.764153810921658,0.028126755943729584,0.14968745038408976,-1.9771648242520208
1589985422.703479,-2.2233548417483044,-2.0332580538809344,8.833387104370761,0.4544444444444444,-0.23777777777777775,-0.7622222222222222,0.03309087993983915,0.1665311532570123,-2.0147257429030847
1589985422.713479,-2.21,-2.08,8.8,0.4544444444444444,-0.23777777777777775,-0.7622222222222222,0.031634092692397225,0.1679879405044542,-2.038762732485876
1589985422.723479,-2.1695723126390205,-2.1002138436804896,8.773048208426014,0.4544444444444444,-0.23777777777777775,-0.7622222222222222,0.030164100497780576,0.16872293660176255,-2.0586076271132008
1589985422.733479,-2.187864694183734,-2.176263214821535,8.816797041275601,0.4544444444444444,-0.23777777777777775,-0.7622222222222222,0.03151762982667589,0.1845677615314875,-2.096095346053447
1589985422.743479,-2.19,-2.2237291253381426,8.834576375112714,0.4544444444444444,-0.23777777777777775,-0.7622222222222222,0.030839074758889033,0.1965714840935122,-2.115953007211374
1589985422.753479,-2.114714770382288,-2.258821307404428,8.783536077786716,0.4659463545249282,-0.23254963683210336,-0.7486290557634687,0.02027783116811152,0.1976332347568111,-2.155606081111829
1589985422.763479,-2.01763817628165,-2.2432069411421183,8.796793058857883,0.4666666666666667,-0.23222222222222225,-0.7477777777777778,0.023298631191826652,0.18461750175774197,-2.1833090275262226
1589985422.773479,-1.9963957461511883,-2.3185276615349175,8.914417015395246,0.4666666666666667,-0.23222222222222225,-0.7477777777777778,0.03500615313545942,0.17776108828123827,-2.218544875120111
1589985422.783479,-2.044704188582178,-2.3829389181095713,8.721183245671286,0.4666666666666667,-0.23222222222222225,-0.7477777777777778,0.060476048896914034,0.18566553868996558,-2.233475503669929
1589985422.793479,-2.05,-2.5017388919363683,8.914166209544707,0.4666666666666667,-0.23222222222222225,-0.7477777777777778,0.032796129653235466,0.16215441922164675,-2.2676157994489015
1589985422.803479,-2.002050419139693,-2.5020084031899485,8.969957984050255,0.4444677866387467,-0.2366619982278062,-0.7477777777777778,0.032286757870241635,0.160352125026979,-2.292684305859556
1589985422.813479,-1.97,-2.6037327704592848,8.733732770459286,0.4388888888888889,-0.23777777777777775,-0.7477777777777778,0.0562179819773691,0.16739350680303175,-2.3207022930824084
1589985422.823479,-1.9544017215960432,-2.674456650972559,8.777716745137205,0.4388888888888889,-0.23777777777777775,-0.7477777777777778,0.035641794715519814,0.15926129424448254,-2.347355295428896
1589985422.833479,-1.8981988991111196,-2.6972044035555207,8.7090055044444,0.4388888888888889,-0.23777777777777775,-0.7477777777777778,0.04660077138164007,0.1602436423904687,-2.3609302569369017
1589985422.843479,-1.8900408457005036,-2.729836617197985,8.749795771497482,0.4388888888888889,-0.23777777777777775,-0.7477777777777778,0.05016039369586012,0.1646931702832438,-2.3724990294581176
1589985422.853479,-1.7476261836903557,-2.7405047347614233,8.85779442861083,0.43666666666666665,-0.17555555555555555,-0.6377777777777778,0.04091533068052971,0.14700321244676637,-2.399069244595262
1589985422.863479,-1.7537480476689702,-2.8178110357517276,8.849055178758638,0.43666666666666665,-0.17555555555555555,-0.6377777777777778,0.04520161999911462,0.1525462399307261,-2.411861214769465
1589985422.873479,-1.6910315230276156,-2.7906304605523116,8.636819598718004,0.43666666666666665,-0.17555555555555555,-0.6377777777777778,0.05495723966449304,0.16381527449986324,-2.421903766845288
1589985422.8834789,-1.6998301910350855,-2.970679235859658,8.8711886627544,0.43666666666666665,-0.17555555555555555,-0.6377777777777778,0.04929114134302034,0.1558591389047424,-2.4338287085956662
1589985422.8934789,-1.693283961792983,-2.9968641528280684,8.917012267449119,0.43666666666666665,-0.17555555555555555,-0.6377777777777778,0.05714605254624074,0.1508605590481476,-2.44096953696223
1589985422.9034789,-1.5960900819948332,-3.0021741734995695,8.908696693998278,0.49231698844750627,-0.09034100032864495,-0.6264738061660448,0.06535485004237462,0.17140194802141268,-2.4496737750416453
1589985422.9134789,-1.4267916066996225,-2.8718661744154517,8.9,0.5077777777777778,-0.06666666666666668,-0.6233333333333333,0.08134009997981223,0.18356074842096112,-2.4543855287689875
1589985422.9234788,-1.484165849631044,-3.168055283210348,8.612783769372346,0.5077777777777778,-0.06666666666666668,-0.6233333333333333,0.07738761143251635,0.18371292566355477,-2.4728229269780613
1589985422.9334788,-1.4408787863150834,-3.1536262621050275,8.930222233689388,0.5077777777777778,-0.06666666666666668,-0.6233333333333333,0.03646459843678315,0.122328406169955,-2.4964323575525227
1589985422.9434788,-1.3368411059689096,-3.1313682211937817,8.898209327162691,0.5077777777777778,-0.06666666666666668,-0.6233333333333333,0.04345543895622955,0.1251931227536917,-2.4962685796905237
1589985422.9534788,-1.2652429187003493,-3.170473175812282,8.614782404476484,0.5293634715443281,0.016977896678715604,-0.6116410825431187,0.07827759547383992,0.16980276909018827,-2.4808100390978063
1589985422.9634788,-1.2749065295929007,-3.3399376863952672,8.957862910069588,0.5344444444444445,0.03666666666666667,-0.6088888888888889,0.06860577912322387,0.15215390075870286,-2.463192074971587
1589985422.9734788,-1.1445709438763487,-3.269426511474483,8.756571792092739,0.5344444444444445,0.03666666666666667,-0.6088888888888889,0.0613043198720817,0.13174075573752803,-2.439690310446308
1589985422.9834788,-1.1735266221569247,-3.421618344460769,8.753465994681148,0.5344444444444445,0.03666666666666667,-0.6088888888888889,0.08747462340496831,0.16106487444045897,-2.399361373125462
1589985422.9934788,-1.1111242119358018,-3.4372189470160497,8.979674731732718,0.5344444444444445,0.03666666666666667,-0.6088888888888889,0.07896581465857176,0.136389329075909,-2.3738349468862725
1589985423.0034788,-1.0619260077305357,-3.410963003865268,8.94782263942573,0.5366666666666666,0.11555555555555555,-0.6088888888888889,0.06133697519438022,0.11587851431920305,-2.3089720822864637
1589985423.0134788,-0.9920690747065343,-3.3985269038518084,8.545360640535588,0.5366666666666666,0.11555555555555555,-0.6088888888888889,0.09337371360227326,0.15174516347797226,-2.241499898911162
1589985423.0234787,-1.081143844513615,-3.6255719222568072,8.67379549520845,0.5366666666666666,0.11555555555555555,-0.6088888888888889,0.06195710843219908,0.1503011677947229,-2.183734520448701
1589985423.0334787,-0.9507270064440538,-3.565816051552431,8.723456942003516,0.5366666666666666,0.11555555555555555,-0.6088888888888889,0.044366394836330515,0.11659913878357078,-2.128430939908636
1589985423.0434787,-0.9589173989455184,-3.6313391915641478,8.649743409490334,0.5366666666666666,0.11555555555555555,-0.6088888888888889,0.0649153590373796,0.13982840266301758,-2.0694643469838865
1589985423.0534787,-0.8976519121418218,-3.623480878581782,8.8794336046382,0.5166666666666667,0.18777777777777774,-0.6088888888888889,0.05389669746925403,0.12826754318101208,-1.9999568135494998
1589985423.0634787,-0.8766886210762331,-3.796688621076233,8.793377242152467,0.5166666666666667,0.18777777777777774,-0.6088888888888889,0.06478761870498563,0.13247932978747515,-1.942550367046541
1589985423.0734787,-0.8193114708645892,-3.7395409805763933,8.681147548559018,0.5166666666666667,0.18777777777777774,-0.6088888888888889,0.05347574396817805,0.12212297638789962,-1.8812717930377796
1589985423.0834787,-0.7999296067528227,-3.7266197378352155,8.713450655411963,0.5166666666666667,0.18777777777777774,-0.6088888888888889,0.05418048843468734,0.12071348745488107,-1.8389871250472232
1589985423.0934787,-0.7823329210240264,-3.7736695528318154,8.79133663180779,0.5166666666666667,0.18777777777777774,-0.6088888888888889,0.05370519054894044,0.11079155173990442,-1.7629614262067435
1589985423.1034787,-0.6156076351040379,-3.565042026984473,8.853261148656832,0.5349324849884403,0.21565718468995848,-0.6156184009021739,0.05722595575360855,0.11176749487843136,-1.6765780056681048
1589985423.1134787,-0.6372060353798127,-3.7065851543531045,8.748758237946584,0.5377777777777778,0.22,-0.6166666666666667,0.05607978836042436,0.08913616093884455,-1.573988794615678
1589985423.1234787,-0.5717382934443289,-3.6265690253208462,8.719661463753036,0.5377777777777778,0.22,-0.6166666666666667,0.0410034513036306,0.1073864636918054,-1.4954331436355424
1589985423.1334786,-0.5380191636070566,-3.571188501835766,8.685245992656935,0.5377777777777778,0.22,-0.6166666666666667,0.040663244976120554,0.08124005965974063,-1.3612689796217883
1589985423.1434786,-0.500459389271962,-3.593724366436823,8.595102534252709,0.5377777777777778,0.22,-0.6166666666666667,0.04639923510008835,0.09107318558654257,-1.276867982083405
1589985423.1534786,-0.5021697556100664,-3.6532209048787134,8.906711638048515,0.6166666666666667,0.25222222222222224,-0.6377777777777778,0.027988178850545484,0.06908104394134376,-1.143727180920167
1589985423.1634786,-0.4350611916614134,-3.51444384061909,8.947652979153535,0.6166666666666667,0.25222222222222224,-0.6377777777777778,0.01804602553887823,0.06353755559302347,-1.0557215769962423
1589985423.1734786,-0.3621216007651675,-3.4323868008608134,8.765304001912918,0.6166666666666667,0.25222222222222224,-0.6377777777777778,0.04291001023022926,0.06751579314363965,-0.9721785884333027
1589985423.1834786,-0.4495165233137166,-3.5886301493888637,8.75,0.6166666666666667,0.25222222222222224,-0.6377777777777778,0.0023486687947983902,0.054462430437020204,-0.8796675719722191
1589985423.1934786,-0.4169668240315592,-3.496406001422751,8.75,0.6166666666666667,0.25222222222222224,-0.6377777777777778,0.013592303208492086,0.049136498346323186,-0.837060115246643
1589985423.2034786,-0.3836212094342969,-3.4168106047171483,8.762757581131407,0.7538106638292842,0.22316328742290795,-0.6076557112175129,0.02012417399075879,0.047159425468813125,-0.7791465365463525
1589985423.2134786,-0.35884767878495455,-3.465761606075227,8.778847678784954,1.0466666666666666,0.16111111111111112,-0.5433333333333333,0.015397329700219908,0.040194582282170065,-0.695577267967412
1589985423.2234786,-0.37427352085354026,-3.5423646944713867,8.737635305528613,1.0466666666666666,0.16111111111111112,-0.5433333333333333,0.012832021237898658,0.04113458340854531,-0.6049231200208509
1589985423.2334785,-0.38,-3.521473957263201,8.672947914526402,1.0466666666666666,0.16111111111111112,-0.5433333333333333,0.0047384853194354344,0.024962979987792455,-0.5279052822903634
1589985423.2434785,-0.38,-3.5283134306660298,8.744820875994268,1.0466666666666666,0.16111111111111112,-0.5433333333333333,0.008897596169313475,0.024905131822787557,-0.4684646206931325
1589985423.2534785,-0.40973362637362637,-3.639023296703297,8.869023296703295,1.175512380952381,0.36594275946275945,-0.639141684981685,0.0054928963859880876,0.009953075699738433,-0.4040819848241348
1589985423.2634785,-0.3294687983496648,-3.550520887055183,8.843156266116555,1.1766666666666667,0.36777777777777776,-0.64,0.007406285328295948,0.014697805582002274,-0.3587083669599743
1589985423.2734785,-0.3266604940491173,-3.460074071410593,8.660166660673834,1.1766666666666667,0.36777777777777776,-0.64,0.016354381799969068,0.019630914116197322,-0.3200080026259586
1589985423.2834785,-0.3061323709655454,-3.4518235053792727,8.593867629034454,1.1766666666666667,0.36777777777777776,-0.64,0.007708012639438051,0.003591734530736662,-0.26940474974122874
1589985423.2934785,-0.33031547870097006,-3.6237035849852384,8.69094643610291,1.1766666666666667,0.36777777777777776,-0.64,0.016268183777113993,0.00816850527638101,-0.22499397507526844
1589985423.3034785,-0.3570201848707791,-3.7580807394831166,8.862322957932466,0.7733960468674674,0.3490572847890335,-0.6548203902827558,0.004853692825267666,0.0011624827874889589,-0.16351452598253563
1589985423.3134785,-0.3295808041622929,-3.8978433207064946,8.783712062434393,0.6022222222222222,0.3411111111111111,-0.6611111111111111,0.01690456645154496,0.004951155016450472,-0.057016805479180546
1589985423.3234785,-0.3200095842271006,-3.6202779425859157,8.640143763406508,0.6022222222222222,0.3411111111111111,-0.6611111111111111,0.004375868853923074,-0.006533484448036254,0.03590436836984841
1589985423.3334785,-0.37594010057407323,-3.7132335009567887,8.73323350095679,0.6022222222222222,0.3411111111111111,-0.6611111111111111,0.005380342858021603,-0.020783260887479647,0.14786958590631877
1589985423.3434784,-0.39555333439948825,-3.6888933312010237,8.708893331201024,0.6022222222222222,0.3411111111111111,-0.6611111111111111,-0.0030288740542291246,-0.02520982683661368,0.24760550393747638
1589985423.3534784,-0.386169000179501,-3.6315915006282533,8.782985998922994,0.5261517232094777,0.3511001665370271,-0.6803208330840264,-0.009980338019553264,-0.03296921494052141,0.33565637586991387
1589985423.3634784,-0.3977316605351697,-3.5834025091972457,8.775670848662076,0.4922222222222222,0.3555555555555556,-0.6888888888888889,-0.011032026550633983,-0.034063191708728985,0.4270760463219039
1589985423.3734784,-0.4,-3.5634519672803404,8.736903934560681,0.4922222222222222,0.3555555555555556,-0.6888888888888889,-0.011810862998982735,-0.041036195649535534,0.4803692409169947
1589985423.3834784,-0.4,-3.6048214851589733,8.873428752508715,0.4922222222222222,0.3555555555555556,-0.6888888888888889,-0.00515416680545476,-0.0386309880590725,0.5249857334655124
1589985423.3934784,-0.36217267589939506,-3.4813870980579433,8.73869070359758,0.4922222222222222,0.3555555555555556,-0.6888888888888889,-0.007664379893858615,-0.04230539834221695,0.5513350626669224
1589985423.4034784,-0.3817088269826022,-3.5747625146760593,8.785126480947806,0.5063150342144899,0.33529713831667085,-0.7073857046287402,0.000785318991134442,-0.03930961073117366,0.5809881875953453
1589985423.4134784,-0.3827543145486155,-3.718685281770767,8.87521116906246,0.51,0.33,-0.7122222222222222,-0.011744759440758763,-0.046873275791098554,0.608207266155867
1589985423.4234784,-0.38,-3.780799971262819,8.785600158054493,0.51,0.33,-0.7122222222222222,-0.009512055394959485,-0.048476522325197585,0.6418447971550885
1589985423.4334784,-0.43691873512410745,-3.82587215232914,8.674825569534171,0.51,0.33,-0.7122222222222222,-0.0033105471717954325,-0.04634128084394635,0.7066111019711301
1589985423.4434783,-0.522900379378091,-3.7935993496375584,8.759301029740532,0.51,0.33,-0.7122222222222222,-0.012566465205741978,-0.055556124079811586,0.7875912239630645
1589985423.4534783,-0.5698365198115821,-3.621798282072596,8.810817400942089,0.48376928050244755,0.30814106708537303,-0.6832591361103414,-0.022889613510240124,-0.06761367559259482,0.8822517863158139
1589985423.4634783,3.6853471196454946,-10.047660019694732,2.4698824470704084,0.4566666666666666,0.2855555555555556,-0.6533333333333333,-0.02053639333386407,-0.0714918464021231,0.965789873056268
1589985423.4734783,-0.9281412311920771,-8.587570738926672,-5.853588569012297,0.4566666666666666,0.2855555555555556,-0.6533333333333333,-1.0855318410544526,0.3184524392173891,-2.7372121998743584
1589985423.4834783,-3.626814869161164,-3.0413856688676937,6.412893127904132,0.4566666666666666,0.2855555555555556,-0.6533333333333333,-3.6124527887167956,1.656544163003701,-16.93628418699188
1589985423.4934783,-0.964553812761078,-1.340602219674011,1.4729629781308864,0.4566666666666666,0.2855555555555556,-0.6533333333333333,-4.85165536604223,1.310269947185526,-8.327406035475205
1589985423.5034783,-0.014414226812710873,-0.9535558702261464,0.03933238932156097,0.462564333939537,0.31283226669258074,-0.6783984192430321,-4.750532485721643,0.48734295131767413,-3.995946941433272
1589985423.5134783,0.24012975984238594,-0.6234661503447807,0.39025951968477185,0.4655555555555556,0.32666666666666666,-0.6911111111111111,-4.570452586776549,0.2798006339048653,-2.872914647467973
1589985423.5234783,1.1398311477457224,-3.18123991507431,9.056170600724366,0.4655555555555556,0.32666666666666666,-0.6911111111111111,-4.249322035635789,0.417908048934614,-2.654928451919634
1589985423.5334783,0.13658675876391047,-2.2112209656666892,11.409802261799959,0.4655555555555556,0.32666666666666666,-0.6911111111111111,-1.7315828044324988,0.5825885631452866,-2.54837239924243
1589985423.5434783,0.45400556155059346,-1.4875475222046983,7.338536565119947,0.4655555555555556,0.32666666666666666,-0.6911111111111111,-0.46691890208781595,0.8352643512627523,-2.422733651246982
1589985423.5534782,0.53,-1.88,7.67,0.3333333333333333,0.6055555555555555,-0.5311111111111111,1.3755376167280309,0.7723081940074907,-2.261292212115153
1589985423.5634782,0.53,-1.88,7.67,0.3333333333333333,0.6055555555555555,-0.5311111111111111,1.3755376167280309,0.7723081940074907,-2.261292212115153
1589985423.5734782,0.5016309412861137,-2.4000994097545822,6.979686237962101,0.3333333333333333,0.6055555555555555,-0.5311111111111111,3.810975422702328,0.6175789814297084,-1.9724643486366253
1589985423.5834782,0.45651296893157056,-2.447394812427372,6.15723344076827,0.3333333333333333,0.6055555555555555,-0.5311111111111111,5.007885278832332,0.5185532915882595,-1.8220872752128656
1589985423.5934782,0.3432799762857566,-2.6474320438713503,7.374000296428042,0.3333333333333333,0.6055555555555555,-0.5311111111111111,5.79131501096567,0.43171415550082265,-1.7327864279332774
1589985423.6034782,-0.06290840521265079,-1.568366379149397,4.366584145476271,0.3189916980944202,0.6120744806641524,-0.55457924150206,4.82691440040661,0.3829698291241582,-1.3530999268922423
1589985423.6134782,0.03158906773252668,0.5000104425479817,-1.012979727053401,0.2966666666666667,0.6222222222222222,-0.5911111111111111,2.4750950454844585,0.4068798818711781,-0.8563021642597178
1589985423.6234782,-0.07792,0.34330666666666665,-0.7094400000000001,0.2966666666666667,0.6222222222222222,-0.5911111111111111,1.3199692422266183,-0.07163122138393396,-0.6189606570451823
1589985423.6334782,7.466336948718446,-6.589928985816566,4.465391451134093,0.2966666666666667,0.6222222222222222,-0.5911111111111111,-0.7725089666418601,0.14556672111497268,0.014765170026442731
1589985423.6434782,2.2320557398805576,-4.060486794956868,10.931923822163238,0.2966666666666667,0.6222222222222222,-0.5911111111111111,-1.6595346798699677,0.13914017852268112,0.9993843316178423
1589985423.6534781,1.4823974431430635,-1.303316898251905,14.087758657650108,0.2771693116537503,0.5549899635569934,-0.6428799502833373,-0.5689022558360475,-0.9386823052902424,1.1911603439053984
1589985423.6634781,1.4052736638763683,0.3686968770122345,1.2848567289117838,0.2644444444444444,0.5111111111111111,-0.6766666666666666,0.15234320222414818,-0.24707664034683718,1.2070280547104721
1589985423.6734781,1.204520578338202,-1.6767133823910072,3.875298968309729,0.2644444444444444,0.5111111111111111,-0.6766666666666666,-0.3116341350918099,0.5862147536495067,1.5026369696087505
1589985423.683478,0.739951028403526,-3.4057296767874634,10.432409402546522,0.2644444444444444,0.5111111111111111,-0.6766666666666666,-0.11822960354734607,0.09690444936651432,1.7222038530843042
1589985423.693478,0.9146755677564262,-3.8838963064636887,8.708531944097828,0.2644444444444444,0.5111111111111111,-0.6766666666666666,0.1808655694875369,-0.3825539742976999,1.8362447028168016
1589985423.703478,0.6512844727512315,-2.3749675273742668,6.281546763718508,0.2694539090905922,0.5211300404034066,-0.6576307010113053,-0.1685725940437316,0.045298687904778534,2.0987569538787287
1589985423.713478,0.6184046170171298,-3.16653095696992,7.2998371483639035,0.27,0.5222222222222223,-0.6555555555555556,-0.3047402107341127,0.2374819427148918,2.2347805145048816
1589985423.723478,0.7968683820144252,-5.835000767302676,12.596122563814006,0.27,0.5222222222222223,-0.6555555555555556,-0.027571530620146167,-0.3072282016735616,2.353269463356268
1589985423.733478,0.35351430352268576,-3.5139001010166138,8.209085907107701,0.27,0.5222222222222223,-0.6555555555555556,0.1030289638900233,-0.28967011780870083,2.569554750159514
1589985423.743478,0.2755625108300121,-3.3963251602841793,9.362688225610814,0.27,0.5222222222222223,-0.6555555555555556,-0.09024176924320651,-0.018980380007690423,2.703652754479396
1589985423.753478,0.40906200279049276,-4.9476966195873,9.202412797101804,0.3174691645112422,0.5121058429001543,-0.6555555555555556,-0.14801022102273179,-0.2046799655838285,2.7609046460077895
1589985423.763478,0.262329295887129,-3.78840463197125,9.62137841075469,0.3377777777777778,0.5077777777777778,-0.6555555555555556,-0.04556289687042804,-0.19614905913174316,2.9837479729189376
1589985423.773478,0.045259521843340256,-2.7465441398618298,8.075311486636185,0.3377777777777778,0.5077777777777778,-0.6555555555555556,-0.03454564789926237,-0.1779158210733185,3.0626083889046813
1589985423.783478,0.02975694659004305,-3.4469760448206967,8.878870007621167,0.3377777777777778,0.5077777777777778,-0.6555555555555556,-0.10436027909154054,-0.23047794645566647,3.1285736177469805
1589985423.793478,-0.058941212853889605,-3.8598493069807978,8.961740841744216,0.3377777777777778,0.5077777777777778,-0.6555555555555556,-0.09330220483234447,-0.23803210210644515,3.2627077465637107
1589985423.803478,-0.3349302853778049,-4.375646779247544,8.29185127547265,0.3591576295860117,0.47967854397267023,-0.6476144677410687,-0.0948251759708223,-0.24558711573453815,3.3294895233224056
1589985423.813478,0.23470828769623953,-0.8392471705001823,7.095614457831325,0.37666666666666665,0.4566666666666666,-0.6411111111111111,-0.4460225065368204,-0.47933414483784553,1.5548947301109377
1589985423.823478,-0.7859412676081419,-0.7671712998415047,11.542535038199205,0.37666666666666665,0.4566666666666666,-0.6411111111111111,-0.0047697354463466235,0.025902340577114047,0.4649527459854859
1589985423.833478,-0.8979523673294235,-1.1817851523387213,8.783830996996137,0.37666666666666665,0.4566666666666666,-0.6411111111111111,0.7061816294059101,0.5516744444013779,0.19675265361242597
1589985423.843478,-0.6457421421972362,-0.7622339944567846,4.476207811609301,0.37666666666666665,0.4566666666666666,-0.6411111111111111,0.22081742443637642,0.06371487000848419,0.10785490995684131
1589985423.853478,-0.4953151076333647,-3.9045264456638193,11.370079872723139,0.4215616307888784,0.412707014297001,-0.6532701638942101,-0.5543540834803028,-0.3898083216858478,-0.2950180699005824
1589985423.863478,-1.8568312757201646,-7.339890260631002,10.042405121170553,0.43,0.4044444444444445,-0.6555555555555556,-0.2795888577070226,-0.024192801222774618,-0.4361148451333933
1589985423.873478,-0.19523984348582157,-4.2842273320129465,9.520916139316942,0.43,0.4044444444444445,-0.6555555555555556,0.23362653948858297,0.05773016802656832,-0.12110940726741376
1589985423.883478,-0.1216071428571428,-4.050957792207792,9.08771103896104,0.43,0.4044444444444445,-0.6555555555555556,0.16001389665123741,0.08230459920271149,0.06931202541833406
1589985423.893478,-0.19652816649794558,-4.5264699577204786,8.8697062764247,0.43,0.4044444444444445,-0.6555555555555556,0.017658525644298532,0.04609055612532989,0.07047390121845348
1589985423.903478,0.29675727981897226,-4.276705174775204,9.025809265765497,0.43,0.4044444444444445,-0.6555555555555556,-0.021846885830637958,-0.054035228130112564,-0.002406771674963823
1589985423.913478,-0.04927370332359675,-4.335084076734822,8.732849135549065,0.4355555555555555,0.41,-0.6555555555555556,-0.0018769833216462275,0.0035893990562275817,0.0014808499357234592
1589985423.923478,-0.036691769292105963,-4.4289846726322315,8.541880038982901,0.4355555555555555,0.41,-0.6555555555555556,-0.007078077863779166,-0.001090830782496456,-0.00018043599458854287
1589985423.9334779,0.03625802899614608,-4.3249678840154155,8.636283721783814,0.4355555555555555,0.41,-0.6555555555555556,-0.0023843530987197725,-0.0029318704762436865,0.0013638888091665176
1589985423.9434779,0.034988703209916754,-4.346924423456614,8.735603818518594,0.4355555555555555,0.41,-0.6555555555555556,0.00149835196513685,-0.004363323129985824,0.0020449996450216997
1589985423.9534779,0.007427606615711406,-4.425723933842886,8.658858590076433,0.4355555555555555,0.40463561744420845,-0.6555555555555556,0.0023990910081952603,-0.003958210033151208,-0.00012450850800739327
1589985423.9634778,0.02,-4.338744469235714,8.626162689558674,0.4355555555555555,0.3955555555555556,-0.6555555555555556,0.0071690060710262295,-0.0023668424969078457,-0.0018797782814657378
1589985423.9734778,0.003835077838584562,-4.359175389192923,8.634453535943893,0.4355555555555555,0.3955555555555556,-0.6555555555555556,-0.001045855239899503,0.0013224896017748331,0.00023165881927837717
1589985423.9834778,0.005440114457010495,-4.288053549529909,8.7,0.4355555555555555,0.3955555555555556,-0.6555555555555556,0.002062382139600705,0.0023474636821580294,0.0015649757881053528
1589985423.9934778,0.04198649736206743,-4.377317580255745,8.765364839488509,0.4355555555555555,0.3955555555555556,-0.6555555555555556,7.591335567181182e-05,0.0,0.0
1589985424.0034778,0.03660159350836445,-4.329359362596654,8.76551553817658,0.432599822943515,0.40324046034686084,-0.6591024346900042,0.004153675029989371,0.0011607134824952734,-0.0011607134824952734
1589985424.0134778,0.03165798500825816,-4.334171007495871,8.751960360818194,0.43,0.41,-0.6622222222222223,0.0016061031556792566,0.00063584444544451,-0.0011511168186273107
1589985424.0234778,0.004469754844086395,-4.323181470935482,8.74742343218279,0.43,0.41,-0.6622222222222223,-0.0017189353743207571,-0.0001156815476680387,-0.00048757461741420863
1589985424.0334778,-0.0018782815139478607,-4.3256348445418435,8.717513126055792,0.43,0.41,-0.6622222222222223,-0.0033056859153355023,0.0004429710265678094,-0.0017386905384251024
1589985424.0434778,-2.1894493328376147e-05,-4.340021894493328,8.690131366959971,0.43,0.41,-0.6622222222222223,-0.0027234944781476767,0.0010884424637674804,-0.0010932191012254316
1589985424.0534778,0.014225530491301855,-4.3342255304913015,8.680706365895622,0.426713476284543,0.40107943562947385,-0.656588181567153,0.0007069494755325553,0.0012597938185350249,0.0
1589985424.0634778,0.036526912708004095,-4.34,8.72245514548666,0.4222222222222222,0.3888888888888889,-0.6488888888888888,0.004631137957221404,0.001201871008101515,-0.001201871008101515
1589985424.0734777,0.029945449674889806,-4.31994544967489,8.7,0.4222222222222222,0.3888888888888889,-0.6488888888888888,0.0029108655924513956,0.0014524575375344283,-0.0007232535100759445
1589985424.0834777,0.013639425235743153,-4.335442299057027,8.661836551414458,0.4222222222222222,0.3888888888888889,-0.6488888888888888,-0.001584325175565688,0.0017846618572186067,0.0006938310747221509
1589985424.0934777,0.034446618912808036,-4.32066405730463,8.674225266477931,0.4222222222222222,0.3888888888888889,-0.6488888888888888,-0.0016966106861807185,0.0011149765874708696,0.001624173271257477
1589985424.1034777,0.04370624675099636,-4.293258750649801,8.71,0.4200497217890218,0.3910613893220894,-0.6532338897552898,0.001090830782496456,0.00035547455212829625,0.001115237908608023
1589985424.1134777,0.01832403738892949,-4.3,8.743296149555718,0.4155555555555556,0.3955555555555556,-0.6622222222222223,0.0038148656480451702,0.001090830782496456,-0.0006368249715716703
1589985424.1234777,0.021864314047325948,-4.320339214881685,8.724914512378607,0.4155555555555556,0.3955555555555556,-0.6622222222222223,0.0040859528079148465,0.001090830782496456,0.0
1589985424.1334777,0.013588605253422124,-4.353588605253422,8.640765815760266,0.4155555555555556,0.3955555555555556,-0.6622222222222223,-0.001090830782496456,0.000960345413274411,0.00013048536922204493
1589985424.1434777,0.02963001633519139,-4.3730866775567945,8.699260032670383,0.4155555555555556,0.3955555555555556,-0.6622222222222223,-0.00222202052205232,0.0,0.0007137675359778345
1589985424.1534777,0.011185549199523939,-4.3564433524014285,8.67185549199524,0.4195073862206354,0.39647764937740754,-0.6632760437329102,-0.0038460297055839263,0.00012932335610047437,0.00025864671220094873
1589985424.1634777,0.02,-4.344295180722892,8.74927861445783,0.4488888888888889,0.4033333333333333,-0.6711111111111111,0.0003898405793470015,0.0007009902031494545,0.00023245866825790415
1589985424.1734776,0.022826984356894554,-4.350211109501738,8.715865078215527,0.4488888888888889,0.4033333333333333,-0.6711111111111111,0.002015959249937414,-0.00030837615581365263,-0.0020389877242347576
1589985424.1834776,0.025181242244138202,-4.324093788779309,8.68,0.4488888888888889,0.4033333333333333,-0.6711111111111111,0.0012094535538932686,-3.954092379893754e-05,-0.0004861040055498217
1589985424.1934776,0.011833648393194708,-4.325500945179584,8.700415879017013,0.4488888888888889,0.4033333333333333,-0.6711111111111111,-0.002181661564992912,0.001090830782496456,-0.0004000400223143903
1589985424.2034776,0.01992954010059636,-4.313251130117362,8.726678409983235,0.4488888888888889,0.4007498744314042,-0.6681585866517635,-0.0014570030375686445,0.001090830782496456,0.0014570030375686445
1589985424.2134776,0.042928061540467424,-4.336099286156655,8.72,0.4488888888888889,0.3955555555555556,-0.6622222222222223,0.0007449038395417306,0.0014632827022673213,-0.0003724519197708653
1589985424.2234776,0.025839749350302386,-4.3058397493503024,8.672480751949093,0.4488888888888889,0.3955555555555556,-0.6622222222222223,0.001605712025714976,0.00102976248643704,6.106829605941597e-05
1589985424.2334776,0.021197059560604796,-4.315299264890151,8.658204410659094,0.4488888888888889,0.3955555555555556,-0.6622222222222223,6.528947085946953e-05,0.0,0.0005780601266779627
1589985424.2434776,0.014932852636322668,-4.324932852636322,8.69,0.4488888888888889,0.3955555555555556,-0.6622222222222223,-0.002719752315114868,0.000407230383154603,-0.000407230383154603
1589985424.2534776,0.032100511501802834,-4.342100511501803,8.701849232747296,0.4462557260561565,0.4012607416931424,-0.6622222222222223,-0.0032999026075297374,0.0015216810434869645,-0.00022913026051543921
1589985424.2634776,0.02,-4.3383225356732815,8.72,0.44222222222222224,0.41,-0.6622222222222223,0.0,0.0003659659448247501,0.00018298297241237506
1589985424.2734776,0.027646741445406787,-4.346176629277297,8.689413034218374,0.44222222222222224,0.41,-0.6622222222222223,0.002085325238610291,-0.0013475314695487951,-0.0002567006870523393
1589985424.2834775,0.04,-4.331972169764437,8.668097405824472,0.44222222222222224,0.41,-0.6622222222222223,0.0037027530449606862,0.0008757004337607967,0.001090830782496456
1589985424.2934775,0.03364991322084847,-4.32,8.712116695593052,0.44222222222222224,0.41,-0.6622222222222223,0.0006290394404816382,0.0014889745519706854,0.0017835177955186827
1589985424.3034775,0.011135822791604789,-4.32,8.719621392402798,0.44222222222222224,0.41,-0.6622222222222223,-0.0010082314181935521,-0.0009669317360421004,0.0042394240835314685
1589985424.3134775,0.01,-4.34,8.699935867645692,0.4088888888888889,0.4033333333333333,-0.6555555555555556,0.00028145238890325873,0.001090830782496456,-0.001639744051056342
1589985424.3234775,0.010658863138114627,-4.33868227372377,8.66736454744754,0.4088888888888889,0.4033333333333333,-0.6555555555555556,0.004219581491484294,0.0010189599632456912,-0.0030568798897370737
1589985424.3334775,0.016730080653911534,-4.323269919346089,8.652889435422619,0.4088888888888889,0.4033333333333333,-0.6555555555555556,0.0014682758291941157,0.0003566928678993981,0.0
1589985424.3434775,0.011386217008797654,-4.325841348973607,8.701386217008798,0.4088888888888889,0.4033333333333333,-0.6555555555555556,-0.00045363845532499247,0.001090830782496456,0.0
1589985424.3534775,0.02265655049982036,-4.313282752499101,8.717969651499462,0.41449716216628746,0.4012671273890286,-0.659687967444165,-0.0029827076414433284,0.0008010460764504164,0.0002897847060460395
1589985424.3634775,0.027394735889359544,-4.344789471778719,8.732184207668078,0.43,0.3955555555555556,-0.6711111111111111,-0.002465851793834898,-0.0002841902288419861,0.0005224503248124838
1589985424.3734775,0.01491240099302518,-4.33,8.679474405958151,0.43,0.3955555555555556,-0.6711111111111111,-0.001052608505166754,0.0005740820992455047,-0.0005358598219158024
1589985424.3834774,0.024198063636160366,-4.32526731212128,8.64526731212128,0.43,0.3955555555555556,-0.6711111111111111,0.002123343106907609,0.0016654054027873356,0.0005162561622055762
1589985424.3934774,0.03269730309409381,-4.32,8.683816181435438,0.43,0.3955555555555556,-0.6711111111111111,0.003272492347489368,0.0006925304534862514,0.0006925304534862514
1589985424.4034774,0.017050823404192415,-4.32,8.74820329361677,0.4355706669031921,0.39784935957451706,-0.6665235030731882,0.002307376563371861,0.0,0.00032170526137250235
1589985424.4134774,0.013666295208185594,-4.323666295208186,8.723666295208186,0.4488888888888889,0.4033333333333333,-0.6555555555555556,0.0,0.0007998615341616197,0.0018906923166580759
1589985424.4234774,0.01667403486924035,-4.3266740348692405,8.703392278953924,0.4488888888888889,0.4033333333333333,-0.6555555555555556,0.0,0.002181661564992912,0.0021840728036466245
1589985424.4334774,0.014057540860342714,-4.315942459139658,8.666230163441371,0.4488888888888889,0.4033333333333333,-0.6555555555555556,0.0004426090471698984,0.0017390525178230135,0.0004426090471698984
1589985424.4434774,0.02261653705900444,-4.315233074118009,8.700466148236018,0.4488888888888889,0.4033333333333333,-0.6555555555555556,0.0005199909489954987,0.001090830782496456,0.0013762506992469345
1589985424.4534774,0.028326033672198336,-4.324978101016595,8.736695865311207,0.4488888888888889,0.4044493108852011,-0.6581595031765803,-0.0012734321824193168,0.0009082293825735952,0.0019990601650700514
1589985424.4634774,0.020126964014191586,-4.300507856056766,8.76923821591485,0.4488888888888889,0.41,-0.6711111111111111,-0.002195511190487862,2.769925098989987e-05,0.001076981157001506
1589985424.4734774,0.031166627570568456,-4.336500117288295,8.699500351864884,0.4488888888888889,0.41,-0.6711111111111111,-0.003399751674057881,0.001799883585287373,0.00012725932656851296
1589985424.4834774,0.03663641894828336,-4.3301814863103,8.636817905258583,0.4488888888888889,0.41,-0.6711111111111111,-0.003262593804795528,-0.000723921007433024,0.000723921007433024
1589985424.4934773,0.027943665047218735,-4.364859162618047,8.678225339811124,0.4488888888888889,0.41,-0.6711111111111111,-0.0008665194359347358,-0.00011215567328086003,0.0
1589985424.5034773,0.011983774682381754,-4.321983774682382,8.755951324047144,0.44756637243396774,0.4086774835450788,-0.6680252393829617,0.001090830782496456,-0.0008744345335885413,-0.00021639624890791473
1589985424.5134773,0.021815433244004673,-4.328184566755995,8.77273826702398,0.44222222222222224,0.4033333333333333,-0.6555555555555556,0.001090830782496456,-0.00039606609322553925,-0.0008927977358836863
1589985424.5234773,0.03,-4.326515532863512,8.700906802818928,0.44222222222222224,0.4033333333333333,-0.6555555555555556,-0.0006860051704751281,-0.002181661564992912,0.00035536719059431685
1589985424.5334773,0.02852540684158087,-4.337050813683161,8.631796745267351,0.44222222222222224,0.4033333333333333,-0.6555555555555556,-0.003559057325554694,-0.001699102082334234,0.00092997762161023
1589985424.5434773,0.022860030229533552,-4.32,8.711440120918134,0.44222222222222224,0.4033333333333333,-0.6555555555555556,0.0004668689798473355,0.001090830782496456,0.0006239618026491205
1589985424.5534773,0.03,-4.320655966156527,8.740327983078263,0.44156625606569616,0.403551988718842,-0.6558470960695671,-0.0010550533787057298,0.0011266081862871822,0.0020385519498300076
1589985424.5634773,0.02912645897821827,-4.339126458978218,8.745632294891092,0.4222222222222222,0.41,-0.6644444444444444,-0.00019057708726658327,0.0018005073904597455,-0.001895795934093037
1589985424.5734773,0.026024081582503994,-4.333012040791252,8.67289163287873,0.4222222222222222,0.41,-0.6644444444444444,-0.002181661564992912,-0.00152453620234638,0.001419393463819722
1589985424.5834773,0.04,-4.34,8.627638598506605,0.4222222222222222,0.41,-0.6644444444444444,-0.0012196252544378525,-0.00048101815527752965,0.0012196252544378525
1589985424.5934772,0.04,-4.3367274315233955,8.682725684766046,0.4222222222222222,0.41,-0.6644444444444444,0.0010709455296323495,-0.0003768670960748896,0.0007139636864215664
1589985424.6034772,0.03620487503856835,-4.32873495834619,8.751265041653811,0.4222222222222222,0.41,-0.6652878055469847,0.003272492347489368,0.0008148415070731009,0.0019056722895695569
1589985424.6134772,0.011427290990573328,-4.321427290990574,8.76,0.4222222222222222,0.41,-0.6711111111111111,0.003272492347489368,-0.0008572908402818693,0.00015569329480972442
1589985424.6234772,0.03326213326021387,-4.333475733479572,8.707805867836578,0.4222222222222222,0.41,-0.6711111111111111,0.00149327465906596,0.002181661564992912,0.0018258180273082304
1589985424.6334772,0.04,-4.330854553975942,8.621709107951883,0.4222222222222222,0.41,-0.6711111111111111,-0.0012936254444509603,0.002181661564992912,0.0007948187423158055
1589985424.6434772,0.04,-4.357064833619747,8.674129667239493,0.4222222222222222,0.41,-0.6711111111111111,0.000850698044546799,0.002181661564992912,8.004424598321907e-05
1589985424.6534772,0.02898051670659906,-4.328980516706599,8.743058449880204,0.4242611888090241,0.41,-0.6702049037391992,0.0013132475342329782,-0.000979622406628195,0.000979622406628195
1589985424.6634772,0.02119035679129288,-4.321190356791293,8.766428929626121,0.43984150863963645,0.41,-0.6632803171478159,0.0030127967814701714,-0.00012984778300959845,0.00012984778300959845
1589985424.6734772,0.024728488773289453,-4.322364244386645,8.711629067360263,0.44222222222222224,0.41,-0.6622222222222223,-0.00025789905542965204,0.00025789905542965204,0.001090830782496456
1589985424.6834772,0.03298655663516571,-4.33,8.634026886729668,0.44222222222222224,0.41,-0.6622222222222223,-0.0018558787738621324,0.0007083067868136179,-0.0004392652002348967
1589985424.6934772,0.025525002754474054,-4.335525002754474,8.671050005508947,0.44222222222222224,0.41,-0.6622222222222223,-0.0026698080396935675,0.0003013421538979003,-0.002067123731897767
1589985424.7034771,0.038728534777202395,-4.3487285347772024,8.697457069554405,0.44222222222222224,0.41,-0.6622222222222223,-0.0012295261228865892,0.0010214831123013892,0.0008134401017161888
1589985424.7134771,0.03256405574828069,-4.339743777006877,8.752307832755157,0.4355555555555555,0.4033333333333333,-0.6644444444444444,0.003272492347489368,0.0016222713773406,-0.002461356658819068
1589985424.7234771,0.038436271176418416,-4.3115637288235815,8.719053898234929,0.4355555555555555,0.4033333333333333,-0.6644444444444444,0.002760763286617439,0.00017057635362397646,-0.0029313396402414153
1589985424.733477,0.02364863584691171,-4.32,8.656824317923457,0.4355555555555555,0.4033333333333333,-0.6644444444444444,-0.00034641317645166204,-0.0006412350997618541,-5.159125314146973e-05
1589985424.743477,0.012577503779474997,-4.317422496220525,8.673197534015275,0.4355555555555555,0.4033333333333333,-0.6644444444444444,-0.0016531548754269128,-0.0032386749441249106,0.0019004995185276836
1589985424.753477,0.01907923722213569,-4.312762288333593,8.74184152555573,0.436169397407465,0.4033333333333333,-0.6636259886418984,-0.0031720527093422345,0.00010043963814713368,0.001090830782496456
1589985424.763477,0.011237292427915054,-4.33917513838139,8.759175138381389,0.44222222222222224,0.4033333333333333,-0.6555555555555556,-0.0020017046760169763,0.0009558631157645041,0.0011358200047404399
1589985424.773477,0.03649372175926977,-4.327012556481461,8.711949774074158,0.44222222222222224,0.4033333333333333,-0.6555555555555556,0.0017991859412943066,-0.0017991859412943066,0.0014167103175957013
1589985424.783477,0.03320353387429779,-4.333592932251404,8.666407067748596,0.44222222222222224,0.4033333333333333,-0.6555555555555556,-0.0006564258989306228,-0.0003919281099256244,-0.00034945133628541577
1589985424.793477,0.04,-4.325285440130266,8.687928160195398,0.44222222222222224,0.4033333333333333,-0.6555555555555556,-0.0034984950110154914,0.0016673828618100112,-0.0005142787031829009
1589985424.803477,0.038777580289286594,-4.34,8.712444839421428,0.4407281536869058,0.40156761597341395,-0.6555555555555556,-0.0006907948676234758,0.003005801737574048,0.0009574854775387959
1589985424.813477,0.024633742863483226,-4.329267485726966,8.71390122859045,0.43,0.3888888888888889,-0.6555555555555556,0.00276702941212329,0.001090830782496456,0.0002926839235651892
1589985424.823477,0.011658433928623623,-4.303316867857247,8.665024698214129,0.43,0.3888888888888889,-0.6555555555555556,0.004001508973969988,0.0007290166264806204,0.001090830782496456
1589985424.833477,0.023273260073260072,-4.32654652014652,8.65963956043956,0.43,0.3888888888888889,-0.6555555555555556,0.0014675469955871736,-0.0014478880671993251,0.0014478880671993251
1589985424.843477,0.032695966443204376,-4.334608067113591,8.705391932886409,0.43,0.3888888888888889,-0.6555555555555556,0.0,-0.0012994086095454672,0.0018875772465104304
1589985424.853477,0.03904863674632472,-4.320951363253675,8.72,0.429260050802697,0.39026308025530876,-0.6549213133864387,-0.000207555264488996,0.001090830782496456,0.001090830782496456
1589985424.863477,0.03,-4.327634025148729,8.722365974851272,0.4222222222222222,0.4033333333333333,-0.6488888888888888,-0.0014073981054792614,0.0008327429626585725,0.001090830782496456
1589985424.873477,0.03,-4.320545227149811,8.72945477285019,0.4222222222222222,0.4033333333333333,-0.6488888888888888,0.0009124056149565577,5.947505584663268e-05,0.001090830782496456
1589985424.883477,0.013185494032210029,-4.34362901193558,8.64592747016105,0.4222222222222222,0.4033333333333333,-0.6488888888888888,0.0007433472877171102,0.0,0.001090830782496456
1589985424.893477,0.0223661441763017,-4.339464576705207,8.689464576705207,0.4222222222222222,0.4033333333333333,-0.6488888888888888,0.0002581062903334615,-0.0002581062903334615,0.000574618201829533
1589985424.903477,0.028416905881634397,-4.367625358822452,8.719208452940817,0.4238053163405878,0.4033333333333333,-0.6488888888888888,0.0008317976131111129,-0.0008317976131111129,-0.0010044863927013417
1589985424.913477,0.018499843783796772,-4.34,8.72416640630633,0.44222222222222224,0.4033333333333333,-0.6488888888888888,-0.0009454093988893555,0.0015635354819411337,0.0006181260830517782
1589985424.923477,0.03728013102396123,-4.334560262047923,8.721921834335458,0.44222222222222224,0.4033333333333333,-0.6488888888888888,0.002181661564992912,0.0002966916803420205,0.0015882782043088709
1589985424.933477,0.027701544569796156,-4.322298455430204,8.63838764344163,0.44222222222222224,0.4033333333333333,-0.6488888888888888,0.0024323841585391606,0.0013415533760427049,0.0005014451870924976
1589985424.943477,0.017983760224491014,-4.327983760224491,8.7,0.44222222222222224,0.4033333333333333,-0.6488888888888888,0.00239274178268179,0.0017417862825891228,0.002181661564992912
1589985424.953477,0.011146676708717756,-4.320573338354359,8.701720015063076,0.4415214753446725,0.4025051779325927,-0.6489525931504843,-0.0012784553202126135,0.00012508302514410501,0.002056578539848807
1589985424.963477,0.027484468112083174,-4.33,8.724968936224167,0.43,0.3888888888888889,-0.65,-0.002991313321140275,0.0019072596032238022,0.00027440196176910974
1589985424.973477,0.02177691239345334,-4.326446175213094,8.697561613245828,0.43,0.3888888888888889,-0.65,0.0012846618561542914,0.0008969997088386205,0.000703168635180785
1589985424.9834769,0.03564095176354774,-4.315640951763547,8.642820475881775,0.43,0.3888888888888889,-0.65,0.0009509967997418023,0.0003076661913127774,-0.0007831645911836785
1589985424.9934769,0.04823907924947718,-4.331760920750523,8.66232644525366,0.43,0.3888888888888889,-0.65,-0.0023737482210136177,0.0008987441264757504,0.0
1589985425.0034769,0.042105178490472225,-4.337894821509527,8.705263750566695,0.43,0.3888888888888889,-0.65,-0.003042852997483716,0.00022963935000565208,0.0
1589985425.0134768,0.04,-4.339729783747051,8.739729783747052,0.4355555555555555,0.4033333333333333,-0.6622222222222223,0.0,2.9476020664652207e-05,-0.0010318787411671515
1589985425.0234768,0.04,-4.331346884118799,8.7313468841188,0.4355555555555555,0.4033333333333333,-0.6622222222222223,0.0,0.000943908516772276,0.0007969862510480961
1589985425.0334768,0.011255448689667344,-4.347489102620665,8.64004358951734,0.4355555555555555,0.4033333333333333,-0.6622222222222223,0.002181661564992912,-0.00027389641530679566,0.001090830782496456
1589985425.0434768,0.018657372275655167,-4.332685255448689,8.699258978205242,0.4355555555555555,0.4033333333333333,-0.6622222222222223,0.002181661564992912,-0.0018887456347632097,0.001090830782496456
1589985425.0534768,0.0303064639615006,-4.3296935360385,8.720612927923002,0.43538529779916624,0.4030949724743884,-0.6613709334402762,0.002181661564992912,6.686006458613298e-05,0.001090830782496456
1589985425.0634768,0.039481351853877286,-4.320518648146123,8.738962703707754,0.43028813785895703,0.3959589485580955,-0.6358851337392298,0.002181661564992912,0.002068510092377836,0.001090830782496456
1589985425.0734768,0.024857299018559445,-4.327571350490721,8.662999453435042,0.43,0.3955555555555556,-0.6344444444444445,-0.001090830782496456,-0.0007947736933851702,0.0
1589985425.0834768,0.04,-4.32,8.626778166084206,0.43,0.3955555555555556,-0.6344444444444445,-4.499420886839613e-05,-0.001965196630454293,0.0005229182868140299
1589985425.0934768,0.034396024751546975,-4.323735983498969,8.689339958747421,0.43,0.3955555555555556,-0.6344444444444445,0.003272492347489368,0.0017741289846355261,0.002181661564992912
1589985425.1034768,0.01080161260078755,-4.339465591599475,8.728663978998688,0.43,0.3955555555555556,-0.6344444444444445,0.003272492347489368,5.829491337174019e-05,0.002181661564992912
1589985425.1134768,0.035332149864523966,-4.34,8.737666074932262,0.44222222222222224,0.3955555555555556,-0.6555555555555556,-0.0013454225132893316,0.0024362532957857876,0.0008362390517035803
1589985425.1234767,0.024104282886449523,-4.34,8.705374302681303,0.44222222222222224,0.3955555555555556,-0.6555555555555556,-0.0019578076593622846,0.003048638441858741,0.0004477078112612546
1589985425.1334767,0.04,-4.338390278352775,8.61965832988335,0.44222222222222224,0.3955555555555556,-0.6555555555555556,-0.0009152373900920633,0.0018304747801841266,0.0018304747801841266
1589985425.1434767,0.04,-4.32702447163515,8.6819021134594,0.44222222222222224,0.3955555555555556,-0.6555555555555556,0.0,0.0001622898967284772,0.0003245797934569544
1589985425.1534767,0.04,-4.310361910058795,8.748552359764819,0.44222222222222224,0.3955555555555556,-0.6555555555555556,0.0,0.001071091650864995,0.00214218330172999
1589985425.1634767,0.03137638973539858,-4.335870830793804,8.758623610264602,0.4364731487124879,0.41280277608475846,-0.6689700604116022,0.0,0.001090830782496456,0.0012409716117049486
1589985425.1734767,0.037310393258426965,-4.325379213483147,8.752689606741573,0.4355555555555555,0.4155555555555556,-0.6711111111111111,0.0,-0.0020989300168822254,0.001090830782496456
1589985425.1834767,0.001336255968462728,-4.321336255968463,8.663340639921158,0.4355555555555555,0.4155555555555556,-0.6711111111111111,7.288145718468785e-05,-0.0008721864109423924,-0.0010179493253117682
1589985425.1934767,0.015590219367555351,-4.335590219367555,8.69897554841889,0.4355555555555555,0.4155555555555556,-0.6711111111111111,0.0008503145596000904,0.0014601128963038152,-0.00024051622289636562
1589985425.2034767,0.028285755148741418,-4.331714244851258,8.726571510297484,0.4355555555555555,0.4155555555555556,-0.6711111111111111,-0.0007168405719986722,-0.0005298454667497805,-0.0009038356772475641
1589985425.2134767,0.014506647704010172,-4.322253323852006,8.768733380739974,0.45190964964576696,0.40608739581911735,-0.6590607259920079,-0.0002457995020700636,0.0005992317783563288,0.0005992317783563288
1589985425.2234766,0.021390709213790743,-4.321390709213791,8.680265035503464,0.4566666666666666,0.4033333333333333,-0.6555555555555556,-0.002029958723002473,0.0007874250985155784,-0.00015170284199043878
1589985425.2334766,0.028567199931559584,-4.32856719993156,8.630029600479082,0.4566666666666666,0.4033333333333333,-0.6555555555555556,-0.0012471250244782393,-0.0007782422985328893,-0.0009345365405146727
1589985425.2434766,0.012536497319106015,-4.328731751340447,8.703804745978658,0.4566666666666666,0.4033333333333333,-0.6555555555555556,0.0017666281616828255,0.001090830782496456,0.0
1589985425.2534766,0.027380686945904335,-4.321309656527048,8.726071030418856,0.4566666666666666,0.4033333333333333,-0.6555555555555556,-0.0006622466862361031,0.001090830782496456,0.0
1589985425.2634766,0.011242736364316533,-4.332485472728633,8.755029054542733,0.4355555555555555,0.4033333333333333,-0.6644444444444444,0.0,0.001090830782496456,-0.00013556150807242037
1589985425.2734766,0.02165243061436833,-4.346695138771263,8.706780555085054,0.4355555555555555,0.4033333333333333,-0.6644444444444444,0.00018025221800925057,0.0009105785644872055,-0.0014513352185149572
1589985425.2834766,0.026595948973526587,-4.32489392346029,8.648510127566183,0.4355555555555555,0.4033333333333333,-0.6644444444444444,0.0007195064180098704,0.0005569865467298786,-0.0029011679830027825
1589985425.2934766,0.012159619025761662,-4.304319238051523,8.693239428538643,0.4355555555555555,0.4033333333333333,-0.6644444444444444,-0.0012086197280847474,0.002919125510724494,-0.0009730418369081646
1589985425.3034766,0.028202995008319465,-4.3364059900166385,8.71730449251248,0.4355555555555555,0.4033333333333333,-0.6644444444444444,-0.0020836501469316663,0.00029403425418373687,-9.801141806124562e-05
1589985425.3134766,0.030874842032475737,-4.3391251579675245,8.707375473902573,0.43,0.41,-0.6622222222222223,-0.001186261244381086,0.0008999698587271959,0.0
1589985425.3234766,0.038353800645392615,-4.331646199354608,8.675061401936178,0.43,0.41,-0.6622222222222223,-0.0020020890719797584,-0.0009112582894833024,8.97862465065768e-05
1589985425.3334765,0.02,-4.349251320754717,8.620748679245283,0.43,0.41,-0.6622222222222223,0.0,0.001090830782496456,0.0009819398002336652
1589985425.3434765,0.02,-4.320617702959544,8.653706217757264,0.43,0.41,-0.6622222222222223,-6.738094027095946e-05,0.0011582117227674155,-0.003137730466947449
1589985425.3534765,0.02,-4.328752181839339,8.702513091036035,0.43,0.41,-0.6622222222222223,-0.0009547149364357485,0.0020455457189322043,-0.0013630624746178708
1589985425.3634765,0.028828911708396528,-4.312342176583207,8.754144558541983,0.44079089208804023,0.404114058861069,-0.6563362810832912,0.0017984238177422365,-0.0026337627687382423,0.0017984238177422365
