time,acc_x,acc_y,acc_z,mag_x,mag_y,mag_z,gyr_x,gyr_y,gyr_z
1589986694.9221368,-3.81,-0.66,8.96,0.2822222222222222,-0.3566666666666667,-0.6433333333333333,-0.03381575425739013,0.09381144729469522,-0.003272492347489368
1589986694.9321368,-3.7912553628888093,-0.6318830443332142,8.969372318555596,0.2822222222222222,-0.3566666666666667,-0.6433333333333333,-0.024614502031964684,0.06825241333518008,0.0018393144444136603
1589986694.9421368,-3.7059829705875815,-0.6029914852937907,8.962991485293792,0.2877777777777778,-0.3622222222222222,-0.6344444444444445,-0.005351572506778538,0.02837088844854486,0.0020697920556521647
1589986694.9521368,-3.7150996025306338,-0.61735059620405,8.97,0.2877777777777778,-0.3622222222222222,-0.6344444444444445,-0.002138201762421144,0.020993060087735306,0.004096047909683181
1589986694.9621367,-3.7,-0.6420537968740219,8.986430374992175,0.2877777777777778,-0.3622222222222222,-0.6344444444444445,-0.010294887655796251,0.02204065013504692,0.003720561317724969
1589986694.9721367,-3.7006220619486125,-0.65,9.054354433640286,0.2877777777777778,-0.3622222222222222,-0.6344444444444445,-0.016633887466313238,0.023314585025725174,0.00552201034469888
1589986694.9821367,-3.707374428488634,-0.65,9.101620999420438,0.2877777777777778,-0.3622222222222222,-0.6344444444444445,-0.019580163176935225,0.027733998591658156,0.006258579272354376
1589986694.9921367,-3.7277318161380695,-0.65,9.128865908069034,0.2877777777777778,-0.3622222222222222,-0.6295189399616474,-0.01879154378013531,0.030419551671052987,0.004610743607681385
1589986695.0021367,-3.756139631315635,-0.6761396313156354,9.121286789561454,0.2877777777777778,-0.3622222222222222,-0.6288888888888889,-0.01759365948636631,0.030543261909900768,0.0034128593139123808
1589986695.0121367,-3.7554717255650036,-0.6669811503766692,8.91698115037667,0.2877777777777778,-0.3622222222222222,-0.6288888888888889,-0.006586161097014515,0.022290012015089927,0.003272492347489368
1589986695.0221367,-3.7351301367648486,-0.6534200911765657,8.903420091176566,0.2877777777777778,-0.3622222222222222,-0.6288888888888889,0.00302917243515974,0.00971611431916975,0.003272492347489368
1589986695.0321367,-3.748780874824107,-0.6781713122361607,8.9,0.2877777777777778,-0.3622222222222222,-0.6288888888888889,0.014673194283639193,-0.0016497178571607445,0.0001994788904370634
1589986695.0421367,-3.741194395410415,-0.6623887908208297,8.908805604589585,0.3004969844071786,-0.374941428851623,-0.6269320878689811,0.019113800772875018,-0.005063288928436385,0.0019210849089623156
1589986695.0521367,-3.7380329170576774,-0.6140987511730311,8.978197502346063,0.3022222222222222,-0.37666666666666665,-0.6266666666666667,0.022710824439796277,-0.01285744045754485,1.7953469891661845e-05
1589986695.0621367,-3.7339851006867653,-0.59,8.949925503433827,0.3022222222222222,-0.37666666666666665,-0.6266666666666667,0.01571446431975479,-0.016145108212423275,-0.004363323129985824
1589986695.0721366,-3.7543826945412313,-0.5958435927216414,9.050452574525744,0.3022222222222222,-0.37666666666666665,-0.6266666666666667,0.006654975743101539,-0.015112271684421913,-0.003247808236286535
1589986695.0821366,-3.7787398373983736,-0.628319783197832,9.164119241192411,0.3022222222222222,-0.37666666666666665,-0.6266666666666667,-0.004858483444533672,-0.01422662097768074,0.002951746710901657
1589986695.0921366,-3.7420788799299953,-0.6067204200262516,9.099838739921244,0.2822222222222222,-0.3622222222222222,-0.6144444444444445,-0.005192201798828215,-0.03300446633433711,0.008011152902166922
1589986695.1021366,-3.6717780889044453,-0.6346982349117456,9.012381619080953,0.2822222222222222,-0.3622222222222222,-0.6144444444444445,0.003400616829117658,-0.048703011767455645,0.014371214206240372
1589986695.1121366,-3.6214598697546037,-0.6642700651226982,8.87713503256135,0.2822222222222222,-0.3622222222222222,-0.6144444444444445,0.003425764728106673,-0.04190839952368802,0.02306071881304288
1589986695.1221366,-3.69044339320077,-0.63,8.863547145606157,0.2822222222222222,-0.3622222222222222,-0.6144444444444445,-0.002616961821927234,-0.01709312244599201,0.0166794253965045
1589986695.1321366,-3.6988508258499038,-0.63,8.93080660679923,0.2822222222222222,-0.3622222222222222,-0.6144444444444445,-0.010870939523824277,0.010420136560331465,0.002005687259798647
1589986695.1421366,-3.7455105324015885,-0.6117957870393645,8.98551053240159,0.28727894804462095,-0.36829029320910067,-0.6063536831286064,-0.016963567574606542,0.02410965810674498,0.0
1589986695.1521366,-3.74221699357011,-0.6177830064298898,8.974433987140221,0.2877777777777778,-0.3688888888888889,-0.6055555555555555,-0.014906309621715783,0.031881062392691846,0.0
1589986695.1621366,-3.7309501249961423,-0.6171496250115737,8.996650874972994,0.2877777777777778,-0.3688888888888889,-0.6055555555555555,-0.00545415391248228,0.023272779299814243,0.004466965689286936
1589986695.1721365,-3.737422610413259,-0.5977321687602234,9.041958272892812,0.2877777777777778,-0.3688888888888889,-0.6055555555555555,-0.00545415391248228,0.018330508867238984,0.005173004322511973
1589986695.1821365,-3.6787694067091765,-0.59,9.112483365677848,0.2877777777777778,-0.3688888888888889,-0.6055555555555555,-0.014995899054218154,0.017316636251620426,0.014995899054218154
1589986695.1921365,-3.747938752205959,-0.503091871691062,9.16793875220596,0.2877777777777778,-0.3622222222222222,-0.6133333333333333,-0.02181661564992912,0.009817477042468105,0.07526732399225547
1589986695.2021365,-3.7305223710162982,-0.5292164434755529,9.150522371016299,0.2877777777777778,-0.3622222222222222,-0.6133333333333333,-0.02181661564992912,0.009817477042468105,0.07526732399225547
1589986695.2121365,-3.680189764936337,-0.5499240940254653,8.940797012732615,0.2877777777777778,-0.3622222222222222,-0.6133333333333333,-0.002256182081231038,-0.022783245572028703,0.12742848017545033
1589986695.2221365,-3.418164654784497,-0.31,8.590707647760842,0.2877777777777778,-0.3622222222222222,-0.6133333333333333,0.011079296345093718,0.023808529469980903,0.2200808779232737
1589986695.2321365,-3.7381961536204096,-0.31,8.869709467258819,0.2877777777777778,-0.3622222222222222,-0.6133333333333333,-0.04799920078237725,0.1007896014845643,0.266627572629766
1589986695.2421365,-3.9533364463013028,-0.36875350208896535,9.329587613664291,0.29444444444444445,-0.3622222222222222,-0.62,-0.04413417167837209,0.012424425890172338,0.35323084553354794
1589986695.2521365,-3.788409437208159,-0.18321061685917917,9.10281297616122,0.29444444444444445,-0.3622222222222222,-0.62,0.007589222606991575,-0.04454626926472097,0.4259434432970302
1589986695.2621365,-3.3336231117651116,-0.33393902467063663,9.053419860667235,0.29444444444444445,-0.3622222222222222,-0.62,0.0017408950009115032,-0.04111792243760943,0.4828933037209671
1589986695.2721364,-2.7480798327478073,-0.5067784555035886,9.079265469750199,0.29444444444444445,-0.3622222222222222,-0.62,0.014470382747793041,-0.014532216162840688,0.4822020800804378
1589986695.2821364,-2.8475200982822164,-0.34405802099273664,9.070225445610708,0.29444444444444445,-0.3622222222222222,-0.62,0.004609246141924374,-0.032282262053404294,0.40232687357290153
1589986695.2921364,-2.475341727385061,-0.24415718607524822,9.000296135327453,0.2837952428972498,-0.3573816760644065,-0.62,-0.015595896196506753,0.003391759115902414,0.291984849403811
1589986695.3021364,-2.293995889372231,-0.3713319631240771,9.218729696292453,0.2822222222222222,-0.3566666666666667,-0.62,-0.01484247304084055,0.018760944259147403,0.06932593784456144
1589986695.3121364,-2.3191044418725304,-0.37970148062417686,8.833731891287863,0.2822222222222222,-0.3566666666666667,-0.62,0.02898021811316721,0.026977698850523858,-0.06396808108221215
1589986695.3221364,-2.10207400033184,-0.9562220009955201,8.9803700016592,0.2822222222222222,-0.3566666666666667,-0.62,0.03692972139969963,0.05941496184110669,-0.184310041321958
1589986695.3321364,-2.032482163597146,-0.7474464907914385,8.63241081798573,0.2822222222222222,-0.3566666666666667,-0.62,0.08342638350361108,0.09262686334390058,-0.22226650018229388
1589986695.3421364,-2.07,-0.59,8.6,0.2677777777777778,-0.3888888888888889,-0.6055555555555555,0.04254240051736178,0.06981317007977318,-0.30543261909900765
1589986695.3521364,-2.008281901584654,-0.6739366138448707,8.716030025020851,0.2677777777777778,-0.3888888888888889,-0.6055555555555555,0.03069337623776725,0.061464993882786124,-0.32778418762642464
1589986695.3621364,-1.8407944972900026,-0.904006878387497,9.012815132452493,0.2677777777777778,-0.3888888888888889,-0.6055555555555555,0.012125386344134865,0.042802399147525164,-0.39313616432740434
1589986695.3721364,-1.9707375308899795,-0.8038679475131392,8.890789043193763,0.2677777777777778,-0.3888888888888889,-0.6055555555555555,0.022321804971285768,0.05059733405574604,-0.38447762476010916
1589986695.3821363,-2.084006575289482,-0.7860016438223705,9.02801726013489,0.2677777777777778,-0.3888888888888889,-0.6055555555555555,-0.0030566572626455693,0.02595917258195376,-0.3782997567433624
1589986695.3921363,-2.0757242983210675,-0.77,9.161413552518399,0.27555555555555555,-0.37666666666666665,-0.5988888888888889,-0.0019455911739164706,0.010365759474385228,-0.37243970353210654
1589986695.4021363,-2.1291735958456783,-0.77,9.081239606231483,0.27555555555555555,-0.37666666666666665,-0.5988888888888889,0.010444038372648099,0.02567059597308264,-0.36660928962784084
1589986695.4121363,-2.1879793783843926,-0.77,8.99303093242341,0.27555555555555555,-0.37666666666666665,-0.5988888888888889,0.022521719087261225,0.04095563457679688,-0.36019457384963866
1589986695.4221363,-2.1097641793948827,-0.78,8.935991049713007,0.27555555555555555,-0.37666666666666665,-0.5988888888888889,0.02805291189465727,0.044338201519541466,-0.3557651793189699
1589986695.4321363,-2.101603268800467,-0.78,8.797255569607938,0.27555555555555555,-0.37666666666666665,-0.5988888888888889,0.017370304907149033,0.030984942785156164,-0.36110648281272406
1589986695.4421363,-2.1,-0.8102275835781071,8.951365501468642,0.27555555555555555,-0.3707890809709236,-0.5930113031931459,-0.002039287834978521,0.016820987818288585,-0.3695747849845072
1589986695.4521363,-2.134371592261493,-0.8114071019346268,8.95844261160776,0.27555555555555555,-0.3688888888888889,-0.5911111111111111,0.01111097996365152,0.02715006597080251,-0.3729106366033478
1589986695.4621363,-2.14,-0.7820114913435254,8.782068948061152,0.27555555555555555,-0.3688888888888889,-0.5911111111111111,0.027410781785202717,0.039629340060287996,-0.3812056547600949
1589986695.4721363,-2.1007655056497647,-0.78,8.783078164783412,0.27555555555555555,-0.3688888888888889,-0.5911111111111111,0.021228567982754496,0.031087796881569506,-0.39177701918077434
1589986695.4821362,-2.107643636839009,-0.7730890907902478,9.011149094712072,0.27555555555555555,-0.3688888888888889,-0.5911111111111111,0.0031298907679748293,0.014871990028360892,-0.41666284933140363
1589986695.4921362,-2.1696163318475095,-0.798465327390039,9.176546986627587,0.3144444444444445,-0.37666666666666665,-0.6144444444444445,0.009270718400271574,0.022569946305729015,-0.45046857496603965
1589986695.5021362,-2.1610793592640087,-0.7643174370560338,9.099714233376076,0.3144444444444445,-0.37666666666666665,-0.6144444444444445,0.021376828628706476,0.03933225277586965,-0.4737495561745683
1589986695.5121362,-2.2170879534654238,-0.8075732945545198,8.96630943415825,0.3144444444444445,-0.37666666666666665,-0.6144444444444445,0.015642228454947817,0.039375793169871685,-0.5109433652733464
1589986695.5221362,-2.228678346362908,-0.81,8.986035039088724,0.3144444444444445,-0.37666666666666665,-0.6144444444444445,0.011484988013419926,0.03642992596372456,-0.5467702542471083
1589986695.5321362,-2.23,-0.8209058819949487,8.99,0.3144444444444445,-0.37666666666666665,-0.6144444444444445,0.014477249362073738,0.04075600453852861,-0.5727792015763435
1589986695.5421362,-2.2411628552911766,-0.8467442829367651,8.962092861772058,0.3181653962081701,-0.36550381137548993,-0.6175452375808824,0.021715167680202454,0.04898593724261385,-0.61083998982327
1589986695.5521362,-2.237741727993341,-0.8538708639966703,8.854192095953385,0.3211111111111111,-0.3566666666666667,-0.62,0.025757693019672408,0.050354122493068115,-0.6526339307811113
1589986695.5621362,-2.262466089847735,-0.8905826123096686,8.816233044923868,0.3211111111111111,-0.3566666666666667,-0.62,0.016440810976783585,0.04377513368335978,-0.7058650303731926
1589986695.5721362,-2.2427634172854063,-0.9068091456786485,8.894900602465132,0.3211111111111111,-0.3566666666666667,-0.62,0.018637375597717373,0.041799637946484544,-0.7456901905120228
1589986695.5821362,-2.2571256643992177,-0.8828743356007821,8.97746991269863,0.3211111111111111,-0.3566666666666667,-0.62,0.028123162298016435,0.050328422651565854,-0.7884190896362481
1589986695.5921361,-2.2766543503123073,-0.8966174012492303,9.02661740124923,0.32628671690957256,-0.3522304331251283,-0.6296118393399999,0.028004707613307228,0.0530897850931868,-0.8336992138308871
1589986695.6021361,-2.2885394371146535,-0.91,9.099776059802574,0.3288888888888889,-0.35,-0.6344444444444445,0.021522398344986537,0.05422289373380125,-0.890743535392109
1589986695.6121361,-2.3156563229438416,-0.9271042152958946,9.01592681587258,0.3288888888888889,-0.35,-0.6344444444444445,0.027256016461755635,0.06293755117466662,-0.9388009040160419
1589986695.622136,-2.294372676468472,-0.9470848823543521,8.948745352936944,0.3288888888888889,-0.35,-0.6344444444444445,0.03302077924177229,0.06901819506415534,-0.9848873911580884
1589986695.632136,-2.312652687424998,-1.0028562706583297,8.977754479041664,0.3288888888888889,-0.35,-0.6344444444444445,0.027226354590867825,0.06816582016314261,-1.0286305544134664
1589986695.642136,-2.2820211133038875,-1.0389894433480562,8.952021113303887,0.3542081466862973,-0.35,-0.6565987950171768,0.02819624839939833,0.07281007585141336,-1.0820811051946837
1589986695.652136,-2.313912129493378,-1.0823901618667229,8.882175741013242,0.3555555555555556,-0.35,-0.6577777777777778,0.031136029951261572,0.07401047229604713,-1.1194285728152908
1589986695.662136,-2.2757020679091142,-1.134297932090886,8.80798289507276,0.3555555555555556,-0.35,-0.6577777777777778,0.03646624748496481,0.0790086480023266,-1.1576295891672888
1589986695.672136,-2.2612945713024692,-1.166116286092592,8.834821714790122,0.3555555555555556,-0.35,-0.6577777777777778,0.03803786156468896,0.07583218728300348,-1.1978201518314848
1589986695.682136,-2.2533745035887347,-1.1832509928225305,8.912880460523919,0.3555555555555556,-0.35,-0.6577777777777778,0.03890180693084877,0.07815824216614668,-1.2270364280281936
1589986695.692136,-2.3147649336283185,-1.238573700221239,8.98238246681416,0.38703850940265483,-0.3122204553834808,-0.6577777777777778,0.04456847691198065,0.08757850023540364,-1.2683258969975693
1589986695.702136,-2.33,-1.2772838920646015,8.99,0.3944444444444444,-0.3033333333333333,-0.6577777777777778,0.04283868193181334,0.0914322647867346,-1.3039512237577224
1589986695.712136,-2.348085101361716,-1.289042550680858,8.93574469591485,0.3944444444444444,-0.3033333333333333,-0.6577777777777778,0.038596843463376065,0.08571145014872374,-1.33837973386264
1589986695.722136,-2.3320439824323045,-1.29,8.941970678378464,0.3944444444444444,-0.3033333333333333,-0.6577777777777778,0.040790674279894565,0.09030799481976079,-1.3613088391645305
1589986695.732136,-2.3092498780686066,-1.3007501219313933,8.939249878068606,0.3944444444444444,-0.3033333333333333,-0.6577777777777778,0.04136974412552638,0.09381144729469522,-1.3937956164108187
1589986695.742136,-2.3223768903718853,-1.3622127442010656,8.959835853829182,0.40853359764155733,-0.3074772019207195,-0.6677230623875046,0.037106152174475396,0.09462509398916857,-1.4381081893800118
1589986695.752136,-2.3215402035557173,-1.396919592888565,8.961540203555717,0.4133333333333333,-0.3088888888888889,-0.6711111111111111,0.04061151900992174,0.09767073998971489,-1.4807539913230754
1589986695.762136,-2.2953030900272497,-1.4493938199455003,8.836515450136249,0.4133333333333333,-0.3088888888888889,-0.6711111111111111,0.042125073475635814,0.10154228912853348,-1.5090279799880955
1589986695.772136,-2.2725987400505487,-1.5096050397978045,8.856216379342865,0.4133333333333333,-0.3088888888888889,-0.6711111111111111,0.043349752735573725,0.10201421990073942,-1.547020338911411
1589986695.782136,-2.27705496407511,-1.5341099281502204,8.90410992815022,0.4133333333333333,-0.3088888888888889,-0.6711111111111111,0.04671154009287297,0.10760388035819986,-1.5809207433823178
1589986695.792136,-2.28,-1.6030424746075715,8.919006067801082,0.444354233537059,-0.2688619208840815,-0.7101374049157982,0.054873421620513084,0.11410354742681006,-1.6209943996223393
1589986695.802136,-2.2621184630578073,-1.6815261477687695,8.937881536942191,0.4477777777777778,-0.2644444444444444,-0.7144444444444444,0.04880536408010739,0.11161137252189421,-1.656431491179793
1589986695.812136,-2.243647195391725,-1.6654707930875878,8.90729439078345,0.4477777777777778,-0.2644444444444444,-0.7144444444444444,0.04888846156218686,0.11750808974103807,-1.6887854791945753
1589986695.822136,-2.248389568255553,-1.7103374095333166,8.891610431744448,0.4477777777777778,-0.2644444444444444,-0.7144444444444444,0.04817222528183931,0.12256119501411852,-1.7271816335670347
1589986695.832136,-2.2222734375,-1.70613671875,8.8992421875,0.4477777777777778,-0.2644444444444444,-0.7144444444444444,0.04850063756097426,0.12477612781549012,-1.752485272369816
1589986695.842136,-2.1894977386336585,-1.6920090454653653,8.911004522732682,0.44825213573487793,-0.26327250125631463,-0.7146118648998916,0.04897780878048774,0.1265911589855153,-1.7757678710084093
1589986695.852136,-2.17,-1.777616082781602,8.930959793045995,0.4666666666666667,-0.21777777777777774,-0.7211111111111111,0.045970240713386616,0.13204117535066692,-1.8269287704789363
1589986695.862136,-2.17,-1.8354549979261718,8.831817503110742,0.4666666666666667,-0.21777777777777774,-0.7211111111111111,0.04861635081679632,0.14178325330321925,-1.8658414407706119
1589986695.8721359,-2.1548432993655067,-1.9078917515862335,8.78,0.4666666666666667,-0.21777777777777774,-0.7211111111111111,0.050740724773659415,0.14508049407202864,-1.9009948525385394
1589986695.8821359,-2.0897877477326166,-1.9467610010077259,8.793380500503863,0.4666666666666667,-0.21777777777777774,-0.7211111111111111,0.05126904677733343,0.14435070098028746,-1.925378072788089
1589986695.8921359,-2.094944380172644,-1.9891203168105365,8.881536887069503,0.48543309305567917,-0.18671610651320536,-0.7379361830460879,0.048092512980035196,0.1446249700489918,-1.9492903395932475
1589986695.9021358,-2.1435052069245333,-2.1118558966729783,8.861649310251556,0.4988888888888889,-0.16444444444444445,-0.75,0.05436162728559444,0.1553365753769206,-1.9696243240089486
1589986695.9121358,-2.125740614334471,-2.1885187713310583,8.797546075085323,0.4988888888888889,-0.16444444444444445,-0.75,0.056061628573605395,0.16147832404303766,-1.976191487450854
1589986695.9221358,-2.0740364910676874,-2.22,8.870697825010476,0.4988888888888889,-0.16444444444444445,-0.75,0.04935555349292682,0.16048620916727216,-1.992105274329155
1589986695.9321358,-2.037473204104903,-2.2031049030786773,8.88184150513113,0.4988888888888889,-0.16444444444444445,-0.75,0.04567707752767828,0.1654045248428292,-2.0046830394690267
1589986695.9421358,-2.0602019933554816,-2.2704039867109636,8.893501661129568,0.5041002583979328,-0.16965581395348836,-0.7738234034699151,0.04033870489536695,0.16432245915346347,-2.0257498822954254
1589986695.9521358,-2.0740142641470145,-2.3578858868238846,8.898028528294029,0.5066666666666667,-0.17222222222222222,-0.7855555555555556,0.0296908249857478,0.16274884079434135,-2.0437556584523207
1589986695.9621358,-2.0635902678388875,-2.3964097321611124,8.755395624616643,0.5066666666666667,-0.17222222222222222,-0.7855555555555556,0.031689403678710676,0.16991735720847728,-2.0584529975571257
1589986695.9721358,-2.0525626938833503,-2.4,8.6948746122333,0.5066666666666667,-0.17222222222222222,-0.7855555555555556,0.03194099459693771,0.17993236837764903,-2.0708738521516894
1589986695.9821358,-2.0125784600585193,-2.4873169265301214,8.762369233235802,0.5066666666666667,-0.17222222222222222,-0.7855555555555556,0.030543261909900768,0.17808668390724938,-2.077751374295422
1589986695.9921358,-1.9845771202509421,-2.545422879749058,8.789154240501885,0.5211276793308208,-0.17222222222222222,-0.7861580977498953,0.030543261909900768,0.17858147806195387,-2.0813973910527515
1589986696.0021358,-1.9136810926443968,-2.5278936975481323,8.669468487740662,0.5333333333333333,-0.17222222222222222,-0.7866666666666666,0.013663297268728853,0.1666093687734072,-2.084003579465846
1589986696.0121357,-1.956198900904095,-2.676470129409679,8.660090409501862,0.5333333333333333,-0.17222222222222222,-0.7866666666666666,0.02207817525219906,0.15947354311292225,-2.0773564454633653
1589986696.0221357,-1.9585525335980993,-2.75927626679905,8.70072373320095,0.5333333333333333,-0.17222222222222222,-0.7866666666666666,0.048211889168546865,0.17399472373467442,-2.0552471540636557
1589986696.0321357,-1.9121417940171477,-2.7848227574785653,8.772680963461418,0.5333333333333333,-0.17222222222222222,-0.7866666666666666,0.038158931444366516,0.1529684654105312,-2.0414116610196036
1589986696.0421357,-1.9318098106214165,-2.8477147159321246,8.911334337174958,0.5032907344131066,-0.20491563869423368,-0.8043387836785647,0.019266047711252992,0.1346448248350786,-2.026618040271948
1589986696.0521357,-1.94,-2.86,8.94,0.4955555555555556,-0.21333333333333332,-0.8088888888888889,0.016362461737446838,0.13308135546456762,-2.023491101530926
1589986696.0621357,-1.9153093159419081,-2.9317267101452296,8.747165211593357,0.4955555555555556,-0.21333333333333332,-0.8088888888888889,0.033680789717009996,0.13603052841379032,-1.979886054136435
1589986696.0721357,-1.9,-2.9853541013824887,8.664950414746544,0.4955555555555556,-0.21333333333333332,-0.8088888888888889,0.03952330263108938,0.1370699958148108,-1.9450061383962436
1589986696.0821357,-1.875830186401807,-3.0603584915420825,8.773452830514026,0.4955555555555556,-0.21333333333333332,-0.8088888888888889,0.0378806427281052,0.1297697577561414,-1.9029913457641368
1589986696.0921357,-1.8269179463316272,-3.0846230805025594,8.786164107336745,0.48785042138462337,-0.1998065422332523,-0.7862871619874877,0.04161966968560369,0.1269548017491319,-1.8684141170818735
1589986696.1021357,-1.792804177434167,-3.0885052217927087,8.807103133075625,0.4455555555555555,-0.12555555555555556,-0.6622222222222223,0.045825003719764404,0.12373282173672846,-1.808526661394731
1589986696.1121356,-1.7445476699158766,-3.090542796100948,8.749276271865403,0.4455555555555555,-0.12555555555555556,-0.6622222222222223,0.04851236488631563,0.12102300698755328,-1.7547322599499244
1589986696.1221356,-1.72,-3.1622378164618308,8.768076997635017,0.4455555555555555,-0.12555555555555556,-0.6622222222222223,0.04229829260914756,0.1137782223511922,-1.707474340774047
1589986696.1321356,-1.6988951535508636,-3.2211048464491365,9.257925563819578,0.4455555555555555,-0.12555555555555556,-0.6622222222222223,0.045661167641514094,0.10959836362797758,-1.6559807433446365
1589986696.1421356,-1.576226045250756,-3.076146387238036,8.85257908455844,0.46618897345891397,-0.06062097568322154,-0.6458368609460258,0.08691561338713749,0.15078827666191338,-1.5879959906374375
1589986696.1521356,-1.5338232921759634,-3.058948935906186,8.308948935906185,0.4833333333333333,-0.006666666666666667,-0.6322222222222222,0.03777616644562494,0.08778490671424913,-1.549928477410962
1589986696.1621356,-1.469041387705417,-3.099680462568472,8.569497108947049,0.4833333333333333,-0.006666666666666667,-0.6322222222222222,-0.01947552880091493,0.0377208023127453,-1.5082006986728342
1589986696.1721356,-1.44,-3.1039691299474,8.455385875657498,0.4833333333333333,-0.006666666666666667,-0.6322222222222222,0.057091827561989855,0.09445548612954503,-1.4292438900644113
1589986696.1821356,-1.4622993319373816,-3.1713231628277994,8.664316482201617,0.4833333333333333,-0.006666666666666667,-0.6322222222222222,0.045412670087538166,0.08497124760597433,-1.3805587666176677
1589986696.1921356,-1.4910561961267212,-3.297393372887048,8.751797548415986,0.4913183638692986,0.03694388472206674,-0.6291510566314664,0.02561126096125537,0.07398041109524052,-1.3236238160570917
1589986696.2021356,-1.5189264973879237,-3.4041618272384886,8.835573806341879,0.4977777777777778,0.07222222222222223,-0.6266666666666667,0.03514078697875523,0.07378826824386846,-1.2553552855688113
1589986696.2121356,-1.5061985824016133,-3.386364067736291,8.823059106141937,0.4977777777777778,0.07222222222222223,-0.6266666666666667,0.03791758727156829,0.06567523376617138,-1.2088571268026151
1589986696.2221355,-1.4713637349920439,-3.3240912049761318,8.634545783306814,0.4977777777777778,0.07222222222222223,-0.6266666666666667,0.04576530606123485,0.0644086029709072,-1.1663458038156063
1589986696.2321355,-1.451061711880078,-3.342709853835107,8.748351858044972,0.4977777777777778,0.07222222222222223,-0.6266666666666667,0.0463922930549763,0.06244703119906845,-1.085146672794128
1589986696.2421355,-1.3689138837017414,-3.253610544143831,8.82469666044209,0.5058094121393727,0.08732169482202054,-0.6282729935389857,0.0476550036441664,0.05437076373198396,-1.0276688047207445
1589986696.2521355,-1.4058301461377871,-3.333117828810021,8.87155891440501,0.5255555555555556,0.12444444444444445,-0.6322222222222222,0.03958789331354996,0.05126904677733343,-0.9593946458012134
1589986696.2621355,-1.369041646947468,-3.293291528632276,8.792875059157597,0.5255555555555556,0.12444444444444445,-0.6322222222222222,0.03741701016537161,0.04929646541438078,-0.9059562170484523
1589986696.2721355,-1.3949502502809275,-3.449900500561855,8.705248748595363,0.5255555555555556,0.12444444444444445,-0.6322222222222222,0.0354791346936272,0.043104096466105433,-0.8266570631534663
1589986696.2821355,-1.3921395327614527,-3.46,8.723232569812009,0.5255555555555556,0.12444444444444445,-0.6322222222222222,0.030152591586310028,0.040165403790573505,-0.7634141104983716
1589986696.2921355,-1.38,-3.47417723859041,8.800632928942807,0.5287060530200912,0.13822787085178767,-0.6322222222222222,0.02617993877991494,0.037019204767484756,-0.6955219495925509
1589986696.3021355,-1.337677276390008,-3.4529747515444535,8.772974751544455,0.5344444444444445,0.16333333333333333,-0.6322222222222222,0.02617993877991494,0.03234175561139389,-0.6167274647863831
1589986696.3121355,-1.3383909746624745,-3.4967819493249492,8.736130324887492,0.5344444444444445,0.16333333333333333,-0.6322222222222222,0.025593423615950125,0.029452431127404314,-0.5404389451385072
1589986696.3221354,-1.3595046113306983,-3.5133899868247696,8.755123847167326,0.5344444444444445,0.16333333333333333,-0.6322222222222222,0.023412332932940733,0.02553995597695622,-0.47260998178880054
1589986696.3321354,-1.3009504966990857,-3.435356436262157,8.7941683153883,0.5344444444444445,0.16333333333333333,-0.6322222222222222,0.02234907065295205,0.01808943062876862,-0.41034570095626133
1589986696.3421354,-1.26,-3.4692684688402804,8.856873710276517,0.5473836382812859,0.17776551107442565,-0.6396871417434769,0.02241886859226698,0.015157955852771118,-0.3516465003175474
1589986696.3521354,-1.221886167223371,-3.3612101691320717,8.770213668416309,0.5633333333333334,0.1955555555555556,-0.6488888888888888,0.019440858962405157,0.013986705049922877,-0.2870438123792727
1589986696.3621354,-1.2148619339291093,-3.3774589148843592,8.707292900893664,0.5633333333333334,0.1955555555555556,-0.6488888888888888,0.012029259951490187,0.010643130465347738,-0.24127244031302933
1589986696.3721354,-1.2444472412002077,-3.5611306884014544,8.754447241200207,0.5633333333333334,0.1955555555555556,-0.6488888888888888,0.003454755095997106,0.006909510191994212,-0.2010828808934633
1589986696.3821354,-1.2265296743888427,-3.4530593487776855,8.767762604889258,0.5633333333333334,0.1955555555555556,-0.6488888888888888,0.002983599783464486,0.002560215365186518,-0.1539814498972908
1589986696.3921354,-1.2204300277765658,-3.4408600555531317,8.816559777787473,0.5633333333333334,0.1955555555555556,-0.6488888888888888,0.0063104409269754465,0.0032255835938887105,-0.1293628254353097
1589986696.4021354,-1.2228936420994245,-3.419282742841295,8.761088192470359,0.6555555555555556,0.21333333333333332,-0.6322222222222222,0.0016034221732175078,-0.0020503655628842073,-0.06778798975231651
1589986696.4121354,-1.2246572072669406,-3.4552048799893913,8.706300225434292,0.6555555555555556,0.21333333333333332,-0.6322222222222222,0.002181661564992912,-0.009503723963667571,-0.02139798890486285
1589986696.4221354,-1.2151567672833494,-3.4327351509250246,8.688205452775073,0.6555555555555556,0.21333333333333332,-0.6322222222222222,0.0005283147334116233,-0.01308996938995747,0.014236828725303671
1589986696.4321353,-1.2376317316994518,-3.467631731699452,8.791711060948082,0.6555555555555556,0.21333333333333332,-0.6322222222222222,-0.0023108305631653397,-0.013219138388129898,0.051311680989148505
1589986696.4421353,-1.2317031932369085,-3.447074201690773,8.762183781401498,0.7485309240487733,0.24324149382765511,-0.6748088420565282,-0.00422995760521368,-0.01577657560199445,0.11950573714416018
1589986696.4521353,-1.26,-3.4315759603574607,8.83719198678582,0.9733333333333334,0.31555555555555553,-0.7777777777777778,-0.008076518320820823,-0.020553874260441463,0.18694144297608212
1589986696.4621353,-1.26,-3.4389666376559327,8.757583405860169,0.9733333333333334,0.31555555555555553,-0.7777777777777778,-0.013052395274811427,-0.022907446432425576,0.27899084295633164
1589986696.4721353,-1.26,-3.4969631031220434,8.693481551561023,0.9733333333333334,0.31555555555555553,-0.7777777777777778,-0.01663181541221654,-0.02682907081604576,0.35343742958018565
1589986696.4821353,-1.26,-3.4806618580496247,8.759338141950376,0.9733333333333334,0.31555555555555553,-0.7777777777777778,-0.01816714779428215,-0.033101898983051284,0.4276617504216577
1589986696.4921353,-1.272953769073104,-3.4329537690731042,8.794092461853792,1.1153450239125484,0.02289632834838934,-1.0167028517928085,-0.016362461737446838,-0.036319622045315844,0.4990532198104231
1589986696.5021353,-1.3264938660759926,-3.4604268188788554,8.817347503833702,1.3022222222222222,-0.3622222222222222,-1.3311111111111111,-0.020343324986246414,-0.04272863538600405,0.5729455328257993
1589986696.5121353,-1.36,-3.479441804073715,8.794465567410281,1.3022222222222222,-0.3622222222222222,-1.3311111111111111,-0.020393483530854024,-0.048965605752529326,0.6284629785090162
1589986696.5221353,-1.36,-3.4394436090225566,8.741111625216888,1.3022222222222222,-0.3622222222222222,-1.3311111111111111,-0.015514023775444967,-0.05296592270133717,0.6753457662269077
1589986696.5321352,-1.3652760325471214,-3.3679140488206816,8.79,1.3022222222222222,-0.3622222222222222,-1.3311111111111111,-0.013605274301268623,-0.0564956587140972,0.7170504917231946
1589986696.5421352,-1.38,-3.364259275126382,8.801440322166052,1.1128213330286845,-0.2656150572644446,-1.1582351317129829,-0.012935097775991519,-0.05952883503382896,0.762501932772914
1589986696.5521352,-1.3857928018836192,-3.3086892028254287,8.809725193407333,0.64,-0.024444444444444446,-0.7266666666666667,-0.015271630954950384,-0.062350317142112595,0.8014515747588115
1589986696.5621352,-1.4045013185768016,-3.2939894513855865,8.737493407115991,0.64,-0.024444444444444446,-0.7266666666666667,-0.019199772447269125,-0.0683959530690264,0.8458347914490779
1589986696.5721352,-1.426870758034181,-3.2904898192820347,8.723496606427345,0.64,-0.024444444444444446,-0.7266666666666667,-0.025470528589940755,-0.07162676880101139,0.8768068215198394
1589986696.5821352,-1.4529031617610562,-3.3487094852831687,8.747634387253685,0.64,-0.024444444444444446,-0.7266666666666667,-0.02913574530585163,-0.07090400086226964,0.9079348934893285
1589986696.5921352,-1.4431835868411744,-3.2975781157882325,8.755380851314703,0.6243750081882378,0.009246944149667879,-0.7220279972225497,-0.02947693333988699,-0.07162305397977305,0.9395035747569936
1589986696.6021352,-1.4892791341879792,-3.354233073503833,8.81792952393223,0.5688888888888889,0.1288888888888889,-0.7055555555555556,-0.02283886105307129,-0.07456966451865985,0.9614251395707044
1589986696.6121352,-1.4826306829561386,-3.3063068295613856,8.862124974964951,0.5688888888888889,0.1288888888888889,-0.7055555555555556,-0.03226689689057486,-0.07963064712224129,0.9858222073698945
1589986696.6221352,-1.4865053288982417,-3.3677686511438463,8.71922069105967,0.5688888888888889,0.1288888888888889,-0.7055555555555556,-0.022960244093678712,-0.07924943764099142,1.002769689177374
1589986696.6321352,-1.458923028589381,-3.302615352392921,8.802615352392921,0.5688888888888889,0.1288888888888889,-0.7055555555555556,-0.027958830298523307,-0.07785175560363292,1.0164864779536267
1589986696.6421351,-1.4546419065304859,-3.319283813060972,8.808302383163106,0.5721426458956635,0.13620984215413184,-0.723857938718663,-0.026472177444516902,-0.07774122422185033,1.01793030133945
1589986696.6521351,-1.48,-3.3779099168832127,8.836045041558394,0.5777777777777777,0.14888888888888888,-0.7555555555555555,-0.02595194607973816,-0.07678957381591175,1.008864180186626
1589986696.6621351,-1.4915721518987342,-3.384213924050633,8.78949746835443,0.5777777777777777,0.14888888888888888,-0.7555555555555555,-0.026955188074639796,-0.07618665960616197,0.9927178718427316
1589986696.672135,-1.5377253189602238,-3.387725318960224,8.738744627140616,0.5777777777777777,0.14888888888888888,-0.7555555555555555,-0.025696555691130437,-0.07115213007212454,0.956710097573093
1589986696.682135,-1.5529140282513396,-3.4029140282513395,8.785828056502679,0.5777777777777777,0.14888888888888888,-0.7555555555555555,-0.022770229165216753,-0.06678994027044195,0.914745030720381
1589986696.692135,-1.5189443046922102,-3.3605220265690945,8.772633417184673,0.5705252605050946,0.12830109792127214,-0.7461974687520934,-0.018773805308325783,-0.061890093349478245,0.8634191315329408
1589986696.702135,-1.4487538127962956,-3.25,8.817082062401235,0.5433333333333333,0.05111111111111112,-0.7111111111111111,-0.017884317200160926,-0.05545001022816095,0.7982792349443426
1589986696.712135,-1.570327659254431,-3.3859668078919,8.762491915064304,0.5433333333333333,0.05111111111111112,-0.7111111111111111,-0.009170126988988295,-0.046462242918330954,0.7022483570857783
1589986696.722135,-8.693099987422967,-8.16578694503836,0.07405961514274928,0.5433333333333333,0.05111111111111112,-0.7111111111111111,-0.5411318053652283,1.2646033502109497,0.09555790153881838
1589986696.732135,-10.005458809733216,-7.1040234535326885,-4.400530049838757,0.5433333333333333,0.05111111111111112,-0.7111111111111111,-0.957010629824699,0.31811644510175574,-2.4452168993357524
1589986696.742135,-1.880345604559462,-0.9173746645018059,0.33924947811392014,0.5200937738162298,0.0890016972803016,-0.6828194734381156,-0.7153380120811598,-1.6059763514739225,-5.074290698301318
1589986696.752135,-0.00647738475491938,-0.9079967664340077,0.4726211601403841,0.4922222222222222,0.13444444444444445,-0.6488888888888888,-0.45122153590682773,-0.8798597043715422,-5.106049631203328
1589986696.762135,-0.08721137521222411,-0.38587330220713073,0.0,0.4922222222222222,0.13444444444444445,-0.6488888888888888,-0.34574766562232406,-0.9021482228915669,-4.83853978692078
1589986696.772135,0.09165482355775022,-0.2720691316391666,-0.037862218475249905,0.4922222222222222,0.13444444444444445,-0.6488888888888888,-0.31467085093853386,-0.7417873977201128,-4.557129457263276
1589986696.782135,2.1735465393794753,-1.147780429594272,3.6628687350835323,0.4922222222222222,0.13444444444444445,-0.6488888888888888,-0.3215883697048788,-0.6717070410308129,-4.320612548875267
1589986696.792135,4.803353765584551,-2.1510944148540485,8.069283780164845,0.47872810889265793,0.1690914921825149,-0.6510771234828723,0.2901607933934191,0.0826180245355369,-4.112732355495606
1589986696.802135,-1.3463196491106413,0.5155206130161922,3.842017960542283,0.4511111111111111,0.24,-0.6555555555555556,1.805084603704795,2.0539419448347784,-4.003940605911822
1589986696.812135,-2.5760381999710606,1.7675198958182605,11.429659962378816,0.4511111111111111,0.24,-0.6555555555555556,2.0040859621789244,3.2636673670407843,-3.758193000524895
1589986696.822135,0.41359448238917906,-0.0008678184009642438,-1.4561965983661442,0.4511111111111111,0.24,-0.6555555555555556,-0.11007909864271657,2.322651772326074,-2.853144242017747
1589986696.832135,-0.07277133181591072,-0.03046188863598512,0.9153811136401488,0.4511111111111111,0.24,-0.6555555555555556,0.05370262951343528,0.009700327642105062,-2.4585868207040167
1589986696.842135,0.962237709992102,-0.28069545541870344,4.155317096078725,0.439889474720307,0.25538967276453134,-0.6478607191732899,0.06081497455121499,-0.10751462625318522,-2.2573740509571136
1589986696.852135,1.561148850121671,-1.0637162833738905,8.177070980566885,0.4122222222222222,0.2933333333333333,-0.6288888888888889,0.17729729535598732,-0.08151220591137992,-2.086126480190404
1589986696.862135,0.5745201434296562,-1.7269514167193982,8.39678197286086,0.4122222222222222,0.2933333333333333,-0.6288888888888889,-0.09359056614067779,0.2846232112854186,-1.882041239168265
1589986696.872135,0.5180953609782242,-2.5170033944061774,10.434331341683706,0.4122222222222222,0.2933333333333333,-0.6288888888888889,-0.0978515941849534,0.29541354937366754,-1.7662412556665634
1589986696.882135,0.3880104773815985,-2.363069117681761,9.160454963777521,0.4122222222222222,0.2933333333333333,-0.6288888888888889,0.07962148328906365,0.05724924589997918,-1.6866893171863306
1589986696.892135,-0.21543333533257364,-2.550774905535896,10.025258801655372,0.4082950478818049,0.30393670405246004,-0.6343869329654732,-0.023894709462946265,0.15072307194262222,-1.549177490875999
1589986696.902135,0.2884423013381794,-2.5248155873120766,8.447823393358666,0.4011111111111111,0.3233333333333333,-0.6444444444444445,0.04676049429713379,0.11423503707400648,-1.408052389030574
1589986696.912135,0.11706364915460377,-2.4583759807311667,7.593179119070898,0.4011111111111111,0.3233333333333333,-0.6444444444444445,0.09142615080338216,0.1250411316369937,-1.2916853688925887
1589986696.9221349,-0.0050745525849541125,-2.802437043377859,8.995585372165706,0.4011111111111111,0.3233333333333333,-0.6444444444444445,-0.05329498705271031,0.03264359922031105,-1.1881280327268289
1589986696.9321349,0.04895106394382805,-2.2485249504207534,6.521041968162083,0.4011111111111111,0.3233333333333333,-0.6444444444444445,0.07373336695684908,0.09902705323094416,-1.0377407025652587
1589986696.9421349,-0.03347965910918155,-3.1327817977166745,9.960651230101302,0.4011111111111111,0.3233333333333333,-0.6444444444444445,0.06228926166761922,0.0646947373632546,-0.9102206721995548
1589986696.9521348,-0.09857039087500245,-2.92428156350001,9.030846143275026,0.38333333333333336,0.3644444444444445,-0.62,0.002523792286887868,0.04865136984567919,-0.6809003777903349
1589986696.9621348,-0.1397418379566916,-3.088967351826766,9.467263482340933,0.38333333333333336,0.3644444444444445,-0.62,0.030368663025598718,0.03607626693142267,-0.5299991428192569
1589986696.9721348,-0.10007760901175522,-2.7063581577057163,8.149384909164171,0.38333333333333336,0.3644444444444445,-0.62,-0.015254699295146038,0.019858983258622828,-0.2886976608458652
1589986696.9821348,-0.12946952576163698,-3.220716700828647,9.81002820553249,0.38333333333333336,0.3644444444444445,-0.62,-0.008842377785677199,0.0014235589188999163,-0.14762658763755074
1589986696.9921348,-0.12,-3.097831273966766,9.19090328078398,0.3772489703167164,0.3743597026937462,-0.626084363016617,0.011304762301943456,-0.0011981941871648336,0.09237249880615281
1589986697.0021348,-0.11313904338153503,-2.9985428253615125,8.797668520578421,0.3533333333333333,0.4133333333333333,-0.65,-0.004490485606076623,-0.03125988555855751,0.3069340584875073
1589986697.0121348,-0.10717249749107288,-2.846206268816953,8.313651364156184,0.3533333333333333,0.4133333333333333,-0.65,-0.01817555707287406,-0.03523765054028531,0.49721646526634844
1589986697.0221348,-0.1375445832827854,-2.89386558291884,8.235283998544219,0.3533333333333333,0.4133333333333333,-0.65,-0.024208662120661792,-0.044781521590514344,0.6712844006644104
1589986697.0321348,-0.16694728591812538,-3.135578287345003,9.01125886774252,0.3533333333333333,0.4133333333333333,-0.65,-0.01854412330243975,-0.053565712628686125,0.8286537614840328
1589986697.0421348,-0.16752807459334376,-3.1101122983733753,8.725280745933437,0.3538909684883958,0.4189096848839583,-0.6552975339730938,-0.015259381102700201,-0.06707996819740696,0.9750719059781053
1589986697.0521348,-0.19,-3.2,8.95,0.3555555555555556,0.4355555555555555,-0.6711111111111111,-0.00545415391248228,-0.062177354602297986,1.088649120931463
1589986697.0621347,-0.2111390817469205,-3.2598940649496084,9.066264949608062,0.3555555555555556,0.4355555555555555,-0.6711111111111111,-0.018136692508269686,-0.07178533838698542,1.1762739330478122
1589986697.0721347,-0.24224115334207078,-3.3156880733944956,9.060166011358671,0.3555555555555556,0.4355555555555555,-0.6711111111111111,-0.04455488561761627,-0.0931156792988696,1.3641599037825949
1589986697.0821347,0.039830875975715524,-4.307488393449314,8.428824294678842,0.3555555555555556,0.4355555555555555,-0.6711111111111111,-0.05293771012014112,-0.10465492078153374,1.4515039272326151
1589986697.0921347,1.6140729690563465,-10.83987042877845,7.271856192992924,0.3616469657791796,0.429638185624035,-0.672329393155836,-0.1314436679919457,-0.1419149832960389,1.014427343040852
1589986697.1021347,-1.2257004278295087,-0.5966187741655037,1.7913397698414513,0.3944444444444444,0.3977777777777778,-0.6788888888888889,-0.5545888616023179,-0.27020743729942975,-1.979019550964673
1589986697.1121347,-15.26296523583087,-17.138881891787687,13.911430407402646,0.3944444444444444,0.3977777777777778,-0.6788888888888889,-0.1843129710866605,0.2787422427302135,-5.706249553668507
1589986697.1221347,-4.329688823747322,-7.554660234831768,7.718673635382609,0.3944444444444444,0.3977777777777778,-0.6788888888888889,0.6385474301907861,0.6759974305575094,-3.5153326229693334
1589986697.1321347,-0.8033071335384223,-0.4478526905793476,7.0160995055325595,0.3944444444444444,0.3977777777777778,-0.6788888888888889,0.6120185633044981,0.20216239144964443,-0.5175706648187974
1589986697.1421347,0.4906606049359807,-0.22446019669697537,7.801729820003712,0.38938479618976923,0.4051055442155832,-0.6822038308488485,0.18922823152942064,-0.028541833361930467,0.9336517625625209
1589986697.1521347,0.8408990536277603,-1.8822555205047318,11.42864353312303,0.3643059936908517,0.4414265685243603,-0.6986347704171048,-0.21914171021171314,-0.07268993517178277,1.073737085613014
1589986697.1621346,0.3359762298959319,-2.311998580889309,9.899904210028382,0.3622222222222222,0.4444444444444444,-0.7,-0.2925422784502888,-0.11824110319181547,1.2714777007110756
1589986697.1721346,0.008098110172899076,-2.4726497788500197,7.786799356654604,0.3622222222222222,0.4444444444444444,-0.7,0.11731716199705453,-0.010063977605300032,1.3970050963494651
1589986697.1821346,4.641796955755082,-9.004344028050832,8.712731915928575,0.3622222222222222,0.4444444444444444,-0.7,-0.08974268097605945,-0.1217733188135722,1.46677377568679
1589986697.1921346,4.370873887000162,-12.854061842318277,8.432483406184232,0.36505592430701705,0.4405208569424208,-0.6971662979152051,-0.07054487612869595,-0.12237818104367426,0.833740703851101
1589986697.2021346,0.2597972765434627,-1.5325760212962014,7.265067472099928,0.37666666666666665,0.4244444444444445,-0.6855555555555556,0.4046982203061851,0.28797932657906433,-1.3504485087306126
1589986697.2121346,-0.8220299517145028,-2.572327017819064,7.157685972695409,0.37666666666666665,0.4244444444444445,-0.6855555555555556,0.22235189444196005,0.21334582288950898,-1.2096563680708285
1589986697.2221346,-3.4970536715748275,-6.749298618237358,9.992171682218457,0.37666666666666665,0.4244444444444445,-0.6855555555555556,-0.22521877072577556,-0.027575139023045453,-0.39533844287514947
1589986697.2321346,-2.280720816962103,-9.66045700628293,8.394874612975066,0.37666666666666665,0.4244444444444445,-0.6855555555555556,0.05196066932184226,-0.0635496576091939,0.708590138939506
1589986697.2421346,4.333983957703381,-6.941669050679897,6.648167267196582,0.37666666666666665,0.4244444444444445,-0.6855555555555556,0.10663627857923284,-0.02047190486094677,0.8833864048987394
1589986697.2521346,-0.026744484151646992,-2.6993079940957116,9.556403628029832,0.3911111111111111,0.4244444444444445,-0.6644444444444444,-0.07395431440273523,-0.036488637126822196,-0.23095733808382707
1589986697.2621346,-0.6947304226227471,-2.691161824114357,9.043194919204476,0.3911111111111111,0.4244444444444445,-0.6644444444444444,0.04423072216623419,0.08613944592970249,-0.3686917791980395
1589986697.2721345,0.8467924528301887,-4.5277358490566035,9.036415094339622,0.3911111111111111,0.4244444444444445,-0.6644444444444444,-0.043921375280140326,-0.03130478528636056,0.04474464379523199
1589986697.2821345,-0.108045229244114,-4.020630111524164,8.533683395291202,0.3911111111111111,0.4244444444444445,-0.6644444444444444,0.008324850163197086,-0.00037888459520911584,0.04660084522976139
1589986697.2921345,-0.04579879784878203,-4.4870926921860175,8.790319519139514,0.3898562339625294,0.42534078526485997,-0.6701810256951035,-0.01685387047970402,-0.010063181413596694,-0.022694870740550276
1589986697.3021345,0.05698137731185545,-4.39369300264212,8.707116253302651,0.38333333333333336,0.43,-0.7,0.0036311983789022164,-0.0017935301570642422,0.0014495368139093045
1589986697.3121345,0.011768790434576432,-4.334693628696271,8.650612742607459,0.38333333333333336,0.43,-0.7,0.004363323129985824,-0.005068263701718028,0.0019887164596107862
1589986697.3221345,0.01887223520644921,-4.313383294380652,8.693233411238694,0.38333333333333336,0.43,-0.7,0.004363323129985824,-0.0035185324579335604,0.0012138508377185523
1589986697.3321345,0.03835877285779054,-4.3682061357110475,8.751793864288953,0.38333333333333336,0.43,-0.7,-0.001090830782496456,-0.00035806021755815356,0.0018236013474347583
1589986697.3421345,0.03202009974308599,-4.39989950128457,8.72010049871543,0.38333333333333336,0.43,-0.7,-0.001090830782496456,-0.0017409441682986356,0.00044071739669427636
1589986697.3521345,0.03070441636038444,-4.387182334558462,8.725635330883076,0.3911111111111111,0.4177777777777778,-0.7,0.005761513532322866,0.004132803415105384,-0.001090830782496456
1589986697.3621345,0.0389480925332652,-4.354207629866939,8.791584740266122,0.3911111111111111,0.4177777777777778,-0.7,0.009358495824447229,0.0014350666960121121,-0.001090830782496456
1589986697.3721344,0.03168721877660221,-4.3284360938830115,8.67518496898942,0.3911111111111111,0.4177777777777778,-0.7,0.0014320221691656624,-0.0014589248181611971,0.001090830782496456
1589986697.3821344,0.04,-4.3655376982606695,8.74405026434756,0.3911111111111111,0.4177777777777778,-0.7,-0.008447084827150023,-0.002785730737684469,0.0007663230426265234
1589986697.3921344,0.04,-4.341434372844993,8.711912497126658,0.3911111111111111,0.4177777777777778,-0.7,-0.012829193047808291,-0.00015646580528950755,-0.000986520245636784
1589986697.4021344,0.06703762937238686,-4.394075258744774,8.71,0.38410135534789974,0.4237861398605305,-0.6739637643080719,-0.008174389655769153,-0.004915579734188318,0.001858517058016535
1589986697.4121344,0.04894079565208704,-4.396822386956261,8.69682238695626,0.38333333333333336,0.4244444444444445,-0.6711111111111111,0.0002310825415315089,-0.004016699317688561,0.0020661202942271577
1589986697.4221344,0.04056007353088097,-4.371680220592643,8.671680220592643,0.38333333333333336,0.4244444444444445,-0.6711111111111111,0.0020594724754036233,-0.001274114416880389,0.0011519253272911003
1589986697.4321344,0.04,-4.320928943154524,8.703715772618095,0.38333333333333336,0.4244444444444445,-0.6711111111111111,0.004947494018410417,0.00020266395762874508,0.00020266395762874508
1589986697.4421344,0.04,-4.329324259407526,8.737297037630103,0.38333333333333336,0.4244444444444445,-0.6711111111111111,0.000368559319626505,0.0020342378371423103,0.0020342378371423103
1589986697.4521344,0.04352130384167637,-4.357359022118743,8.72,0.37666666666666665,0.4311111111111111,-0.6855555555555556,-0.000706716119994095,0.0011868594481220462,9.602866562559023e-05
1589986697.4621344,0.07797381443675475,-4.332532731954057,8.716454175264321,0.37666666666666665,0.4311111111111111,-0.6855555555555556,0.0034382592662472065,0.0020711502858210195,0.001090830782496456
1589986697.4721344,0.047337801070065556,-4.370827748662418,8.662841151872614,0.37666666666666665,0.4311111111111111,-0.6855555555555556,0.005944662248749014,0.00040021496415314716,0.001090830782496456
1589986697.4821343,0.025649282848821234,-4.281298565697642,8.714519426279058,0.37666666666666665,0.4311111111111111,-0.6855555555555556,-0.00267465449543479,-0.0003697446978314085,-0.0003697446978314085
1589986697.4921343,0.06406495576193878,-4.358129911523878,8.745251964609551,0.37666666666666665,0.4311111111111111,-0.6855555555555556,-0.006027054378950302,-0.002884044610468044,-0.002884044610468044
1589986697.5021343,0.04093573823982598,-4.365614429438956,8.729064261760174,0.3688888888888889,0.4177777777777778,-0.7,-0.007533742269839069,-0.004057103507077456,0.0
1589986697.5121343,0.04853892866853984,-4.4112335720112394,8.721461071331461,0.3688888888888889,0.4177777777777778,-0.7,-0.006704362853356719,-0.0015689652576304051,0.0
1589986697.5221343,0.04869054673953601,-4.361309453260464,8.669166172823248,0.3688888888888889,0.4177777777777778,-0.7,0.0027530183348947013,0.0009479915900210086,-0.00175314398756657
1589986697.5321343,0.04,-4.369023822392217,8.730488088803892,0.3688888888888889,0.4177777777777778,-0.7,0.006278773549040424,0.0,0.0009843463241211315
1589986697.5421343,0.04,-4.351586080738369,8.739206959630815,0.3688888888888889,0.4177777777777778,-0.7,0.0015233672057309777,0.0,-0.0009178162132026473
1589986697.5521343,0.05,-4.338503714354181,8.753540857895997,0.38333333333333336,0.4177777777777778,-0.6577777777777778,-0.0013655643440597858,0.0016920032324330362,-0.002181661564992912
1589986697.5621343,0.05,-4.335854830666002,8.6585362923335,0.38333333333333336,0.4177777777777778,-0.6577777777777778,0.003432158085408841,-0.000611833568738038,-0.001702664351234494
1589986697.5721343,0.05,-4.365940230647186,8.656089654029222,0.38333333333333336,0.4177777777777778,-0.6577777777777778,0.004363323129985824,0.00207094853049577,0.001090830782496456
1589986697.5821342,0.047701809824763,-4.328467873216509,8.71536244374222,0.38333333333333336,0.4177777777777778,-0.6577777777777778,0.003861935812549935,0.0010072662295904744,0.000923701676684493
1589986697.5921342,0.023603562194771617,-4.312402374796514,8.7715916882122,0.38333333333333336,0.4177777777777778,-0.6577777777777778,-0.0013954862512534387,0.00013102921895657895,-0.0008287723445832981
1589986697.6021342,0.030765944764553944,-4.351531889529108,8.756936220941784,0.3911111111111111,0.4244444444444445,-0.6711111111111111,-0.008726646259971648,-0.000334206450746977,-0.0010072791698097117
1589986697.6121342,0.03909954301609378,-4.368199086032187,8.723601827935626,0.3911111111111111,0.4244444444444445,-0.6711111111111111,-0.008726646259971648,-0.003970424651442296,-9.822461963588194e-05
1589986697.6221342,0.07455556070220946,-4.384555560702209,8.600416647366714,0.3911111111111111,0.4244444444444445,-0.6711111111111111,-0.0015877653670465807,-0.0037694269320394927,0.0
1589986697.6321342,0.04175849985794109,-4.349120750071029,8.731758499857941,0.3911111111111111,0.4244444444444445,-0.6711111111111111,0.0024693954314015804,0.0001918225776057789,9.591128880288945e-05
1589986697.6421342,0.05764750449853205,-4.341176247750734,8.747647504498532,0.3911111111111111,0.4244444444444445,-0.6711111111111111,0.005069227736179429,0.001925044114124345,0.0009625220570621725
1589986697.6521342,0.059921837528644765,-4.34015632494271,8.770078162471355,0.3911111111111111,0.4311111111111111,-0.6788888888888889,0.0010652521735593711,0.0010823045795174276,8.52620297902831e-06
1589986697.6621342,0.05247099994670741,-4.3550580001065855,8.777529000053292,0.3911111111111111,0.4311111111111111,-0.6788888888888889,-0.0013730287233682497,0.000269544280541554,0.000821286501954902
1589986697.6721342,0.04154853241359893,-4.3423227986203985,8.643097064827199,0.3911111111111111,0.4311111111111111,-0.6788888888888889,0.00016891868244472464,-0.0020127428825481874,0.0012597494649411807
1589986697.6821342,0.059013710997009534,-4.368520566495515,8.683452011510466,0.3911111111111111,0.4311111111111111,-0.6788888888888889,0.002127867844747925,-5.379372024498688e-05,0.0032186986272443813
1589986697.6921341,0.04323647238052249,-4.344854708570784,8.73867234666817,0.3911111111111111,0.4311111111111111,-0.6788888888888889,0.0012673529674651315,-0.0009143085975277805,0.0023581837499615874
1589986697.7021341,0.04,-4.347452054182127,8.77235616254638,0.3853150689694568,0.43028310509087475,-0.6730928467472345,-0.00459942028379049,-0.003529509810905148,0.001368768555523348
1589986697.7121341,0.06974394138275572,-4.370256058617245,8.727439413827558,0.38333333333333336,0.43,-0.6711111111111111,-0.006489121370616027,-0.0011187624446778103,-0.002069934916267495
1589986697.722134,0.06152675195423467,-4.378473248045765,8.645267519542347,0.38333333333333336,0.43,-0.6711111111111111,-0.004696408735768982,-0.0020151187621013328,0.0015154903534265948
1589986697.732134,0.040075845974329054,-4.399924154025672,8.659886231038506,0.38333333333333336,0.43,-0.6711111111111111,-1.6547024705313752e-05,-8.273512352656876e-06,0.002181661564992912
1589986697.742134,0.048297547229719004,-4.366809811081124,8.74297547229719,0.38333333333333336,0.43,-0.6711111111111111,0.0036204879749582725,-0.0009051219937395681,0.002181661564992912
1589986697.752134,0.06846515118502917,-4.349693030237005,8.779693030237006,0.38333333333333336,0.4244444444444445,-0.6711111111111111,0.002181661564992912,-0.0032055219341354324,3.348520667696773e-05
1589986697.762134,0.021654429334839468,-4.341240822001129,8.765036711995482,0.38333333333333336,0.4244444444444445,-0.6711111111111111,0.002181661564992912,-0.0011359483436441567,0.0010457132213487553
1589986697.772134,0.05809966546465656,-4.368574749098492,8.65570100360603,0.38333333333333336,0.4244444444444445,-0.6711111111111111,0.002181661564992912,-0.002129837979788069,5.182358520484302e-05
1589986697.782134,0.06,-4.360151122846596,8.70030224569319,0.38333333333333336,0.4244444444444445,-0.6711111111111111,0.0011073157277969497,0.0021486916743919246,-0.0010743458371959623
1589986697.792134,0.06,-4.365527327727646,8.71105465545529,0.38333333333333336,0.4244444444444445,-0.6711111111111111,0.001693768705522658,0.0009757857189405079,-0.00048789285947025394
1589986697.802134,0.05100319081046586,-4.3640021272069776,8.734994681982558,0.38133404240232577,0.42077907773759726,-0.6797747051454773,0.0018545283513865508,-0.0006542664272127223,0.0
1589986697.812134,0.03,-4.344605240877148,8.732236686140038,0.37666666666666665,0.4122222222222222,-0.7,-8.612308057556035e-05,-0.002181661564992912,0.0005884769315360082
1589986697.822134,0.050526048198488285,-4.367368064264651,8.638421855404534,0.37666666666666665,0.4122222222222222,-0.7,-0.004822571652149281,-0.002181661564992912,0.001090830782496456
1589986697.832134,0.05415430373396402,-4.385845696266036,8.63922848133018,0.37666666666666665,0.4122222222222222,-0.7,-0.004631985065343745,-0.002181661564992912,0.0004531642392847923
1589986697.842134,0.04416051804115688,-4.378321036082314,8.683357927835372,0.37666666666666665,0.4122222222222222,-0.7,-0.001361526345127733,-0.0015446728975390335,0.0
1589986697.852134,0.04,-4.363605343238164,8.731973283809182,0.3859033931004306,0.42003791382002253,-0.686500169058345,0.002790195375724176,-0.001090830782496456,0.001395097687862088
1589986697.862134,0.03924079941506215,-4.330253066861646,8.747975465106832,0.3911111111111111,0.4244444444444445,-0.6788888888888889,0.0031896764106754158,-5.521062454263482e-05,0.0010356201579538211
1589986697.872134,0.013684499146965637,-4.338771833617678,8.679825331058575,0.3911111111111111,0.4244444444444445,-0.6788888888888889,0.0004019165087592049,-0.0019137172258201086,-0.0008228864433236526
1589986697.882134,0.05,-4.359922531389757,8.710077468610244,0.3911111111111111,0.4244444444444445,-0.6788888888888889,-0.001090830782496456,-0.0032640418330163318,1.2675771709554449e-05
1589986697.892134,0.05,-4.34422559458094,8.725774405419061,0.3911111111111111,0.4244444444444445,-0.6788888888888889,-0.001090830782496456,-0.0015517716468203824,0.002581081051003478
1589986697.902134,0.05907427691761153,-4.358148553835223,8.775371384588057,0.3911111111111111,0.4183949264993701,-0.6849384068339632,0.0018787193946918598,-0.00010098072343368413,0.0003029421703010524
1589986697.912134,0.040060103254308685,-4.3400601032543085,8.789969948372844,0.3911111111111111,0.4177777777777778,-0.6855555555555556,6.556247992812493e-06,-0.0010875526585000497,0.0010875526585000497
1589986697.922134,0.04,-4.358579836972215,8.687810896652822,0.3911111111111111,0.4177777777777778,-0.6855555555555556,-0.0020267458103057,-7.745787734360593e-05,-0.0019492879329620946
1589986697.932134,0.049606287499380175,-4.36960628749938,8.68960628749938,0.3911111111111111,0.4177777777777778,-0.6855555555555556,-0.003229544975976392,0.00104788341098348,-8.589474302595195e-05
1589986697.942134,0.05,-4.37,8.70064508896187,0.3911111111111111,0.4177777777777778,-0.6855555555555556,-0.0009500942030852225,0.001090830782496456,0.0
1589986697.952134,0.04191539805340654,-4.3726948673155315,8.720779469262125,0.3890151031990313,0.4177777777777778,-0.6837589773452015,0.0013847952047489531,0.0016787596270014505,0.0
