time,acc_x,acc_y,acc_z,mag_x,mag_y,mag_z,gyr_x,gyr_y,gyr_z
1589986724.4624152,-3.75,-0.68,9.04,0.26666666666666666,-0.38333333333333336,-0.6355555555555555,0.001090830782496456,0.002181661564992912,0.003272492347489368
1589986724.4724152,-3.7504815845257022,-0.6704815845257022,9.06,0.2733333333333333,-0.37666666666666665,-0.6522222222222223,0.0013009616725004102,0.0011433635049974446,0.0032199596249883797
1589986724.4824152,-3.7551204641194293,-0.6751204641194295,9.006325105313724,0.2733333333333333,-0.37666666666666665,-0.6522222222222223,0.005986428706764509,0.002713936359275142,0.0016493867707106822
1589986724.4924152,-3.75628139467269,-0.6574372106546195,8.96884418401807,0.2733333333333333,-0.37666666666666665,-0.6522222222222223,0.005859790828380756,0.003272492347489368,-0.0002795569506995031
1589986724.5024152,-3.754213353448079,-0.65,9.003146586207684,0.2733333333333333,-0.37666666666666665,-0.6522222222222223,0.00545415391248228,0.0026412671288631073,-0.0004596055638701953
1589986724.5124152,-3.757409858799798,-0.6351802824004035,9.027409858799798,0.28815305093292987,-0.37666666666666665,-0.6629253515997087,0.000604412668818952,0.002181661564992912,-0.001616580414554443
1589986724.5224152,-3.784265499460367,-0.6461769996402447,9.021911500179877,0.2933333333333333,-0.37666666666666665,-0.6666666666666666,-0.004620104617699044,-0.0031122491878109704,0.0022299307290103237
1589986724.5324152,-3.768571338463479,-0.6642857743576805,8.962856902569278,0.2933333333333333,-0.37666666666666665,-0.6666666666666666,-0.0046749857914244585,-0.0020258187668123597,0.00483082858960501
1589986724.5424151,-3.7429547025759717,-0.67,8.991135892272085,0.2933333333333333,-0.37666666666666665,-0.6666666666666666,-0.004363323129985824,-0.004809537807883996,0.011032214450563588
1589986724.5524151,-3.74,-0.665785855734869,9.021070721325655,0.2933333333333333,-0.37666666666666665,-0.6479371365994178,-0.001145480329585767,-0.0026960029407108025,0.012458830436089594
1589986724.5624151,-3.74,-0.6610123369676554,9.044938315161724,0.2933333333333333,-0.37666666666666665,-0.6267214976340235,0.0024994905188851085,0.00042825778654994803,0.01297954055729972
1589986724.572415,-3.7563908245505266,-0.6681954122752636,9.041804587724735,0.2933333333333333,-0.37666666666666665,-0.6222222222222222,0.004166473146000041,0.0028787923795178015,0.007726084598893434
1589986724.582415,-3.765319726847234,-0.6487210926110643,8.992122458374894,0.2933333333333333,-0.37666666666666665,-0.6222222222222222,0.005523907489872946,0.003272492347489368,0.0053844003350916134
1589986724.592415,-3.765303484220462,-0.6393930315590758,8.982875610456764,0.2933333333333333,-0.37666666666666665,-0.6222222222222222,0.006032674296698707,0.00276018194920934,0.005387943926545879
1589986724.602415,-3.755061182116782,-0.65,9.044694089416089,0.2933333333333333,-0.37666666666666665,-0.6222222222222222,0.0038379295396348614,0.002181661564992912,0.006544984694978735
1589986724.612415,-3.7400171779141105,-0.6450085889570553,9.074991411042944,0.2933333333333333,-0.37999427402862984,-0.6288774369461486,0.0032706185277402945,0.0005482261208718383,0.00926737710184719
1589986724.622415,-3.719380464517513,-0.64,9.069380464517513,0.2933333333333333,-0.38333333333333336,-0.6355555555555555,0.004363323129985824,6.758083751453128e-05,0.018949608327526936
1589986724.632415,-3.698790667808219,-0.6287906678082191,8.987139340753425,0.2933333333333333,-0.38333333333333336,-0.6355555555555555,0.0006950777481789273,-0.0001319176781058428,0.034871095682236876
1589986724.642415,-3.718400767018217,-0.6342003835091083,8.965500958772772,0.2933333333333333,-0.38333333333333336,-0.6355555555555555,-0.002181661564992912,-0.0034143631007450192,0.06113065906335029
1589986724.652415,-3.7122629212147626,-0.6222629212147626,8.98,0.2933333333333333,-0.38333333333333336,-0.6355555555555555,-0.002181661564992912,-0.005653199898685945,0.08678061405907843
1589986724.662415,-3.7,-0.61,9.007390633703244,0.2842031220989188,-0.38028992958852853,-0.6193240689165964,-0.004173564658031772,-0.007042960468238451,0.1067352378060732
1589986724.672415,-3.6413171249852474,-0.61,9.04,0.2733333333333333,-0.37666666666666665,-0.6,-0.010812523793077698,-0.011192098059224328,0.12985319327162087
1589986724.682415,-3.3977548403009004,-0.5610203477617463,9.023673449253915,0.2733333333333333,-0.37666666666666665,-0.6,-0.00952806856479356,-0.01308996938995747,0.15792560833924593
1589986724.692415,-3.1452039402801293,-0.3300338617823611,8.898639372017854,0.2733333333333333,-0.37666666666666665,-0.6,0.021887132646796675,0.00842241578777162,0.20886815466708075
1589986724.702415,-2.926325830329974,-0.38026674148089,9.07380754041047,0.2733333333333333,-0.37666666666666665,-0.6,0.02726107056846728,0.0014237275625055713,0.33950539669591695
1589986724.712415,-3.0636191006371,-0.3167582111709037,9.081406568936723,0.28976557184387947,-0.3702763516903431,-0.6182580427894957,0.015230472621473371,-0.02158646634584701,0.5637629666401456
1589986724.722415,-3.2030905815748842,-0.23763654786412763,9.176363226968606,0.2933333333333333,-0.3688888888888889,-0.6222222222222222,0.006108676943918771,-0.03651304109093635,0.7338708127470659
1589986724.732415,-3.2216928608945095,-0.2064409518807321,9.19559048119268,0.2933333333333333,-0.3688888888888889,-0.6222222222222222,-0.0003143669335197456,-0.05069615237542355,0.9133801901537629
1589986724.742415,-2.6632644721906926,-0.5022879303821416,9.044141127506622,0.2933333333333333,-0.3688888888888889,-0.6222222222222222,0.0005333638366326783,-0.06430614616228228,1.163382296910587
1589986724.752415,-1.637354186608693,-1.0712310787351753,8.893693236205525,0.2933333333333333,-0.3688888888888889,-0.6222222222222222,0.01718471280394209,-0.057659707861114844,1.383052132431292
1589986724.762415,-1.589159219405435,-0.9716815611891301,8.692756702535108,0.2922689322552536,-0.37037905039820046,-0.6234995035159179,0.027826331291414017,-0.04781312455906862,1.4777750006843495
1589986724.772415,-1.7803077848239668,-0.8011753772140827,8.831790946862016,0.2877777777777778,-0.37666666666666665,-0.6288888888888889,-0.01540389985258744,-0.0847021873073839,1.4770479725992547
1589986724.782415,-1.9032944574030877,-0.777470843052316,9.041530600910807,0.2877777777777778,-0.37666666666666665,-0.6288888888888889,-0.05062106687898942,-0.10771635924191927,1.4587874036340298
1589986724.792415,-1.8656061937184274,-0.7168185811552823,8.936010322864046,0.2877777777777778,-0.37666666666666665,-0.6288888888888889,-0.02165154154293591,-0.09272624676113103,1.4386791814081143
1589986724.802415,-1.8614461877081099,-0.6471076245837801,8.917630791805406,0.2877777777777778,-0.37666666666666665,-0.6288888888888889,0.006343612863072539,-0.07188069426281743,1.41582783552343
1589986724.812415,-1.9156350371457804,-0.5654562035677744,9.023541972507674,0.26402108634725746,-0.38508049488164264,-0.6224547849597897,0.0019143281969261385,-0.06643139569472957,1.3729403243230502
1589986724.8224149,-1.9547054063307292,-0.4994108126614585,9.166472968346353,0.2344444444444445,-0.3955555555555556,-0.6144444444444445,-0.02181749839138839,-0.08405912336224021,1.3156035458349018
1589986724.8324149,-2.0303495311167947,-0.48381926683716964,9.16527706734868,0.2344444444444445,-0.3955555555555556,-0.6144444444444445,-0.03189168870838317,-0.0904403802984892,1.2506742251380762
1589986724.8424149,-2.03097572170552,-0.38195144341104,8.972286991182509,0.2344444444444445,-0.3955555555555556,-0.6144444444444445,-0.02069255530790306,-0.07833031990972072,1.1893282301268786
1589986724.8524148,-1.9946953104210592,-0.3040859312631773,8.897132827052586,0.2344444444444445,-0.3955555555555556,-0.6144444444444445,-0.01251131752152778,-0.06794426856575825,1.1273284313039222
1589986724.8624148,-2.009697702539299,-0.2571704957678355,8.969395405078597,0.20891038559720548,-0.4043100900174661,-0.6195512562138923,-0.02202634006881296,-0.06794015954634516,1.034281692644959
1589986724.8724148,-2.0046297067110657,-0.22975313780737705,9.02586401767418,0.1955555555555556,-0.4088888888888889,-0.6222222222222222,-0.028947408467968234,-0.06478325336310267,0.9532651527300343
1589986724.8824148,-1.9497174204248262,-0.198027683868087,9.00873126235887,0.1955555555555556,-0.4088888888888889,-0.6222222222222222,-0.02894538998993849,-0.0583978211173428,0.8674400913729543
1589986724.8924148,-1.9107924475654559,-0.1497358508115147,8.966188671348183,0.1955555555555556,-0.4088888888888889,-0.6222222222222222,-0.02506029379082136,-0.052273434940038506,0.7440989081965756
1589986724.9024148,-1.9465407786789544,-0.13672961066052275,9.023081557357909,0.1955555555555556,-0.4088888888888889,-0.6222222222222222,-0.020430835852671997,-0.045519943850090484,0.6501631995530097
1589986724.9124148,-1.9595996077027258,-0.1302001961486371,9.049199215405453,0.1955555555555556,-0.4088888888888889,-0.6222222222222222,-0.01330834951142803,-0.03839745750884652,0.5718158497993262
1589986724.9224148,-1.9620658702395881,-0.12,9.153791168899742,0.20777777777777776,-0.4222222222222222,-0.6355555555555555,0.0006017532624978799,-0.028060723713658912,0.4145205931636628
1589986724.9324148,-2.0174325127054322,-0.12,9.188395320440895,0.20777777777777776,-0.4222222222222222,-0.6355555555555555,0.0021116442106283283,-0.02730577823959369,0.3269469181720968
1589986724.9424148,-1.9735322638146167,-0.12,9.012935472370767,0.20777777777777776,-0.4222222222222222,-0.6355555555555555,0.011678928245141022,-0.006669895513994016,0.14382244145834733
1589986724.9524148,-1.9698029352039874,-0.1132019568026583,8.996600978401329,0.20777777777777776,-0.4222222222222222,-0.6355555555555555,0.01160686643387728,0.00554013965073703,0.008173075312753124
1589986724.9624147,-1.9615444374715976,-0.09711389063210059,8.9957722187358,0.20200555904197892,-0.42382561631549964,-0.6342728402809336,0.008411820565956041,0.015125277254500748,-0.12460648478024045
1589986724.9724147,-2.000708782287823,-0.08196841328413283,9.012677195571955,0.18777777777777774,-0.42777777777777776,-0.6311111111111111,0.007635815477475192,0.02008162312653055,-0.2629679533568177
1589986724.9824147,-2.026359020120254,-0.07456391951898358,8.987231181082286,0.18777777777777774,-0.42777777777777776,-0.6311111111111111,0.007635815477475192,0.028859446734922228,-0.4196391511010352
1589986724.9924147,-2.02416973273169,-0.07915133634154808,8.963357861853522,0.18777777777777774,-0.42777777777777776,-0.6311111111111111,0.008545510041177373,0.03527287094720595,-0.5700938001308342
1589986725.0024147,-2.0345808285058475,-0.06832331402339054,9.02832331402339,0.18777777777777774,-0.42777777777777776,-0.6311111111111111,0.01481438578598395,0.04435826594718155,-0.7168683797580283
1589986725.0124147,-2.05792262189073,-0.09448065547268251,9.05,0.19325413446661194,-0.43723693933121865,-0.6470423305695377,0.02365836701665064,0.05495254951077647,-0.8525498458429319
1589986725.0224147,-2.131117979661589,-0.11703932655386304,9.05,0.2,-0.4488888888888889,-0.6666666666666666,0.03160774134326944,0.06465562419135973,-1.00155425279384
1589986725.0324147,-2.1926351030737594,-0.16961143037907947,9.02736489692624,0.2,-0.4488888888888889,-0.6666666666666666,0.0392275217995081,0.07271344453174311,-1.1284754005353983
1589986725.0424147,-2.198770359921536,-0.22245928015692842,9.032459280156928,0.2,-0.4488888888888889,-0.6666666666666666,0.044992327932150716,0.08234884038682624,-1.247383644718065
1589986725.0524147,-2.2031314214241045,-0.24984856606807826,9.043434289287948,0.2,-0.4488888888888889,-0.6666666666666666,0.04690572364734761,0.08868235959100566,-1.3328247160360978
1589986725.0624146,-2.2281131064057895,-0.268584829804342,9.030943446797105,0.2,-0.4488888888888889,-0.6666666666666666,0.04690572364734761,0.09345124801191966,-1.3989078841544775
1589986725.0724146,-2.2623369503465516,-0.3823369503465515,9.001775366435632,0.22666666666666666,-0.4355555555555555,-0.6444444444444445,0.04234873808154191,0.10433243024802002,-1.5406522264047129
1589986725.0824146,-2.288208937899013,-0.4205223447475334,8.957164248403947,0.22666666666666666,-0.4355555555555555,-0.6444444444444445,0.04452868751504279,0.11003551343779862,-1.6321514115072897
1589986725.0924146,-2.3225405352287987,-0.4687837793573324,8.947567558714665,0.22666666666666666,-0.4355555555555555,-0.6444444444444445,0.046224691359543144,0.11453723216212787,-1.7149776152764276
1589986725.1024146,-2.381468242799512,-0.5214682427995122,9.014293648559903,0.22666666666666666,-0.4355555555555555,-0.6444444444444445,0.04924754565652918,0.11781578297498208,-1.7979038161866314
1589986725.1124146,-2.4171920414145824,-0.5476026528618059,9.017602652861806,0.237854286644906,-0.4272980265239979,-0.6529683453802458,0.05366742758716586,0.12348059766693904,-1.8567066604159543
1589986725.1224146,-2.4506659522959082,-0.5527991427550899,9.018532761836726,0.2733333333333333,-0.4011111111111111,-0.68,0.05851211641765309,0.12879067646098688,-1.9231482632573964
1589986725.1324146,-2.5042587340466675,-0.6249527845816681,9.00365911434833,0.2733333333333333,-0.4011111111111111,-0.68,0.06264191042155505,0.13463674206632115,-1.9972699595256311
1589986725.1424146,-2.536734237591295,-0.6752377403487853,8.92748248621255,0.2733333333333333,-0.4011111111111111,-0.68,0.065694710738495,0.13760792112035855,-2.040906997854719
1589986725.1524146,-2.6107242475701846,-0.7461838349532103,9.004540412616974,0.2733333333333333,-0.4011111111111111,-0.68,0.06872233929727672,0.1440109265480919,-2.1102470685671677
1589986725.1624146,-2.591665542515401,-0.7833175952156122,8.979993255092406,0.28332658842573855,-0.39944556859571023,-0.68,0.06745056176552763,0.1525353628002512,-2.154384909388237
1589986725.1724145,-2.579995897996855,-0.9360073836056608,8.993992616394339,0.3333333333333333,-0.3911111111111111,-0.68,0.061522945624626124,0.1461713248545251,-2.2176630079474653
1589986725.1824145,-2.5599701318569243,-1.0049551977853866,8.932522401107306,0.3333333333333333,-0.3911111111111111,-0.68,0.06299303410742911,0.14861836336991846,-2.2582590318461584
1589986725.1924145,-2.5645025698234987,-1.0669982867843342,8.884502569823498,0.3333333333333333,-0.3911111111111111,-0.68,0.06730407239719279,0.1578430273443986,-2.3108412848609596
1589986725.2024145,-2.5369425568061157,-1.1420691760458697,8.88471278403058,0.3333333333333333,-0.3911111111111111,-0.68,0.07019182781344026,0.1607307827606461,-2.353599134122427
1589986725.2124145,-2.541036709809088,-1.2310367098090884,8.967926580381823,0.35972524333990663,-0.37268657016312595,-0.6899592113232352,0.07237061579017388,0.1633984423800145,-2.4071572735956783
1589986725.2224145,-2.551713833575102,-1.2634276671502045,8.99,0.3922222222222223,-0.35,-0.7022222222222222,0.07417649320975901,0.16995134960166344,-2.460882511529779
1589986725.2324145,-2.5640548375407657,-1.3416161372146396,8.936493537866893,0.3922222222222223,-0.35,-0.7022222222222222,0.0761220430750015,0.17344209441693648,-2.511707906479573
1589986725.2424145,-2.55850920972317,-1.3754662310150445,8.902484650461384,0.3922222222222223,-0.35,-0.7022222222222222,0.07739477889310795,0.17360471440935776,-2.533329335270519
1589986725.2524145,-2.515374474318386,-1.5055946699428246,8.957312762840807,0.3922222222222223,-0.35,-0.7022222222222222,0.07556045609356705,0.17711343610501828,-2.597844718553528
1589986725.2624145,-2.49,-1.564142174469813,8.974714058156605,0.4142211602863757,-0.3222394352999969,-0.7195071021297713,0.07314804526021851,0.1808907613955438,-2.642474318970476
1589986725.2724144,-2.49,-1.6544766549884362,8.899794371550914,0.4388888888888889,-0.2911111111111111,-0.7388888888888889,0.07449456788595853,0.18997480878458406,-2.6869313310873753
1589986725.2824144,-2.4758692552707418,-1.7453268618231457,8.832934627635371,0.4388888888888889,-0.2911111111111111,-0.7388888888888889,0.07712886734126564,0.1968653732671672,-2.716500910872934
1589986725.2924144,-2.4504222660397392,-1.8089443349006522,8.82021113301987,0.4388888888888889,-0.2911111111111111,-0.7388888888888889,0.07851678530001731,0.20172308612279805,-2.738707598212961
1589986725.3024144,-2.4410917891097665,-1.884181158167675,8.884727052722559,0.4388888888888889,-0.2911111111111111,-0.7388888888888889,0.07257002096523753,0.19577435152889067,-2.782034670408322
1589986725.3124144,-2.3830893690579082,-1.9276829732065686,8.899227657735523,0.4388888888888889,-0.2911111111111111,-0.7388888888888889,0.0709882503339411,0.19735612216018705,-2.8033885739308237
1589986725.3224144,-2.357510966286502,-2.079982453941597,8.9,0.4722222222222222,-0.23222222222222225,-0.7677777777777778,0.08262971403233338,0.2078018285820285,-2.8358808671192026
1589986725.3324144,-2.328738265250643,-2.155291964188626,8.882523469498713,0.4722222222222222,-0.23222222222222225,-0.7677777777777778,0.08436990338064701,0.2127120025868089,-2.8641724298093783
1589986725.3424144,-2.3424401633553322,-2.2521436079472026,8.827023934657868,0.4722222222222222,-0.23222222222222225,-0.7677777777777778,0.07951373144552067,0.21539367603547468,-2.8959156556594285
1589986725.3524144,-2.3059356549742684,-2.340838253401951,8.844064345025732,0.4722222222222222,-0.23222222222222225,-0.7677777777777778,0.07541510774774729,0.22093895308625136,-2.9168602626688536
1589986725.3624144,-2.2677772181650298,-2.425278477293713,8.866944304541256,0.482068352033726,-0.23052461363403193,-0.7721915601070726,0.07435820677375331,0.2247111411942699,-2.95094028393628
1589986725.3724144,-2.2313119151998952,-2.4831682261336123,8.854207943466596,0.5044444444444445,-0.22666666666666666,-0.7822222222222223,0.06981317007977318,0.2247111411942699,-2.981240528562814
1589986725.3824143,-2.191398620689655,-2.5772027586206896,8.788846206896553,0.5044444444444445,-0.22666666666666666,-0.7822222222222223,0.0652477047213344,0.22927660655270868,-2.9873278157073995
1589986725.3924143,-2.165076858174915,-2.6643082764257655,8.744769425475255,0.5044444444444445,-0.22666666666666666,-0.7822222222222223,0.060532724502244936,0.238287838491317,-2.997552686742411
1589986725.4024143,-2.1243942247332077,-2.7233521657250472,8.76,0.5044444444444445,-0.22666666666666666,-0.7822222222222223,0.06205752071219323,0.24022243992942982,-3.0003899842015547
1589986725.4124143,-2.067523603581653,-2.789905585673387,8.78911159164281,0.5095274207630303,-0.2248183116417264,-0.7840705772471624,0.060546257931242194,0.2359864922818592,-2.9957017606849257
1589986725.4224143,-2.0735048736163884,-2.9211126714026103,8.83,0.5166666666666667,-0.2222222222222222,-0.7866666666666666,0.057748794276993524,0.22779702272476357,-2.9797112389510074
1589986725.4324143,-2.091944492542113,-2.998055507457887,8.785694708981621,0.5166666666666667,-0.2222222222222222,-0.7866666666666666,0.062419740456285816,0.2192418499708573,-2.9571665647932406
1589986725.4424143,-2.1077124284768987,-3.058496749834572,8.73385621423845,0.5166666666666667,-0.2222222222222222,-0.7866666666666666,0.06687576926377196,0.2118279290537526,-2.925387134964775
1589986725.4524143,-2.1415242337181035,-3.1556848511636604,8.772790915118236,0.5166666666666667,-0.2222222222222222,-0.7866666666666666,0.06451966535330261,0.20134984180346382,-2.889179365554455
1589986725.4624143,-2.048829369464325,-3.1842063478571307,8.836964282678544,0.5166666666666667,-0.2222222222222222,-0.7866666666666666,0.05985284636988638,0.1881271880171178,-2.8541782231788333
1589986725.4724143,-1.9922461756428174,-3.228224617564282,8.917390821542762,0.4866666666666667,-0.21333333333333332,-0.81,0.059169680740421664,0.187306720531528,-2.772883808481625
1589986725.4824142,-1.9119432903831057,-3.2201943290383106,8.724663896919454,0.4866666666666667,-0.21333333333333332,-0.81,0.06530146088194187,0.19081059489811095,-2.7185737557995893
1589986725.4924142,-1.9069464433871213,-3.29512301258064,8.77,0.4866666666666667,-0.21333333333333332,-0.81,0.05867911962754314,0.1737215114080404,-2.6276077027505202
1589986725.5024142,-1.8430295128600214,-3.3093267749199953,8.77,0.4866666666666667,-0.21333333333333332,-0.81,0.06410198504300466,0.17449620646739206,-2.5726043535365535
1589986725.5124142,-1.8,-3.3512294522551334,8.784385273872433,0.4837553271931136,-0.19399372111615934,-0.7840058975575619,0.062247399368921645,0.16328634773474293,-2.4681015870999894
1589986725.5224142,-1.7989227557411274,-3.3999020687037387,8.759706206111217,0.4711111111111111,-0.11,-0.6711111111111111,0.05785676206132474,0.15705826738498338,-2.3988769658866733
1589986725.5324142,-1.6715279945944685,-3.393694401081106,8.726305598918895,0.4711111111111111,-0.11,-0.6711111111111111,0.059356378106786754,0.14925601812347428,-2.270101053830531
1589986725.5424142,-1.6256643946145137,-3.4035839013463716,8.763006816156459,0.4711111111111111,-0.11,-0.6711111111111111,0.054150596133817536,0.1376716252045201,-2.180765391241353
1589986725.5524142,-1.5971942432853607,-3.415611513429279,8.823165459712165,0.4711111111111111,-0.11,-0.6711111111111111,0.0528385871838214,0.13264188335080176,-2.091499286144126
1589986725.5624142,-1.5228208846990574,-3.3618878414309887,8.838781725888325,0.473910240915317,-0.09797410898933742,-0.6676899524615261,0.053101072950112106,0.13289098083924433,-2.0057504013356326
1589986725.5724142,-0.9777526147846126,-2.6965241092004963,9.045031466052118,0.5011111111111111,0.01888888888888889,-0.6344444444444445,0.12550316586427449,0.20642908993898107,-1.8476638179123048
1589986725.5824142,-1.1055989131841117,-2.738522447923405,7.881245180489067,0.5011111111111111,0.01888888888888889,-0.6344444444444445,0.1454131769961457,0.1836567247550373,-1.745972233865063
1589986725.5924141,-1.0571507811553833,-2.970111662831537,7.817569335109604,0.5011111111111111,0.01888888888888889,-0.6344444444444445,-0.07026715226470365,-0.028102585832111126,-1.7038258952100833
1589986725.6024141,-1.3052507638268243,-3.3407629954482156,9.507865441772493,0.5011111111111111,0.01888888888888889,-0.6344444444444445,-0.06910713301291553,-0.018698408079420775,-1.610075575938776
1589986725.6124141,-1.3717536816750828,-3.5000278898772423,9.313143315937374,0.502560117006017,0.03627695962775934,-0.6332369395320229,0.07365346878610347,0.11567385898436361,-1.4746658298159907
1589986725.622414,-1.115863983663355,-3.0330938668746987,7.5824137851914735,0.5077777777777778,0.09888888888888887,-0.6288888888888889,0.08957497019196065,0.13548619896030237,-1.3721729682889199
1589986725.632414,-1.304826043381774,-3.570314267306178,9.10529744434104,0.5077777777777778,0.09888888888888887,-0.6288888888888889,0.01499984080973749,0.04330634908527379,-1.2998466968033788
1589986725.642414,-1.2118664218208297,-3.351999081828112,8.67939843910779,0.5077777777777778,0.09888888888888887,-0.6288888888888889,0.03481925848307733,0.05266527011612253,-1.1857697387636146
1589986725.652414,-1.2649848818249458,-3.5511933068435466,9.01802862163403,0.5077777777777778,0.09888888888888887,-0.6288888888888889,0.04785649002361903,0.061356757809816996,-1.1169621278551998
1589986725.662414,-1.0674553079189488,-3.2628033548433746,8.229026263940856,0.5099315333988074,0.1086636259381772,-0.6254097451933796,0.04286769969220093,0.052197227972410304,-0.9971645545266905
1589986725.672414,-1.105362688212859,-3.4295958281365797,8.630844495056305,0.5208825543726038,0.1583644134346374,-0.6077196343895547,0.04452172118453681,0.051370217226242375,-0.9202525551330722
1589986725.682414,-1.132497024517972,-3.5327731492501786,8.920264222804095,0.5222222222222223,0.16444444444444445,-0.6055555555555555,0.040148596903023574,0.04517846671681525,-0.7961519736466963
1589986725.692414,-1.061645101663586,-3.423701478743068,8.596169131238447,0.5222222222222223,0.16444444444444445,-0.6055555555555555,0.0388212762861285,0.04231808457548982,-0.7197214801019477
1589986725.702414,-1.086845550534017,-3.5012303670226776,8.735615183511339,0.5222222222222223,0.16444444444444445,-0.6055555555555555,0.028600754984979323,0.034935854844236246,-0.6194819458348519
1589986725.712414,-1.0451561321466285,-3.4823747171519086,8.74887434002112,0.5224513836509613,0.1679964465898996,-0.6070451048423593,0.029002473714271365,0.027158280209128163,-0.5445020158761772
1589986725.722414,-1.07711202076256,-3.5461808705927034,8.899473761947966,0.5244444444444445,0.1988888888888889,-0.62,0.024526763818363488,0.023649389974167462,-0.4493413326309377
1589986725.732414,-1.0519625176803395,-3.4610143463325924,8.676648312790462,0.5244444444444445,0.1988888888888889,-0.62,0.022534615503229223,0.015803215343652307,-0.37600467590016606
1589986725.742414,-1.1008704011535921,-3.650870401153592,8.979914882537903,0.5244444444444445,0.1988888888888889,-0.62,0.021124138765572904,0.011894907695536748,-0.29555014793309065
1589986725.752414,-1.0601810368327373,-3.6103620736654745,8.88800859483989,0.5244444444444445,0.1988888888888889,-0.62,0.022808706157467787,0.006505488584995621,-0.22539195057990444
1589986725.762414,-1.0669066593973993,-3.6238133187947983,8.81402674662861,0.5244444444444445,0.1988888888888889,-0.62,0.019140448094974897,0.005038185359998464,-0.16963442803001244
1589986725.772414,-1.0613120852989684,-3.6126241705979365,8.806063744103096,0.532167035289806,0.23074457612600519,-0.6586129542268075,0.014610179082466625,0.0015202096925091557,-0.0710164183942977
1589986725.782414,-1.0171440938822625,-3.6128559061177374,8.732277799153522,0.5333333333333333,0.23555555555555555,-0.6644444444444444,0.008103584198942025,-0.01019112540880803,0.0456257078032081
1589986725.792414,-0.9853982365727963,-3.601415870844833,8.851238795398482,0.5333333333333333,0.23555555555555555,-0.6644444444444444,0.0020609969186815413,-0.01925364421123156,0.13776327162625832
1589986725.802414,-0.9954118520492662,-3.5112933315566046,8.585057775408806,0.5333333333333333,0.23555555555555555,-0.6644444444444444,0.004132390363959229,-0.0192755453703972,0.22970932696751906
1589986725.812414,-0.9808140591672077,-3.649728646944264,8.772170824445887,0.5351122033653797,0.2360379609879749,-0.6636303852772367,-0.007547015397638839,-0.03272492347489368,0.3000464056440534
1589986725.822414,-1.0041524622090328,-3.641949179263656,8.834406565890754,0.5861109359382567,0.24986812575350084,-0.6402919822354117,-0.0050011905524056655,-0.03272492347489368,0.3645406350566272
1589986725.832414,-1.0370638574950002,-3.6170638574950003,8.7655957862425,0.5988888888888889,0.2533333333333333,-0.6344444444444445,-0.007795957208787692,-0.04020059722105637,0.4442790768908253
1589986725.842414,-1.0214080883338248,-3.5943676466647014,8.742816176667649,0.5988888888888889,0.2533333333333333,-0.6344444444444445,-0.008880244869872657,-0.03957710538967444,0.48177744659087396
1589986725.852414,-1.0280102667337696,-3.5580102667337696,8.777907599396075,0.5988888888888889,0.2533333333333333,-0.6344444444444445,-0.010251569501620393,-0.04275384711232219,0.511137546358607
1589986725.862414,-1.0213419805437765,-3.5446320778248936,8.842619107009229,0.6123832488013082,0.25728472049000856,-0.6388431584490453,-0.01185275123879474,-0.04770377969251151,0.53277165844677
1589986725.8724139,-1.0441046737905841,-3.47,8.768732716534089,0.8,0.31222222222222223,-0.7,-0.01160847885161834,-0.04363323129985824,0.5590672924833628
1589986725.8824139,-1.0584240893107097,-3.47,8.868968625174968,0.8,0.31222222222222223,-0.7,-0.017856502546302555,-0.04363323129985824,0.5762493576437444
1589986725.8924139,-1.0820288692862872,-3.4544346431435446,8.662173215717722,0.8,0.31222222222222223,-0.7,-0.01797815095578762,-0.04852141286568838,0.6238064976978168
1589986725.9024138,-1.1123468085524122,-3.498086702138103,8.847907447038267,0.8,0.31222222222222223,-0.7,-0.019008828823783637,-0.05017821599483697,0.6675802576034199
1589986725.9124138,-1.0811379295495651,-3.4906502454568944,8.6727635431918,0.8125352874190184,0.3121138479794065,-0.7132035952497152,-0.016522055983572568,-0.050302344852934756,0.7099443760174088
1589986725.9224138,-1.1443540608044096,-3.526773749031091,8.826288433382137,1.5089161618771472,0.30609326405037374,-1.4467114039368796,-0.02538809765940238,-0.057198155045246835,0.7601852788471111
1589986725.9324138,-1.191140756302521,-3.672281512605042,8.777718487394957,1.5711111111111111,0.3055555555555556,-1.512222222222222,-0.02274153015374334,-0.06125244009848377,0.8200726031468583
1589986725.9424138,-1.2278296764048255,-3.728695053932529,8.72,1.5711111111111111,0.3055555555555556,-1.512222222222222,-0.01897116590440825,-0.06630393215372435,0.8759401202131926
1589986725.9524138,-1.28268653046169,-3.7025375519990167,8.732089387077604,1.5711111111111111,0.3055555555555556,-1.512222222222222,-0.021670088143642838,-0.07243441416362492,0.9244057573519597
1589986725.9624138,-1.2998766368163281,-3.5908018606938663,8.809444865673477,1.5711111111111111,0.3055555555555556,-1.512222222222222,-0.02073251328534146,-0.07524713873852908,0.955345727675905
1589986725.9724138,-1.29,-3.605868403908795,8.827065798045602,0.7733333333333333,-0.1688888888888889,-0.8155555555555556,-0.016619381404481725,-0.07385642142836721,0.9935616977208078
1589986725.9824138,-1.2870349348820838,-3.546657206969377,8.830727076733544,0.7733333333333333,-0.1688888888888889,-0.8155555555555556,-0.01793845016535272,-0.07651987398988838,1.0217881004476053
1589986725.9924138,-1.2713053594189412,-3.464778562324236,8.72065267970947,0.7733333333333333,-0.1688888888888889,-0.8155555555555556,-0.02122415905017357,-0.0777337708045289,1.0465822084916474
1589986726.0024137,-1.288277055050883,-3.3968917797964675,8.729138527525443,0.7733333333333333,-0.1688888888888889,-0.8155555555555556,-0.02770379585944263,-0.0814364204098255,1.0669467813207791
1589986726.0124137,-1.3411341278635882,-3.432611773219657,8.79817883715145,0.7733333333333333,-0.1688888888888889,-0.8155555555555556,-0.026502310987917468,-0.07995301933024382,1.088536705094926
1589986726.0224137,-1.3947041272196505,-3.4049013757398834,8.851633791913294,0.5877777777777777,0.12777777777777774,-0.73,-0.02780542671577603,-0.08270340394284192,1.104811847142021
1589986726.0324137,-1.4555861813138073,-3.4251953937712694,8.858398464590422,0.5877777777777777,0.12777777777777774,-0.73,-0.030019160672693383,-0.08639296053770416,1.1085014037368832
1589986726.0424137,-1.4349372886133032,-3.37,8.74806158399098,0.5877777777777777,0.12777777777777774,-0.73,-0.02344602107257162,-0.07907839097989088,1.113554143548098
1589986726.0524137,-1.4214102167182663,-3.3712678018575852,8.68183746130031,0.5877777777777777,0.12777777777777774,-0.73,-0.02307681226444476,-0.07870918217176401,1.110296370749373
1589986726.0624137,-1.494453366873065,-3.3793837074303403,8.949662345201238,0.5877777777777777,0.12777777777777774,-0.73,-0.038127047629658205,-0.09375941753697745,1.0952461353841594
1589986726.0724137,-1.4691146867191331,-3.3491146867191333,8.802812872188879,0.5755555555555556,0.14666666666666667,-0.7233333333333334,-0.02182232187106546,-0.0803294808920324,1.0792179346805642
1589986726.0824137,-1.5038305356427268,-3.376118705196135,8.897559552963177,0.5755555555555556,0.14666666666666667,-0.7233333333333334,-0.03028812436591155,-0.08650658693329513,1.0576769384712161
1589986726.0924137,-1.476434368096733,-3.309191954423904,8.622868736193466,0.5755555555555556,0.14666666666666667,-0.7233333333333334,-0.02320825243753255,-0.07665896077985888,1.034472282771429
1589986726.1024137,-1.5411901772297811,-3.4,8.757736151993578,0.5755555555555556,0.14666666666666667,-0.7233333333333334,-0.025855368290197023,-0.07937099073046695,1.0036687303275376
1589986726.1124136,-1.5584574216257385,-3.4,8.869973240567301,0.5755555555555556,0.14666666666666667,-0.7233333333333334,-0.021146457861197118,-0.07560386238726703,0.9735317035819383
1589986726.1224136,-1.5474416488562541,-3.3848832977125083,8.853604122140634,0.5755555555555556,0.10777777777777778,-0.7511111111111111,-0.019355881266932905,-0.06978770959025642,0.9177686102889088
1589986726.1324136,-1.53,-3.3510998545563973,8.810916545463664,0.5755555555555556,0.10777777777777778,-0.7511111111111111,-0.0174133006797304,-0.06213736276208509,0.8670615558205793
1589986726.1424136,-1.5280066066208797,-3.4093355355402934,8.849368568644692,0.5755555555555556,0.10777777777777778,-0.7511111111111111,-0.014256885353818197,-0.05876350195021599,0.7958859936613468
1589986726.1524136,-1.5,-3.4026067697614706,8.703649477666058,0.5755555555555556,0.10777777777777778,-0.7511111111111111,-0.00022748357589546053,-0.0415084406288392,0.7238409367198541
1589986726.1624136,-1.5,-3.443710432958978,8.761194606142569,0.5755555555555556,0.10777777777777778,-0.7511111111111111,-0.00381445486303204,-0.042405183450623336,0.6476177968682018
1589986726.1724136,-1.441323942332649,-3.3494124725702554,8.795146881857436,0.49173261603076857,0.04258215814738785,-0.660768609623285,-0.2548997241635417,0.37532305668094107,0.5061143135430071
1589986726.1824136,-0.8602231355252606,-0.4459442662389739,0.7949867682437848,0.4755555555555556,0.03,-0.6433333333333333,-1.0736414062933364,1.28697608780697,-2.1347414733458834
1589986726.1924136,-2.8914627533383044,-0.4370004405883549,0.017479326238731104,0.4755555555555556,0.03,-0.6433333333333333,-0.3750230646465111,-2.2574674095095775,-5.222069570752018
1589986726.2024136,-0.5601904697349691,-0.9416355995390768,0.5363295600894733,0.4755555555555556,0.03,-0.6433333333333333,-0.4331714694331421,-1.3991969548589047,-5.100345576732005
1589986726.2124135,-0.3927867872093432,-0.8248425792380483,0.08269638020192072,0.4755555555555556,0.03,-0.6433333333333333,-0.32777866776353926,-0.8095054200833764,-4.810801433500711
1589986726.2224135,0.11695918746516382,-0.4795448070849074,0.19433599636671417,0.504770843798527,0.15872986382059276,-0.6606799107275976,-0.32012069915910424,-0.7571051551659048,-4.585672932506586
1589986726.2324135,0.6751216540951872,-0.6328285828716375,1.3464731993858887,0.5111111111111111,0.18666666666666668,-0.6644444444444444,-0.19182466102765583,-0.49073839935235264,-4.279113046939895
1589986726.2424135,4.713755757292571,-3.054609171617382,9.115769307789867,0.5111111111111111,0.18666666666666668,-0.6644444444444444,0.6213160174720275,0.39722649181678515,-4.1966537105286585
1589986726.2524135,4.062288360304152,2.646028465587834,5.589205108208228,0.5111111111111111,0.18666666666666668,-0.6644444444444444,2.2268991406109144,2.9257117971503885,-3.97833434396345
1589986726.2624135,-1.0814330278806779,1.1740573211152272,8.19786508091246,0.5111111111111111,0.18666666666666668,-0.6644444444444444,0.4294391727194844,4.022028571611216,-3.386019992261262
1589986726.2724135,0.7517419534366013,-0.15283090622391243,3.810339486133012,0.4177777777777778,0.2644444444444444,-0.6433333333333333,0.3061196370948477,0.5082031980977072,-2.6859197216093524
1589986726.2824135,4.13,0.13,22.87,0.4177777777777778,0.2644444444444444,-0.6433333333333333,0.15271630954950385,0.011999138607461015,-2.499093322699381
1589986726.2924135,1.109308621407747,-0.9122268499236431,7.784207968901846,0.4177777777777778,0.2644444444444444,-0.6433333333333333,-0.5862642251071616,-0.6682098020282702,-2.264970415370085
1589986726.3024135,0.4210885372629545,-2.41067979224544,10.822651286387245,0.4177777777777778,0.2644444444444444,-0.6433333333333333,-0.4247117173115359,-0.10443800218509147,-1.9951147442047836
1589986726.3124135,0.10575672118819329,-1.89086310083349,11.116439180297048,0.4177777777777778,0.2644444444444444,-0.6433333333333333,0.21274616581821537,0.5377392942617857,-1.786431806465672
1589986726.3224134,0.5756706485347001,-1.7209325011366925,7.371162319679247,0.42728025094494737,0.29374373670988396,-0.6354146056940254,0.6242197429577454,0.311302851482985,-1.5965082900161154
1589986726.3324134,0.6787114010428961,-2.8943016244286603,10.555517048990366,0.4311111111111111,0.3055555555555556,-0.6322222222222222,-0.3074501211764864,-0.1565298751258382,-1.473058511332917
1589986726.3424134,-0.7163584472436211,-3.011307482672046,12.337606274543464,0.4311111111111111,0.3055555555555556,-0.6322222222222222,-0.5106820713625663,0.09579191810035764,-1.336588747681395
1589986726.3524134,0.2120271186440678,-2.113831306081755,6.966295114656032,0.4311111111111111,0.3055555555555556,-0.6322222222222222,0.338682272420301,0.19130379050162855,-1.138380824976089
1589986726.3624134,0.06984745762711866,-2.3814636091724823,7.8862811565304085,0.4311111111111111,0.3055555555555556,-0.6322222222222222,0.14435867513848635,0.20316391615732624,-1.0571845801024666
1589986726.3724134,0.030700440941927015,-2.678345811051693,9.444277511961722,0.39855604549103,0.34950489414266506,-0.625711209098206,-0.10401263396619906,-0.03172599306228949,-1.0283892501493475
1589986726.3824134,-0.0454294049008168,-2.895172695449242,9.593050175029171,0.38666666666666666,0.3655555555555556,-0.6233333333333333,0.11123890099913711,0.10960965548969086,-0.831418748507867
1589986726.3924134,-0.12233772295382564,-3.251747624604101,10.627816636106017,0.38666666666666666,0.3655555555555556,-0.6233333333333333,0.07996933380593488,0.07071336459082951,-0.7261699613697716
1589986726.4024134,-0.0023038534910339564,-2.610367340709653,8.187646241892407,0.38666666666666666,0.3655555555555556,-0.6233333333333333,-0.018504052647064416,0.0040979112236090055,-0.5369596006438262
1589986726.4124134,-0.05351239984738649,-2.840805799313239,8.802148798168638,0.38666666666666666,0.3655555555555556,-0.6233333333333333,0.006632883764518319,0.04669105347656864,-0.4217486420907387
1589986726.4224133,-0.10380623922244867,-2.817162564665308,8.739100172440821,0.39372036717702186,0.39994234554353697,-0.6303870338436885,-0.02624286803653177,0.0038008928989729934,-0.2444315969865659
1589986726.4324133,-0.15810495095871166,-3.0566836641777453,9.1664188152041,0.3955555555555556,0.4088888888888889,-0.6322222222222222,0.017332707146609595,0.013595099787690237,-0.0354572932464153
1589986726.4424133,-0.0478210643911483,-2.8783513584179126,8.414830405742673,0.3955555555555556,0.4088888888888889,-0.6322222222222222,0.008537758374005385,-0.02269415998768179,0.15187496116079838
1589986726.4524133,-0.12,-3.14,9.29,0.3955555555555556,0.4088888888888889,-0.6322222222222222,-0.003272492347489368,-0.02072578486743266,0.31525009614147576
1589986726.4624133,-0.132809863724854,-3.107975340687865,9.065827384815055,0.3955555555555556,0.4088888888888889,-0.6322222222222222,-0.010957858866349863,-0.02771248170276039,0.43053059392438314
1589986726.4724133,-0.1335422557970429,-3.018964813767472,8.785014139129029,0.3797699586149938,0.4088888888888889,-0.634374803623208,-0.017384922803572476,-0.04008726008688559,0.601606198300703
1589986726.4824133,-0.10174009508716324,-3.026960380348653,8.622876703645007,0.3711111111111111,0.4088888888888889,-0.6355555555555555,-0.017974678516775196,-0.06728984164338155,0.8199755975958336
1589986726.4924133,-0.146053882725832,-3.204215530903328,8.950798732171156,0.3711111111111111,0.4088888888888889,-0.6355555555555555,-0.0034730254231939445,-0.058588849787232784,0.950490475438065
1589986726.5024133,-0.16188466204236523,-3.2615963171482782,8.95623067591527,0.3711111111111111,0.4088888888888889,-0.6355555555555555,-0.007367323643144592,-0.06494431682977073,1.0398976813341494
1589986726.5124133,-0.15586446723138653,-3.2193223361569325,8.833983504235398,0.3711111111111111,0.4088888888888889,-0.6355555555555555,-0.02709875580950502,-0.07752290721526864,1.1801324736925476
1589986726.5224133,7.8610792539497325,-12.236034709488619,5.678583282398918,0.3842118130799578,0.4176226902014533,-0.6603013259411548,-0.06739877936022531,-0.0950121268846676,1.2034147384016114
1589986726.5324132,-0.12068023932859262,-1.203724049311326,1.455665582459945,0.3911111111111111,0.4222222222222222,-0.6733333333333333,-0.60600019335648,-0.2598341139812365,-3.0258375175977443
1589986726.5424132,-13.472735030802255,-18.59716043350029,9.661358091481825,0.3911111111111111,0.4222222222222222,-0.6733333333333333,-0.21884935112280962,0.2933983574955482,-4.88246825258096
1589986726.5524132,2.7182291001914507,1.8687300574345862,11.16580089342693,0.3911111111111111,0.4222222222222222,-0.6733333333333333,0.5839749019621095,0.2854116626727222,-1.488656838485599
1589986726.5624132,0.5628308571428571,2.0377297142857143,7.6747377142857145,0.3911111111111111,0.4222222222222222,-0.6733333333333333,0.8798308232394783,0.29775659871554905,0.3003930432170616
1589986726.5724132,0.8635355884425652,-0.0597477096546864,8.348032417195206,0.3855555555555555,0.4155555555555556,-0.6733333333333333,0.054637092518948466,-0.1568136513893249,0.8723847306568498
1589986726.5824132,1.1492642706131078,-2.4638097251585624,13.037923890063425,0.3855555555555555,0.4155555555555556,-0.6733333333333333,-0.6428849268879462,-0.1353183657373405,1.0260760230685386
1589986726.5924132,0.34304903754374794,-2.486638164174356,9.922025135221126,0.3855555555555555,0.4155555555555556,-0.6733333333333333,-0.23359659218218182,-0.08262969425727139,1.1426280648611138
1589986726.6024132,0.06619562944374736,-2.49,8.099431200334587,0.3855555555555555,0.4155555555555556,-0.6733333333333333,0.12448610162005352,0.046416879990532484,1.2988338154992478
1589986726.6124132,7.869398834267123,-13.10624073739382,8.492727950478944,0.3855555555555555,0.4155555555555556,-0.6733333333333333,-0.07641468752857097,-0.13829153628951343,1.369945876780426
1589986726.6224132,2.705777704157695,-8.562383634255426,8.874252111976148,0.3959803434376898,0.42437652991736147,-0.6685218927723483,-0.18279284694206346,-0.20584358123443933,0.5753108763889968
1589986726.6324131,-0.47863727014911717,-1.365768731131644,11.264926722166315,0.4,0.42777777777777776,-0.6666666666666666,0.16327486495232094,0.22887553814350117,-1.2551371217085925
1589986726.6424131,-0.4249183057359802,-1.9873738907693717,7.91132851523191,0.4,0.42777777777777776,-0.6666666666666666,0.32149027491366094,0.26403451813491,-1.1530086560192614
1589986726.6524131,-6.510731387340111,-11.658858642177764,10.64640045916694,0.4,0.42777777777777776,-0.6666666666666666,-0.16457645577946406,0.007170360952047872,-0.9393074461329914
1589986726.6624131,-1.5338256163787394,-5.7795856118375,9.856352816514978,0.4,0.42777777777777776,-0.6666666666666666,-0.15247733362186577,-0.08588608661831634,-0.07296728905146321
1589986726.672413,4.93,-5.7,7.04,0.3922222222222223,0.42777777777777776,-0.6944444444444444,0.07417649320975901,-0.08726646259971647,0.8988445647770796
1589986726.682413,4.93,-5.7,7.04,0.3922222222222223,0.42777777777777776,-0.6944444444444444,0.07417649320975901,-0.08726646259971647,0.8988445647770796
1589986726.692413,0.42709559242554995,-6.068658840386212,8.09989416611036,0.3922222222222223,0.42777777777777776,-0.6944444444444444,0.03898885721814531,0.027631940638205815,0.08809270692949056
1589986726.702413,0.3459741657696449,-5.399387633058247,8.800398277717976,0.3922222222222223,0.42777777777777776,-0.6944444444444444,-0.026669057857008484,-0.012080419264977493,-0.08296902507494064
1589986726.712413,0.3952400835073069,-4.7901246644795705,8.976625111840143,0.3922222222222223,0.42777777777777776,-0.6944444444444444,0.0009125500581278201,-0.00825778096807368,0.017858197975325063
1589986726.722413,0.04290693362995922,-4.4123255469039675,8.96284872080089,0.3958850162732255,0.42777777777777776,-0.6913049066864417,0.015068672524599357,-0.0014840475740215027,0.02699169160915869
1589986726.732413,0.008049830420036522,-4.37,8.801950169579962,0.4,0.42777777777777776,-0.6877777777777778,-0.0017471411371970153,-0.006961386270747775,-0.004354263703972395
1589986726.742413,0.02,-4.335788978202622,8.593286624665074,0.4,0.42777777777777776,-0.6877777777777778,-0.009645348700440457,-0.004047583348854798,-0.00031573978113102574
1589986726.752413,0.08093893865315299,-4.397709931836837,8.729274829592093,0.4,0.42777777777777776,-0.6877777777777778,-0.00795390470783023,-0.003624722350702242,0.0007386007792835823
1589986726.762413,0.038240852190659605,-4.4012963408762635,8.659305789600385,0.4,0.42777777777777776,-0.6877777777777778,0.0020654949141968434,-0.0017069506003665352,-0.00047471096462637676
1589986726.772413,0.05160128798139582,-4.348398712018604,8.7996861823107,0.3935286885362274,0.4176085740489922,-0.6757596279164857,0.00545415391248228,-0.003813628713792841,0.0016319671487999294
1589986726.782413,0.06,-4.34,8.735666281556501,0.3922222222222223,0.4155555555555556,-0.6733333333333333,0.009247834970165195,-0.0005696420723029106,0.0012332413005721836
1589986726.792413,0.051317579578583114,-4.34,8.676587897892915,0.3922222222222223,0.4155555555555556,-0.6733333333333333,0.0022406358726621877,0.001894210292451479,-0.003644694948632241
1589986726.802413,0.05852663401373298,-4.408213072109864,8.661473365986268,0.3922222222222223,0.4155555555555556,-0.6733333333333333,0.001090830782496456,0.002181661564992912,0.0012173457819709228
1589986726.812413,0.04621803915505479,-4.357981176197747,8.722018823802253,0.3922222222222223,0.4155555555555556,-0.6733333333333333,0.0033458988524205212,0.003685040278275622,-7.340650493115356e-05
1589986726.822413,0.05548819935306098,-4.33774409967653,8.77323229902959,0.39824541085952375,0.42071828867324257,-0.6784960664510203,0.006897573822949915,0.0009843222060337015,0.0005986696794796052
1589986726.832413,0.0511192835759265,-4.3311192835759265,8.806642149272221,0.4,0.4222222222222222,-0.68,0.004729607823674825,-0.0009687358846001225,-0.000846640986703789
1589986726.842413,0.05631068449933715,-4.33,8.753203839505966,0.4,0.4222222222222222,-0.68,-0.00045539910736431405,-0.001090830782496456,-0.0004024418914464362
1589986726.852413,0.05252341350116131,-4.344953172997677,8.690093654004645,0.4,0.4222222222222222,-0.68,-0.007350337697954692,0.0005403073576896735,-0.0016311381401861295
1589986726.862413,0.06019458520341683,-4.365291877805125,8.71058375561025,0.4,0.4222222222222222,-0.68,-0.004278419318103662,-0.000577254320704039,-0.002181661564992912
1589986726.872413,0.07,-4.386534837640018,8.74,0.4014521861422262,0.4222222222222222,-0.68,0.0021385206169043706,-0.002181661564992912,-0.0011124012565407264
1589986726.882413,0.047573590258895855,-4.332720770776687,8.769901879654805,0.4044444444444445,0.4222222222222222,-0.68,0.007360431964527896,-0.0005507670258945931,0.00027538351294729654
1589986726.892413,0.04686994796273062,-4.337479791850922,8.704430572409963,0.4044444444444445,0.4222222222222222,-0.68,0.007635815477475192,0.0007493950711895376,0.0007493950711895376
1589986726.902413,0.034187014318961775,-4.344729004772987,8.69108398090805,0.4044444444444445,0.4222222222222222,-0.68,0.004185957168664756,0.001090830782496456,-5.9121987107022727e-05
1589986726.912413,0.03438929973035748,-4.363982166217262,8.72918573297381,0.4044444444444445,0.4222222222222222,-0.68,0.0021372501881259153,0.0005676210796817263,-0.0005676210796817263
1589986726.9224129,0.040624882560494395,-4.3712497651209885,8.759375117439506,0.38986092842743575,0.4222222222222222,-0.6867709181507541,0.005317825685995783,0.0,0.0
1589986726.9324129,0.036681245697161136,-4.35,8.77,0.37333333333333335,0.4222222222222222,-0.6944444444444444,0.007635815477475192,-0.0007288108471885364,0.0007288108471885364
1589986726.9424129,0.033045521050137035,-4.322182084200548,8.70045521050137,0.37333333333333335,0.4222222222222222,-0.6944444444444444,0.0023255036771612893,-0.001090830782496456,-0.001185017131923788
1589986726.9524128,0.052862753899674556,-4.340483671866233,8.700483671866234,0.37333333333333335,0.4222222222222222,-0.6944444444444444,-0.0033252527635207864,-0.001090830782496456,-0.0013503483741127153
1589986726.9624128,0.04716171110684826,-4.35,8.71,0.37333333333333335,0.4222222222222222,-0.6944444444444444,-0.007164203273832277,-0.002491270854419683,-0.0017910508184580693
1589986726.9724128,0.054511221945137155,-4.357255610972569,8.768044887780547,0.3926816292601829,0.4222222222222222,-0.6960568024383486,-0.0031863956036838493,-0.0024810279680196824,-0.000598732806053541
1589986726.9824128,0.04415804192461219,-4.375841958075388,8.782079020962305,0.4,0.4222222222222222,-0.6966666666666667,0.006685572203146647,-0.001317616788810345,0.001728089552365134
1589986726.9924128,0.03245494984340248,-4.34981979937361,8.712094548590622,0.4,0.4222222222222222,-0.6966666666666667,0.009549683556601277,0.0013782811073924288,-0.0011104876215256008
1589986727.0024128,0.03601666247849535,-4.34,8.714066649913981,0.4,0.4222222222222222,-0.6966666666666667,0.006535896722751029,0.0002127133731626668,-0.0002127133731626668
1589986727.0124128,0.043681921722924004,-4.336318078277076,8.733681921722924,0.4,0.4222222222222222,-0.6966666666666667,0.0035600524191642465,-0.00028756007167487856,0.0014924661379072447
1589986727.0224128,0.05210212933753943,-4.338408517350158,8.742102129337539,0.3969635909568875,0.4222222222222222,-0.6887252891692954,0.002181661564992912,0.001090830782496456,0.0019523548259752224
1589986727.0324128,0.05387003832275029,-4.351610114968251,8.74387003832275,0.3855555555555555,0.4222222222222222,-0.6588888888888889,0.004187686832913189,-0.0002465193961170625,-0.0002465193961170625
1589986727.0424128,0.038128062172664304,-4.351871937827336,8.692512248690658,0.3855555555555555,0.4222222222222222,-0.6588888888888889,0.004159126389488092,-0.001090830782496456,-0.0004433170209993622
1589986727.0524127,0.04075272382756987,-4.343870914258646,8.69225817148271,0.3855555555555555,0.4222222222222222,-0.6588888888888889,0.0009266119181301018,-0.002263770997176089,0.0
1589986727.0624127,0.05,-4.340435389663277,8.730435389663278,0.3855555555555555,0.4222222222222222,-0.6588888888888889,-0.003367479636906019,-0.003272492347489368,0.0
1589986727.0724127,0.06340098978888681,-4.363400989788887,8.735533003403704,0.3855555555555555,0.4192442244913585,-0.6623632195748965,-0.003992332694718439,-0.0018106711297255274,-0.001949094957018454
1589986727.0824127,0.06117565810854729,-4.367450438739032,8.748824341891453,0.3855555555555555,0.4155555555555556,-0.6666666666666666,0.0005562279810649787,-0.0027378895460578906,-0.002309905970442406
1589986727.0924127,0.04442816096839457,-4.348856321936789,8.715425287747156,0.3855555555555555,0.4155555555555556,-0.6666666666666666,0.0058284216834671825,-0.0025399430707486884,-0.001698624135575501
1589986727.1024127,0.045705825347259615,-4.34,8.714234952083558,0.3855555555555555,0.4155555555555556,-0.6666666666666666,0.007481828274303785,-0.0004684217896625247,-0.000314434586491118
1589986727.1124127,0.0558261427238806,-4.351652285447761,8.757478428171641,0.3855555555555555,0.4155555555555556,-0.6666666666666666,0.005909451112336065,-0.0006355335826426705,0.00045529719985378545
1589986727.1224127,0.04808453656264555,-4.3659577317186775,8.758084536562645,0.37827388345495006,0.4122457046007349,-0.6746103089582363,0.00350449076670569,0.001508720078538997,0.0006498877152588632
1589986727.1324127,0.046505367618076006,-4.363494632381924,8.776021470472303,0.37333333333333335,0.41,-0.68,0.0028912870899182076,0.00043399024778818665,0.001090830782496456
1589986727.1424127,0.05,-4.352794433122385,8.717944331223855,0.37333333333333335,0.41,-0.68,0.003272492347489368,-0.001090830782496456,-0.001267185464135176
1589986727.1524127,0.0569830087946656,-4.356983008794666,8.703966017589332,0.37333333333333335,0.41,-0.68,0.002510764252722897,-0.004137743161562342,-0.0029433896597593837
1589986727.1624126,0.06389360093477214,-4.348319197195684,8.717787201869545,0.37333333333333335,0.41,-0.68,0.00048275766323033773,-0.0029057980598384183,-0.002423040396608081
1589986727.1724126,0.06965935803147984,-4.331021925905561,8.72931871606296,0.37333333333333335,0.41,-0.68,-0.0020330284669641137,0.0008678811354532598,-0.0011651473315108548
1589986727.1824126,0.05,-4.374921231832503,8.73010502422333,0.4122222222222222,0.4222222222222222,-0.6944444444444444,-0.0038322281957019677,0.0016391102651375584,-0.001085102599710707
1589986727.1924126,0.05,-4.38458704421103,8.666696353688247,0.4122222222222222,0.4222222222222222,-0.6944444444444444,0.0012710167370635448,-0.0012710167370635448,-0.00041027592532291127
1589986727.2024126,0.054137209150184266,-4.367588372549447,8.667234882351659,0.4122222222222222,0.4222222222222222,-0.6944444444444444,0.004626390875883469,-0.0028211928380246676,-0.00026306774589764494
1589986727.2124126,0.056326510697470175,-4.35734697860506,8.73836744651265,0.4122222222222222,0.4222222222222222,-0.6944444444444444,0.006945700216015833,-0.0009795150018816214,-0.0017809460439558152
1589986727.2224126,0.040619140625,-4.37,8.77,0.408400390625,0.4201375868055556,-0.6944444444444444,0.0062714247878057966,0.00040863543766175825,-0.0014319284549138048
1589986727.2324126,0.02648246512223218,-4.36783917829259,8.767839178292588,0.4,0.4155555555555556,-0.6944444444444444,0.002801074180703334,-0.000383703532317405,-0.002181661564992912
1589986727.2424126,0.04370741121512184,-4.366292588784878,8.72853705607561,0.4,0.4155555555555556,-0.6944444444444444,0.001777245737310163,0.0018384540875860584,-0.0018384540875860584
1589986727.2524126,0.03427487535226534,-4.375725124647735,8.67139966760604,0.4,0.4155555555555556,-0.6944444444444444,0.003272492347489368,0.0007799530741240286,-0.0009353919283102423
1589986727.2624125,0.05578885291396855,-4.358422294172063,8.752633441258094,0.4,0.4155555555555556,-0.6944444444444444,0.002813127460383032,-0.00063146589539012,0.00045936488710633596
1589986727.2724125,0.06597632018137733,-4.359349119879082,8.77,0.39230769769044793,0.42206442674056116,-0.683201848761253,0.0004389153805063361,0.0017427461844865759,-0.0006519154019901199
1589986727.2824125,0.0710341290717488,-4.358965870928251,8.743102387215247,0.3855555555555555,0.42777777777777776,-0.6733333333333333,-0.003046880382581752,0.0003384179473614247,-0.001692649164971588
1589986727.2924125,0.06,-4.363803446535439,8.685213786141755,0.3855555555555555,0.42777777777777776,-0.6733333333333333,-0.004102275659576585,-0.002258583657810097,-0.0007528612192700322
1589986727.3024125,0.051772581285410124,-4.354113709357295,8.667023384215655,0.3855555555555555,0.42777777777777776,-0.6733333333333333,0.0011528496160940584,0.0,0.0
1589986727.3124125,0.04680726741532001,-4.3548945494385105,8.726807267415321,0.3855555555555555,0.42777777777777776,-0.6733333333333333,0.004734601972051631,-0.00018563942103290367,0.0
1589986727.3224125,0.0774421619647585,-4.3319183785264315,8.757442161964759,0.3855555555555555,0.42777777777777776,-0.6733333333333333,0.006405476271704652,-0.0010210765708594143,0.0
1589986727.3324125,0.04539625502736204,-4.34,8.770792510054724,0.4122222222222222,0.4155555555555556,-0.68,0.003445391220115561,0.0004157412367785827,-0.0005021906730916796
1589986727.3424125,0.04618431552728944,-4.352368631054579,8.679603898145238,0.4122222222222222,0.4155555555555556,-0.68,0.001090830782496456,0.0008324532158252886,0.0009329817412549793
1589986727.3524125,0.055891067930560874,-4.348217864138879,8.688910679305609,0.4122222222222222,0.4155555555555556,-0.68,0.0030186782546265042,0.0,0.0008964299169062133
1589986727.3624125,0.05067257159728373,-4.353991142604074,8.748654856805432,0.4122222222222222,0.4155555555555556,-0.68,0.002328393925342893,0.0005087323011607328,0.0
1589986727.3724124,0.04895462915446615,-4.3565680562683005,8.7834319437317,0.39481044331076026,0.41854043194037766,-0.6874621909620552,0.0004883992563765941,0.00011403226974326768,0.0
1589986727.3824124,0.06,-4.349120290022754,8.795439854988622,0.37333333333333335,0.4222222222222222,-0.6966666666666667,0.001090830782496456,-0.001090830782496456,0.0
1589986727.3924124,0.06,-4.36,8.73019100354632,0.37333333333333335,0.4222222222222222,-0.6966666666666667,0.002022852131094965,-0.0006248201081972016,-0.0013980320228977631
1589986727.4024124,0.06456158036562433,-4.36,8.681931062559372,0.37333333333333335,0.4222222222222222,-0.6966666666666667,0.003770083575454814,-0.0009951824559308925,-0.0017797186635930297
1589986727.4124124,0.06050970210440011,-4.36,8.723163432631868,0.37333333333333335,0.4222222222222222,-0.6966666666666667,0.005398554037943993,-0.002526738534312302,0.00034507696931938993
1589986727.4224124,0.04855053239163948,-4.351449467608361,8.74282579858746,0.37855865868377964,0.4222222222222222,-0.6928664300481603,0.007169456280498522,-0.0014070555595826909,0.00015811238854311735
1589986727.4324124,0.05570930655125706,-4.34,8.755709306551257,0.3855555555555555,0.4222222222222222,-0.6877777777777778,0.0037367323996919297,0.0001547466840675206,-0.0001547466840675206
1589986727.4424124,0.05,-4.345727145739562,8.721364271302189,0.3855555555555555,0.4222222222222222,-0.6877777777777778,0.00031236734342790024,-0.0007784634390685557,0.0007784634390685557
1589986727.4524124,0.05791045277441892,-4.3560447736127905,8.665820905548838,0.3855555555555555,0.4222222222222222,-0.6877777777777778,0.0002279342435143911,0.0008628965389820649,-0.00043144826949103243
1589986727.4624124,0.06833174451858914,-4.353336510962821,8.703346043851287,0.3855555555555555,0.4222222222222222,-0.6877777777777778,-0.0007268738960581723,0.0016357262353354864,-0.001090830782496456
1589986727.4724123,0.06,-4.37,8.772541044931211,0.3855555555555555,0.42052819226808175,-0.6824133495896662,0.0013680157855635862,1.790922977206442e-05,-0.0016452007886307162
1589986727.4824123,0.055586991395654074,-4.365586991395654,8.777793495697827,0.3855555555555555,0.4155555555555556,-0.6666666666666666,0.0009782001577323474,0.0025504155031330295,-0.0025504155031330295
1589986727.4924123,0.049732863261008446,-4.340267136738992,8.721335683694958,0.3855555555555555,0.4155555555555556,-0.6666666666666666,-0.0016799563204488402,0.0,-0.0005308453423468427
1589986727.5024123,0.06,-4.3570855629280825,8.697085562928082,0.3855555555555555,0.4155555555555556,-0.6666666666666666,0.001772745948191814,-0.000590915316063938,-0.0016817460985603938
1589986727.5124123,0.051151288223232595,-4.371151288223233,8.733273067665152,0.3855555555555555,0.4155555555555556,-0.6666666666666666,0.004720359426219887,-0.0006082084229196163,-0.0016990392054160722
1589986727.5224123,0.050796155791603445,-4.352802562805598,8.760796155791603,0.3855555555555555,0.4155555555555556,-0.6742639614829802,0.006544984694978735,0.0,-0.001090830782496456
1589986727.5324123,0.05430943757260986,-4.334769812524203,8.753849062621017,0.3855555555555555,0.4155555555555556,-0.6877777777777778,0.0048334098459307875,0.0017115748490479485,-0.0016613557321791053
1589986727.5424123,0.04529681747112523,-4.345890452413376,8.687625460230999,0.3855555555555555,0.4155555555555556,-0.6877777777777778,0.0009613197287819935,0.0003835265741051492,-0.002181661564992912
1589986727.5524123,0.05457353229923424,-4.36,8.668294129196937,0.3855555555555555,0.4155555555555556,-0.6877777777777778,-0.001090830782496456,-0.001183871601643611,-0.0031794515283422127
1589986727.5624123,0.05776328955597248,-4.357763289555972,8.701183552220137,0.3855555555555555,0.4155555555555556,-0.6877777777777778,-0.0003588690013334963,-0.0007319617811629597,-0.0036313613488228643
1589986727.5724123,0.05120559724828018,-4.3512055972482795,8.7339720137586,0.3855555555555555,0.4155555555555556,-0.6877777777777778,0.0017871307880778008,-0.0028779615705742567,-0.0014853615594115671
1589986727.5824122,0.066331493109697,-4.35,8.784497239664544,0.4044444444444445,0.4222222222222222,-0.6733333333333333,-0.001090830782496456,0.0006906587583221692,-0.0019815755529057687
1589986727.5924122,0.05,-4.35,8.74732215245211,0.4044444444444445,0.4222222222222222,-0.6733333333333333,-0.0012291246461068087,-0.0008142430552757506,-0.0009525369188861033
1589986727.6024122,0.05991657977059437,-4.359916579770594,8.676527632950991,0.4044444444444445,0.4222222222222222,-0.6733333333333333,-0.0014605075336031799,9.099735411857756e-06,0.0
1589986727.6124122,0.07955320101477392,-4.379106402029548,8.712233994926132,0.4044444444444445,0.4222222222222222,-0.6733333333333333,9.74764173345587e-05,-0.002084185147658353,-0.00014621462600183807
1589986727.6224122,0.06339662353775258,-4.362201125487416,8.76440225097483,0.3985747764780023,0.4251570562054433,-0.6733333333333333,0.002901978196336116,0.0,-0.002792281259927232
1589986727.6324122,0.037672122091015815,-4.365344244182031,8.784655755817967,0.37777777777777777,0.4355555555555555,-0.6733333333333333,0.0052002218243809364,-0.00025393208810134334,-0.0008368986943951126
1589986727.6424122,0.04008565365242515,-4.344957173173787,8.734443251259236,0.37777777777777777,0.4355555555555555,-0.6733333333333333,0.0032631489834195077,-0.0005407437092132978,-0.0005500870732831582
1589986727.6524122,0.05,-4.344812451992831,8.679624903985662,0.37777777777777777,0.4355555555555555,-0.6733333333333333,0.0011317474103796337,0.0,-0.0005658737051898169
1589986727.6624122,0.05,-4.35,8.703102205376883,0.37777777777777777,0.4355555555555555,-0.6733333333333333,-0.0003573072235923772,0.0,0.0
1589986727.6724122,0.05,-4.35,8.736337717686824,0.37777777777777777,0.43133041043100556,-0.679436320735461,-0.0008603848643777617,0.0,-0.0002304459181186943
1589986727.6824121,0.05,-4.345609049967831,8.751218099935663,0.37777777777777777,0.4155555555555556,-0.7022222222222222,-0.0014369350378478408,-0.0009579566918985605,-0.0015698091284457362
