time,acc_x,acc_y,acc_z,mag_x,mag_y,mag_z,gyr_x,gyr_y,gyr_z
1589986733.6288712,-3.77,-0.4,8.95,0.2644444444444444,-0.3944444444444444,-0.6222222222222222,0.00545415391248228,-0.002181661564992912,-0.001090830782496456
1589986733.6388712,-3.77,-0.41198354309224156,9.057851887830173,0.2644444444444444,-0.3944444444444444,-0.6222222222222222,0.006107754796901771,-0.002835262449412404,0.00021637098634252785
1589986733.6488712,-3.7744208481915433,-0.4111583036169129,9.147683392766174,0.2816366318560027,-0.39198841767136466,-0.6281166864776137,0.008473943611810536,-0.005683690993529117,0.002055310240912356
1589986733.6588712,-3.7743482688391037,-0.41130346232179227,9.181303462321791,0.3033333333333333,-0.3888888888888889,-0.6355555555555555,0.012757832522374536,-0.013658712119731593,0.0020394758825493823
1589986733.6688712,-3.7748510433252322,-0.42,9.11723435012151,0.3033333333333333,-0.3888888888888889,-0.6355555555555555,0.01682663386564774,-0.020628292951775873,3.249730521892981e-05
1589986733.6788712,-3.777029371012162,-0.4110881130364871,9.054853144939187,0.3033333333333333,-0.3888888888888889,-0.6355555555555555,0.021903271565252912,-0.026590640049569694,-0.0007667854281654983
1589986733.6888711,-3.7694043865181137,-0.39029780674094317,9.089702193259056,0.3033333333333333,-0.3888888888888889,-0.6355555555555555,0.02743319794253928,-0.03288735185502156,3.248567602557591e-05
1589986733.6988711,-3.740275673831457,-0.3756891845786421,9.08,0.2903675651086091,-0.38564744683270785,-0.6220495469881345,0.030073024893973007,-0.037648697671191826,0.0016212104986805908
1589986733.7088711,-3.723996158827996,-0.35600384117200407,9.025965429451963,0.2766666666666667,-0.38222222222222224,-0.6077777777777778,0.022031429751498053,-0.02922923688850948,0.002181661564992912
1589986733.718871,-3.7237706768685617,-0.36377067686856174,8.971146615657192,0.2766666666666667,-0.38222222222222224,-0.6077777777777778,0.014430952903365248,-0.019885106815847528,0.0013590274851780115
1589986733.728871,-3.729213826423674,-0.37157234715265197,8.942358520728977,0.2766666666666667,-0.38222222222222224,-0.6077777777777778,0.007550057243731021,-0.012403903520004107,0.00034303293497668224
1589986733.738871,-3.7333036901595746,-0.3833481549202128,9.00658514793883,0.2766666666666667,-0.38222222222222224,-0.6077777777777778,0.005819380957635785,-0.003637719392642873,0.003274917523971397
1589986733.748871,-3.749943001467627,-0.37,9.096761664220622,0.27852907380229136,-0.38631951792059643,-0.6126200363304019,0.003266274772122396,-0.002181661564992912,0.00072514799654198
1589986733.758871,-3.722447641779003,-0.37377617911049854,9.13,0.2822222222222222,-0.3944444444444444,-0.6222222222222222,-0.00014492094168911144,-0.0009459098408073445,0.0004119172413951891
1589986733.768871,-3.7176515918113178,-0.3761742040943411,9.120435510235854,0.2822222222222222,-0.3944444444444444,-0.6222222222222222,-0.003433650347425405,0.0025514843620010317,0.001090830782496456
1589986733.778871,-3.7462558160106147,-0.36374418398938524,9.091232551968156,0.2822222222222222,-0.3944444444444444,-0.6222222222222222,-0.009135073375066827,0.011177208950542722,0.0006824036674012769
1589986733.788871,-3.7383211753303067,-0.37167882466969343,9.108321175330307,0.2822222222222222,-0.3944444444444444,-0.6222222222222222,-0.009634345679656504,0.01582102504338519,0.0
1589986733.798871,-3.731891683413515,-0.3818916834135152,9.1,0.283483344497899,-0.390661077617414,-0.6222222222222222,-0.00913934755961172,0.018956824602079824,-0.0002063506498200368
1589986733.808871,-3.7422156949678564,-0.39,9.098522870021428,0.2888888888888889,-0.3744444444444445,-0.6222222222222222,-0.010988872767483233,0.021048044637507354,-0.0008491359549404356
1589986733.818871,-3.77,-0.39,9.010393895648587,0.2888888888888889,-0.3744444444444445,-0.6222222222222222,-0.01247369161543715,0.02556366100539462,0.002656214572969046
1589986733.828871,-3.7747751549833093,-0.399550309966619,8.958201239866476,0.2888888888888889,-0.3744444444444445,-0.6222222222222222,-0.014131746599354539,0.02461727296581934,0.0022307151380922996
1589986733.838871,-3.78,-0.41392614226630337,9.019630711331518,0.2888888888888889,-0.3744444444444445,-0.6222222222222222,-0.01355852821873273,0.019052965275935856,0.0015191064665508694
1589986733.848871,-3.7708071824131566,-0.41080718241315656,9.07757845276053,0.2813984449292387,-0.3805729895023401,-0.6222222222222222,-0.008234225584536932,0.009413106309369484,0.0025159218450463653
1589986733.858871,-3.753528576426763,-0.39352857642676325,9.132942847146474,0.2644444444444444,-0.3944444444444444,-0.6222222222222222,-0.0006420296511110263,0.0014757387609669274,0.0028875843690188965
1589986733.868871,-3.7569592794253936,-0.3969592794253939,9.098714955977757,0.2644444444444444,-0.3944444444444444,-0.6222222222222222,0.0005232057631175799,0.0018499704046178456,0.0028450438857430447
1589986733.878871,-3.7464082925655626,-0.3864082925655626,9.046408292565562,0.2644444444444444,-0.3944444444444444,-0.6222222222222222,-0.005623259366212784,0.0030498032980993024,0.003187939620624116
1589986733.888871,-3.747074542232723,-0.387074542232723,9.054149084465445,0.2644444444444444,-0.3944444444444444,-0.6222222222222222,-0.010589189886420648,0.008602885612185517,0.001090830782496456
1589986733.898871,-3.7759913241581624,-0.4159913241581624,9.111982648316324,0.26810580920776594,-0.3944444444444444,-0.6248850329591833,-0.012109641267011728,0.015271630954950384,0.0017443828644602847
1589986733.908871,-3.7835541561296506,-0.42033123419447616,9.123885390324126,0.2766666666666667,-0.3944444444444444,-0.6311111111111111,-0.007708079568585187,0.011052836007184548,0.003272492347489368
1589986733.918871,-3.768475928250395,-0.3996189820625987,9.083141677126777,0.2766666666666667,-0.3944444444444444,-0.6311111111111111,-0.003272492347489368,0.002056973736552717,0.0031893671285292383
1589986733.928871,-3.7393655698027706,-0.3931218566009235,8.938096709408311,0.2766666666666667,-0.3944444444444444,-0.6311111111111111,-0.003613034075372078,0.0009524195847998046,0.0021124559661445863
1589986733.938871,-3.76052982942491,-0.3978806823003593,9.003178976549462,0.2766666666666667,-0.3944444444444444,-0.6311111111111111,-0.004305527705369381,0.005338563063249395,0.004767891102300922
1589986733.948871,-3.77,-0.3700029542097489,9.062500738552437,0.27499950763170855,-0.38944296733956996,-0.6274989332020351,-0.0027269158290945377,0.002181339310699708,0.012544715125855845
1589986733.958871,-3.774161451657493,-0.4041614516574933,9.082484354972479,0.27,-0.3744444444444445,-0.6166666666666667,-0.0019987186960693693,-0.000182942868923543,0.015996575999599753
1589986733.9688709,-3.7736691815813512,-0.40683459079067563,9.068345907906757,0.27,-0.3744444444444445,-0.6166666666666667,-0.003617784927962246,0.001090830782496456,0.01854412330243975
1589986733.9788709,-3.758806582768635,-0.39820987415295256,9.004176960309778,0.27,-0.3744444444444445,-0.6166666666666667,-0.0042982323173690945,0.0008304675320295381,0.018869577365523398
1589986733.9888709,-3.743091020479608,-0.37,9.082364081918431,0.27,-0.3744444444444445,-0.6166666666666667,-0.003272492347489368,-0.003272492347489368,0.023323921157225376
1589986733.9988708,-3.75,-0.372922331244828,9.110974110414942,0.27,-0.37639266527432985,-0.6172078391194126,-0.003485010272723339,-0.0031662333848723827,0.021922874612546103
1589986734.0088708,-3.75,-0.38436079107879983,9.112180395539399,0.27,-0.3944444444444444,-0.6222222222222222,-0.0067336337003676555,-0.003034648090249829,0.02376043295768249
1589986734.0188708,-3.75322994427505,-0.36968983282514983,9.058010724424351,0.27,-0.3944444444444444,-0.6222222222222222,-0.008726646259971648,-0.004010990865888556,0.027907766110196627
1589986734.0288708,-3.7560616530011433,-0.39,9.009383469988565,0.27,-0.3944444444444444,-0.6222222222222222,-0.007437825218420094,-0.003272492347489368,0.03596378932664272
1589986734.0388708,-3.770216576497125,-0.40155232942692876,9.072888082356732,0.27,-0.3944444444444444,-0.6222222222222222,-0.004193990257638927,-0.003902574174911044,0.04084511273842661
1589986734.0488708,-3.8199862710700936,-0.43000343223247656,9.080003432232477,0.27000915261993746,-0.3944402494936397,-0.622226798532191,-0.0010878355946259753,-0.0054549027094499,0.04472593407477374
1589986734.0588708,-3.7640870005058167,-0.4121522508851796,9.093978249873546,0.2966666666666667,-0.38222222222222224,-0.6355555555555555,0.007635815477475192,-0.007201855735222555,0.0493102965103317
1589986734.0688708,-3.7493713823043002,-0.3668762058985667,9.0718858530871,0.2966666666666667,-0.38222222222222224,-0.6355555555555555,0.006954309324670333,-0.004500466236564157,0.04595203597142948
1589986734.0788708,-3.7692700046794574,-0.36145999064108564,9.01291998128217,0.2966666666666667,-0.38222222222222224,-0.6355555555555555,0.005374523775809633,-0.0003185205466905889,0.040894158778156796
1589986734.0888708,-3.7568107948389637,-0.38318920516103616,9.05956761548311,0.2966666666666667,-0.38222222222222224,-0.6355555555555555,0.004363323129985824,-0.0029717698654439057,0.0327720893089837
1589986734.0988708,-3.75,-0.3862839490606481,9.085574076409028,0.29171193208086416,-0.3834609058686729,-0.6316330573417952,0.003552606579191837,-0.0010133956884924836,0.030745941047599264
1589986734.1088707,-3.75,-0.3644257468610189,9.096064367152547,0.27,-0.3888888888888889,-0.6144444444444445,0.0,-0.003934012184125262,0.03224214938374003
1589986734.1188707,-3.747113279188163,-0.352886720811837,9.034019512693467,0.27,-0.3888888888888889,-0.6144444444444445,-0.0015744619610124904,0.00031489239220249806,0.035390216218402624
1589986734.1288707,-3.7401626228651668,-0.35983737713483327,8.970054207621724,0.27,-0.3888888888888889,-0.6144444444444445,-0.005465980180966387,0.001090830782496456,0.03929947384108269
1589986734.1388707,-3.762652721806435,-0.3318368195483912,8.998368195483913,0.27,-0.3888888888888889,-0.6144444444444445,-0.008036547338530469,0.0002893670603859019,0.04612662359604816
1589986734.1488707,-3.7358229386554083,-0.3385442653361479,9.06544265336148,0.27,-0.3888888888888889,-0.6144444444444445,-0.009499885005972703,-0.0026373082744985633,0.05124830543209598
1589986734.1588707,-3.761978274925643,-0.34802172507435664,9.139891374628217,0.27,-0.3744444444444445,-0.6355555555555555,-0.010045122550911499,-0.004147526811472559,0.05757453677393863
1589986734.1688707,-3.759550040644575,-0.34522497967771243,9.146037632094869,0.27,-0.3744444444444445,-0.6355555555555555,-0.005120092527386953,-0.0029875139139710115,0.06744469598441585
1589986734.1788707,-3.7328763412855506,-0.37438170642775287,9.064381706427753,0.27,-0.3744444444444445,-0.6355555555555555,0.001105490348174343,-0.001867901403468512,0.07622326404250655
1589986734.1888707,-3.7423419418005555,-0.4076580581994446,9.107025825401665,0.27,-0.3744444444444445,-0.6355555555555555,0.006034052253606545,-6.896589975207519e-05,0.08552676757634367
1589986734.1988707,-3.749074041378425,-0.4009259586215752,9.127222124135274,0.27,-0.3744444444444445,-0.6355555555555555,0.004565335963532268,0.0028684666803964805,0.0899329164465665
1589986734.2088706,-3.732217866070254,-0.3389106696487304,9.11891066964873,0.27,-0.3888888888888889,-0.6222222222222222,0.007151952161297708,-0.00012310415014148927,0.10423161516128805
1589986734.2188706,-3.6552620866165535,-0.32243062413091234,9.052584792728885,0.27,-0.3888888888888889,-0.6222222222222222,0.00518228707611998,0.003544359183851668,0.11642684626847494
1589986734.2288706,-3.406113428943937,-0.40956297262059976,8.97489074315515,0.27,-0.3888888888888889,-0.6222222222222222,0.005296943436997067,0.0063639380735813445,0.1397977442350437
1589986734.2388706,-3.461681476556046,-0.5283058292530577,9.001656088174252,0.27,-0.3888888888888889,-0.6222222222222222,0.01254524635941868,0.01835931794228278,0.18345545459091256
1589986734.2488706,-3.5130335400500017,-0.41941946167083344,8.963096204422222,0.26976348438441367,-0.3888888888888889,-0.6224802392574074,0.015039432292329949,0.0064816577869913445,0.2407284216983582
1589986734.2588706,-2.6745360246705916,-0.5106803102513784,9.202282029716848,0.2577777777777778,-0.3888888888888889,-0.6355555555555555,0.006563537279075021,0.003870864153232214,0.35234374542194374
1589986734.2688706,-1.4064733494851605,-0.8098659061848038,9.333972508244162,0.2577777777777778,-0.3888888888888889,-0.6355555555555555,0.02984700295244118,0.01683492382833126,0.4084139200122872
1589986734.2788706,-1.469984857662023,-0.7322407295241941,9.002301298876102,0.2577777777777778,-0.3888888888888889,-0.6355555555555555,0.08604103068391983,0.0607124523309927,0.435356262075325
1589986734.2888706,-1.715431862813859,-0.5171942067611166,8.804892691822134,0.2577777777777778,-0.3888888888888889,-0.6355555555555555,0.061820088011853125,0.029036350105479287,0.44400733809704435
1589986734.2988706,-1.7963290784121195,-0.5024856221068874,9.040230046289802,0.2577777777777778,-0.3888888888888889,-0.6355555555555555,-0.014391652300140861,-0.030328584453337082,0.4327761342615926
1589986734.3088706,-1.9276578438741543,-0.5472369268764093,9.356816009878665,0.2766666666666667,-0.3944444444444444,-0.6222222222222222,-0.04419308295159639,-0.054056474915866126,0.42106068204363206
1589986734.3188705,-1.9768319413476436,-0.4831680586523563,9.158038622878953,0.2766666666666667,-0.3944444444444444,-0.6222222222222222,-0.0017819939622453554,-0.01638830924512324,0.4198899177405861
1589986734.3288705,-2.0514266099743113,-0.41,8.886419744884401,0.2766666666666667,-0.3944444444444444,-0.6222222222222222,0.012702419601588468,0.002884942559120366,0.4150633593353212
1589986734.3388705,-2.070007783994162,-0.41000583799562146,8.97003113597665,0.2766666666666667,-0.3944444444444444,-0.6222222222222222,-0.00654838110315581,-0.016366494972157114,0.39378545469548815
1589986734.3488705,-2.1101856471159577,-0.43888611730425375,9.129071764420212,0.27631599989207994,-0.3944444444444444,-0.6224697517101658,-0.02373501474952317,-0.03682498413948064,0.37035594111799724
1589986734.3588705,-2.1194443831262,-0.3833337012427982,9.082778084368998,0.2588272763171772,-0.3944444444444444,-0.634814733057156,-0.010605386228447809,-0.02369535561840528,0.3440966840758466
1589986734.3688705,-2.1464628593729675,-0.3851528554702745,8.958689996097307,0.2577777777777778,-0.3944444444444444,-0.6355555555555555,0.00492541246645889,-0.011437049270987949,0.30672353722420226
1589986734.3788705,-2.1808891605541976,-0.36,8.90978076609617,0.2577777777777778,-0.3944444444444444,-0.6355555555555555,0.0012117378618929663,-0.014665762024003898,0.2700158239645207
1589986734.3888705,-2.1832473792023133,-0.36,9.023505241595373,0.2577777777777778,-0.3944444444444444,-0.6355555555555555,-0.007805900431391376,-0.019082506587788046,0.22370601009489044
1589986734.3988705,-2.1510405228057956,-0.3595540616546589,9.090297292230227,0.25787687518785357,-0.39462612302958333,-0.6355555555555555,-0.003240062795876462,-0.01626517308260812,0.18581861367141006
1589986734.4088705,-2.22,-0.3287822660563447,9.11,0.2644444444444444,-0.4066666666666667,-0.6355555555555555,-0.001090830782496456,-0.009020472040090086,0.13215946935802575
1589986734.4188704,-2.2135953341697467,-0.32,9.103595334169746,0.2644444444444444,-0.4066666666666667,-0.6355555555555555,-0.001265490948477544,-0.0033598224304799123,0.08163446750171174
1589986734.4288704,-2.1567061137296126,-0.32,9.046706113729611,0.2644444444444444,-0.4066666666666667,-0.6355555555555555,-0.0028169037696856706,-0.004135528841083975,0.041297734150300455
1589986734.4388704,-2.2025221961672194,-0.3681984313091291,9.118558745047302,0.2644444444444444,-0.4066666666666667,-0.6355555555555555,-0.0031152758207066656,-0.0016707078529491284,-0.03153555010727512
1589986734.4488704,-2.2500035578555835,-0.3342831729602976,9.091426538368237,0.2644444444444444,-0.4066666666666667,-0.6355555555555555,-0.00015561119644863378,0.007948202175889475,-0.07075110637869404
1589986734.4588704,-2.132087043355247,-0.3301739202796039,8.981739202796039,0.2577777777777778,-0.4066666666666667,-0.6077777777777778,0.012900251795265152,0.020536067272740342,-0.15280172785409976
1589986734.4688704,-2.2367962053757178,-0.33889968378130986,9.068996837813097,0.2577777777777778,-0.4066666666666667,-0.6077777777777778,0.003381920366820272,0.011017735844295466,-0.21181538271045802
1589986734.4788704,-2.2770322077738014,-0.37148389611309923,8.96,0.2577777777777778,-0.4066666666666667,-0.6077777777777778,0.010669061729806247,0.024202390078981974,-0.29490451544820667
1589986734.4888704,-2.2621709244233426,-0.3789145377883287,8.96,0.2577777777777778,-0.4066666666666667,-0.6077777777777778,0.020395748937455792,0.03068684821741501,-0.3459696232883668
1589986734.4988704,-2.2404262760957483,-0.38,9.05786861952126,0.2577777777777778,-0.4066666666666667,-0.6077777777777778,0.020749034621786885,0.030566511664254992,-0.4260246834425233
1589986734.5088704,-2.2763977499814967,-0.42479831248612243,9.135201687513877,0.2644444444444444,-0.4066666666666667,-0.6311111111111111,0.018893066433366378,0.02918995678250786,-0.5172676618782911
1589986734.5188704,-2.306369866163823,-0.4427397323276457,9.093664397737202,0.2644444444444444,-0.4066666666666667,-0.6311111111111111,0.02131976412739526,0.04045786668979762,-0.5968562678296385
1589986734.5288703,-2.294260220055461,-0.4128401467036407,9.029940513462742,0.2644444444444444,-0.4066666666666667,-0.6311111111111111,0.023223747352137735,0.04581489286485115,-0.67904499188244
1589986734.5388703,-2.315386401255401,-0.4292310668759002,9.0861553343795,0.2644444444444444,-0.4066666666666667,-0.6311111111111111,0.01879575607887453,0.045982648049141005,-0.7619006192277213
1589986734.5488703,-2.261288505771835,-0.4202147509619725,9.041073754809862,0.2644444444444444,-0.4066666666666667,-0.6311111111111111,0.021746338561962012,0.04794970303786599,-0.8445169287541707
1589986734.5588703,-2.278341283241874,-0.45,9.1,0.2822222222222222,-0.4266666666666667,-0.6311111111111111,0.02235942943969102,0.057446952409498236,-0.9514934733551337
1589986734.5688703,-2.272877705168463,-0.4512333022150556,9.09342238818637,0.2822222222222222,-0.4266666666666667,-0.6311111111111111,0.025403016935489346,0.06166949756193314,-1.0334214776654844
1589986734.5788703,-2.322712382245608,-0.47259102096240346,8.979514554867182,0.2822222222222222,-0.4266666666666667,-0.6311111111111111,0.030839136914641383,0.07176514895178691,-1.0971017402784085
1589986734.5888703,-2.3589789895436333,-0.5045945470536499,8.98153151568455,0.2822222222222222,-0.4266666666666667,-0.6311111111111111,0.037032559123126724,0.08404965773397988,-1.2051255651783033
1589986734.5988703,-2.3425837975178343,-0.5783729111697449,9.006124303723249,0.2822222222222222,-0.4266666666666667,-0.6311111111111111,0.03613834011579262,0.08494387674131398,-1.271297771721026
1589986734.6088703,-2.3588241875332976,-0.6652967501331913,9.08529675013319,0.3135958681110519,-0.40156774995560296,-0.6352942638962884,0.04113091662658487,0.08816490151724465,-1.3474349797271192
1589986734.6188703,-2.373808729496803,-0.6976174589936057,9.083095635251599,0.31555555555555553,-0.4,-0.6355555555555555,0.04446416717532121,0.09212304018278278,-1.395222002399719
1589986734.6288702,-2.3893334622823987,-0.7660007736943907,8.986665377176015,0.31555555555555553,-0.4,-0.6355555555555555,0.04886926125432411,0.1029745524631141,-1.4748767698908716
1589986734.6388702,-2.3802454404346136,-0.760245440434614,8.999509119130773,0.31555555555555553,-0.4,-0.6355555555555555,0.048023327827978676,0.10256486695280148,-1.532369410283286
1589986734.6488702,-2.389098203965502,-0.8236874277585133,9.072785631724015,0.31555555555555553,-0.4,-0.6355555555555555,0.04204179385924358,0.10154563345956677,-1.5873009253254213
1589986734.6588702,-2.3823952708805876,-0.8376047291194122,9.08,0.34174962252242,-0.38056569225039094,-0.6642845322288908,0.04311066425806574,0.10559499908017143,-1.6398971363560375
1589986734.6688702,-2.4329280558513786,-0.8937646432374867,9.035398769376405,0.35,-0.3744444444444445,-0.6733333333333333,0.04908738521234052,0.11681015125442228,-1.704885774604902
1589986734.6788702,-2.4908306709265178,-0.9682108626198083,8.9444089456869,0.35,-0.3744444444444445,-0.6733333333333333,0.04908738521234052,0.11861477853759383,-1.7463922021178482
1589986734.6888702,-2.5212734494347693,-0.9833958651593848,8.98,0.35,-0.3744444444444445,-0.6733333333333333,0.050409735635403484,0.12226565549582967,-1.802952690810521
1589986734.6988702,-2.546903146959975,-1.0517417252266015,8.98,0.35,-0.3744444444444445,-0.6733333333333333,0.055069346136498186,0.12412949969626752,-1.8430253411199353
1589986734.7088702,-2.524068652429703,-1.153345532033168,9.007034326214852,0.37666666666666665,-0.36777777777777776,-0.6877777777777778,0.0545415391248228,0.12483996644294836,-1.8959507642080111
1589986734.7188702,-2.493535323609845,-1.2323568824065634,8.984107793983592,0.37666666666666665,-0.36777777777777776,-0.6877777777777778,0.055184279094773706,0.1280128455340559,-1.9390563491318331
1589986734.7288702,-2.522409536818577,-1.2588349683347821,8.943212715758103,0.37666666666666665,-0.36777777777777776,-0.6877777777777778,0.05999569303730508,0.1310749203617922,-1.9800899071279279
1589986734.7388701,-2.5478829715402185,-1.361411352306521,8.983528380766302,0.37666666666666665,-0.36777777777777776,-0.6877777777777778,0.0600726703643501,0.1333892647727477,-2.0231437476111473
1589986734.7488701,-2.529805910325111,-1.373462726449926,9.013656816124815,0.37666666666666665,-0.36777777777777776,-0.6877777777777778,0.06072997085870051,0.13601846675014934,-2.048121166396463
1589986734.7588701,-2.4786685906271537,-1.4874616643694003,8.996934872501724,0.417998076039513,-0.34297893215407,-0.7070657688184394,0.06559508118258786,0.14285494742989702,-2.09503350340292
1589986734.76887,-2.46,-1.506652856346108,8.997224523942315,0.4266666666666667,-0.3377777777777778,-0.7111111111111111,0.061117703450366476,0.14538325154400908,-2.1613230376554857
1589986734.77887,-2.46,-1.606907019361007,8.980515496773165,0.4266666666666667,-0.3377777777777778,-0.7111111111111111,0.05473835103677907,0.1472059236621769,-2.2096238487869324
1589986734.78887,-2.346102692226866,-1.61,8.856611249912438,0.4266666666666667,-0.3377777777777778,-0.7111111111111111,0.06800116380575025,0.160721780317949,-2.2504575144184114
1589986734.79887,-2.3850778787947493,-1.6731090303126488,8.976218060625298,0.4266666666666667,-0.3377777777777778,-0.7111111111111111,0.061838212005422805,0.15455882851762157,-2.2987875633862003
1589986734.80887,-2.375730983055993,-1.7085380338880138,9.047076067776029,0.45520470055468065,-0.29021438796442117,-0.726172851218674,0.051747474068709734,0.15069412374830302,-2.343525574074655
1589986734.81887,-2.360614378627876,-1.7950849709769914,8.976143786278762,0.4666666666666667,-0.27111111111111114,-0.7322222222222222,0.06744899137042593,0.16787244167203938,-2.392228981597656
1589986734.82887,-2.36,-1.919892946771731,8.88536968463172,0.4666666666666667,-0.27111111111111114,-0.7322222222222222,0.07026096184954511,0.17754119532442683,-2.424376707348954
1589986734.83887,-2.3863569032979317,-1.97,8.920285075461152,0.4666666666666667,-0.27111111111111114,-0.7322222222222222,0.06802890871740301,0.1801195458461228,-2.4627917974008824
1589986734.84887,-2.318883342577186,-2.0174111049485424,8.953705552474272,0.4666666666666667,-0.27111111111111114,-0.7322222222222222,0.06849346672661427,0.18257295374741725,-2.4965369366386776
1589986734.85887,-2.2436751107543187,-2.1351797341896352,8.966205066452591,0.4866666666666667,-0.20444444444444448,-0.7466666666666667,0.06544984694978735,0.1853032453466961,-2.536634744254709
1589986734.86887,-2.2124981417060625,-2.2100044599054502,8.947498885023638,0.4866666666666667,-0.20444444444444448,-0.7466666666666667,0.06544984694978735,0.18462306939584056,-2.5549994949278085
1589986734.87887,-2.244621421975993,-2.284621421975993,8.850757156048015,0.4866666666666667,-0.20444444444444448,-0.7466666666666667,0.0635028701237803,0.18921784430691865,-2.5837782531702524
1589986734.88887,-2.2015633557381133,-2.319061986557132,8.830312671147622,0.4866666666666667,-0.20444444444444448,-0.7466666666666667,0.06221146173356051,0.19931506901548873,-2.5990404691139046
1589986734.89887,-2.172957662228327,-2.446197576267807,8.857042337771672,0.4866666666666667,-0.20444444444444448,-0.7466666666666667,0.061194067453231075,0.1966721717496507,-2.608299339030657
1589986734.90887,-2.1546729621453684,-2.46,8.867663518927316,0.5122117297577194,-0.19082041079588297,-0.7807267507880704,0.061086523819801536,0.20136530225825824,-2.614282993140419
1589986734.91887,-2.0992368916115964,-2.4522893251652116,8.859236891611596,0.52,-0.18666666666666668,-0.7911111111111111,0.06297683764263619,0.20748676475745098,-2.618097930756551
1589986734.92887,-2.061385198414427,-2.572216317463083,8.82,0.52,-0.18666666666666668,-0.7911111111111111,0.04820809681968917,0.21907566523334898,-2.6235689132696027
1589986734.93887,-2.1070608093391994,-2.645297294942719,8.82,0.52,-0.18666666666666668,-0.7911111111111111,0.05518350755653941,0.21309674174462018,-2.6275548622620875
1589986734.94887,-2.084771353876484,-2.675228646123516,8.88727638966271,0.52,-0.18666666666666668,-0.7911111111111111,0.05196301206835376,0.22372007610370537,-2.624141997194997
1589986734.95887,-2.0413974206053376,-2.7186025793946627,8.867831183837781,0.5285783509765917,-0.18666666666666668,-0.7760989969020757,0.05126904677733343,0.21948563969364723,-2.615728070224609
1589986734.96887,-2.0027493098362514,-2.817628105736868,8.841374654918125,0.5333333333333333,-0.18666666666666668,-0.7677777777777778,0.04844640919984458,0.2159844949342983,-2.596394826216575
1589986734.97887,-2.0143828493119824,-2.9162970958718955,8.78246860275207,0.5333333333333333,-0.18666666666666668,-0.7677777777777778,0.04172085252203664,0.2073554048110631,-2.581444196960957
1589986734.98887,-1.9796935218880034,-2.9439842154559552,8.763064781119965,0.5333333333333333,-0.18666666666666668,-0.7677777777777778,0.041485001310738054,0.1948909627322657,-2.541623311995439
1589986734.99887,-1.9732533357900717,-3.0277066347290678,8.827466642099283,0.5333333333333333,-0.18666666666666668,-0.7677777777777778,0.04218751663480102,0.18716329416757302,-2.518440306301361
1589986735.00887,-1.8153969853649987,-2.924491280343528,8.814528525107352,0.5555638321697388,-0.17150950836911752,-0.8213330704291181,0.04849460266197153,0.17631533562402657,-2.456135419947673
1589986735.0188699,-1.8558477617688764,-3.0566003746433013,8.879809702211096,0.5577777777777778,-0.17,-0.8266666666666667,0.046802868049677294,0.16724719305216426,-2.4084524478998226
1589986735.0288699,-1.8974360324486201,-3.1290842973030784,8.743845951327069,0.5577777777777778,-0.17,-0.8266666666666667,0.044744039616143025,0.16677724451922774,-2.32893576458786
1589986735.0388699,-1.8008138482549816,-3.0945763743767793,8.888779227617528,0.5577777777777778,-0.17,-0.8266666666666667,0.04549688570750348,0.162260167971065,-2.288282075654395
1589986735.0488698,-1.7746846491892712,-3.1167116229731775,8.839865131080467,0.5577777777777778,-0.17,-0.8266666666666667,0.0442130461282693,0.160352125026979,-2.228660750638202
1589986735.0588698,-1.7866684087802525,-3.1966840878025247,8.866684087802525,0.5103579820070936,-0.1396216933344054,-0.7281224035807135,0.05236215798118108,0.1552602511295407,-2.1718332559490254
1589986735.0688698,-1.7511694026709523,-3.2591229479967856,8.890292350667739,0.4866666666666667,-0.12444444444444445,-0.6788888888888889,0.041898036885578305,0.13895008601699768,-2.0896997673225988
1589986735.0788698,-1.681179897337949,-3.3288201026620508,8.860505670287692,0.4866666666666667,-0.12444444444444445,-0.6788888888888889,0.052176010654626945,0.13639062119309756,-2.01706880762779
1589986735.0888698,-1.6146954888919054,-3.302012352382245,8.748049409528981,0.4866666666666667,-0.12444444444444445,-0.6788888888888889,0.04523626046457074,0.12821257113176082,-1.9446191151008594
1589986735.0988698,-1.6483588875548645,-3.376717775109729,8.724656444978054,0.4866666666666667,-0.12444444444444445,-0.6788888888888889,0.055603256467417955,0.129300923765172,-1.8792431316075788
1589986735.1088698,-1.5390369311116638,-3.3060134294951506,8.830496559728093,0.5077777777777778,-0.027777777777777776,-0.6344444444444445,0.0279593095844311,0.09664540993318047,-1.7904629294905126
1589986735.1188698,-1.2521847799054961,-3.2017035563292713,10.151754953162564,0.5077777777777778,-0.027777777777777776,-0.6344444444444445,0.04597517617430775,0.11371307301832677,-1.715554852616815
1589986735.1288698,-1.2925372552839194,-2.9089181357748126,8.296158322781729,0.5077777777777778,-0.027777777777777776,-0.6344444444444445,0.08657041651382673,0.18585227340520816,-1.6092319093168435
1589986735.1388698,-1.155811712231935,-2.9482997152585573,7.407002847414429,0.5077777777777778,-0.027777777777777776,-0.6344444444444445,0.1724927299709606,0.15416970076332245,-1.532104838484005
1589986735.1488698,-1.2138955263862845,-3.08188748995446,8.72445700508974,0.5077777777777778,-0.027777777777777776,-0.6344444444444445,-0.08392810546294915,-0.022959927870554786,-1.514287785706694
1589986735.1588697,-1.38,-3.33,9.02,0.52,0.08,-0.6055555555555555,-0.03381575425739013,0.025089107997418484,-1.4028083862904424
1589986735.1688697,-1.3106893493142895,-3.239029770975005,8.57381268621074,0.52,0.08,-0.6055555555555555,0.025251582713572356,0.07376059366149158,-1.3446861267110153
1589986735.1788697,-1.3145576089774453,-3.2965075367578978,8.66451094403911,0.52,0.08,-0.6055555555555555,0.03996264086227147,0.08174564927494876,-1.2280653021439132
1589986735.1888697,-1.3159252227527352,-3.345925222752735,8.657443324937029,0.52,0.08,-0.6055555555555555,0.00982654030059554,0.0444995516451662,-1.1531556098418594
1589986735.1988697,-1.3366508224190405,-3.5082778784666413,8.800718462538043,0.52,0.08,-0.6055555555555555,0.04044429607553654,0.059990508019394234,-1.0519887315599463
1589986735.2088697,-1.317684610512983,-3.5124217859404685,8.786633312222927,0.5168655267046653,0.127017099430019,-0.6055555555555555,0.04126794540175097,0.051475883215762464,-0.9673607584723951
1589986735.2188697,-1.2613442011466465,-3.460672100573323,8.787311597706706,0.5155555555555555,0.14666666666666667,-0.6055555555555555,0.04235911351878316,0.04472406208235469,-0.8655597965336602
1589986735.2288697,-1.26,-3.46,8.77259151458497,0.5155555555555555,0.14666666666666667,-0.6055555555555555,0.03874445816389094,0.039976634140516144,-0.7916357298271184
1589986735.2388697,-1.2435063500828272,-3.4847404748757596,8.74525952512424,0.5155555555555555,0.14666666666666667,-0.6055555555555555,0.036379899282838725,0.03657114101306657,-0.7189631956609283
1589986735.2488697,-1.24,-3.454296710841118,8.847109867476648,0.5155555555555555,0.14666666666666667,-0.6055555555555555,0.035218490885365425,0.035997415822383035,-0.6504638457469561
1589986735.2588696,-1.2119942397457542,-3.4773410136723277,8.79664746581918,0.5238535585938506,0.18400768033899428,-0.6273378135310801,0.026760039607207395,0.03294246128512835,-0.5488897127493364
1589986735.2688696,-1.2174660210510573,-3.569592252612687,8.8945242947148,0.5244444444444445,0.18666666666666668,-0.6288888888888889,0.02617993877991494,0.026209591006685865,-0.48215248779378683
1589986735.2788696,-1.2050741324921135,-3.570148264984227,8.76581545741325,0.5244444444444445,0.18666666666666668,-0.6288888888888889,0.01803914091338185,0.014229319775082317,-0.3987372774236961
1589986735.2888696,-1.207651226158038,-3.605907356948229,8.740604904632153,0.5244444444444445,0.18666666666666668,-0.6288888888888889,0.016940869558356404,0.01090830782496456,-0.31149252590923593
1589986735.2988696,-1.223970630997383,-3.6525981389938935,8.824510031986042,0.5244444444444445,0.18666666666666668,-0.6288888888888889,0.01389738717327958,0.00786038895639566,-0.25061290067896846
1589986735.3088696,-1.2378023698688108,-3.6790118493440542,8.890221328819297,0.5305489725866366,0.19203865143179574,-0.6301097945173274,0.009817477042468105,0.0019660805343429564,-0.1673075446135014
1589986735.3188696,-1.195997396210039,-3.58656733690149,8.849145088962825,0.5522222222222222,0.2111111111111111,-0.6344444444444445,0.009817477042468105,-0.006544984694978735,-0.0370882466048795
1589986735.3288696,-1.1803143979992854,-3.53,8.798742408002859,0.5522222222222222,0.2111111111111111,-0.6344444444444445,0.009817477042468105,-0.010238246472562901,0.01904933241439983
1589986735.3388696,-1.18424598784867,-3.61631018226995,8.81178610936197,0.5522222222222222,0.2111111111111111,-0.6344444444444445,0.006051484895950447,-0.01513746539622573,0.12239006651071019
1589986735.3488696,-1.1853507556675063,-3.5783356423173807,8.796492443324937,0.5522222222222222,0.2111111111111111,-0.6344444444444445,-0.00022956904755057654,-0.023290061511676532,0.20983112398560494
1589986735.3588696,-1.1419883402526279,-3.5060038865824574,8.830019432912287,0.5797844713364544,0.23067141693411458,-0.6468919117863557,-0.005018245559862019,-0.0266158471325352,0.27424397386774296
1589986735.3688695,-1.13,-3.526428504672897,8.90749976635514,0.5866666666666667,0.23555555555555555,-0.65,-0.009038297633998908,-0.028868046571052415,0.31408122508196984
1589986735.3788695,-1.1554168210448312,-3.5617710263060394,8.837395331604297,0.5866666666666667,0.23555555555555555,-0.65,-0.004965523154409581,-0.03361124874574018,0.3408052018759148
1589986735.3888695,-1.146975661886376,-3.487902647545505,8.705577426916712,0.5866666666666667,0.23555555555555555,-0.65,-0.003018850123691154,-0.036834604381081285,0.3732680567138113
1589986735.3988695,-1.1534979771058231,-3.480246965658735,8.808230782505321,0.5866666666666667,0.23555555555555555,-0.65,-0.010634496811721579,-0.03856064749772595,0.39212451989796143
1589986735.4088695,-1.1850013340448238,-3.523335112059765,8.878333778014941,0.7237110162457013,0.2503711609154512,-0.6740753587098304,-0.010544503535177855,-0.03926990816987242,0.41451657047894874
1589986735.4188695,-1.225081539155411,-3.4773776912668835,8.853688845633442,0.7511111111111111,0.2533333333333333,-0.6788888888888889,-0.013644279323275808,-0.040226608740074346,0.43118199767896964
1589986735.4288695,-1.2377343684254818,-3.5241405789783724,8.795859421021627,0.7511111111111111,0.2533333333333333,-0.6788888888888889,-0.015024488888622345,-0.04036073895236887,0.4558394159876403
1589986735.4388695,-1.221022706519754,-3.5020454130395082,8.786325764493414,0.7511111111111111,0.2533333333333333,-0.6788888888888889,-0.01734173254462254,-0.04243084054204103,0.48942357244423534
1589986735.4488695,-1.2173425130148168,-3.472657486985183,8.819370052059266,0.7511111111111111,0.2533333333333333,-0.6788888888888889,-0.018143651341567594,-0.04403370326073039,0.5266801381829554
1589986735.4588695,-1.2293237940465338,-3.4583094851163345,8.86459035237227,0.7725994336323718,0.25904351694038164,-0.6970337486402333,-0.01826468141622648,-0.04435524894768051,0.5663199186125825
1589986735.4688694,-1.2353832180823614,-3.4498879141294254,8.76439261017649,1.3866666666666667,0.4222222222222222,-1.2155555555555555,-0.037496027500142394,-0.041726838726835996,0.6586926007091953
1589986735.4788694,-1.2712025442258001,-3.5375949115484,8.7940190816935,1.3866666666666667,0.4222222222222222,-1.2155555555555555,-0.02910378157497849,-0.05467271635070439,0.7346434180743152
1589986735.4888694,-1.2551014773126978,-3.5697970453746044,8.783477840309532,1.3866666666666667,0.4222222222222222,-1.2155555555555555,-0.025133385827984824,-0.0566567839439662,0.8017636371017058
1589986735.4988694,-1.2817136553076736,-3.583964206913459,8.836214758519246,1.3866666666666667,0.4222222222222222,-1.2155555555555555,-0.02463715800418019,-0.06345511618081431,0.84719336620073
1589986735.5088694,-1.3339732461780256,-3.566160522931847,8.827812723246177,1.1880043577653951,0.11319196393135522,-1.106070549761077,-0.02597052779118344,-0.06872233929727672,0.8852482217319813
1589986735.5188694,-1.3371568287438442,-3.5214704862315322,8.867156828743843,0.8866666666666667,-0.3555555555555556,-0.94,-0.02306785159708483,-0.06965276491511392,0.9035073613229717
1589986735.5288694,-1.348812466890341,-3.468645888516099,8.791020954735417,0.8866666666666667,-0.3555555555555556,-0.94,-0.021409825466721967,-0.07062675044618748,0.9213815627899624
1589986735.5388694,-1.3526391228908392,-3.346947720471748,8.845691402419092,0.8866666666666667,-0.3555555555555556,-0.94,-0.021013668516244498,-0.06981317007977318,0.9363264672413301
1589986735.5488694,-1.3622396715122502,-3.31,8.861640492731626,0.8866666666666667,-0.3555555555555556,-0.94,-0.019390643822111916,-0.07248345217041467,0.94187558582009
1589986735.5588694,-1.4146827089044574,-3.302552881849257,8.924471181507428,0.681457188735085,-0.05436099923662113,-0.7894027218405327,-0.024230605306242645,-0.07336413863778717,0.9508798180071809
1589986735.5688694,-1.4528025984356356,-3.307600866145212,8.896793936983517,0.6111111111111112,0.048888888888888885,-0.7377777777777778,-0.028667316409364638,-0.07391478830374579,0.9600191109137685
1589986735.5788693,-1.46,-3.282447871656806,8.797343614970417,0.6111111111111112,0.048888888888888885,-0.7377777777777778,-0.02794969564140186,-0.07417649320975901,0.9673723243628829
1589986735.5888693,-1.4665187625589982,-3.2308874246460113,8.818668863030982,0.6111111111111112,0.048888888888888885,-0.7377777777777778,-0.0272707695624114,-0.0755986665823871,0.9768594325024899
1589986735.5988693,-1.4985515202702702,-3.23855152027027,8.855710304054053,0.6111111111111112,0.048888888888888885,-0.7377777777777778,-0.028516564650326693,-0.07448946214287898,0.9862629513599327
1589986735.6088693,-1.5249990754010447,-3.255000924598955,8.879996301604178,0.5916702623292702,0.08888149209724726,-0.7233360043969816,-0.028907116594256262,-0.07472160602670669,0.9964728103714103
1589986735.6188693,-1.5047074757916368,-3.25,8.843091820531184,0.5722222222222222,0.1288888888888889,-0.7088888888888889,-0.02767185374556987,-0.07497866157607595,1.005232475511595
1589986735.6288693,-1.5163905066339711,-3.2763905066339714,8.803402373341507,0.5722222222222222,0.1288888888888889,-0.7088888888888889,-0.028710148412512036,-0.07633556148490996,1.0068368122442288
1589986735.6388693,-1.53,-3.2481270319562285,8.791625406391246,0.5722222222222222,0.1288888888888889,-0.7088888888888889,-0.027168615002572505,-0.07562193265738293,1.0036394696694642
1589986735.6488693,-1.525985736504685,-3.1960213952429726,8.798064185728917,0.5722222222222222,0.1288888888888889,-0.7088888888888889,-0.02443616543389618,-0.07396143886521085,0.9948221145770121
1589986735.6588693,-1.5438287251628797,-3.22,8.876765745032577,0.5804914661509262,0.12287489330437695,-0.7427176140517685,-0.023227825600692417,-0.07449687237802585,0.9545055039778501
1589986735.6688693,-1.5722354066985647,-3.2567062200956935,8.922823923444977,0.5844444444444444,0.12,-0.7588888888888888,-0.022483953563086998,-0.07108364868778891,0.9162077724199613
1589986735.6788692,-1.555551855510089,-3.2922240722449554,8.864431494285311,0.5844444444444444,0.12,-0.7588888888888888,-0.017573688715522343,-0.06514613207748285,0.8608415410441442
1589986735.6888692,-1.5762512334291476,-3.378544339096486,8.870418722381913,0.5844444444444444,0.12,-0.7588888888888888,-0.015498932216719882,-0.05690482642523415,0.7905325886254733
1589986735.6988692,-1.6104016117605386,-3.3623895235565002,8.883995970598654,0.5844444444444444,0.12,-0.7588888888888888,-0.012958542248655096,-0.05004678885353459,0.719462021534529
1589986735.7088692,-1.6007180235323968,-3.312854650978402,8.924273254892011,0.5501653751687052,0.05287015600167737,-0.7074702849752801,-0.007714139694644706,-0.04269904895170081,0.6263813555676022
1589986735.7188692,-17.119946397714852,-9.129530627358324,6.114736396656911,0.5311111111111111,0.015555555555555557,-0.6788888888888889,-0.13576752193884012,0.6051618900192492,0.2952544681694328
1589986735.7288692,-5.600666587546481,-6.936523459134425,0.2704110293535882,0.5311111111111111,0.015555555555555557,-0.6788888888888889,-0.44519113801821797,1.5195674126478236,-3.161198177079205
1589986735.7388692,3.993096287524944,-0.654386334232397,-1.7142874372300068,0.5311111111111111,0.015555555555555557,-0.6788888888888889,0.10873901075462489,-0.2980103627563728,-6.250246513607849
1589986735.7488692,1.471451633623089,-0.8599554661071382,-0.2700612341026849,0.5311111111111111,0.015555555555555557,-0.6788888888888889,0.3882314072662035,-0.37553702927336674,-6.557302959861451
1589986735.7588692,0.12892400806993942,-1.4371351714862137,0.26424344317417614,0.5392602555480833,0.09122618247029815,-0.652695210341478,0.42688235863400986,0.14202367371516061,-6.261501469183748
1589986735.7688692,-0.28476891092275713,-0.8555829201983047,-0.06279066048296818,0.5466666666666666,0.16,-0.6288888888888889,0.4189932846978195,0.19722475243352725,-5.896866879039249
1589986735.7788692,-0.12931855500821018,-0.47151888341543513,-0.3150246305418719,0.5466666666666666,0.16,-0.6288888888888889,0.3320755788268296,0.2086227305401104,-5.598624508555228
1589986735.7888691,-0.16238441298082948,-0.4507116902643779,-0.09861295576995366,0.5466666666666666,0.16,-0.6288888888888889,0.21747538356673424,0.181757338514859,-5.344857752514815
1589986735.7988691,0.7666656963446584,0.0998428078346571,4.079637792656048,0.5466666666666666,0.16,-0.6288888888888889,0.09274511223401637,0.14273779581730883,-5.125938457594982
1589986735.8088691,5.768192118661526,0.7948747755966921,8.800301068306894,0.5006833632537744,0.23663883902148714,-0.6434502683029715,0.4038454981176372,0.9462384479605712,-4.872004082747537
1589986735.818869,2.0125493444312,0.30293601890947286,2.050607284995656,0.48,0.27111111111111114,-0.65,0.4223113943858975,1.3545869398802477,-4.569513485516771
1589986735.828869,-1.8765147629862993,-0.3320521649937725,4.525647300168511,0.48,0.27111111111111114,-0.65,0.07199517796562405,0.9012949979679454,-4.277421065006356
1589986735.838869,2.4176029049272447,-0.7241058602136288,16.018219406822336,0.48,0.27111111111111114,-0.65,0.0010404367075437515,-0.5931301089353069,-3.9342196345340743
1589986735.848869,2.274078683101642,-2.105797463867995,12.998128421218446,0.48,0.27111111111111114,-0.65,-0.09212558470879822,-1.2498499228748756,-3.6029177414219395
1589986735.858869,0.9775317088340478,-2.0453368577711633,7.608385570536885,0.4415884651171974,0.31351345481290616,-0.6300459559050376,0.12271956551648192,-0.5845732093405814,-3.183697694422931
1589986735.868869,1.4961916674684885,-1.215498123737131,10.114842490137592,0.3944444444444444,0.3655555555555556,-0.6055555555555555,0.2740165456216015,0.6260859854078147,-2.703730007757466
1589986735.878869,0.8148732836406434,-1.7139285994507651,13.23533150255002,0.3944444444444444,0.3655555555555556,-0.6055555555555555,-0.21085771863994454,1.0303324257333288,-2.3123790400822917
1589986735.888869,0.7780375577993772,-1.6606460318958196,7.160006416910446,0.3944444444444444,0.3655555555555556,-0.6055555555555555,-0.04235818321356298,0.154067840345188,-2.0452305344951216
1589986735.898869,0.9364137162664026,-2.5665780514978955,10.229569819262194,0.3944444444444444,0.3655555555555556,-0.6055555555555555,0.03420273721294092,0.12221733985260862,-1.798085598875453
1589986735.908869,0.6576532339267733,-2.56309317222615,9.79669301797459,0.3738755704094093,0.392453313909063,-0.6166311031128822,0.021415169730488626,0.1267925034554119,-1.498004539232983
1589986735.918869,0.6445937881459379,-2.313781364437814,8.560956869659568,0.3511111111111111,0.4222222222222222,-0.6288888888888889,0.005319150102767373,0.07957679354773585,-1.153272374692344
1589986735.928869,0.42191757392362594,-2.4318067295990526,9.045277604183797,0.3511111111111111,0.4222222222222222,-0.6288888888888889,0.007563214218113231,0.09739682290497971,-0.8523243256518892
1589986735.938869,0.31,-2.6929712768525222,9.6372773352643,0.3511111111111111,0.4222222222222222,-0.6288888888888889,0.05426244652780464,0.017457768533291698,-0.5618994952307903
1589986735.948869,0.3270121508154368,-2.6184750928467624,9.20371689811077,0.3511111111111111,0.4222222222222222,-0.6288888888888889,-0.03690838634607492,0.024736675243998883,-0.22485123800254186
1589986735.958869,0.34,-2.5757885105548657,8.985548656950526,0.330276162051863,0.4460335925756487,-0.6326094155066118,-0.007870863454070884,0.010967764910946,0.08228440080158564
1589986735.968869,0.34,-2.48,8.5,0.32,0.4577777777777778,-0.6344444444444445,0.04581489286485115,0.017453292519943295,0.17344209441693648
1589986735.978869,0.31340698308783416,-2.8081478450627384,9.065921985815603,0.32,0.4577777777777778,-0.6344444444444445,-0.036886207842927766,-0.04810962472371985,0.5041352122746059
1589986735.988869,0.25579574998388516,-2.8624935003545264,8.7970295008702,0.32,0.4577777777777778,-0.6344444444444445,-0.01392180960184767,-0.05520994573953314,0.834886456637863
1589986735.998869,0.25,-2.99,9.052355590530087,0.32,0.4577777777777778,-0.6344444444444445,-3.0135465142799855e-05,-0.07855077469070586,1.064279392146799
1589986736.008869,0.25,-2.99,8.890836486622243,0.32,0.4577777777777778,-0.6344444444444445,-0.03373605051806697,-0.09080747107358737,1.2588544472250431
1589986736.018869,0.17692224156977288,-3.074997285101762,8.989989140407047,0.3411111111111111,0.4933333333333334,-0.6644444444444444,-0.042080917967033046,-0.11017390903214204,1.6080969227724589
1589986736.028869,0.12278397852500707,-2.9331516671376097,8.382238979937835,0.3411111111111111,0.4933333333333334,-0.6644444444444444,-0.04636639582545635,-0.11624760797791561,1.8135731391632848
1589986736.038869,0.09942152815864677,-3.2152169269405078,9.002179949773403,0.3411111111111111,0.4933333333333334,-0.6644444444444444,-0.04777569921786964,-0.14661420032592806,2.102407196710576
1589986736.048869,-1.478141487053671,-7.118219955797968,8.159441797278939,0.3411111111111111,0.4933333333333334,-0.6644444444444444,-0.04317711677205674,-0.15392934151355897,2.29205616604127
1589986736.058869,-3.5040197898794276,-14.546362845794063,7.347289350600512,0.34705089534971784,0.48328139077569127,-0.6763240129216579,-0.18353510577250512,-0.20566755907043704,3.1373736738284452
1589986736.0688689,6.80126337611658,-23.036798573214234,6.5077680558519555,0.3555555555555556,0.4688888888888889,-0.6933333333333334,-0.46304391580458704,-0.5697096470602726,4.652947365932403
1589986736.0788689,9.21394774814538,-14.520175021644286,8.482378494915714,0.3555555555555556,0.4688888888888889,-0.6933333333333334,-0.32332135877888785,-0.5681613065058235,2.565884991322832
1589986736.0888689,-1.8176013460635467,0.552005008608546,13.408396462670215,0.3555555555555556,0.4688888888888889,-0.6933333333333334,0.24003578560327649,0.13550290077496796,-0.6738694660949808
1589986736.0988688,-1.8236600048157958,0.9545922626213982,7.641378120234368,0.3555555555555556,0.4688888888888889,-0.6933333333333334,0.7623818221270958,0.5116594580143663,-0.7519000099638405
1589986736.1088688,-1.4876284328565688,-0.6844419387723581,6.836402026505206,0.3869048771362571,0.4435682829967838,-0.6854960029381579,0.2293211657594495,0.01949160373589731,-0.6243820910439261
1589986736.1188688,-1.9700142795944595,-1.9977746045345648,11.847395719294905,0.4133333333333333,0.4222222222222222,-0.6788888888888889,-0.3799542729271576,-0.1029799330686268,-0.5353567188801871
1589986736.1288688,-1.0910817047667123,-2.2018215908271435,9.650512728059422,0.4133333333333333,0.4222222222222222,-0.6788888888888889,-0.42706776373935273,0.03331899242054979,-0.40341914707308557
1589986736.1388688,-0.7901460882268542,-2.2482868546683017,8.318592335585526,0.4133333333333333,0.4222222222222222,-0.6788888888888889,0.10481246705687765,0.059853722547808436,-0.06236858364407338
1589986736.1488688,-0.676658027469543,-2.46080313494219,8.53722805928455,0.4133333333333333,0.4222222222222222,-0.6788888888888889,0.034640932574007244,0.021714871364947305,0.09548161105162808
1589986736.1588688,-0.6709077090119435,-3.722254940282302,9.63308447339848,0.4137991555072988,0.42268804439618773,-0.6798205332368199,-0.11421649711771958,-0.11131619007434713,0.2037993584266383
1589986736.1688688,1.4551986623138784,-15.909449531544444,8.414421530376622,0.4211111111111111,0.43,-0.6944444444444444,-0.11070182283865637,-0.1029850860554223,0.7311350283070359
1589986736.1788688,0.9354620992940634,-5.7197375303784295,10.418061566948271,0.4211111111111111,0.43,-0.6944444444444444,0.06044755274137495,-0.0086893552736102,0.42553991777915967
1589986736.1888688,-1.148023380108713,-0.29683049421183116,9.227509836475699,0.4211111111111111,0.43,-0.6944444444444444,0.2495684330750688,0.20145450685073338,0.020258704170986058
1589986736.1988688,-0.47972157772621804,-2.7984377416860013,7.766798143851508,0.4211111111111111,0.43,-0.6944444444444444,0.09067646880455069,0.115526825749033,0.008244082294319697
1589986736.2088687,-0.27773517266415576,-5.542295003857149,8.901292825702228,0.4234370477933576,0.4292246877725845,-0.6863036660565816,-0.19349183347904425,-0.16990084199622643,-0.0797716725294806
1589986736.2188687,-0.3367682640907812,-5.703575291506455,9.500349182531496,0.42777777777777776,0.42777777777777776,-0.6711111111111111,-0.15671561321645083,-0.1479121733423561,-0.2029350365628036
1589986736.2288687,0.19562368221303872,-3.171787129965421,8.193919203845828,0.42777777777777776,0.42777777777777776,-0.6711111111111111,0.08024924762671173,0.06450152244055454,-0.06027555364625796
1589986736.2388687,-0.3066512627183915,-4.397861688759171,8.463481292310187,0.42777777777777776,0.42777777777777776,-0.6711111111111111,0.08079691498426828,0.040801466602826617,0.0365041619721017
1589986736.2488687,0.18115584029072226,-4.582168825676289,8.856376623173196,0.42777777777777776,0.42777777777777776,-0.6711111111111111,-0.04699922196413182,-0.037735660936559626,-0.006955816845702327
1589986736.2588687,0.061029190992493744,-4.409485404503753,8.853087572977481,0.42640552312111946,0.42714882772680934,-0.6722546566583264,-0.00036109319230428973,-0.010988732713348784,5.6133660784012786e-05
1589986736.2688687,0.020233499377335,-4.321843806878054,8.89620773062554,0.4011111111111111,0.4155555555555556,-0.6933333333333334,0.012086967257014447,0.004125308012174606,-0.0004136724169180807
1589986736.2788687,-0.003470955352856464,-4.302378513895557,8.786941910705712,0.4011111111111111,0.4155555555555556,-0.6933333333333334,-0.0026264426233704088,-0.002255791741389161,-0.002181661564992912
1589986736.2888687,0.04,-4.37,8.7,0.4011111111111111,0.4155555555555556,-0.6933333333333334,-0.015271630954950384,-0.004363323129985824,-0.002181661564992912
1589986736.2988687,0.04,-4.390125112027245,8.710062556013622,0.4011111111111111,0.4155555555555556,-0.6933333333333334,-0.013076321784899531,-0.003997438268310682,-0.00035223725661720105
1589986736.3088686,0.03697444506621899,-4.411846670397313,8.739076664801344,0.4001025927998507,0.4155555555555556,-0.6965269746523244,-0.0057563146496595295,-0.0029424555018991326,0.0024474002335137797
1589986736.3188686,0.02396926079531593,-4.31,8.793969260795315,0.3944444444444444,0.4155555555555556,-0.7144444444444444,0.008743411895321069,-0.0006578515965677577,-0.002181661564992912
1589986736.3288686,0.01857377683233417,-4.306191258944111,8.769530071552891,0.3944444444444444,0.4155555555555556,-0.7144444444444444,0.005038684713850145,-0.00083093839726427,-0.0005197847704643719
1589986736.3388686,0.012060985239628258,-4.32110672416935,8.701908522140558,0.3944444444444444,0.4155555555555556,-0.7144444444444444,0.0007452872891648022,-0.0018527492158273645,0.002181661564992912
1589986736.3488686,0.04,-4.380804722253907,8.706820463100263,0.3944444444444444,0.4155555555555556,-0.7144444444444444,-0.004099978388209418,0.00048065236828833216,0.0013959199896005179
1589986736.3588686,0.04260713611478195,-4.376535774966962,8.813464225033037,0.39936903488347697,0.4155555555555556,-0.7089404904243493,0.0036036337290740955,0.003272492347489368,0.0005687888656324733
1589986736.3688686,0.05,-4.323285559956788,8.866714440043213,0.4133333333333333,0.4155555555555556,-0.6933333333333334,0.00860196866171296,0.0023063391632515994,0.0026647381571117965
1589986736.3788686,0.03443057540803776,-4.321316690489645,8.806405611142505,0.4133333333333333,0.4155555555555556,-0.6933333333333334,0.005741411215907369,7.181432585627199e-05,0.002253475890849184
1589986736.3888686,0.001029062989910359,-4.280823250391928,8.712058125979821,0.4133333333333333,0.4155555555555556,-0.6933333333333334,-0.0033622950344111328,-0.002204112236723353,-2.245067173044119e-05
1589986736.3988686,0.05,-4.326733833895188,8.779697747471653,0.4133333333333333,0.4155555555555556,-0.6933333333333334,-0.009839457466602072,-0.004007039677198328,-0.001090830782496456
1589986736.4088686,0.04552379495026779,-4.3534286151491965,8.746857230298394,0.4123386211000595,0.4155555555555556,-0.6915925869251042,-0.010030435253992047,-0.004721736573930184,-0.0006025525567950584
1589986736.4188685,0.03402930669971568,-4.387912079900853,8.81985346650142,0.4088888888888889,0.4155555555555556,-0.6855555555555556,0.005242381486019638,-0.002181661564992912,0.0006513016044795491
1589986736.4288685,0.028071817640866026,-4.326263331349842,8.78602393921362,0.4088888888888889,0.4155555555555556,-0.6855555555555556,0.0061112637450929175,-0.00261538251487873,0.0008674418997716359
1589986736.4388685,0.021030927835051547,-4.289415807560137,8.76529209621993,0.4088888888888889,0.4155555555555556,-0.6855555555555556,0.0026464829293556627,-0.0020692047832922464,0.0005772781460634164
1589986736.4488685,0.04267585888699603,-4.3346482822260075,8.75337929443498,0.4088888888888889,0.4155555555555556,-0.6855555555555556,-0.001597879716282518,0.0,-0.001889770640637715
1589986736.4588685,0.0497495514354067,-4.32225403708134,8.788747757177033,0.4090001993620415,0.4157225212652845,-0.6859173145933014,2.731970036904252e-05,-2.731970036904252e-05,-0.0010635110821274134
1589986736.4688685,0.036016325505462764,-4.374146929549165,8.763902046967225,0.4133333333333333,0.4222222222222222,-0.7,0.004132691118757514,-0.0006562793058877334,0.0
1589986736.4788685,0.033590977143427486,-4.327181954286855,8.778454137139436,0.4133333333333333,0.4222222222222222,-0.7,0.005984642374867321,-0.0011751445221875685,0.0
1589986736.4888685,0.029953787627339343,-4.324930681441009,8.760092424745322,0.4133333333333333,0.4222222222222222,-0.7,-5.040987863044397e-06,-0.002724556462309618,0.0002739679425898751
1589986736.4988685,0.012322196170379053,-4.304644392340759,8.800284486127394,0.4133333333333333,0.4222222222222222,-0.7,-0.004885464054362498,-0.001090830782496456,0.0008220021646842676
1589986736.5088685,0.04762395749023472,-4.376435936235352,8.742376042509765,0.4118813073551434,0.42077019624403234,-0.6974919551285811,-0.009428697995942288,-0.001090830782496456,0.0
1589986736.5188684,0.041937002683742175,-4.365916003578323,8.763979000894581,0.4011111111111111,0.41,-0.6788888888888889,-0.002638609701528105,-0.001958914114374374,-0.0008680833318779179
1589986736.5288684,0.051735647080605254,-4.36796172554828,8.761735647080606,0.4011111111111111,0.41,-0.6788888888888889,0.004173993403678392,-0.002070490939237336,-0.0012801605088038877
1589986736.5388684,0.030556948815915707,-4.311485196842441,8.740556948815916,0.4011111111111111,0.41,-0.6788888888888889,0.006484231003711155,0.0010098258608063487,0.0010300770912288755
1589986736.5488684,0.04717061675455371,-4.344341233509107,8.784341233509107,0.4011111111111111,0.41,-0.6788888888888889,0.0036023269087147552,0.00047355511457394773,0.0007821929485352019
1589986736.5588684,0.04,-4.33587196199062,8.771467990497655,0.4001324507793412,0.41081555027647493,-0.6819879799394936,-0.0015712295494727231,-0.001090830782496456,0.00016013292232542237
1589986736.5688684,0.03668491324939905,-4.37,8.793260347002404,0.3944444444444444,0.4155555555555556,-0.7,-0.001470364190624492,-0.0007292109150762895,0.0007292109150762895
1589986736.5788684,0.03,-4.357210670851314,8.794421341702629,0.3944444444444444,0.4155555555555556,-0.7,0.0050608728261291045,-0.0006975496961432809,0.0
1589986736.5888684,0.03599264440758636,-4.327003677796207,8.74898896661138,0.3944444444444444,0.4155555555555556,-0.7,0.00556444054672617,-0.002508509614410434,-0.0006536960988350435
1589986736.5988684,0.04757185651448506,-4.32485628697103,8.77485628697103,0.3944444444444444,0.4155555555555556,-0.7,0.000623798689171434,-0.003007622981657575,-0.0019167921991611186
1589986736.6088684,0.04,-4.342115989114154,8.788307208708677,0.39557297197199304,0.41470915990989415,-0.7006112857440888,-0.007774306641143969,-0.002089334122547061,-0.0010446670612735305
1589986736.6188684,0.04,-4.386358726609143,8.752913018712686,0.4191690986359875,0.3970120649118983,-0.7133925210204192,-0.010669987038830653,-0.0001588805240892708,-7.94402620446354e-05
1589986736.6288683,0.026720631459182704,-4.373441262918366,8.730161894377549,0.4211111111111111,0.3955555555555556,-0.7144444444444444,-0.002234641376155689,-0.0007507671044033159,0.002181661564992912
1589986736.6388683,0.02,-4.350199519230769,8.732867788461538,0.4211111111111111,0.3955555555555556,-0.7144444444444444,0.006145100814376069,0.001468950491236814,0.001468950491236814
1589986736.6488683,0.017437891910777662,-4.3376863242676675,8.782562108089222,0.4211111111111111,0.3955555555555556,-0.7144444444444444,0.008699546493745344,0.0002794826371806903,0.0
1589986736.6588683,0.010470066658281978,-4.358589800025154,8.791410199974845,0.42053658519543313,0.3971746740451935,-0.7130864740982965,0.005095219686006823,0.001090830782496456,5.127631806792233e-05
1589986736.6688683,0.022683551311327935,-4.335367102622656,8.809265794754689,0.4088888888888889,0.43,-0.6855555555555556,-0.001303471451951339,0.0007981007448159317,0.001090830782496456
1589986736.6788683,0.027584748765679998,-4.35241525123432,8.760677990125439,0.4088888888888889,0.43,-0.6855555555555556,0.001090830782496456,-0.0005269260787717638,0.001090830782496456
1589986736.6888683,0.021878569109417673,-4.35248572356233,8.71690712198476,0.4088888888888889,0.43,-0.6855555555555556,0.0023203513894563075,-0.0019767414638329366,0.001090830782496456
1589986736.6988683,0.029889226303023358,-4.3204430947879064,8.789003036727209,0.4088888888888889,0.43,-0.6855555555555556,0.007563314262343359,-0.0011029143183517616,0.001090830782496456
1589986736.7088683,0.03,-4.327065163549406,8.818260654197626,0.4088888888888889,0.43,-0.6855555555555556,0.003011676747636513,-0.001090830782496456,0.0003201409941900096
1589986736.7188683,0.030135056916843525,-4.3302025853752655,8.81925718695736,0.4088888888888889,0.4222222222222222,-0.6711111111111111,-0.005476252548824577,-0.0032503937111470708,-0.0010834645703823567
1589986736.7288682,0.04749160464694137,-4.362508395353059,8.699966418587767,0.4088888888888889,0.4222222222222222,-0.6711111111111111,-0.006264034880762969,0.0002736234865787421,-0.0010944939463149684
1589986736.7388682,0.04,-4.371452539421653,8.681620315373225,0.4088888888888889,0.4222222222222222,-0.6711111111111111,0.0018830681394608152,0.0006154883683178405,-0.003254190830235721
1589986736.7488682,0.04,-4.378277977575629,8.736223820605035,0.4088888888888889,0.4222222222222222,-0.6711111111111111,0.005605767160652403,-0.0016181310443971126,0.001957587799432502
1589986736.7588682,0.03007217702364747,-4.330360885118237,8.799639114881764,0.4088888888888889,0.4222222222222222,-0.6711111111111111,0.009793857166713014,-0.0010987040744148196,0.00435544983806746
1589986736.7688682,0.03834683954619125,-4.355040518638574,8.841734197730956,0.4088888888888889,0.42685935530343955,-0.6896596434359805,0.004354483334341607,-0.001090830782496456,0.001631826275922575
1589986736.7788682,0.022788103379114057,-4.3555762067582275,8.75605948310443,0.4088888888888889,0.42777777777777776,-0.6933333333333334,-0.001394965681568456,-0.0012428982320324558,0.000786695883424456
1589986736.7888682,0.03881186605795496,-4.38762373211591,8.675940669710226,0.4088888888888889,0.42777777777777776,-0.6933333333333334,-0.003142887039718209,-0.002116858911107332,-0.0009612254747252966
1589986736.7988682,0.04,-4.321972357474217,8.803944714948434,0.4088888888888889,0.42777777777777776,-0.6933333333333334,0.00305734152279309,-0.0004303016493925559,0.000875679957800178
1589986736.8088682,0.04,-4.330019054217911,8.82001905421791,0.4088973574301827,0.42773120080066207,-0.6933185133860693,0.002177504579506177,-0.002187897043223015,2.078492743367576e-06
1589986736.8188682,0.04,-4.338270692567567,8.828270692567568,0.4133333333333333,0.4033333333333333,-0.6855555555555556,-0.0009431908898486037,-0.005076877556542838,0.0009021926045267352
1589986736.8288682,0.04,-4.3365650989916835,8.79702215352911,0.4133333333333333,0.4033333333333333,-0.6855555555555556,-0.00545415391248228,-0.002914421743976143,0.0001790353017566127
1589986736.8388681,0.038519883425777945,-4.368519883425778,8.688880699445333,0.4133333333333333,0.4033333333333333,-0.6855555555555556,-0.004646875552059971,-0.0012522864545809179,0.0009293751104119942
1589986736.8488681,0.030633637303751057,-4.360633637303751,8.736198176177494,0.4133333333333333,0.4033333333333333,-0.6855555555555556,-0.00034559553793485527,-0.0021125424574059406,6.91191075869711e-05
1589986736.8588681,0.03,-4.353528020134228,8.765887919463086,0.4133333333333333,0.4033333333333333,-0.6855555555555556,0.004235900916768704,-6.37111066085598e-05,0.0014119669722562347
1589986736.868868,0.03,-4.332190812720848,8.833427561837455,0.4133333333333333,0.4201531213191991,-0.6796191597958382,0.005573644210211573,-0.0018231906718050308,0.0012103210802257498
1589986736.878868,0.02808058733978294,-4.35,8.754644698718263,0.4133333333333333,0.4222222222222222,-0.6788888888888889,-0.00171895710671991,-0.001762910682177276,0.000881455341088638
1589986736.888868,0.02,-4.353249055925193,8.694873583887789,0.4133333333333333,0.4222222222222222,-0.6788888888888889,-0.003654489086535151,-0.0001772085108626683,0.0
1589986736.898868,0.02,-4.368333752922136,8.717500629383204,0.4133333333333333,0.4222222222222222,-0.6788888888888889,-0.0003635187207556975,-0.0009999511023075316,0.0
1589986736.908868,0.029385927398052878,-4.332456290407788,8.81385927398053,0.4133333333333333,0.4222222222222222,-0.6788888888888889,-0.0010238458528072948,-6.698492968916113e-05,0.0030715375584218843
1589986736.918868,0.03750888665006558,-4.33,8.83501777330013,0.4241795029389836,0.4222222222222222,-0.6905693792334353,-0.0002717383124796331,0.0,0.0008152149374388989
1589986736.928868,0.04,-4.33092193770844,8.819858685207167,0.42777777777777776,0.4222222222222222,-0.6944444444444444,-0.0034736279538713387,-0.0030713567411073976,0.0011913985856874412
1589986736.938868,0.04,-4.338824826182805,8.732926911989148,0.42777777777777776,0.4222222222222222,-0.6944444444444444,-0.005197770757566206,-0.0013472139374125299,0.0020534699875348747
1589986736.948868,0.045656274215620005,-4.368552091405207,8.740135360163555,0.42777777777777776,0.4222222222222222,-0.6944444444444444,-0.0024827807147684905,-0.0024827807147684905,0.0004738269796325265
1589986736.958868,0.024910556773778708,-4.361636852257926,8.788542034194517,0.42777777777777776,0.4222222222222222,-0.6944444444444444,0.0012888971503205284,0.0012888971503205284,0.0027368336986859382
1589986736.968868,0.014635775558993109,-4.35,8.820728448882013,0.4211111111111111,0.4222222222222222,-0.6855555555555556,0.003441053903505848,-0.00033712311203295994,0.000922269226479976
1589986736.978868,0.037214973667979316,-4.35139251316601,8.763037434169949,0.4211111111111111,0.4222222222222222,-0.6855555555555556,0.003603825016727984,-0.001877862319689776,-0.00015189962265156796
1589986736.988868,0.021107393057023208,-4.357785213885954,8.722214786114048,0.4211111111111111,0.4222222222222222,-0.6855555555555556,-0.0012116286259888328,-0.0001207978434923769,-0.000970032939004079
1589986736.998868,0.029315095299596885,-4.341369809400806,8.738630190599194,0.4211111111111111,0.4222222222222222,-0.6855555555555556,-0.0021069500519652886,-0.0010161192694688329,-7.471151302762308e-05
1589986737.008868,0.024081048207054766,-4.35183790358589,8.763675807171781,0.4211111111111111,0.4222222222222222,-0.6855555555555556,-0.000890346601821462,-0.001090830782496456,0.000645657481585725
1589986737.018868,0.026629589864719777,-4.3401112304058405,8.813147949323598,0.4211111111111111,0.42737856989478207,-0.6811358289790757,0.0014463521399525694,0.0010786974274323987,0.00036765471252017126
1589986737.028868,0.04733019486034604,-4.33,8.803981169162077,0.4211111111111111,0.43,-0.6788888888888889,-0.0013820613454566348,-0.004217707848505735,0.001090830782496456
1589986737.038868,0.03126529618280333,-4.335061184731213,8.706326480914017,0.4211111111111111,0.43,-0.6788888888888889,-0.0034105147500070824,-0.0029964475424539396,0.001090830782496456
1589986737.048868,0.03977697505935832,-4.369107900237434,8.748884875296792,0.4211111111111111,0.43,-0.6788888888888889,-0.004338994882934185,-0.0011394872765997334,0.001090830782496456
1589986737.058868,0.04,-4.379123481057898,8.759123481057898,0.4211111111111111,0.43,-0.6788888888888889,-0.0013776709355421196,-9.561338434855454e-05,-0.00289003881009515
1589986737.068868,0.032967518774740114,-4.38,8.80219488735156,0.4211111111111111,0.42453029238035345,-0.6890469173253754,0.001977668016640295,-0.0015342493995683757,-0.0009711182481368049
1589986737.078868,0.020003087849312956,-4.330015439246565,8.84999073645206,0.4211111111111111,0.4222222222222222,-0.6933333333333334,0.004362986297877596,-0.002181661564992912,0.0010904939503882279
1589986737.088868,0.021158190921504533,-4.35,8.71463276368602,0.4211111111111111,0.4222222222222222,-0.6933333333333334,0.0005854746588224243,-0.0001263390309185079,0.0001263390309185079
1589986737.098868,0.029835933297471758,-4.35,8.749343733189887,0.4211111111111111,0.4222222222222222,-0.6933333333333334,-0.0032009047436891702,-0.0010729338815464065,0.0010729338815464065
1589986737.108868,0.04744420186947583,-4.35,8.802332605608427,0.4211111111111111,0.4222222222222222,-0.6933333333333334,-0.002321058728724045,0.0017634700737995128,0.00013939716373113323
1589986737.1188679,0.039332999355900664,-4.34966649967795,8.7806670006441,0.42777777777777776,0.41,-0.6944444444444444,0.002145282323266486,-0.0009816930573171784,0.0
1589986737.1288679,0.024324411364774923,-4.342162205682388,8.795675588635225,0.42777777777777776,0.41,-0.6944444444444444,0.0013266908341401558,0.0014740814100618128,0.0
1589986737.1388679,0.02886472424557752,-4.35,8.715676378772113,0.42777777777777776,0.41,-0.6944444444444444,-0.00024767874790918487,0.0008431520345872711,0.0009669914085418635
1589986737.1488678,0.021590530697190427,-4.35,8.752047346514049,0.42777777777777776,0.41,-0.6944444444444444,-0.0018346615959927385,-0.0007438308134962825,0.00017349998450008673
1589986737.1588678,0.037361729179911,-4.35,8.768680864589955,0.42777777777777776,0.41,-0.6944444444444444,-0.002181661564992912,-0.001090830782496456,0.0009469354313406934
1589986737.1688678,0.03240709927897948,-4.342407099278979,8.807964503605103,0.40753004252172303,0.4142182781783448,-0.6876951993590928,0.0003031093854857043,0.0013939401679821603,0.000262573799003584
1589986737.1788678,0.039124659720266595,-4.3573739791608,8.813872618041867,0.4011111111111111,0.4155555555555556,-0.6855555555555556,0.005263184288023828,0.0001909696244584521,0.0001909696244584521
1589986737.1888678,0.03062144713334416,-4.331242894266689,8.751242894266689,0.4011111111111111,0.4155555555555556,-0.6855555555555556,0.00313691361494017,0.0020460828324437136,0.0020460828324437136
1589986737.1988678,0.03913675491310703,-4.348273509826214,8.768273509826214,0.4011111111111111,0.4155555555555556,-0.6855555555555556,0.0012791616452207913,0.00018833086272433512,0.00018833086272433512
1589986737.2088678,0.04,-4.358474458134725,8.77,0.4011111111111111,0.4155555555555556,-0.6855555555555556,0.00016641080266297458,-0.0018488399596669628,-0.0009244199798334814
1589986737.2188678,0.029976354213876136,-4.359952708427753,8.799905416855506,0.4088888888888889,0.4222222222222222,-0.7,-0.00326733363721332,-0.00218682027526896,0.0032621749269372727
1589986737.2288678,0.021711560818932392,-4.343423121637865,8.76684624327573,0.4088888888888889,0.4222222222222222,-0.7,-0.0014642354279777153,-0.003989918484504564,-0.0003440214915339367
1589986737.2388678,0.04,-4.368369973653523,8.702852546106335,0.4088888888888889,0.4222222222222222,-0.7,0.001090830782496456,-0.0011352828553719107,0.001090830782496456
1589986737.2488678,0.04,-4.332138815704228,8.7662570725176,0.4088888888888889,0.4222222222222222,-0.7,0.001090830782496456,-0.002123334414786433,0.001090830782496456
1589986737.2588677,0.04,-4.347992979150204,8.781995319433468,0.4088888888888889,0.4222222222222222,-0.7,-0.0008718987700894493,-0.002835904749188214,0.0023993171508870596
1589986737.2688677,0.03438026647461289,-4.365619733525388,8.801239467050774,0.4088888888888889,0.4184757332052975,-0.7,-0.0015686437331009534,-0.0014334388518134921,0.00020740318802957422
1589986737.2788677,0.03,-4.357223151842794,8.797223151842793,0.4088888888888889,0.4155555555555556,-0.7,0.0003029071448198853,-0.0006968689636581706,-0.0014847926013347413
1589986737.2888677,0.039009940072487176,-4.35,8.735940359565078,0.4088888888888889,0.4155555555555556,-0.7,0.0020736627804481917,-0.00010799878454472041,-0.00010799878454472041
1589986737.2988677,0.04,-4.336803401532373,8.782786393870506,0.4088888888888889,0.4155555555555556,-0.7,0.002181661564992912,-0.0021592883749098827,-0.0007197627916366277
1589986737.3088677,0.04714938673506297,-4.358597546940252,8.802850613264937,0.4088888888888889,0.4155555555555556,-0.7,0.0014017844523350597,0.0006268932157998935,0.0004689234428192487
1589986737.3188677,0.04284353156253361,-4.362843531562534,8.8,0.4224066626041032,0.4068087607986522,-0.695229021041689,-0.002031767643724606,-0.0009409368612281503,0.001090830782496456
1589986737.3288677,0.020488434496110867,-4.36,8.829267348255835,0.42777777777777776,0.4033333333333333,-0.6933333333333334,-0.00433668316080628,-5.327993835908774e-05,2.663996917954387e-05
1589986737.3388677,0.02,-4.36,8.727094358462306,0.42777777777777776,0.4033333333333333,-0.6933333333333334,0.0004475043620939742,-0.0008018045820132998,0.0016036091640265996
