time,acc_x,acc_y,acc_z,mag_x,mag_y,mag_z,gyr_x,gyr_y,gyr_z
1589986836.8725064,-3.9,-0.82,8.94,0.3033333333333333,-0.3911111111111111,-0.64,-0.004363323129985824,-0.008726646259971648,0.001090830782496456
1589986836.8825064,-3.9,-0.8162098129111257,9.041895093544438,0.3033333333333333,-0.3911111111111111,-0.64,-0.014651463042755669,-0.004805377202534933,0.001090830782496456
1589986836.8925064,-3.892347639640949,-0.84,9.014695279281899,0.28887887487734853,-0.3911111111111111,-0.6357486886894163,-0.01770938027859893,-0.0037846678648006376,0.0027603168301780986
1589986836.9025064,-3.881210552390389,-0.8487894476096111,8.904526628684668,0.28444444444444444,-0.3911111111111111,-0.6344444444444445,-0.011700612511721088,-0.005190052350230103,0.008066392354341206
1589986836.9125063,-3.871687565894255,-0.8583124341057449,8.831812961259786,0.28444444444444444,-0.3911111111111111,-0.6344444444444445,-0.006374578324954614,0.0008930673875316439,0.00600640855996568
1589986836.9225063,-3.87,-0.8515645524948534,8.836870895010293,0.28444444444444444,-0.3911111111111111,-0.6344444444444445,0.0009869981494404758,0.0031018261452675916,0.0045339893322076
1589986836.9325063,-3.87,-0.8239289183789431,8.853035540810527,0.28444444444444444,-0.3911111111111111,-0.6344444444444445,0.0078694892380382,0.006116406184012012,0.005074301589116485
1589986836.9425063,-3.8795012319095634,-0.8052493840452184,8.888503695728689,0.29025075283362206,-0.3911111111111111,-0.6370836755304343,0.010390096013035095,0.006599391853616264,0.004417730288623352
1589986836.9525063,-3.8860446818149303,-0.8039553181850696,8.92791063637014,0.2966666666666667,-0.3911111111111111,-0.64,0.010248935325552287,0.006317070478650645,0.0024095757813210024
1589986836.9625063,-3.886548131191538,-0.8230962623830761,8.90725934404231,0.2966666666666667,-0.3911111111111111,-0.64,0.009479727210653575,0.005492944556008716,0.0032337017039629316
1589986836.9725063,-3.8957500909358598,-0.8242499090641401,8.924500545615158,0.2966666666666667,-0.3911111111111111,-0.64,0.004963220542977743,0.004990560749484808,0.0005998974129919187
1589986836.9825063,-3.882235035974894,-0.8288824820125529,8.981088687043934,0.2966666666666667,-0.3911111111111111,-0.64,0.001697197324779721,0.004969689672269089,-0.0007282688443533388
1589986836.9925063,-3.8722526392575634,-0.8277473607424368,9.015915786914146,0.29349005648877996,-0.39383391983501403,-0.6436304116318705,0.001536349318128937,0.004808841665618305,0.001536349318128937
1589986837.0025063,-3.8852832352832354,-0.81,9.00056647056647,0.2888888888888889,-0.3977777777777778,-0.6488888888888888,0.002181661564992912,0.0033960770537462275,0.0006381039209408727
1589986837.0125062,-3.8990777435520205,-0.81,8.907329777941245,0.2888888888888889,-0.3977777777777778,-0.6488888888888888,0.003569034226800735,0.0017845171134003674,-0.0017845171134003674
1589986837.0225062,-3.902717458014841,-0.8027174580148413,8.867282541985158,0.2888888888888889,-0.3977777777777778,-0.6488888888888888,0.004363323129985824,0.002976063662216312,-0.0005928573705461127
1589986837.0325062,-3.8948880034289526,-0.8102239931420951,8.895559982855238,0.2888888888888889,-0.3977777777777778,-0.6488888888888888,0.0026904261640713157,0.002157227703546362,-0.0005576323219715028
1589986837.0425062,-3.8854681404421325,-0.8154681404421327,8.92,0.29543490825025287,-0.4007990174830227,-0.6584561479554978,0.0015851799732637055,-0.000886565980572542,-0.0005964815917292065
1589986837.0525062,-3.8858166411434407,-0.798366717713119,8.91418335885656,0.3033333333333333,-0.4044444444444445,-0.67,0.0015471644439928804,-0.0026379952264893366,-0.0006344971210000315
1589986837.0625062,-3.896638715267034,-0.79,8.870167708397796,0.3033333333333333,-0.4044444444444445,-0.67,0.00036665928554548556,-0.005078347552796793,-0.00036665928554548556
1589986837.0725062,-3.892766710109849,-0.8116998696704524,8.900633029231056,0.3033333333333333,-0.4044444444444445,-0.67,-0.003156118108358765,-0.006544984694978735,0.0
1589986837.0825062,-3.907351769528318,-0.814216076823894,8.960487462232743,0.3033333333333333,-0.4044444444444445,-0.67,-0.006256107563213177,-0.006544984694978735,0.0012618562888182356
1589986837.0925062,-3.940605356261313,-0.8223632137567879,9.002363213756787,0.3033333333333333,-0.4016970636096027,-0.6576367862432121,-0.00898443289112398,-0.006544984694978735,0.004878896392290489
1589986837.1025062,-3.9104235713754925,-0.8052470833023705,8.980282380916995,0.3033333333333333,-0.3977777777777778,-0.64,-0.010366742806174428,0.000495360549292995,0.023348901767305245
1589986837.1125062,-3.8049859569648925,-0.8471669309173273,8.920708267270667,0.3033333333333333,-0.3977777777777778,-0.64,-0.011921878633353056,-0.003587659673911222,0.01994093026637304
1589986837.1225061,-3.8559837492745213,-0.8416467050071228,8.91,0.3033333333333333,-0.3977777777777778,-0.64,-0.009322450631860178,-0.0037894470295124338,0.005296454532751352
1589986837.1325061,-3.8839566460695503,-0.8381300617913492,8.958346831443597,0.3033333333333333,-0.3977777777777778,-0.64,-0.008954270776846296,-0.00240928608186756,0.004590947646860471
1589986837.1425061,-3.900816422397595,-0.8222447701365402,8.983061192534135,0.2802039751137835,-0.3931519061338678,-0.6361451069634084,-0.006032944653677239,0.0012689465190596693,0.004697247434724107
1589986837.152506,-3.8949520512700566,-0.8024760256350284,8.897236281985311,0.27,-0.3911111111111111,-0.6344444444444445,-0.003542584845583289,0.007376183769502044,0.0010803699923756828
1589986837.162506,-3.8956123928334914,-0.8112247856669829,8.87,0.27,-0.3911111111111111,-0.6344444444444445,-0.005721360693983353,0.009338863346595144,0.0018366512598704896
1589986837.172506,-3.9181988096481155,-0.8321325397654101,8.900331349413525,0.27,-0.3911111111111111,-0.6344444444444445,-0.008959270262072369,0.00783229486557234,0.003272492347489368
1589986837.182506,-3.906575054470395,-0.84,8.931712472764803,0.27,-0.3911111111111111,-0.6344444444444445,-0.0072622118762685015,0.0059061684034288344,0.002633676055939467
1589986837.192506,-3.9019377835385614,-0.8280622164614387,8.975813350615683,0.27862173255562755,-0.3877950601281774,-0.6377604954273781,-0.00545415391248228,0.006105259000414383,0.0028327666529250157
1589986837.202506,-3.91,-0.8307988612262834,8.989201138773717,0.28444444444444444,-0.3855555555555555,-0.64,-0.004276180888328532,0.0030110656225174923,0.00209451932333562
1589986837.212506,-3.904305068536819,-0.8286101370736372,8.911660822441823,0.28444444444444444,-0.3855555555555555,-0.64,-0.0007876097297910339,0.0006212206544245836,0.0017120514369210395
1589986837.222506,-3.9060565660007667,-0.8381696980023001,8.896339396004599,0.28444444444444444,-0.3855555555555555,-0.64,0.004394175097425345,0.0004301619195106781,0.002181661564992912
1589986837.232506,-3.914886223798102,-0.845113776201898,8.949317342788612,0.28444444444444444,-0.3855555555555555,-0.64,0.007077989027892376,-0.0015990129987409202,0.003780674563733832
1589986837.242506,-3.9255306925664954,-0.8234079223005142,8.98,0.2912041798034942,-0.3960024192922688,-0.644916171170218,0.007032510507469455,-0.002669187377483631,0.0090739837325167
1589986837.252506,-3.898452637061528,-0.8036905274123056,8.954762109649222,0.2966666666666667,-0.4044444444444445,-0.6488888888888888,0.005856728002981266,-0.00011689148900050333,0.016128678759445833
1589986837.262506,-3.88,-0.8051909725736262,8.89847221941099,0.2966666666666667,-0.4044444444444445,-0.6488888888888888,0.003189164842719777,0.0016570780499370816,0.017977876034999125
1589986837.272506,-3.88,-0.8159572795177565,8.883829118071025,0.2966666666666667,-0.4044444444444445,-0.6488888888888888,0.0004409923947060106,0.0008819847894120211,0.00965523186645795
1589986837.282506,-3.8960351365015167,-0.82,8.916035136501517,0.2966666666666667,-0.4044444444444445,-0.6488888888888888,-0.0017491620497386928,0.0,0.0008649990305084382
1589986837.292506,-3.904855978866291,-0.8251440211337089,8.940288042267417,0.2966666666666667,-0.39472796008077204,-0.6368861729102347,-0.002711366687643169,0.0,-0.0010594102453005143
1589986837.302506,-3.8840613987935257,-0.8353128670688248,8.93937426586235,0.2966666666666667,-0.3855555555555555,-0.6255555555555555,-0.002181661564992912,-0.000579543894198579,-0.000579543894198579
1589986837.312506,-3.88796875,-0.8340104166666666,8.876093749999999,0.2966666666666667,-0.3855555555555555,-0.6255555555555555,-0.002181661564992912,-0.003704279532227548,-0.0004374685950636829
1589986837.322506,-3.9,-0.8354213868706648,8.872528321223989,0.2966666666666667,-0.3855555555555555,-0.6255555555555555,-0.0015902799967585728,-0.006045535480716619,-0.001182763136468678
1589986837.332506,-3.8970061733854564,-0.8250308669272814,8.929938266145438,0.2966666666666667,-0.3855555555555555,-0.6255555555555555,0.0005420483318042636,-0.005565257226398303,-0.002508237387853056
1589986837.342506,-3.8925606813861675,-0.7925606813861676,9.000853560462057,0.29562342610193176,-0.3860297558122532,-0.627926556839044,0.004456432132659067,-0.003272492347489368,-0.0029931653394696402
1589986837.352506,-3.913614941986605,-0.8231925290066975,9.01,0.28444444444444444,-0.3911111111111111,-0.6533333333333333,0.005802404803934124,-0.003620743238941213,-0.00034825089145184467
1589986837.362506,-3.897662171866273,-0.825324343732546,8.97960823426155,0.28444444444444444,-0.3911111111111111,-0.6533333333333333,0.006289967205733174,-0.003853288151494702,-0.001090830782496456
1589986837.372506,-3.8840469707283867,-0.8040469707283867,8.891906058543228,0.28444444444444444,-0.3911111111111111,-0.6533333333333333,0.00545415391248228,-0.00348041108070857,-0.001740205540354285
1589986837.382506,-3.875068059512504,-0.8,8.909863880974992,0.28444444444444444,-0.3911111111111111,-0.6533333333333333,0.0027641976618816492,-0.005439305630226076,-0.0011056790647526597
1589986837.392506,-3.8799029387370827,-0.7966990204209724,8.926601959158054,0.2906796280937188,-0.3911111111111111,-0.6533333333333333,-0.0025205670960368447,-0.005824822667539637,-0.0003600810137195492
1589986837.4025059,-3.88604774945038,-0.80395225054962,8.91209549890076,0.3033333333333333,-0.3911111111111111,-0.6533333333333333,-0.009157769915938061,-0.0033486868376772444,-0.0005835126363421664
1589986837.4125059,-3.881847319224358,-0.814076340387821,8.856305361551284,0.3033333333333333,-0.3911111111111111,-0.6533333333333333,-0.009615965774965382,-0.0028278325899925008,-0.0012923420499991773
1589986837.4225059,-3.8956784297977007,-0.8043215702022991,8.868392148988505,0.3033333333333333,-0.3911111111111111,-0.6533333333333333,-0.009965487463887104,-0.0038919129494470964,-0.0003233997591197261
1589986837.4325058,-3.9,-0.8240459425814985,8.928473508130399,0.3033333333333333,-0.3911111111111111,-0.6533333333333333,-0.01090830782496456,-0.002264918781022557,0.0005662296952556392
1589986837.4425058,-3.8899618370838267,-0.8249045927095671,8.990076325832346,0.29998727902794226,-0.39445716541650216,-0.6393914403942039,-0.010360810969530756,0.0010949937108676096,-0.0010949937108676096
1589986837.4525058,-3.88,-0.8194798682106691,8.990520131789332,0.2966666666666667,-0.3977777777777778,-0.6255555555555555,-0.011942401030785307,0.0028899695610986468,-0.0007650455727814429
1589986837.4625058,-3.891497938424831,-0.83,8.945506184725508,0.2966666666666667,-0.3977777777777778,-0.6255555555555555,-0.016225545682221086,0.002645377089036645,0.0
1589986837.4725058,-3.888852644868723,-0.8188526448687228,8.91442632243436,0.2966666666666667,-0.3977777777777778,-0.6255555555555555,-0.0167201415843472,0.004005643283085463,0.0006079939060308504
1589986837.4825058,-3.8961468368461376,-0.8140367092115344,8.918073418423068,0.2966666666666667,-0.3977777777777778,-0.6255555555555555,-0.016152304288536125,0.006334827246068021,0.001090830782496456
1589986837.4925058,-3.92,-0.8216808830908178,8.93,0.293304900485031,-0.39665718905056585,-0.6294776161007972,-0.017453292519943295,0.007085747772302619,0.0014575425859448383
1589986837.5025058,-3.929365696579379,-0.8346828482896895,8.94404854486907,0.2766666666666667,-0.3911111111111111,-0.6488888888888888,-0.016942473013527873,0.0018092255979087128,0.005826589879566479
1589986837.5125058,-3.9545073209339137,-0.8158211317768105,8.921313810842898,0.2766666666666667,-0.3911111111111111,-0.6488888888888888,-0.013197455288193173,-0.000563329707620845,0.020331669907235096
1589986837.5225058,-3.9797630565398245,-0.7948815282699122,8.919052226159298,0.2766666666666667,-0.3911111111111111,-0.6488888888888888,-0.005025047870265912,-0.001064984260489376,0.048167195251989633
1589986837.5325058,-3.97600007369061,-0.79533335789687,8.983333210515651,0.2766666666666667,-0.3911111111111111,-0.6488888888888888,0.0030543101141929283,-0.004217868307788197,0.0837029802238461
1589986837.5425057,-3.951751174503746,-0.79,9.020998433995006,0.2800272992762518,-0.39294418344361204,-0.6464447924455543,0.007744727731079506,-0.007144856213029121,0.11630833746803795
1589986837.5525057,-3.912045109267267,-0.7989774453663667,9.02007518211211,0.2888888888888889,-0.3977777777777778,-0.64,0.01025544957471036,-0.009705933635352947,0.15019181666694703
1589986837.5625057,-3.8415264310822055,-0.824067652702542,8.913391125677121,0.2888888888888889,-0.3977777777777778,-0.64,0.008726646259971648,-0.010224290295285899,0.16870885685935885
1589986837.5725057,-3.791258212058212,-0.8125164241164241,8.865827858627858,0.2888888888888889,-0.3977777777777778,-0.64,0.0074552047425104975,-0.007000094718744617,0.17294362330260651
1589986837.5825057,-3.7081955820302803,-0.698687210034939,8.927541859976708,0.2888888888888889,-0.3977777777777778,-0.64,0.002807519400393966,-0.008047160128468709,0.16648576507096424
1589986837.5925057,-3.602580275653106,-0.5718889258397074,8.9746543250933,0.2966104193096766,-0.3977777777777778,-0.6447517110281771,-0.0006585372399374463,-0.010325185150819927,0.16828959876762548
1589986837.6025057,-3.57,-0.53,8.97,0.3033333333333333,-0.3977777777777778,-0.6488888888888888,-0.002181661564992912,-0.009817477042468105,0.17235126363444006
1589986837.6125057,-3.2315521139980374,-0.6444750202653697,8.965022825205855,0.3033333333333333,-0.3977777777777778,-0.6488888888888888,-0.00652506594524929,0.01135661931128174,0.19189658334559376
1589986837.6225057,-2.8738608649881567,-0.6685449015995555,8.895443459952627,0.3033333333333333,-0.3977777777777778,-0.6488888888888888,0.0020020733758109657,0.016293529219361193,0.1787583832932475
1589986837.6325057,-2.832049879093405,-0.6018726177302348,8.84915180950039,0.3033333333333333,-0.3977777777777778,-0.6488888888888888,0.012982044249216193,0.0027752498390699416,0.14891577087339178
1589986837.6425056,-1.8607889667609327,-1.014443624738719,9.16717529406943,0.3033333333333333,-0.3977777777777778,-0.6488888888888888,0.009231667962462732,0.023402319416213978,0.09266012657208983
1589986837.6525056,-1.8725400190044588,-1.1072999049777064,8.894004824208757,0.3033333333333333,-0.3977777777777778,-0.6488888888888888,0.0702549720946707,0.06966590274147401,0.007877965399735386
1589986837.6625056,-2.0345482410449556,-0.9375228383684591,8.746710673932206,0.3033333333333333,-0.3977777777777778,-0.6488888888888888,0.055775225120581126,0.04193330452469928,-0.00904115937443773
1589986837.6725056,-2.22760539837801,-0.8952993252027487,8.992217544728533,0.3033333333333333,-0.3977777777777778,-0.6488888888888888,-0.00793335775616518,-0.0019664397669481998,-0.004876087206720523
1589986837.6825056,-2.27,-0.89,9.13,0.3033333333333333,-0.3977777777777778,-0.6488888888888888,-0.031634092692397225,-0.025089107997418484,-0.00545415391248228
1589986837.6925056,-2.321271662010828,-0.8677745914810512,9.074277520951274,0.30312138966486196,-0.3979897214462491,-0.6488888888888888,-0.0004319259509838008,0.0005548672265369726,0.012241893019070941
1589986837.7025056,-2.361124832975665,-0.8078738308296555,8.905624164878326,0.2966666666666667,-0.4044444444444445,-0.6488888888888888,0.017426349701895646,0.01622629008492076,0.01889875262392269
1589986837.7125056,-2.37,-0.8666434222877832,8.933217111438916,0.2966666666666667,-0.4044444444444445,-0.6488888888888888,-0.0029291666338620136,0.0025173805734184677,0.010893094414560961
1589986837.7225056,-2.3708468303407844,-0.8616936606815683,8.893225357273726,0.2966666666666667,-0.4044444444444445,-0.6488888888888888,-0.007618147936036443,-0.004992279610842611,0.006544984694978735
1589986837.7325056,-2.4084487673989603,-0.8586634244507798,8.852004863323831,0.2966666666666667,-0.4044444444444445,-0.6488888888888888,0.004363323129985824,0.0011637296701075305,0.004217525354763675
1589986837.7425056,-2.4702164331094023,-0.823405477703134,8.923621910812535,0.292504416140614,-0.39801187544963573,-0.6504024345347262,0.0032488831576806473,0.002901012356720976,-0.004086279898452313
1589986837.7525055,-2.4945903608995286,-0.8345903608995284,8.954590360899529,0.28444444444444444,-0.3855555555555555,-0.6533333333333333,0.00259302287408859,0.001680930867795534,-0.020010829762619066
1589986837.7625055,-2.4825650916104145,-0.8356412729026036,8.907695274831244,0.28444444444444444,-0.3855555555555555,-0.6533333333333333,0.006265176606122365,0.0029926842586329968,-0.035157991555813936
1589986837.7725055,-2.468800664451827,-0.8388006644518272,8.897204318936877,0.28444444444444444,-0.3855555555555555,-0.6533333333333333,0.005846635552829011,0.0035341467743871887,-0.05022242906974214
1589986837.7825055,-2.48,-0.8462968046668415,8.988515976665791,0.28444444444444444,-0.3855555555555555,-0.6533333333333333,0.0013737496723916329,0.0023026986213983743,-0.06969063574852043
1589986837.7925055,-2.4845244259224177,-0.837737787038791,9.010951148155163,0.28720937139703323,-0.38681234053400493,-0.6503170493850546,0.0009870766138596878,0.006090707204240277,-0.09234486065384308
1589986837.8025055,-2.494702754295064,-0.8352972457049359,8.972937005726752,0.2966666666666667,-0.3911111111111111,-0.64,0.003978096551493075,0.01180652531821464,-0.11941741334626901
1589986837.8125055,-2.4663414784647664,-0.8636585215352338,8.910731827718129,0.2966666666666667,-0.3911111111111111,-0.64,0.002181661564992912,0.010509225034058631,-0.16043188773691722
1589986837.8225055,-2.462889310694506,-0.8613320679164824,8.868667932083516,0.2966666666666667,-0.3911111111111111,-0.64,0.002812011374145548,0.011078176660773376,-0.19429069311957572
1589986837.8325055,-2.4820516049127876,-0.8460258024563938,8.89903870368459,0.2966666666666667,-0.3911111111111111,-0.64,0.005677949291721258,0.015824082874623217,-0.23524222354500257
1589986837.8425055,-2.512946540708786,-0.861473270354393,8.918526729645606,0.2987947238452344,-0.3911111111111111,-0.6432739341208735,0.009048063990673929,0.02011708068098963,-0.27352118746032617
1589986837.8525054,-2.528215475345383,-0.8691077376726916,8.910892262327309,0.3098222877494433,-0.3911111111111111,-0.6602394170504257,0.010713646382426558,0.022615454268618575,-0.30600004409950243
1589986837.8625054,-2.55,-0.865865915756518,8.910446947478274,0.3111111111111111,-0.3911111111111111,-0.6622222222222223,0.011761470688263333,0.022669778513227892,-0.3625762971059405
1589986837.8725054,-2.55,-0.8885063965309391,8.834978678230204,0.3111111111111111,-0.3911111111111111,-0.6622222222222223,0.015054395136164363,0.025962702961128917,-0.4020913904807528
1589986837.8825054,-2.559421477052703,-0.8576446307368242,8.967066107789528,0.3111111111111111,-0.3911111111111111,-0.6622222222222223,0.013410007383528474,0.02823538621704948,-0.46631211400704553
1589986837.8925054,-2.5939446412173686,-0.8539446412173685,8.991972320608685,0.31483660559418136,-0.3911111111111111,-0.6622222222222223,0.011768895038126528,0.035552025449758065,-0.5193298251432515
1589986837.9025054,-2.61,-0.8660700704304584,8.988210211291376,0.33,-0.3911111111111111,-0.6622222222222223,0.015271630954950384,0.039036455016875776,-0.5770959978429413
1589986837.9125054,-2.595382361558746,-0.8782720480515676,8.933455903896865,0.33,-0.3911111111111111,-0.6622222222222223,0.015271630954950384,0.04075937320184696,-0.6303983164224415
1589986837.9225054,-2.5735929195567966,-0.9064070804432034,8.862814160886407,0.33,-0.3911111111111111,-0.6622222222222223,0.015663557680109116,0.043411203360659005,-0.6819526491724848
1589986837.9325054,-2.5827721165303856,-0.9110884661215434,8.874949048773471,0.33,-0.3911111111111111,-0.6622222222222223,0.017572025755051693,0.04811528766495247,-0.7270109269507369
1589986837.9425054,-2.588443585140174,-0.9431128297196519,8.933774340560696,0.32706010526477314,-0.3902464361889855,-0.6644703770197486,0.02191423453503583,0.05194816087310667,-0.769281857922755
1589986837.9525054,-2.5729300262149626,-0.965302480338778,8.894697519661221,0.3111111111111111,-0.3855555555555555,-0.6766666666666666,0.02913281484852402,0.0567891916627435,-0.8134504860492344
1589986837.9625053,-2.547313116918499,-0.9863434415407507,8.859030324622251,0.3111111111111111,-0.3855555555555555,-0.6766666666666666,0.031528317517289586,0.0601830113396245,-0.8647268700587382
1589986837.9725053,-2.571197544482279,-0.9855987722411395,8.856796316723418,0.3111111111111111,-0.3855555555555555,-0.6766666666666666,0.028841699816922146,0.05641783503457462,-0.9051690395805317
1589986837.9825053,-2.604881096249565,-1.0024405481247824,8.914643288748694,0.3111111111111111,-0.3855555555555555,-0.6766666666666666,0.028335659570682042,0.057762149923860535,-0.939582104088229
1589986837.9925053,-2.624407338272181,-1.0173455637869684,8.96,0.3168243273898643,-0.38637172930966307,-0.6725857978961286,0.031634092692397225,0.0643590161672909,-0.9650283029261859
1589986838.0025053,-2.65,-1.0800880917842544,8.980088091784255,0.35,-0.3911111111111111,-0.6488888888888888,0.030173245433738644,0.06545465161128483,-0.996692560679076
1589986838.0125053,-2.652564448602144,-1.1123066541935682,8.973839925161409,0.35,-0.3911111111111111,-0.6488888888888888,0.027830245457481122,0.06763150851478028,-1.016738652309626
1589986838.0225053,-2.6589967334795346,-1.0930097995613968,8.85805879736838,0.35,-0.3911111111111111,-0.6488888888888888,0.029233552326689918,0.06763150851478028,-1.0251584935248788
1589986838.0325053,-2.6636570761814107,-1.1312190253938035,8.872438050787606,0.35,-0.3911111111111111,-0.6488888888888888,0.03136814260755607,0.06954721999493203,-1.040598505615355
1589986838.0425053,-2.6829755580802654,-1.1376585193600883,8.885317038720178,0.35,-0.3911111111111111,-0.6488888888888888,0.02996326295913132,0.06814234034650729,-1.0518375428027533
1589986838.0525053,-2.6603358778625954,-1.171679389312977,8.888992366412214,0.3644444444444445,-0.3588888888888889,-0.7055555555555556,0.02858143189191477,0.069849808670941,-1.0704713835407014
1589986838.0625052,-2.6693549080744003,-1.216774540372003,8.861935275776798,0.3644444444444445,-0.3588888888888889,-0.7055555555555556,0.034484373361896345,0.07083363224927126,-1.0803096193240043
1589986838.0725052,-2.67,-1.2419961075725408,8.827984430290163,0.3644444444444445,-0.3588888888888889,-0.7055555555555556,0.03490658503988659,0.07264805632035658,-1.1034767768099707
1589986838.0825052,-2.67,-1.2494170205237085,8.857668082094833,0.3644444444444445,-0.3588888888888889,-0.7055555555555556,0.03490658503988659,0.07507654440476472,-1.1180477053164193
1589986838.0925052,-2.690925488423691,-1.3046274421184543,8.915552930542145,0.368557726327515,-0.3557010954295093,-0.7042187389435577,0.04025978382622826,0.07813599583518238,-1.143532876644808
1589986838.1025052,-2.6995420835302095,-1.3477104176510468,8.967252501181257,0.4068537045787082,-0.32602171228483445,-0.6917725460119198,0.039319859107978396,0.07437629696218291,-1.167030994601055
1589986838.1125052,-2.7241314464811475,-1.4117371070377054,8.930657232405737,0.4088888888888889,-0.3244444444444444,-0.6911111111111111,0.03727773558780152,0.0799507270635959,-1.2066944375390378
1589986838.1225052,-2.718685373503136,-1.4631609960083634,8.86579024900209,0.4088888888888889,-0.3244444444444444,-0.6911111111111111,0.03972912076738886,0.08166890518220775,-1.2374339247732196
1589986838.1325052,-2.746896815092034,-1.52,8.884597876728023,0.4088888888888889,-0.3244444444444444,-0.6911111111111111,0.03817907738737596,0.0839939702522271,-1.267683587260436
1589986838.1425052,-2.7671873035826526,-1.5228126964173476,8.897749842866123,0.4092639150778686,-0.3229443396885257,-0.693486276974649,0.03817907738737596,0.08448487838564474,-1.295259395957727
1589986838.1525052,-2.72,-1.5831691166732884,8.863292279168322,0.4155555555555556,-0.2977777777777777,-0.7333333333333333,0.03853820933351372,0.09307974845833651,-1.331410904041203
1589986838.1625051,-2.7150052960376994,-1.6249841118869026,8.852518536131946,0.4155555555555556,-0.2977777777777777,-0.7333333333333333,0.039542327011449156,0.09353902845311848,-1.360530316701331
1589986838.1725051,-2.69708430724591,-1.677289231885226,8.804373539131136,0.4155555555555556,-0.2977777777777777,-0.7333333333333333,0.04131489717490799,0.0933567219938915,-1.3877628431373128
1589986838.1825051,-2.6801813492383335,-1.719546626904167,8.8297279761425,0.4155555555555556,-0.2977777777777777,-0.7333333333333333,0.046846377247880766,0.09704437537587335,-1.408044936738213
1589986838.1925051,-2.6372281208122876,-1.7128713534687146,8.851385939593856,0.4155555555555556,-0.2977777777777777,-0.7333333333333333,0.045350494232575055,0.10174962788650223,-1.4269252931801952
1589986838.202505,-2.6008960236432026,-1.8008960236432026,8.929551988178398,0.4544444444444444,-0.26666666666666666,-0.7422222222222222,0.043584360791265736,0.09943664798725123,-1.4688935498519322
1589986838.212505,-2.63702875399361,-1.8548562300319489,8.880287539936102,0.4544444444444444,-0.26666666666666666,-0.7422222222222222,0.04274802037732118,0.10981843063017835,-1.5050467627611006
1589986838.222505,-2.6244740231859165,-1.89,8.80815800772864,0.4544444444444444,-0.26666666666666666,-0.7422222222222222,0.04561396267777903,0.11732168428833716,-1.5287991074844158
1589986838.232505,-2.6044640045799343,-1.89,8.801488001526645,0.4544444444444444,-0.26666666666666666,-0.7422222222222222,0.044886377869321266,0.11950443871371041,-1.542623218845113
1589986838.242505,-2.5694640974217955,-1.9803572683854693,8.869821365807265,0.45458338214990474,-0.26605137111391375,-0.7427382765567891,0.04464611821185811,0.11993292817173773,-1.5790556932363444
1589986838.252505,-2.543448632331962,-1.9977009117786921,8.861149544110653,0.4613281323583802,-0.2361817630478081,-0.7677902059025552,0.04086232219306441,0.11709508115764243,-1.609326061386694
1589986838.262505,-2.500876127534161,-2.037319817808341,8.812680182191658,0.4622222222222222,-0.23222222222222225,-0.7711111111111111,0.041946374552611104,0.1266375919165938,-1.6547060272760366
1589986838.272505,-2.445529372560221,-2.1032940588403313,8.753411882319337,0.4622222222222222,-0.23222222222222225,-0.7711111111111111,0.04036073895236887,0.12980886311707826,-1.6857442952263835
1589986838.282505,-2.4374113531563046,-2.100381221179838,8.811117029734458,0.4622222222222222,-0.23222222222222225,-0.7711111111111111,0.04036073895236887,0.1306173163333632,-1.719354331815927
1589986838.292505,-2.4703073202192845,-2.190614640438568,8.858463398903579,0.4630417428069798,-0.23140270163746465,-0.7726477122075316,0.040595403001063936,0.13447389716681488,-1.7451435539710856
1589986838.302505,-2.475537702025416,-2.239004936834794,8.805537702025417,0.4888888888888889,-0.20555555555555555,-0.8211111111111111,0.04726641263114193,0.14496318568780167,-1.7797753673284218
1589986838.312505,-2.4604737559645535,-2.3404737559645534,8.78889456941604,0.4888888888888889,-0.20555555555555555,-0.8211111111111111,0.04467238332340206,0.14837021267250222,-1.8013233732143172
1589986838.322505,-2.487221047014655,-2.3755579059706897,8.72,0.4888888888888889,-0.20555555555555555,-0.8211111111111111,0.04099686461593664,0.15035322743987184,-1.826294162301694
1589986838.332505,-2.47123453966802,-2.4075309206639606,8.72,0.4888888888888889,-0.20555555555555555,-0.8211111111111111,0.0383810784681893,0.1555847997353665,-1.8402450217563466
1589986838.342505,-2.468790984067058,-2.4707254095597655,8.829274590440235,0.4889963569718171,-0.20649590128117734,-0.8214872494013599,0.03158133942054994,0.160352125026979,-1.8622855354447632
1589986838.352505,-2.4216629587181733,-2.4990022247690957,8.800997775230904,0.49318551478060685,-0.2431510321080873,-0.8361493017321239,0.02952499138979649,0.160352125026979,-1.8715391015831535
1589986838.362505,-2.143173002327386,-2.327821567106284,8.435958107059736,0.4933333333333334,-0.24444444444444444,-0.8366666666666667,0.030717591732394384,0.15515946584823717,-1.8797285747674
1589986838.372505,-1.0946883889319885,-1.6119596586501164,6.808999224204809,0.4933333333333334,-0.24444444444444444,-0.8366666666666667,0.02282987248228683,0.14332788697307586,-1.8891938378675293
1589986838.382505,-1.728063942152984,-2.115076567794204,8.295276268716046,0.4933333333333334,-0.24444444444444444,-0.8366666666666667,-0.05064416627664839,0.07463081848010805,-1.9055057423010622
1589986838.392505,-2.243297822817446,-2.670204827042899,9.02638670056578,0.495807729952971,-0.24444444444444444,-0.8397596624412137,-0.047320869015691526,0.22699334699882973,-1.873181232810824
1589986838.402505,-2.0405367757645205,-2.4298954379431357,8.132736159851035,0.5258464035904414,-0.24444444444444444,-0.8773080044880518,0.11979139131680805,0.10903175147000654,-1.8494250781557136
1589986838.412505,-2.4145589527816735,-2.806801309022908,9.09115829827022,0.5333333333333333,-0.24444444444444444,-0.8866666666666667,0.07710816085946529,0.2544405688844703,-1.8144445759578014
1589986838.422505,-2.351811126694717,-2.8852360916316035,8.989193080878916,0.5333333333333333,-0.24444444444444444,-0.8866666666666667,0.048018075261551094,0.11925722992945731,-1.8315563910153982
1589986838.432505,-2.2611500063879104,-2.8623000127758207,8.863199795586867,0.5333333333333333,-0.24444444444444444,-0.8866666666666667,-0.003632426090563112,0.11788609520702478,-1.8251834964321556
1589986838.442505,-2.2688050957274006,-2.8776101914548007,8.618236936723184,0.5333333333333333,-0.24444444444444444,-0.8866666666666667,0.04479993505623897,0.13291682797672197,-1.7976271530210441
1589986838.4525049,-2.1707396805924715,-2.9425909266453125,8.645549649015198,0.4222222222222222,-0.26666666666666666,-0.7422222222222222,0.026907456672473407,0.12564792566147506,-1.7791855725978643
1589986838.4625049,-2.215266338599672,-3.024733661400328,8.889231200897868,0.4222222222222222,-0.26666666666666666,-0.7422222222222222,0.02031904238710786,0.10979951571643676,-1.7642801177770941
1589986838.4725049,-2.1906234215885947,-3.0413395112016293,8.741777596741343,0.4222222222222222,-0.26666666666666666,-0.7422222222222222,0.04553276536776515,0.11825818703864928,-1.7362901526971883
1589986838.4825048,-2.130826883910387,-3.049881873727087,8.434252545824847,0.4222222222222222,-0.26666666666666666,-0.7422222222222222,0.05764651896518338,0.13503107663507452,-1.706471682303543
1589986838.4925048,-2.2076788187516136,-3.224777342191131,9.119399516420573,0.4222222222222222,-0.26666666666666666,-0.7422222222222222,0.024979433398450615,0.09183661312542106,-1.6933491768281235
1589986838.5025048,-2.1744293953163227,-3.2122146976581614,8.88211311604334,0.4795304186570353,-0.1382172608644996,-0.6888663151967066,0.00847767299853502,0.09344906823777842,-1.669688468109919
1589986838.5125048,-2.0852980501392757,-3.1529438917628334,8.578822124950259,0.4866666666666667,-0.12222222222222222,-0.6822222222222222,0.05884070595172348,0.11748894299419152,-1.6144299053548525
1589986838.5225048,-1.6932838373234904,-2.875621550235346,8.609444143442484,0.4866666666666667,-0.12222222222222222,-0.6822222222222222,0.0641424272846534,0.11999740704977344,-1.5725975587696648
1589986838.5325048,-1.7145883986319461,-2.8472154684907385,7.892190579391149,0.4866666666666667,-0.12222222222222222,-0.6822222222222222,0.10519917988434845,0.16957537245317877,-1.5276675276228286
1589986838.5425048,-1.841836007130125,-3.1223367363474317,8.549862258953167,0.4868706674589028,-0.12109094510164028,-0.6817214930049155,0.09544530711038388,0.09962815086442918,-1.4948735497899208
1589986838.5525048,-1.9264993012375184,-3.2411994409900147,9.409790776335244,0.4988888888888889,-0.054444444444444434,-0.6522222222222223,-0.001090830782496456,0.0567232006898157,-1.4562590946327687
1589986838.5625048,-1.8466243326322602,-3.18337566736774,8.40337566736774,0.4988888888888889,-0.054444444444444434,-0.6522222222222223,0.011797155784201478,0.06494696354666105,-1.44778984631751
1589986838.5725048,-1.8028356002365464,-3.204278533412182,8.441442933175635,0.4988888888888889,-0.054444444444444434,-0.6522222222222223,0.09825959848375747,0.12086321209622101,-1.3772470795155032
1589986838.5825047,-1.7416198932572564,-3.196848845223022,8.538803551680477,0.4988888888888889,-0.054444444444444434,-0.6522222222222223,0.033752377571118444,0.08220599592074206,-1.35622330496757
1589986838.5925047,-1.8760676678473547,-3.3917981183786643,9.103484204958889,0.4988888888888889,-0.054444444444444434,-0.6522222222222223,0.03301907871531332,0.07413970850688573,-1.2968260976473553
1589986838.6025047,-1.861619803212383,-3.450462800917824,9.036942013767355,0.5271092875631436,0.03672915127237843,-0.6381120228850948,0.05190552382123318,0.07090400086226964,-1.2165233110424756
1589986838.6125047,-1.8273918100983815,-3.4663040949508095,8.78543857573786,0.5277777777777778,0.03888888888888889,-0.6377777777777778,0.05591687929044745,0.076239503458196,-1.1796154743948761
1589986838.6225047,-1.7502994993172507,-3.412724624487938,8.481616750113792,0.5277777777777778,0.03888888888888889,-0.6377777777777778,0.039358088209458846,0.054982439322754914,-1.120325714814111
1589986838.6325047,-1.6586625398270367,-3.3439969048702776,8.496889576695494,0.5277777777777778,0.03888888888888889,-0.6377777777777778,0.04019109167801139,0.05914745666551767,-1.0795085448550361
1589986838.6425047,-1.7714039228910246,-3.5740358567976167,8.941141741134155,0.5277777777777778,0.03888888888888889,-0.6377777777777778,0.04240844529565916,0.061019546208950226,-1.0200031698292624
1589986838.6525047,-1.7091443338011538,-3.483716500701731,8.651149502105193,0.5356506295776495,0.0674279766634241,-0.6377777777777778,0.036745534882062156,0.05722194672960178,-0.9702793642043002
1589986838.6625047,-1.7144184158645484,-3.5388836831729096,8.842045227878929,0.5366666666666666,0.07111111111111111,-0.6377777777777778,0.031634092692397225,0.0493309277639423,-0.9102092935069785
1589986838.6725047,-1.6723865498481505,-3.541137232624702,8.567047564945705,0.5366666666666666,0.07111111111111111,-0.6377777777777778,0.03146053788984224,0.050574827567113484,-0.857504225509603
1589986838.6825047,-1.6998787388843977,-3.669434114793856,8.878625707356509,0.5366666666666666,0.07111111111111111,-0.6377777777777778,0.0294612494845789,0.04257767394606013,-0.8085216595806511
1589986838.6925046,-1.62989065877563,-3.4947266469390756,8.590798967449475,0.5366666666666666,0.07111111111111111,-0.6377777777777778,0.024672591905648657,0.03776256129560613,-0.7671989925227752
1589986838.7025046,-1.6429834950485145,-3.5719339801940584,8.666906471941584,0.5644444444444444,0.10222222222222224,-0.6488888888888888,0.03196554288594641,0.0388359764047597,-0.7007773009764108
1589986838.7125046,-1.6681568470541162,-3.672627388216465,8.809555466639992,0.5644444444444444,0.10222222222222224,-0.6488888888888888,0.025558240523802928,0.03517466076924913,-0.6586721711680393
1589986838.7225046,-1.570424070021882,-3.590282713347921,8.630141356673962,0.5644444444444444,0.10222222222222224,-0.6488888888888888,0.026141389727098053,0.032709503853766926,-0.6006545608168149
1589986838.7325046,-1.625491466083151,-3.6269943107221003,8.648497155361051,0.5644444444444444,0.10222222222222224,-0.6488888888888888,0.02113562216580168,0.030707196829248377,-0.5495957316915919
1589986838.7425046,-1.5448388951546916,-3.5107744532165683,8.675548331453593,0.5644444444444444,0.10222222222222224,-0.6488888888888888,0.022583711960166074,0.027756371270800655,-0.49246446910532576
1589986838.7525046,-1.5166714614499426,-3.6933429228998853,8.875135212888377,0.5911111111111111,0.13444444444444445,-0.6622222222222223,0.01622281280240342,0.02595650048384547,-0.4216503457491299
1589986838.7625046,-1.42439856494957,-3.5087971298991403,8.740274825695526,0.5911111111111111,0.13444444444444445,-0.6622222222222223,0.012351500652683589,0.01976240104429374,-0.37751738724232387
1589986838.7725046,-1.499399603710393,-3.6178986129863753,8.678198811131178,0.5911111111111111,0.13444444444444445,-0.6622222222222223,0.007701308552915194,0.01094105436268456,-0.30812586880527343
1589986838.7825046,-1.4846902453137878,-3.566415858598257,8.634070735941362,0.5911111111111111,0.13444444444444445,-0.6622222222222223,0.009305850645894165,0.011743325409174046,-0.2672100454343097
1589986838.7925045,-1.472401659618607,-3.6031883826697517,8.787163488390648,0.5911111111111111,0.13444444444444445,-0.6622222222222223,0.0023578238169495724,0.007854886815506276,-0.2168653061940816
1589986838.8025045,-1.4607317506664974,-3.5403658753332485,8.624756379332233,0.7111111111111111,0.15444444444444444,-0.6844444444444444,0.006305519849340437,0.001942196719354614,-0.15330153881024142
1589986838.8125045,-1.478644131009697,-3.544576524038787,8.741186851563029,0.7111111111111111,0.15444444444444444,-0.6844444444444444,0.0002218535447482536,-0.004289371948403072,-0.10771508309866644
1589986838.8225045,-1.4644232725300061,-3.4876930901200245,8.64875127144504,0.7111111111111111,0.15444444444444444,-0.6844444444444444,0.0025487360722241227,-0.00351374443924445,-0.07048496265905255
1589986838.8325045,-1.450487223296596,-3.480974446593192,8.718051106813617,0.7111111111111111,0.15444444444444444,-0.6844444444444444,-0.0015160133183975174,-0.006757575962929266,-0.0011213062937402317
1589986838.8425045,-1.458362216255797,-3.496724432511594,8.686551134976812,0.7111111111111111,0.15444444444444444,-0.6844444444444444,-0.008388241103868892,-0.010193689855664953,0.05127943057047899
1589986838.8525045,-1.4779440366783856,-3.5391776146713543,8.80547688069245,1.1944444444444444,0.2933333333333333,-0.9666666666666668,-0.007725523800631216,-0.017498146681521307,0.14116757400552843
1589986838.8625045,-1.4348274018791505,-3.5219309607516602,8.71062028413413,1.1944444444444444,0.2933333333333333,-0.9666666666666668,-0.009606841899697762,-0.018438805731054577,0.21924227511679006
1589986838.8725045,-1.4576012745776108,-3.556801699436815,8.681599150281592,1.1944444444444444,0.2933333333333333,-0.9666666666666668,-0.01583914103154707,-0.027576619286058198,0.3142941507185578
1589986838.8825045,-1.5674910735539158,-3.6060676029516783,8.68767793382528,1.1944444444444444,0.2933333333333333,-0.9666666666666668,-0.013849863768671082,-0.03254926362620078,0.39801055255598583
1589986838.8925045,-1.6311793972828748,-3.705743342527906,8.775743342527907,1.1944444444444444,0.2933333333333333,-0.9666666666666668,-0.0164911140235421,-0.037216898890974764,0.4890835747153246
1589986838.9025044,-1.604291367214237,-3.708574820328542,8.750007914099932,1.0746221433188836,-0.2811788919309452,-1.0809342915811089,-0.012000001901843126,-0.03895811890424742,0.5613019677906074
1589986838.9125044,-1.6123098239725224,-3.7223098239725227,8.769042191951915,1.0266666666666666,-0.5111111111111111,-1.1266666666666667,-0.012859507385131225,-0.0465707809922639,0.6190080019650649
1589986838.9225044,-1.6149184559427432,-3.6419699636278304,8.664266103484689,1.0266666666666666,-0.5111111111111111,-1.1266666666666667,-0.014449060329688769,-0.053182448185091484,0.6890820160659755
1589986838.9325044,-1.622067623366953,-3.6039661883165235,8.704473363568672,1.0266666666666666,-0.5111111111111111,-1.1266666666666667,-0.015497173676478536,-0.05871620235842478,0.7307970542642468
1589986838.9425044,-1.6040939315461609,-3.541711345978862,8.71466438020578,1.0266666666666666,-0.5111111111111111,-1.1266666666666667,-0.016362461737446838,-0.06147087617922529,0.7769534060749006
1589986838.9525044,-1.668078221109357,-3.50132464209896,8.759402863208317,0.6709769927240397,-0.08698250261583779,-0.8047144956725274,-0.022986804950786387,-0.06771086703314108,0.8269575336486503
1589986838.9625044,-1.68,-3.509061934790047,8.733752260839811,0.6166666666666667,-0.022222222222222227,-0.7555555555555555,-0.023009773473126105,-0.06575682807188894,0.8698670292330412
1589986838.9725044,-1.6733711989423143,-3.496742397884629,8.74325760211537,0.6166666666666667,-0.022222222222222227,-0.7555555555555555,-0.02579980653033299,-0.06689602699874107,0.8968943375629207
1589986838.9825044,-1.6791315256980979,-3.4717369486038043,8.603895588830433,0.6166666666666667,-0.022222222222222227,-0.7555555555555555,-0.02627467463014713,-0.07161588824383731,0.9385448897874757
1589986838.9925044,-1.7246188055908513,-3.4848729351969507,8.694110546378653,0.6166666666666667,-0.022222222222222227,-0.7555555555555555,-0.024557553226024088,-0.07361721719865695,0.9641003630489136
1589986839.0025043,-1.7127611388129322,-3.4446018980215536,8.784477722374135,0.5763127982413812,0.07967129555162368,-0.72932554107912,-0.02895044192542227,-0.0761573590939591,0.9996623495831434
1589986839.0125043,-1.7796365117344601,-3.499688438629537,8.799948073104924,0.5722222222222222,0.09,-0.7266666666666667,-0.029452431127404314,-0.07961365408556441,1.019836152105243
1589986839.0225043,-1.7614100879634784,-3.4442302638904354,8.66987061574435,0.5722222222222222,0.09,-0.7266666666666667,-0.027424586298070402,-0.07861672470757433,1.0310799281955227
1589986839.0325043,-1.7784248788368335,-3.4215751211631664,8.752124394184168,0.5722222222222222,0.09,-0.7266666666666667,-0.03028553331225924,-0.0795447375896941,1.0329308414915965
1589986839.0425043,-1.7724741364194283,-3.359793091355427,8.722370682097143,0.5722222222222222,0.09,-0.7266666666666667,-0.028901373178189457,-0.07880970275638563,1.0248073073655872
1589986839.0525043,-1.8091547095708835,-3.405257849284806,8.788309419141767,0.5729473094364979,0.08202404064296819,-0.7513196319520378,-0.027649747636914048,-0.07711611092375721,1.0128543579952598
1589986839.0625043,-1.8444230558897519,-3.4015385176273285,8.791538517627329,0.5733333333333334,0.07777777777777778,-0.7644444444444445,-0.026746332451004464,-0.07478484344053112,0.9974389007985867
1589986839.0725043,-1.8649561791132716,-3.4046056120194432,8.705394387980556,0.5733333333333334,0.07777777777777778,-0.7644444444444445,-0.023476762409753688,-0.07092312133113354,0.9693513338817963
1589986839.0825043,-1.87,-3.45,8.686408002991772,0.5733333333333334,0.07777777777777778,-0.7644444444444445,-0.021301918118786345,-0.06757007279456936,0.934435142327442
1589986839.0925043,-1.87,-3.4758237512364,8.74098850148368,0.5733333333333334,0.07777777777777778,-0.7644444444444445,-0.019563068228473472,-0.06541390402155599,0.8965074315028234
1589986839.1025043,-1.8247394506780479,-3.599573208508295,8.77905210986439,0.5250554140565843,0.0013377389229251302,-0.7513691746403249,-0.013503564485296528,-0.05843442411532075,0.8226157898769229
1589986839.1125042,-1.8295513039239581,-3.5717947843041675,8.82775651961979,0.52,-0.006666666666666667,-0.75,-0.009964312489987675,-0.05052083203904929,0.7555610037237728
1589986839.1225042,-2.2819029198062433,-4.055627018299247,8.21622140742734,0.52,-0.006666666666666667,-0.75,-0.3004370265525392,0.630386551845203,0.6452543684580727
1589986839.1325042,-2.535641986509408,0.14742732042128548,0.4440933296516896,0.52,-0.006666666666666667,-0.75,-0.9159960081415967,1.2261359680466606,-1.8695965260622436
1589986839.1425042,-3.7814106018061775,-0.15742999165212102,-0.4179648250739926,0.52,-0.006666666666666667,-0.75,-0.40000914631263984,-1.283288759487424,-3.0035265855620525
1589986839.1525042,-0.4069923062002978,-0.6520921962888732,0.4910428654554858,0.52,0.0872347578715976,-0.6897806081765478,-0.23587299118404179,-1.0065878542910245,-3.1196879505507558
1589986839.1625042,-0.39796382564053806,-0.351406569377763,0.17644340923135432,0.52,0.09555555555555556,-0.6844444444444444,-0.11418945433932977,-0.8399031721098421,-2.8898525850525134
1589986839.1725042,-0.1036868585228416,-0.013686858522841627,-0.0257295230428658,0.52,0.09555555555555556,-0.6844444444444444,-0.04351095463536828,-0.7876535861101407,-2.657860461159721
1589986839.1825042,-0.19923454554120396,-0.04831943186692721,-0.13702159096325245,0.52,0.09555555555555556,-0.6844444444444444,-0.04439916805633971,-0.745912283106586,-2.4436552445147717
1589986839.1925042,2.0667890972764287,-1.7924159827851736,5.008749815404737,0.52,0.09555555555555556,-0.6844444444444444,0.13140378976866154,-0.5819331960177766,-2.270887661449566
1589986839.2025042,1.382243530654916,1.2140664133636103,3.919162301310731,0.48278213688856914,0.13277341866698641,-0.6844444444444444,1.709073714496869,1.714897503552987,-2.222147919073048
1589986839.2125041,-0.9649219917508518,2.3481242154342756,6.017234742064678,0.4666666666666667,0.14888888888888888,-0.6844444444444444,0.11019754619865862,3.620039420281329,-1.6650587060207505
1589986839.2225041,2.2727912969490704,-0.3366301203354807,7.766925003038775,0.4666666666666667,0.14888888888888888,-0.6844444444444444,-0.6729071902969602,-0.5162153083820669,-1.0075631223038324
1589986839.2325041,1.746424998271053,-0.63,9.755862975172318,0.4666666666666667,0.14888888888888888,-0.6844444444444444,0.3820302441598823,-0.02010969518875949,-0.8752775000441939
1589986839.2425041,-0.010869278078177391,0.13541049242580594,3.6740913030915925,0.4666666666666667,0.14888888888888888,-0.6844444444444444,0.5762484817686431,0.7202679068589443,-0.7316031907152133
1589986839.252504,0.5099485810062214,-2.0690807079344333,12.439312235447858,0.4892789030614661,0.1592528305698386,-0.6495839133357953,-0.13276719272848203,0.41529059904312515,-0.5161021610490636
1589986839.262504,0.41282236055865723,-2.131447657100048,10.232450992633288,0.4933333333333334,0.16111111111111112,-0.6433333333333333,-0.3159083148336805,-0.415370375709639,-0.4213433372489782
1589986839.272504,0.2111892608119556,-1.607849121358907,6.829017963811717,0.4933333333333334,0.16111111111111112,-0.6433333333333333,-0.21904608116724933,-0.4180511529653423,-0.2658480222304291
1589986839.282504,-0.18740558089836848,-1.7231377142152633,6.561798380799737,0.4933333333333334,0.16111111111111112,-0.6433333333333333,0.15576268302686158,0.5146708907165943,0.01881556457100575
1589986839.292504,-0.4122039107389426,-1.9715178240019005,6.709022612207326,0.4933333333333334,0.16111111111111112,-0.6433333333333333,0.2572592073332638,0.38728757113472395,0.0464997453653878
1589986839.302504,-0.5347658518310388,-2.173922918422778,7.2336311698042515,0.47847382223471013,0.15835934979655125,-0.6422326288075093,-0.03468616100567884,-0.06957466259061537,-0.0170446268713542
1589986839.312504,-0.6114715111478117,-2.5473575557390586,8.66347738324617,0.4633333333333333,0.15555555555555556,-0.6411111111111111,-0.2837145875687922,-0.1730481983138451,-0.04049939726653261
1589986839.322504,-0.5666684302633186,-2.4900052907899557,8.068509218184039,0.4633333333333333,0.15555555555555556,-0.6411111111111111,0.12547102274600141,0.04121720826399322,0.017882104311410196
1589986839.332504,-0.6379548506514717,-2.553667114288825,8.124471019489711,0.4633333333333333,0.15555555555555556,-0.6411111111111111,0.11674660691798013,0.06195580743651386,0.005277224983981695
1589986839.342504,-0.6287433571313543,-2.8260212571796663,8.797173492941113,0.4633333333333333,0.15555555555555556,-0.6411111111111111,-0.041611631248846426,-0.04045226123016382,-0.0615149452820451
1589986839.352504,-0.6131729250468588,-2.6545452056525494,8.390605479855948,0.47491979585676275,0.17100417225346148,-0.6546286507217788,-0.022627381607763813,-0.023146550254513967,-0.10627726105991021
1589986839.362504,-0.7668772907198358,-2.6412901334115233,8.703212138982554,0.4833333333333333,0.18222222222222226,-0.6644444444444444,0.02942428478262797,0.034934731384662916,-0.1285899344813668
1589986839.372504,-0.7797975730832873,-2.6159244346387203,8.556558742415886,0.4833333333333333,0.18222222222222226,-0.6644444444444444,-0.046565658805501495,0.0036758530516182233,-0.15402795384395626
1589986839.382504,-0.8388278828515403,-2.7941311910936806,8.588836106015561,0.4833333333333333,0.18222222222222226,-0.6644444444444444,0.00802656598169918,0.01636425575353545,-0.15637327334490708
1589986839.392504,-0.803358982250949,-2.8670801272186313,8.388035292910638,0.4833333333333333,0.18222222222222226,-0.6644444444444444,0.036769737893790455,0.016593565211936955,-0.1422223092608891
1589986839.402504,-0.9278859209629124,-3.2314989179093416,9.306985562242447,0.46872731644810745,0.20413124755006112,-0.6644444444444444,0.0030321156848853517,-0.0012494541553032257,-0.11055825944718964
1589986839.412504,-0.9074870270665335,-3.029930811021512,8.733553243842424,0.4655555555555556,0.2088888888888889,-0.6644444444444444,-0.0005444719729039245,0.009002655919800824,-0.03788985987072653
1589986839.422504,-0.9121042792701264,-2.9778957207298737,8.58852887389767,0.4655555555555556,0.2088888888888889,-0.6644444444444444,-0.002376669677001768,0.006419042879516777,-0.004330829166334423
1589986839.432504,-0.941966850064016,-2.9592795598463613,8.501246409910378,0.4655555555555556,0.2088888888888889,-0.6644444444444444,-0.010518501620914562,-0.009738889212814565,0.08825435917881946
1589986839.442504,-0.9235835650881938,-3.1273816145376965,8.74866852070555,0.4655555555555556,0.2088888888888889,-0.6644444444444444,0.003092155565873179,-0.01705068790183115,0.21527970828887374
1589986839.452504,-0.5735091525423729,-4.343096949152542,8.736403163841807,0.46949539234149407,0.21426139359698684,-0.6712496170747018,0.03251706166341322,-0.012630513929524276,0.3118541981691914
1589986839.462504,-6.017230133673674,-16.010953516490897,7.092734264794787,0.4777777777777778,0.2255555555555556,-0.6855555555555556,-0.08915880157824553,0.10290211903511572,0.18809232479077845
1589986839.472504,-8.802993745489536,-17.441265335578542,7.372608852537888,0.4777777777777778,0.2255555555555556,-0.6855555555555556,-0.37633911283893756,-0.001959401840967351,-1.2953309836621816
1589986839.482504,-0.09629626166039329,-2.231247983541019,11.297774530661867,0.4777777777777778,0.2255555555555556,-0.6855555555555556,0.07742572701392347,0.12275652594303588,-3.6922125264488033
1589986839.492504,0.1126311305829378,-1.496312522818547,5.8292496044785205,0.4777777777777778,0.2255555555555556,-0.6855555555555556,0.8846530381683078,0.6264587153436781,-3.674445874526201
1589986839.5025039,0.27260920136714206,-1.3559130683749976,4.349653740851421,0.48459483802468256,0.2255555555555556,-0.6955189513010317,0.6778962754329583,0.349646567536086,-3.41208171695117
1589986839.5125039,-0.4749348072562357,-2.720547052154195,9.924608134920636,0.4922222222222222,0.2255555555555556,-0.7066666666666667,-0.12322437909316986,0.019312002624528757,-3.0875057045891103
1589986839.5225039,-1.1611995711786944,-2.8520605992213506,10.453774944046343,0.4922222222222222,0.2255555555555556,-0.7066666666666667,-0.2629178745446094,0.17604177545179653,-2.674879465140402
1589986839.5325038,-0.5627620565962534,-2.5506217616580313,7.778597050617776,0.4922222222222222,0.2255555555555556,-0.7066666666666667,0.13648471272458448,0.2553348350271527,-2.2828297072539776
1589986839.5425038,-0.7976752164349283,-2.8767453030088994,8.844283090832038,0.4922222222222222,0.2255555555555556,-0.7066666666666667,0.07785398837718602,0.1612393317153118,-2.0101467891372966
1589986839.5525038,-0.9259763153949933,-2.9680473692100136,9.314541448058762,0.46696747114375653,0.2724572361298489,-0.7160470027815253,-0.016162380708296384,0.06213379331906353,-1.748926197413117
1589986839.5625038,-0.7388046654155878,-2.889701166353897,8.628929614936931,0.4533333333333333,0.2977777777777777,-0.7211111111111111,0.07214419023635955,0.11833810255284799,-1.4452029052182442
1589986839.5725038,-0.7380087612431634,-3.1040262837294903,9.103282355685735,0.4533333333333333,0.2977777777777777,-0.7211111111111111,0.028506002035107433,0.07992900753637597,-1.1916478748222825
1589986839.5825038,0.625655606942005,-7.790649241826063,8.474293310988285,0.4533333333333333,0.2977777777777777,-0.7211111111111111,-0.01824227586867677,0.05511969332607473,-1.0561461709828657
1589986839.5925038,1.7256463217386455,-12.31558980460689,7.809619810741973,0.4533333333333333,0.2977777777777777,-0.7211111111111111,-0.046585322904953035,0.03447314462801247,-1.2707849069146315
1589986839.6025038,1.3827519092459406,-13.410362942092386,7.94832987321124,0.4522218926867848,0.30105035301483724,-0.7211111111111111,-0.049870588288065607,0.012066228704152701,-2.204646777703781
1589986839.6125038,-0.06291229650601635,-2.380596486712567,7.225473907727945,0.43333333333333335,0.3566666666666667,-0.7211111111111111,0.28309161011685857,0.3412042320369373,-3.044011203582359
1589986839.6225038,-7.785665698306358,-11.360864014545168,8.428872354301298,0.43333333333333335,0.3566666666666667,-0.7211111111111111,0.05787648353406771,0.22077068987767617,-2.6901482350960433
1589986839.6325037,-8.885701102380446,-11.808725408807462,10.837673803502133,0.43333333333333335,0.3566666666666667,-0.7211111111111111,-0.1846548206244519,0.03493202519250656,-1.436738958190286
1589986839.6425037,2.762258714637605,-1.791121519743226,10.00024893632903,0.43333333333333335,0.3566666666666667,-0.7211111111111111,-0.003781796411422733,-0.11955686950591626,0.8876651166590859
1589986839.6525037,3.893509179319242,-5.287107273990275,6.665438920313585,0.41483554408829787,0.3693508650061196,-0.701027797073644,0.20286525486421905,-0.04645644468737209,1.3369807700378111
1589986839.6625037,0.114393656070365,-2.1521393448299744,9.180924579264492,0.3944444444444444,0.38333333333333336,-0.6788888888888889,-0.11463801256685466,-0.0790442471960873,0.24884857695904694
1589986839.6725037,-0.05503437120905774,-3.0689729073999192,8.790608572583906,0.3944444444444444,0.38333333333333336,-0.6788888888888889,-0.09971441654126165,0.013746099915215665,-0.26076413513173363
1589986839.6825037,0.29662991193665356,-4.486298379338415,8.555745578331976,0.3944444444444444,0.38333333333333336,-0.6788888888888889,-0.005291413228880354,0.045013378853202564,-0.32688758878537694
1589986839.6925037,0.0014708662684285723,-4.187765039522114,8.717613588366621,0.3944444444444444,0.38333333333333336,-0.6788888888888889,-0.029856674116352143,0.02548233714753583,-0.5077797217496043
1589986839.7025037,0.8187960750581412,-4.20048679473701,9.257822485584123,0.37961950577166104,0.38498054874142035,-0.6986554737859335,-0.010084824240841585,0.04299233476633377,-0.47774753213296695
1589986839.7125037,0.5077710462067094,-4.355569784790668,9.018910615788046,0.3744444444444445,0.3855555555555555,-0.7055555555555556,0.018251429207746705,0.03872586137226802,-0.2700452261515997
1589986839.7225037,-0.28868704222804964,-4.474090333664888,8.459493625101727,0.3744444444444445,0.3855555555555555,-0.7055555555555556,0.0435914583695402,0.02993442268348252,-0.06111927142987378
1589986839.7325037,-0.21620383241540714,-4.6231723883091975,8.639805563864792,0.3744444444444445,0.3855555555555555,-0.7055555555555556,0.005816292610963059,-0.0007864860958419206,-0.01689727228261935
1589986839.7425036,0.05047831942833626,-4.687059373713944,8.88143495828501,0.3744444444444445,0.3855555555555555,-0.7055555555555556,-0.026841787267143653,-0.017902578167910053,-0.02407461373999441
1589986839.7525036,-0.03598668216890392,-4.57,8.639002219638517,0.3734466640829605,0.3867750648862581,-0.7034491303479783,0.00032894410976243413,0.0067650878514934525,0.00501879009949141
1589986839.7625036,-0.1069613354947746,-4.513462215017418,8.669576449487808,0.3644444444444445,0.3977777777777778,-0.6844444444444444,0.003939451864659534,0.0007593639044985332,0.00047409922016479293
1589986839.7725036,-0.06325936669083877,-4.519648054145516,8.671629683345419,0.3644444444444445,0.3977777777777778,-0.6844444444444444,0.009678097503761885,-0.00013937953870621876,0.0
1589986839.7825036,-0.0491781653790358,-4.521643669241929,8.669178165379035,0.3644444444444445,0.3977777777777778,-0.6844444444444444,0.007925700234188008,-0.0004901212631587261,0.0
1589986839.7925036,-0.08209789119736344,-4.4755594896118644,8.69024472799341,0.3644444444444445,0.3977777777777778,-0.6844444444444444,-0.0025325676928559127,-0.0004042974935727396,0.0
1589986839.8025036,-0.06686360645996478,-4.517454425839859,8.66,0.3728081605512051,0.39986870680446795,-0.6910657196956299,-0.013432096851906815,-0.004363323129985824,-0.0003421274619493458
1589986839.8125036,-0.06673730746289604,-4.500105961194344,8.646525385074208,0.3911111111111111,0.4044444444444445,-0.7055555555555556,-0.012710947698119906,-0.003995860011402319,-0.000723367663912951
1589986839.8225036,-0.0839051960817544,-4.504379215672983,8.616094803918244,0.3911111111111111,0.4044444444444445,-0.7055555555555556,-0.003001624086208514,-0.0019945199181906946,0.0008519816195324487
1589986839.8325036,-0.08533814071331125,-4.484661859286689,8.62165464821672,0.3911111111111111,0.4044444444444445,-0.7055555555555556,0.008398610419513251,0.0005085299613587064,0.002181661564992912
1589986839.8425035,-0.07906290063287276,-4.481874198734254,8.691720152215055,0.3911111111111111,0.4044444444444445,-0.7055555555555556,0.009425394176607928,0.0016873570155407013,0.0011930524660884907
1589986839.8525035,-0.09,-4.502379077615298,8.697038495188101,0.3911111111111111,0.39868926106458924,-0.7055555555555556,0.0004447306602304007,0.0005771818669789709,0.0005136489155174851
1589986839.8625035,-0.08409775323326725,-4.544097753233268,8.648195506466536,0.3911111111111111,0.3922222222222223,-0.7055555555555556,-0.005060474493858288,-0.0012876704918084521,0.001090830782496456
1589986839.8725035,-0.08,-4.5169012099142485,8.64,0.3911111111111111,0.3922222222222223,-0.7055555555555556,0.0023968036869019393,-0.0002918962201958093,-0.00016901278070161237
1589986839.8825035,-0.08440728476821192,-4.473556291390729,8.653221854304636,0.3911111111111111,0.3922222222222223,-0.7055555555555556,0.007025744884218068,0.0006100705932571239,-0.00012931040401779187
1589986839.8925035,-0.09,-4.457038458699343,8.687038458699343,0.3911111111111111,0.3922222222222223,-0.7055555555555556,0.004538136271552208,0.0,0.0014005987030887544
1589986839.9025035,-0.09,-4.503757570437988,8.718727288686035,0.3856835093673503,0.3922222222222223,-0.7026330007704537,-0.005731816448183125,-0.0008197747002312522,0.0013618868647616597
1589986839.9125035,-0.09,-4.531336715676123,8.657326568647752,0.37666666666666665,0.3922222222222223,-0.6977777777777778,-0.012144951668157114,-0.0033453988778374176,-0.0011637373128445055
1589986839.9225035,-0.08003976929643743,-4.545019884648219,8.58513919253753,0.37666666666666665,0.3922222222222223,-0.6977777777777778,-0.00820509073373711,-0.0027335841921539645,-0.0016384152523822922
1589986839.9325035,-0.07,-4.5023059445178335,8.60654108322325,0.37666666666666665,0.3922222222222223,-0.6977777777777778,0.0034720408901051003,-0.0005768578320330004,0.00045108806889391107
1589986839.9425035,-0.07860017257609037,-4.472900258864136,8.700100604016317,0.37666666666666665,0.3922222222222223,-0.6977777777777778,0.010286543691507164,-0.0004690666490390608,0.0017125949159538512
1589986839.9525034,-0.09283444116740766,-4.487165558832593,8.731496676497777,0.37446210131423846,0.3922222222222223,-0.6977777777777778,0.00843479128369778,-0.001090830782496456,0.000472451647179761
1589986839.9625034,-0.09301822238750465,-4.500945332837486,8.671600223131277,0.3688888888888889,0.3922222222222223,-0.6977777777777778,-0.00010311981588345112,-0.0003292369888710017,-0.0007100338856837288
1589986839.9725034,-0.08,-4.52478656686223,8.588589925146671,0.3688888888888889,0.3922222222222223,-0.6977777777777778,-0.0027037950125726436,0.00026106672378986594,-0.000414882029353295
1589986839.9825034,-0.08,-4.499158044951837,8.575051730288976,0.3688888888888889,0.3922222222222223,-0.6977777777777778,0.0006429013388098984,-0.0009071446856936279,-0.0009071446856936279
1589986839.9925034,-0.08,-4.484419183316795,8.655113675074427,0.3688888888888889,0.3922222222222223,-0.6977777777777778,0.0070270428145241355,-0.0001267145434056564,0.00017767178806987164
1589986840.0025034,-0.08,-4.471994756876046,8.711023594057794,0.3688888888888889,0.3922222222222223,-0.6977777777777778,0.005671748132881028,-0.002837303906691872,-0.0018552702343947903
1589986840.0125034,-0.08776415606999238,-4.526707531790023,8.704349092489947,0.3911111111111111,0.4,-0.6911111111111111,-0.005582786821840899,-0.002425554303363927,0.0
1589986840.0225034,-0.07762161335931828,-4.547621613359318,8.628594520233865,0.3911111111111111,0.4,-0.6911111111111111,-0.009298593570401312,-0.0024941671393891797,-0.0005188834720667922
1589986840.0325034,-0.0752357491372129,-4.519057003451149,8.601885993097703,0.3911111111111111,0.4,-0.6911111111111111,-0.0019244991491740998,0.0,-0.0004682666665025842
1589986840.0425034,-0.08408229380003723,-4.495917706199963,8.676740644200336,0.3911111111111111,0.4,-0.6911111111111111,0.005944347391654399,0.0,0.0006455216084689509
1589986840.0525033,-0.09,-4.49456727959358,8.73228363979679,0.38781252029352553,0.3982238357136078,-0.6911111111111111,0.009070157666526359,0.0004982129172944969,0.0
1589986840.0625033,-0.09,-4.512344899781397,8.718895901967425,0.37666666666666665,0.3922222222222223,-0.6911111111111111,0.005266040263270091,0.002181661564992912,0.00025578888634172876
1589986840.0725033,-0.09,-4.5245860967161615,8.613311226270708,0.37666666666666665,0.3922222222222223,-0.6911111111111111,-0.0009102314053014624,0.000680864924144473,0.001090830782496456
1589986840.0825033,-0.08500493085338165,-4.53,8.589980276586473,0.37666666666666665,0.3922222222222223,-0.6911111111111111,-0.0005481047545745671,-0.0005459532639134958,0.001090830782496456
1589986840.0925033,-0.08375892089825505,-4.511205395508725,8.63255352538953,0.37666666666666665,0.3922222222222223,-0.6911111111111111,0.003821800214907248,-0.0016401386499143365,0.0006807961200178718
1589986840.1025033,-0.08449580915538363,-4.474495809155384,8.682843111970772,0.3815592807507701,0.3936492346634191,-0.692334264632137,0.005944570614374464,-0.0037629090493815527,0.00020013802686809034
1589986840.1125033,-0.061541523571651574,-4.457707617858258,8.732292382141742,0.4033333333333333,0.4,-0.6977777777777778,0.0019272592563682315,-0.0015952931916668823,0.0009226766461063139
1589986840.1225033,-0.07,-4.509288190996991,8.64665510868071,0.4033333333333333,0.4,-0.6977777777777778,-0.006467338377804686,-0.0026746823544484795,0.0003377281551074689
1589986840.1325033,-0.07,-4.528508408816656,8.556960758855608,0.4033333333333333,0.4,-0.6977777777777778,-0.008563938902202422,0.0008196518528810794,0.0010365949965733807
1589986840.1425033,-0.09,-4.523522691064683,8.630795514892196,0.4033333333333333,0.4,-0.6977777777777778,-0.004660811901809625,-0.00038426598505803965,0.0008553091833503172
1589986840.1525033,-0.09,-4.504430788838818,8.662615351935303,0.4033333333333333,0.4,-0.6977777777777778,0.0008927973366929746,0.0016983374793804352,0.00016110802853749222
1589986840.1625032,-0.09599578292082936,-4.453003162809378,8.75,0.3688888888888889,0.3855555555555555,-0.6844444444444444,0.007417419314987322,-0.0009816327012525214,0.0013092269449843253
1589986840.1725032,-0.06557167677629774,-4.487428902368397,8.722141616118511,0.3688888888888889,0.3855555555555555,-0.6844444444444444,0.0038334188357606273,-0.00020259188459020654,0.002462124809128542
1589986840.1825032,-0.09270559809547498,-4.52,8.597294401904525,0.3688888888888889,0.3855555555555555,-0.6844444444444444,-0.003862762285010946,-0.001976235688778823,-0.0007956958137356671
1589986840.1925032,-0.09897000203671914,-4.51974250050918,8.592317495417381,0.3688888888888889,0.3855555555555555,-0.6844444444444444,-0.005285620889843966,-0.004335234292879438,0.0
1589986840.2025032,-0.06487297655394896,-4.505127023446051,8.689745953107897,0.37123513685930876,0.3866384392342108,-0.6902198240639394,0.0012680172100774903,-0.0029181194923272994,0.0
1589986840.2125032,-0.08903508266605219,-4.4809649173339485,8.738070165332104,0.382868743505877,0.3920077961480117,-0.7188563942708767,0.002146576180645089,-0.0011610015511921011,0.0
1589986840.2225032,-0.07353187734392236,-4.500595632031767,8.647617471872932,0.38333333333333336,0.3922222222222223,-0.72,-0.0019263402633761593,-0.002566929617668144,0.001090830782496456
1589986840.2325032,-0.07215285660234583,-4.52,8.573923571698828,0.38333333333333336,0.3922222222222223,-0.72,-0.0067381397484060305,-0.002416501790206867,0.001090830782496456
1589986840.2425032,-0.06626256248355696,-4.5231312812417785,8.614444093659563,0.38333333333333336,0.3922222222222223,-0.72,-0.007360367073097371,-0.0004076911890593173,0.0007492609857778867
1589986840.2525032,-0.07798163805929528,-4.526972457088943,8.693027542911057,0.3845667767415418,0.39098877881401384,-0.7177573756214392,-0.0033725620291728256,0.0008706616489824563,0.00033025370027099947
1589986840.2625031,-0.06,-4.488188114951492,8.731811885048508,0.3955555555555556,0.38,-0.6977777777777778,0.007172122953845245,-0.00023184626181497342,0.0024135078268078857
1589986840.2725031,-0.06727387847946908,-4.480910817719203,8.713630607602655,0.3955555555555556,0.38,-0.6977777777777778,0.0074371058764050885,-9.935480053505238e-05,-9.935480053505238e-05
1589986840.2825031,-0.08,-4.505726494073974,8.65,0.3955555555555556,0.38,-0.6977777777777778,0.0010861697434034045,-0.001869329764409203,-0.0015569979638254939
1589986840.292503,-0.0815977007844009,-4.519201149607799,8.65,0.3955555555555556,0.38,-0.6977777777777778,-0.0041890410103015,-0.001090830782496456,-0.00017428211968432373
1589986840.302503,-0.09491759026961796,-4.512541204865191,8.65,0.3955555555555556,0.38,-0.6977777777777778,-0.002736066463308936,-0.001090830782496456,-0.0016272566666768878
1589986840.312503,-0.07038898887434555,-4.519740674083769,8.699611011125654,0.37666666666666665,0.4,-0.6911111111111111,0.001104974817102615,0.002139229461174435,0.0011191188517087741
1589986840.322503,-0.0961229957460733,-4.5025846695026175,8.673877004253926,0.37666666666666665,0.4,-0.6911111111111111,0.002040689712191147,-0.0006679152240911613,0.0029905486418858383
1589986840.332503,-0.09434306380780161,-4.487542581589598,8.611885645397399,0.37666666666666665,0.4,-0.6911111111111111,-0.001707906795803286,-0.0033348631078077735,-0.0004113840088712201
1589986840.342503,-0.0726726943942134,-4.516436407474382,8.619109101868595,0.37666666666666665,0.4,-0.6911111111111111,-0.004071777398244457,0.0006049212295941766,-0.0019872977438320006
1589986840.352503,-0.08236657610244523,-4.537633423897555,8.657099728307337,0.37522042571517233,0.4,-0.6938721165639639,-0.005899601179561799,0.0026271088320724313,0.001090830782496456
1589986840.362503,-0.09830448577888398,-4.521695514221116,8.704913457336653,0.3654805920240154,0.4,-0.7124663445198091,-0.0015532105586349224,-0.001719281788854445,0.001090830782496456
1589986840.372503,-0.07699627441209274,-4.490988823236278,8.699962744120928,0.3644444444444445,0.4,-0.7144444444444444,0.00545415391248228,-0.0018540059316467612,0.0014184864158426067
1589986840.382503,-0.0764933034551045,-4.482986606910209,8.639739955182657,0.3644444444444445,0.4,-0.7144444444444444,0.004391689619144494,-0.0007366760180505276,0.0018275068005469835
1589986840.392503,-0.09,-4.512660060089969,8.665320120179938,0.3644444444444445,0.4,-0.7144444444444444,0.0004406563073358523,0.0002901675429428433,0.0008006632395536127
1589986840.402503,-0.09,-4.519622362764138,8.679244725528276,0.3644444444444445,0.4,-0.7144444444444444,-0.0041161601370891115,0.001049636950347004,4.119383214945191e-05
1589986840.412503,-0.08493606729384148,-4.512595899059238,8.689872134587683,0.3955555555555556,0.3977777777777778,-0.7122222222222222,-0.0008355580278438467,-0.0008076621222894391,-0.00055238936763683
1589986840.422503,-0.09985417296509044,-4.490218740552365,8.719708345930181,0.3955555555555556,0.3977777777777778,-0.7122222222222222,0.003232724192839482,-0.0032486314546994366,0.0010749235206365018
1589986840.432503,-0.0906911297548261,-4.496897043251609,8.632411826993565,0.3955555555555556,0.3977777777777778,-0.7122222222222222,0.0011662213436228095,-0.0015047014174128437,0.0015047014174128437
1589986840.442503,-0.07176478303639743,-4.49705913214559,8.66,0.3955555555555556,0.3977777777777778,-0.7122222222222222,-0.00147584671460243,0.0,-0.00019250796605298697
1589986840.452503,-0.08178188493470734,-4.53,8.663563769869414,0.3955555555555556,0.3979757649927453,-0.7109353053249335,-0.003272492347489368,-0.0002915602406468165,-0.0009936440356141838
1589986840.462503,-0.0992807376194251,-4.53,8.698561475238849,0.3955555555555556,0.39992008195771395,-0.6982972450526375,-0.003272492347489368,-0.0031548033156759492,-3.922967727113956e-05
1589986840.472503,-0.06702891350787421,-4.501086740523623,8.64514456753937,0.3955555555555556,0.4,-0.6977777777777778,0.003478042606221001,-0.001090830782496456,-0.00032409526030702246
1589986840.482503,-0.066382501052369,-4.48212750035079,8.61638250105237,0.3955555555555556,0.4,-0.6977777777777778,0.00608083612049606,-0.00039460792077244294,-0.0006266822080137806
1589986840.492503,-0.08600006236260738,-4.488666687454202,8.636000062362609,0.3955555555555556,0.4,-0.6977777777777778,0.004654206803514758,0.0017453360546995104,0.0007999471089675215
1589986840.502503,-0.0792727240436188,-4.520727275956381,8.689272724043619,0.3955555555555556,0.4003232337583917,-0.6972929271401903,0.0007734967822603897,-0.0011701642825554725,-0.0010114972824374394
1589986840.512503,-0.07182360672042057,-4.52817639327958,8.681823606720421,0.3955555555555556,0.403633952568702,-0.6923268489247248,-0.002476793809168506,-0.0019827369304126962,-0.00019892463458021548
1589986840.522503,-0.07067837674136887,-4.517964869775893,8.694572986069048,0.3955555555555556,0.4044444444444445,-0.6911111111111111,-0.004862158527190442,-0.002107662141831432,0.001090830782496456
1589986840.532503,-0.07887341005451241,-4.493379769836463,8.6290127195639,0.3955555555555556,0.4044444444444445,-0.6911111111111111,0.0022893571540582797,-0.001213722681675342,0.001090830782496456
1589986840.5425029,-0.07650743368812299,-4.511746283155938,8.67,0.3955555555555556,0.4044444444444445,-0.6911111111111111,0.0012292118542665228,-0.001991171622847634,0.0018006816807023564
1589986840.5525029,-0.0627313532613886,-4.521820902174259,8.67091045108713,0.3944427820046195,0.4027247035020887,-0.6917180785025309,-0.002974547925949891,-0.0012894603968561073,-9.931480717982567e-05
1589986840.5625029,-0.08775944580167999,-4.53775944580168,8.67103778320672,0.38333333333333336,0.3855555555555555,-0.6977777777777778,0.0,-0.003272492347489368,-0.001090830782496456
1589986840.5725029,-0.08074110638867507,-4.5307411063886756,8.6429644255547,0.38333333333333336,0.3855555555555555,-0.6977777777777778,0.0,-0.003272492347489368,-0.001090830782496456
1589986840.5825028,-0.08,-4.491706700902841,8.641057732129546,0.38333333333333336,0.3855555555555555,-0.6977777777777778,0.005152601047694578,-0.0007892779177087544,0.0018801087002052103
1589986840.5925028,-0.08,-4.472801688776837,8.672801688776838,0.38333333333333336,0.3855555555555555,-0.6977777777777778,0.003599281039798569,-0.000152808418037451,0.000785213946421554
1589986840.6025028,-0.08,-4.489586609840527,8.689586609840527,0.38333333333333336,0.3855555555555555,-0.6977777777777778,-0.0009780961047127909,-0.0010682838469397232,-0.0010457369113829904
1589986840.6125028,-0.07031027948839413,-4.509379441023212,8.680310279488394,0.3768735196589294,0.4038583609663667,-0.6977777777777778,-0.0032047998640658557,-0.0032047998640658557,0.004194091921427041
1589986840.6225028,-0.08544412387979677,-4.513166185819695,8.651776495519186,0.37666666666666665,0.4044444444444445,-0.6977777777777778,-0.0016846925736770909,-0.0016846925736770909,0.0008423462868385454
1589986840.6325028,-0.07,-4.498283333726722,8.614850001180164,0.37666666666666665,0.4044444444444445,-0.6977777777777778,0.0,-0.0012047620547731529,-0.0003011905136932882
1589986840.6425028,-0.07647199525440594,-4.515685336497063,8.682157331751469,0.37666666666666665,0.4044444444444445,-0.6977777777777778,-0.0009413135530235973,-0.003657337965218126,-0.001090830782496456
1589986840.6525028,-0.09938269218377474,-4.500925961724338,8.689691346091887,0.37687243593874176,0.4040672007789735,-0.6975720085057028,-0.004295985293164405,-0.0011244997009071656,-0.0009561551088536175
1589986840.6625028,-0.075153508323971,-4.525153508323971,8.682423245838015,0.38333333333333336,0.3922222222222223,-0.6911111111111111,-0.0016529913342603838,-0.002181661564992912,0.002215151886024312
1589986840.6725028,-0.06382319716274792,-4.50872560094575,8.674707211349007,0.38333333333333336,0.3922222222222223,-0.6911111111111111,0.0008340922305357111,-0.0017646154497250564,-0.0008128000389845522
1589986840.6825027,-0.09170785153880769,-4.501707851538808,8.587078515388077,0.38333333333333336,0.3922222222222223,-0.6911111111111111,0.006544984694978735,0.001090830782496456,0.0009045330794499188
1589986840.6925027,-0.09991410850893155,-4.509914108508931,8.669141085089315,0.38333333333333336,0.3922222222222223,-0.6911111111111111,0.006544984694978735,0.001090830782496456,9.369308241199449e-06
1589986840.7025027,-0.08252131982902024,-4.49252131982902,8.68747868017098,0.38333333333333336,0.3922222222222223,-0.6911111111111111,0.0008250999846041917,0.001090830782496456,0.0019066282367915146
1589986840.7125027,-0.08,-4.5214042109224,8.702978945387997,0.3955555555555556,0.3922222222222223,-0.6844444444444444,-0.004363323129985824,0.0012440064324236954,-0.00047812818278749854
1589986840.7225027,-0.08,-4.528578001265672,8.667109993671644,0.3955555555555556,0.3922222222222223,-0.6844444444444444,-0.004363323129985824,0.00202654556578523,0.002652028350658641
1589986840.7325027,-0.07,-4.517324061082983,8.586689847292543,0.3955555555555556,0.3922222222222223,-0.6844444444444444,-0.00203571173785477,-0.0001459498271381419,0.0018897619107166282
1589986840.7425027,-0.07,-4.500266780536408,8.629333048658982,0.3955555555555556,0.3922222222222223,-0.6844444444444444,-0.0011053814035606841,-0.0010762801614322278,2.91012421284563e-05
1589986840.7525027,-0.07924246155223746,-4.5,8.7039396924179,0.3955555555555556,0.3922222222222223,-0.6844444444444444,0.0009255615309476655,0.002941953844391787,0.0010081961567220607
1589986840.7625027,-0.06376121288692356,-4.494587070962308,8.704587070962308,0.3931498093165813,0.3922222222222223,-0.6916616831613673,-9.008714106024636e-05,0.0009106565003759635,0.001090830782496456
1589986840.7725027,-0.053314911198154215,-4.496629822396309,8.678453077211998,0.3911111111111111,0.3922222222222223,-0.6977777777777778,-0.0007292300648775739,-0.000910030423687015,0.001090830782496456
1589986840.7825027,-0.06831839888394056,-4.526636797767881,8.580930407254387,0.3911111111111111,0.3922222222222223,-0.6977777777777778,0.0009073965563686514,-9.171711306390226e-05,0.001090830782496456
1589986840.7925026,-0.08837820524552958,-4.515134615736589,8.652974358035763,0.3911111111111111,0.3922222222222223,-0.6977777777777778,0.003832592037665541,-0.002004751200886151,0.00182784083677939
1589986840.8025026,-0.08070153924995882,-4.4921046177498765,8.71438768600033,0.3911111111111111,0.3922222222222223,-0.6977777777777778,0.0013204089651918222,-0.0011673568433949115,0.00015305212179691097
1589986840.8125026,-0.07,-4.491213782146758,8.720289742825937,0.37666666666666665,0.4044444444444445,-0.7144444444444444,0.0,-0.0009584276896036283,0.0009584276896036283
1589986840.8225026,-0.07,-4.4995432429748785,8.653654056200974,0.37666666666666665,0.4044444444444445,-0.7144444444444444,0.0,-4.982446231241878e-05,4.982446231241878e-05
1589986840.8325026,-0.07810594843592095,-4.511894051564079,8.579470257820395,0.37666666666666665,0.4044444444444445,-0.7144444444444444,-0.001090830782496456,0.0,0.003479101322462668
1589986840.8425026,-0.07401887301159343,-4.518660375662802,8.626698121685989,0.37666666666666665,0.4044444444444445,-0.7144444444444444,-0.0007985700896971,0.00014613034639967802,0.003778801744387112
1589986840.8525026,-0.09663575087624697,-4.511121416374584,8.664392918127078,0.37666666666666665,0.4044444444444445,-0.7144444444444444,0.0008461756822180201,0.0009685032323572381,0.0004893102005568716
1589986840.8625026,-0.06143122368464675,-4.491431223684647,8.717137552630707,0.38333333333333336,0.3855555555555555,-0.7055555555555556,-0.0013250142102740577,-0.00015612228518506783,-0.0019474781372153102
1589986840.8725026,-0.07533667075556146,-4.505336670755561,8.689326658488877,0.38333333333333336,0.3855555555555555,-0.7055555555555556,-0.0036002876666733977,-0.001672971256117961,0.00032779531918402955
1589986840.8825026,-0.09,-4.510624745790287,8.613748474741723,0.38333333333333336,0.3855555555555555,-0.7055555555555556,-0.0008182340067843342,0.004227024742129763,0.0012271291703525168
1589986840.8925025,-0.09,-4.517448629301228,8.65469177580737,0.38333333333333336,0.3855555555555555,-0.7055555555555556,0.002159246869177521,0.0027382843041488356,0.0027158696083334445
1589986840.9025025,-0.08168007857052338,-4.495040235711571,8.694959764288429,0.38333333333333336,0.3855555555555555,-0.7055555555555556,0.00508761762813437,-0.0005410263559745918,0.0023649297071668667
1589986840.9125025,-0.08087038377986966,-4.48261115133961,8.733481535119479,0.3688888888888889,0.4044444444444445,-0.7055555555555556,0.0018968291390926788,0.0031775482055226238,0.0009958866405297116
1589986840.9225025,-0.09,-4.509268448628008,8.757563626676138,0.3688888888888889,0.4044444444444445,-0.7055555555555556,-0.0014100302847149377,0.00178266218721981,0.0
1589986840.9325025,-0.09,-4.501819199005417,8.630926383092087,0.3688888888888889,0.4044444444444445,-0.7055555555555556,-0.004660378602643992,-0.002280273210191509,0.0
1589986840.9425025,-0.07891377062191735,-4.527827541243835,8.668913770621918,0.3688888888888889,0.4044444444444445,-0.7055555555555556,-0.0009723415382500016,0.00011848924424645442,-0.00011848924424645442
1589986840.9525025,-0.07098758433017746,-4.511975168660355,8.660987584330178,0.3688888888888889,0.4044444444444445,-0.7055555555555556,-0.00010772873876687024,0.0009831020437295857,-0.0009831020437295857
1589986840.9625025,-0.07880802830120569,-4.508808028301205,8.725232113204823,0.37666666666666665,0.3922222222222223,-0.6911111111111111,0.002051637622901969,-0.0008307828983145704,0.0001300239420909428
1589986840.9725025,-0.0725213534047473,-4.5012606767023735,8.678653909678637,0.37666666666666665,0.3922222222222223,-0.6911111111111111,0.000953312287123926,0.000953312287123926,0.000953312287123926
1589986840.9825025,-0.08886334136844057,-4.50886334136844,8.60227331726312,0.37666666666666665,0.3922222222222223,-0.6911111111111111,0.00024798044489906455,0.0003719706673485968,0.00024798044489906455
1589986840.9925025,-0.07933530784419314,-4.500664692155807,8.625982229402261,0.37666666666666665,0.3922222222222223,-0.6911111111111111,0.002181661564992912,0.003127479014601758,0.001964141565661497
1589986841.0025024,-0.07180649793573865,-4.508193502064262,8.693741518578353,0.37666666666666665,0.3922222222222223,-0.6911111111111111,0.002181661564992912,0.00148494749386046,-0.0004996557154504501
1589986841.0125024,-0.07880051899293286,-4.501199481007067,8.727601037985867,0.36982181856105223,0.3922222222222223,-0.6911111111111111,0.0031416492669364996,-0.0008291446213907195,-0.00013084308055286826
1589986841.0225024,-0.08,-4.493267918852621,8.716535837705242,0.3688888888888889,0.3922222222222223,-0.6911111111111111,0.00033506780915910266,-0.0003564746479138896,0.0
1589986841.0325024,-0.06229297458893871,-4.507707025411061,8.639171898355755,0.3688888888888889,0.3922222222222223,-0.6911111111111111,-0.003988136040221349,0.0,-0.0009657684192416305
1589986841.0425024,-0.0666961209866336,-4.516696120986634,8.6500883629599,0.3688888888888889,0.3922222222222223,-0.6911111111111111,-0.004363323129985824,0.0,0.0011004696861656837
1589986841.0525024,-0.07763492436185557,-4.52,8.66,0.3688888888888889,0.3922222222222223,-0.6911111111111111,-0.0026976410267969915,-0.0008328410515944162,0.0005159794618040795
1589986841.0625024,-0.0871964525110859,-4.512803547488914,8.710375167577602,0.39847430476779755,0.3922222222222223,-0.6911111111111111,0.00017337201216701412,-0.001090830782496456,0.0007850111923866421
1589986841.0725024,-0.08,-4.529286979403876,8.645721876423258,0.41,0.3922222222222223,-0.6911111111111111,0.002026104602031776,-0.001013052301015888,0.0021038830835123437
1589986841.0825024,-0.08,-4.522211932594504,8.603271595567026,0.41,0.3922222222222223,-0.6911111111111111,0.0004825688325785142,-0.0002412844162892571,0.0013321151987857132
1589986841.0925024,-0.07051843959224567,-4.5105184395922455,8.642592197961228,0.41,0.3922222222222223,-0.6911111111111111,0.0,0.004250217156768526,-0.004193664170159877
1589986841.1025023,-0.07718865794119051,-4.51718865794119,8.675943289705952,0.41,0.3922222222222223,-0.6911111111111111,0.0,0.0027950012565681843,-0.002010840319859364
1589986841.1125023,-0.0995425441952241,-4.500457455804776,8.729085088390448,0.3774290930079598,0.4041648881193037,-0.7052251708076619,0.004263521755289575,-0.0010159797514742697,0.0010409300951483315
1589986841.1225023,-0.1085207663929549,-4.500591693442818,8.71763322622873,0.37666666666666665,0.4044444444444445,-0.7055555555555556,0.005260522686114112,0.0011231026535578172,0.0031756767343052842
1589986841.1325023,-0.060834421985226005,-4.519165578014774,8.641112562646969,0.37666666666666665,0.4044444444444445,-0.7055555555555556,-0.001181852101204089,0.00212098068585449,0.0
1589986841.1425023,-0.08980734485840892,-4.490577965424773,8.68019265514159,0.37666666666666665,0.4044444444444445,-0.7055555555555556,-0.004321292298215073,0.0,-2.1015415885375133e-05
1589986841.1525023,-0.08183050911926361,-4.514508472642209,8.688169490880735,0.37666666666666665,0.4044444444444445,-0.7055555555555556,-0.002581016703979557,0.0,-0.0008911532130031335
1589986841.1625023,-0.08703773872520197,-4.512962261274798,8.711113216175606,0.381358492483468,0.40131656056657694,-0.6906981071356847,-0.002181661564992912,0.0,0.0004445656256270808
1589986841.1725023,-0.08,-4.520973605524125,8.72415836685525,0.38333333333333336,0.4,-0.6844444444444444,0.001090830782496456,0.002075457677420495,-5.3101943786208614e-05
1589986841.1825023,-0.08,-4.5390186503753736,8.615888097747757,0.38333333333333336,0.4,-0.6844444444444444,0.001090830782496456,0.00010704863789336421,-0.0010373064635497739
1589986841.1925023,-0.09957011992901063,-4.509785059964505,8.641504580248464,0.38333333333333336,0.4,-0.6844444444444444,0.0031552607439351266,-2.34463207108483e-05,0.0011142771032073044
1589986841.2025023,-0.08453220515210727,-4.502266102576054,8.694137281967626,0.38333333333333336,0.4,-0.6844444444444444,-0.0009456943418660012,-0.0008436373378710736,0.0019344681203675297
1589986841.2125022,-0.08,-4.507558490468697,8.687324528593907,0.38333333333333336,0.39412117407990194,-0.7004012576561394,-0.0013571581577467707,-0.0002663273752503148,0.002181661564992912
1589986841.2225022,-0.08015262982689747,-4.51,8.668931591211718,0.38333333333333336,0.3922222222222223,-0.7055555555555556,0.0032558430161386816,-1.6649331350686587e-05,-0.0010408827884443963
1589986841.2325022,-0.08713382157123835,-4.51,8.620063249001332,0.38333333333333336,0.3922222222222223,-0.7055555555555556,0.0024943131308149654,-0.0007781792166744024,0.0012437068675267518
1589986841.2425022,-0.08145242705020053,-4.484357281150602,8.625642718849399,0.38333333333333336,0.3922222222222223,-0.7055555555555556,0.0003168704271378517,0.0007739603553586043,0.001249265996065382
1589986841.2525022,-0.07189511886099599,-4.520524405695021,8.702943930251037,0.38333333333333336,0.3922222222222223,-0.7055555555555556,-0.0026523161504701555,0.001090830782496456,0.00020672539900640414
1589986841.2625022,-0.060072244371833686,-4.510144488743667,8.6902167331155,0.37671482958122243,0.3922222222222223,-0.6978339678447596,-0.003272492347489368,7.880638465830809e-06,0.0
1589986841.2725022,-0.0798123410398002,-4.5101876589601995,8.708311069358203,0.37666666666666665,0.3922222222222223,-0.6977777777777778,0.0011113011995361782,0.0021407207309134674,0.0011113011995361782
1589986841.2825022,-0.07020186513301102,-4.5197981348669884,8.621816786197098,0.37666666666666665,0.3922222222222223,-0.6977777777777778,0.0021596414948927955,4.4040140200232464e-05,0.0021596414948927955
1589986841.2925022,-0.0701208652597097,-4.5,8.670604326298548,0.37666666666666665,0.3922222222222223,-0.6977777777777778,0.001090830782496456,2.636870916515333e-05,0.001090830782496456
1589986841.3025022,-0.07801720729709886,-4.5,8.710086036485494,0.37666666666666665,0.3922222222222223,-0.6977777777777778,0.001090830782496456,0.0017490833018661285,0.001090830782496456
