time,acc_x,acc_y,acc_z,mag_x,mag_y,mag_z,gyr_x,gyr_y,gyr_z
1589986869.6467018,-3.86,-0.79,8.96,0.28444444444444444,-0.37777777777777777,-0.6466666666666666,-0.01308996938995747,-0.007635815477475192,0.001090830782496456
1589986869.6567018,-3.8467098654921656,-0.8165802690156688,8.900194394714745,0.28444444444444444,-0.37777777777777777,-0.6466666666666666,-0.01671429134612351,-0.009085544259941609,0.001090830782496456
1589986869.6667018,-3.847690626967374,-0.799237492130504,8.87,0.28444444444444444,-0.37777777777777777,-0.6466666666666666,-0.013510619722814397,-0.00813964251592632,0.003607582572309133
1589986869.6767018,-3.85,-0.8124841004974498,8.967431102155615,0.28444444444444444,-0.37777777777777777,-0.6466666666666666,-0.008728958748879401,-0.006000725548184385,0.002728233200695017
1589986869.6867018,-3.840259095270964,-0.8194818094580716,9.018704523645178,0.2766666666666667,-0.3711111111111111,-0.6377777777777778,-0.01180129823944414,-0.003244229437772672,-5.652581943339267e-05
1589986869.6967018,-3.847320325258001,-0.8053593494839981,8.983398373709996,0.2766666666666667,-0.3711111111111111,-0.6377777777777778,-0.006409473316941372,-0.0024739687345579904,-0.0015970472258627552
1589986869.7067018,-3.85,-0.8,8.871744186046511,0.2766666666666667,-0.3711111111111111,-0.6377777777777778,-0.0022197138015916254,-3.80522365987135e-05,-3.80522365987135e-05
1589986869.7167017,-3.8405348545350826,-0.8,8.90786058185967,0.2766666666666667,-0.3711111111111111,-0.6377777777777778,-0.004246635971780613,-0.003097461610181551,0.0020649744067877005
1589986869.7267017,-3.847809067423929,-0.7843818651521427,8.933427202271785,0.2766666666666667,-0.3711111111111111,-0.6377777777777778,-0.0018078117914023081,-0.003272492347489368,0.002181661564992912
1589986869.7367017,-3.859415806510719,-0.7988316130214378,8.94,0.3017754840285836,-0.37738831545159035,-0.6377777777777778,0.0009633795342880809,-0.003272492347489368,0.00012745124820837507
1589986869.7467017,-3.8502234705092198,-0.7804469410184394,8.900893882036879,0.3033333333333333,-0.37777777777777777,-0.6377777777777778,0.002157284713949213,0.0020597773097744175,-0.001066453931452757
1589986869.7567017,-3.8669299331517704,-0.7969299331517703,8.840745233968804,0.3033333333333333,-0.37777777777777777,-0.6377777777777778,-0.0005884922691408215,-0.002435261491896644,-0.002014215393874367
1589986869.7667017,-3.8411376627722165,-0.7903792209240722,8.887724674455567,0.3033333333333333,-0.37777777777777777,-0.6377777777777778,0.0010080976110275225,-0.003272492347489368,-0.0011321973682309227
1589986869.7767017,-3.8480274948076354,-0.8140824844229058,8.914082484422906,0.3033333333333333,-0.37777777777777777,-0.6377777777777778,0.001090830782496456,-0.003272492347489368,-0.0019664946267463554
1589986869.7867017,-3.8411100297528016,-0.802220059505603,8.955559880988794,0.3033333333333333,-0.3718511309463121,-0.6506188459126201,0.0030303214227208088,-0.003272492347489368,-0.0012119162448807359
1589986869.7967017,-3.8491828784359274,-0.7908171215640728,8.96,0.3033333333333333,-0.3711111111111111,-0.6522222222222223,0.003272492347489368,-0.003272492347489368,-0.001090830782496456
1589986869.8067017,-3.856181934759958,-0.7961819347599584,8.898180652400416,0.3033333333333333,-0.3711111111111111,-0.6522222222222223,0.0012494589280251543,-0.001923803401179892,-0.00041648630934171813
1589986869.8167017,-3.846101759901844,-0.7930508799509222,8.901694720294467,0.3033333333333333,-0.3711111111111111,-0.6522222222222223,0.0030321256243189703,-0.0018488621885761987,0.0015160628121594852
1589986869.8267016,-3.846668367146725,-0.7833316328532748,8.946673468586901,0.3033333333333333,-0.3711111111111111,-0.6522222222222223,0.0021811050841950286,-0.0007268495344657153,0.0007268495344657153
1589986869.8367016,-3.8408268107154666,-0.8075195678535995,8.941653621430934,0.2972178738103113,-0.3711111111111111,-0.6196064380994378,-0.0009104486665506191,0.0010006397245235375,-0.0010006397245235375
1589986869.8467016,-3.8491133050166457,-0.8008866949833544,8.949113305016645,0.2966666666666667,-0.3711111111111111,-0.6166666666666667,0.0008973839459908279,-0.0008973839459908279,0.0008973839459908279
1589986869.8567016,-3.8407056038270038,-0.8,8.838467245924045,0.2966666666666667,-0.3711111111111111,-0.6166666666666667,7.696943747430578e-05,0.002964614597592145,0.001090830782496456
1589986869.8667016,-3.8465938370620516,-0.7934061629379485,8.862969185310257,0.2966666666666667,-0.3711111111111111,-0.6166666666666667,0.0014385520884103538,0.0025532163032841912,0.001090830782496456
1589986869.8767016,-3.856083214575125,-0.79,8.916499287450751,0.2966666666666667,-0.3711111111111111,-0.6166666666666667,0.0015180857934851619,0.0015180857934851619,-0.00023632076051904394
1589986869.8867016,-3.86,-0.79,8.961959581662342,0.3003265969437236,-0.3644012389365067,-0.6361862948109704,0.0022885401648978097,0.0022885401648978097,0.0001068785999048976
1589986869.8967016,-3.846604392118157,-0.79,8.953208784236313,0.3033333333333333,-0.3588888888888889,-0.6522222222222223,0.004003109418877685,0.0010806411333244173,0.0018214478538847727
1589986869.9067016,-3.8635079743090137,-0.79,8.885148059945635,0.3033333333333333,-0.3588888888888889,-0.6522222222222223,0.004363323129985824,0.0,0.002181661564992912
1589986869.9167016,-3.8432058337173682,-0.7989313887608773,8.896794166282632,0.3033333333333333,-0.3588888888888889,-0.6522222222222223,0.007286113267228151,-0.0009742633790807757,0.001207398185912136
1589986869.9267015,-3.8470582663125246,-0.7788252010624269,8.935291331562622,0.3033333333333333,-0.3588888888888889,-0.6522222222222223,0.007635815477475192,-0.00032089336602052166,0.00032089336602052166
1589986869.9367015,-3.832687269953908,-0.7786563650230461,8.97596909506914,0.2802496932718772,-0.36946889058372295,-0.6474131305427522,0.00952434136380805,0.003777051772665714,0.001888525886332857
1589986869.9467015,-3.838540934090704,-0.8056228022721126,8.954377197727887,0.2766666666666667,-0.3711111111111111,-0.6466666666666666,0.011680819805950801,0.004363323129985824,0.002181661564992912
1589986869.9567015,-3.8566580566383317,-0.7766838867233363,8.86670971680834,0.2766666666666667,-0.3711111111111111,-0.6466666666666666,0.010182026511694836,0.001637654986336552,0.0030902176128760027
1589986869.9667015,-3.86,-0.7850489359403695,8.887622339850925,0.2766666666666667,-0.3711111111111111,-0.6466666666666666,0.006534308528953654,0.0019116229108750685,0.002451700219110756
1589986869.9767015,-3.86,-0.79,8.904757111870543,0.2766666666666667,-0.3711111111111111,-0.6466666666666666,0.00545415391248228,0.001662741158576164,0.001143820752159416
1589986869.9867015,-3.8534592624524824,-0.79,8.923081475095035,0.27921028682403454,-0.3711111111111111,-0.6415794263519309,0.00545415391248228,0.00037734699679022683,0.0
1589986869.9967015,-3.8579136534567544,-0.79,8.914172693086492,0.28444444444444444,-0.3711111111111111,-0.6311111111111111,0.002523039219842016,-0.001090830782496456,-0.0019540764617601756
1589986870.0067015,-3.850819602773534,-0.8083607944529323,8.864098013867668,0.28444444444444444,-0.3711111111111111,-0.6311111111111111,0.0051859395320452036,-0.001090830782496456,-0.002181661564992912
1589986870.0167015,-3.837227951311048,-0.84193012172238,8.879158073033429,0.28444444444444444,-0.3711111111111111,-0.6311111111111111,0.006847368299027514,-0.00248404516904169,-0.002878268758265529
1589986870.0267015,-3.8243044226807035,-0.8713911546385933,8.90708673195789,0.28444444444444444,-0.3711111111111111,-0.6311111111111111,0.0045293599454864705,-0.00637894787947809,-0.004515074560284857
1589986870.0367014,-3.8405746439789565,-0.8182760680631299,8.950861965968436,0.280443819226314,-0.3711111111111111,-0.6345402184409372,0.0010594888154353453,-0.009287732634750433,-0.007698499411597413
1589986870.0467014,-3.871544216514394,-0.7253673504568178,8.962683675228408,0.2766666666666667,-0.3711111111111111,-0.6377777777777778,-0.001888918010055749,-0.007928559032412356,-0.011076755715838603
1589986870.0567014,-3.886382246688457,-0.7063822466884568,8.892559779803888,0.2766666666666667,-0.3711111111111111,-0.6377777777777778,-0.00466488257734034,-0.007241179809904222,-0.008518163032833584
1589986870.0667014,-3.8679167155081466,-0.7468054741530887,8.904166568983706,0.2766666666666667,-0.3711111111111111,-0.6377777777777778,-0.007060095679304955,-0.0052269028272411795,-0.004939042928156061
1589986870.0767014,-3.8468804269895642,-0.7731195730104358,8.92,0.2766666666666667,-0.3711111111111111,-0.6377777777777778,-0.008351377182124843,-0.005078884834635474,-0.0022166380160368714
1589986870.0867014,-3.84,-0.78,8.968759388588747,0.2829873281503931,-0.3765288209543052,-0.6495161491046983,-0.005180763459417547,-0.00013532971165112866,-0.0019773014826349813
1589986870.0967014,-3.8475938337801607,-0.7875938337801609,8.98,0.28444444444444444,-0.37777777777777777,-0.6522222222222223,-0.003534964365529735,0.001090830782496456,0.00030341472837535494
1589986870.1067014,-3.85,-0.79,8.901029430831064,0.28444444444444444,-0.37777777777777777,-0.6522222222222223,-0.004995362902704178,0.001090830782496456,0.0002293955048890511
1589986870.1167014,-3.8643701155283727,-0.7971850577641862,8.894370115528373,0.28444444444444444,-0.37777777777777777,-0.6522222222222223,-0.00545415391248228,-0.0012604738724603865,0.0007837682183189473
1589986870.1267014,-3.8570017519482875,-0.7913345012988583,8.912998248051712,0.28444444444444444,-0.37777777777777777,-0.6522222222222223,-0.004981524276037853,0.00018148661722921762,0.001090830782496456
1589986870.1367013,-3.8435291298965777,-0.783529129896578,8.935293694844868,0.28522869553257285,-0.37777777777777777,-0.6496734061858049,-0.004555807306316609,0.003272492347489368,0.0012833149588272405
1589986870.1467013,-3.853258814229249,-0.793258814229249,8.933035256916996,0.2888888888888889,-0.37777777777777777,-0.6377777777777778,-0.006924852502334735,0.004007841642415595,0.0029170108599191396
1589986870.1567013,-3.8437509629249216,-0.79,8.87625674047445,0.2888888888888889,-0.37777777777777777,-0.6377777777777778,-0.006272487076983739,0.0023183305292486453,0.0019091639469979156
1589986870.1667013,-3.844375,-0.79,8.854375,0.2888888888888889,-0.37777777777777777,-0.6377777777777778,-0.005931392379824479,0.002045307717180855,0.0015680692498386555
1589986870.1767013,-3.85,-0.7981183269664023,8.888414144382407,0.2888888888888889,-0.37777777777777777,-0.6377777777777778,-0.006102198647112606,0.0019441342038909802,0.002181661564992912
1589986870.1867013,-3.859620612125018,-0.8051896939374912,8.93,0.2867509750833294,-0.3718985148124892,-0.6351053855208284,-0.006503599897725077,0.0,0.0011322155797501145
1589986870.1967013,-3.8482757129071974,-0.8162932153196021,8.946293215319603,0.28444444444444444,-0.3655555555555556,-0.6322222222222222,-0.007043377450259701,-0.0005924380272154911,0.0011848760544309821
1589986870.2067013,-3.844923825645366,-0.8076142615319509,8.885380871773169,0.28444444444444444,-0.3655555555555556,-0.6322222222222222,-0.0032891110136636687,-0.0002768623621676892,0.002181661564992912
1589986870.2167013,-3.8433027598915093,-0.7933027598915092,8.893486200542455,0.28444444444444444,-0.3655555555555556,-0.6322222222222222,-0.005103883832237605,-0.0014611111336223467,0.002181661564992912
1589986870.2267013,-3.8342197264539086,-0.7957802735460915,8.915780273546092,0.28444444444444444,-0.3655555555555556,-0.6322222222222222,-0.006544984694978735,0.0009709885926703138,0.0009206015019276217
1589986870.2367013,-3.857898700352241,-0.8,8.94092402526418,0.29761883072189155,-0.38415468912371625,-0.636097041715589,-0.007305803723375465,0.0025116733190926385,0.0015216380567934591
1589986870.2467012,-3.8644797348615616,-0.8055202651384382,8.916878409169371,0.3033333333333333,-0.3922222222222223,-0.6377777777777778,-0.007635815477475192,0.002181661564992912,0.0027838290790479538
1589986870.2567012,-3.8535525360857994,-0.8035525360857996,8.870657608257398,0.3033333333333333,-0.3922222222222223,-0.6377777777777778,-0.0048225786348172085,0.001478352354328416,0.005382419979482855
1589986870.2667012,-3.85,-0.7933600545112028,8.913119563910376,0.3033333333333333,-0.3922222222222223,-0.6377777777777778,-0.0003752695741780065,0.003263747862479977,0.005820679001650895
1589986870.2767012,-3.861137801371378,-0.804850401828504,8.94,0.3033333333333333,-0.3922222222222223,-0.6377777777777778,0.0027107583271938395,0.003958341243811478,0.008289027115702702
1589986870.2867012,-3.8796925458969254,-0.8295900611959006,8.94,0.3033333333333333,-0.3922222222222223,-0.6377777777777778,0.0054094365258371396,0.003283671694150653,0.013011713963328477
1589986870.2967012,-3.853426418611877,-0.8,8.966852837223755,0.2766666666666667,-0.37777777777777777,-0.6466666666666666,0.01090830782496456,0.0007170664929410229,0.02103862498464841
1589986870.3067012,-3.8426977092841237,-0.7853954185682475,8.872372511409484,0.2766666666666667,-0.37777777777777777,-0.6466666666666666,0.01011175147540297,0.00029427443293486414,0.02927989722891831
1589986870.3167012,-3.84,-0.774571188392025,8.878001681255824,0.2766666666666667,-0.37777777777777777,-0.6466666666666666,0.011001860005338747,0.0,0.030449709729526583
1589986870.3267012,-3.8354131895524004,-0.7608263791048011,8.91,0.2766666666666667,-0.37777777777777777,-0.6466666666666666,0.009497421592602109,0.0010006868059435625,0.022947966888771158
1589986870.3367012,-3.8420061222258663,-0.7660081629678219,8.914002040741956,0.2815580497957234,-0.380890476132632,-0.6488900226344196,0.004362210077913745,0.00261821648840591,0.011342636644233402
1589986870.3467011,-3.856500445926558,-0.7830008918531157,8.92,0.2888888888888889,-0.3855555555555555,-0.6522222222222223,-5.4395610000017346e-05,0.0013637816933285793,0.003545443258321491
1589986870.3567011,-3.8567471461493112,-0.7767471461493114,8.859275684656199,0.2888888888888889,-0.3855555555555555,-0.6522222222222223,-0.0051256594504614,-0.0014456620936257897,-0.0014719989427342444
1589986870.3667011,-3.8487451380234883,-0.7743725690117443,8.880646878894302,0.2888888888888889,-0.3855555555555555,-0.6522222222222223,-0.009000414674324256,-0.006001690741187499,-0.002181661564992912
1589986870.376701,-3.8362635504724016,-0.7812093485827947,8.934945798110393,0.2888888888888889,-0.3855555555555555,-0.6522222222222223,-0.01090830782496456,-0.00900231021007841,-0.0038119952297722987
1589986870.386701,-3.833674552676908,-0.7963254473230921,8.96,0.2888888888888889,-0.3802478683555774,-0.6522222222222223,-0.010507476307776967,-0.008036646994662784,-0.008949973798104293
1589986870.396701,-3.844561453631221,-0.7991229072624422,8.978245814524884,0.2888888888888889,-0.3711111111111111,-0.6522222222222223,-0.009817477042468105,-0.007731491453198411,-0.018563320827210274
1589986870.406701,-3.85,-0.8153953094777563,8.940651595744681,0.2888888888888889,-0.3711111111111111,-0.6522222222222223,-0.008640403110581818,-0.004190836831206162,-0.025089107997418484
1589986870.416701,-3.8656321289529405,-0.7939464517450994,8.90042141930196,0.2888888888888889,-0.3711111111111111,-0.6522222222222223,-0.006499014980287095,-0.002181661564992912,-0.02281550700304229
1589986870.426701,-3.857606768734891,-0.7849288208434059,8.917464410421703,0.2888888888888889,-0.3711111111111111,-0.6522222222222223,-0.00545415391248228,-0.002181661564992912,-0.018690182702137435
1589986870.436701,-3.8240914687774845,-0.8059085312225155,8.938182937554968,0.28388820482751886,-0.3711111111111111,-0.6463123228769667,-0.0041152238860512735,-0.002181661564992912,-0.014825320946140048
1589986870.446701,-3.8596020584538024,-0.7940795883092395,8.938159176618479,0.2766666666666667,-0.3711111111111111,-0.6377777777777778,-0.0028274782967262595,-0.00024421136979287,-0.014180800172453925
1589986870.456701,-3.88,-0.8038366765318427,8.88157163213855,0.2766666666666667,-0.3711111111111111,-0.6377777777777778,-0.004781839616327389,0.0003361571480774456,-0.011162105634777887
1589986870.466701,-3.865591981193004,-0.8172040094034979,8.896020047017489,0.2766666666666667,-0.3711111111111111,-0.6377777777777778,-0.0030966473480634493,0.0007858355214729435,-0.005102463913630443
1589986870.476701,-3.8486815784688124,-0.82,8.938296053827969,0.2766666666666667,-0.3711111111111111,-0.6377777777777778,-0.002798985695767411,0.002325479044045455,-0.0014205199551658705
1589986870.486701,-3.8579183052975976,-0.8080544631349351,8.948054463134936,0.28131215322530306,-0.3750929567327994,-0.6464051099581025,0.0019397313828542519,0.003272492347489368,0.0006515279662929525
1589986870.496701,-3.9064821126449747,-0.7927035774710051,8.918110732413016,0.28444444444444444,-0.37777777777777777,-0.6522222222222223,0.00465823768280945,0.005660241036507859,0.0034785794715149476
1589986870.506701,-3.952986577897275,-0.76361073768218,8.88361073768218,0.28444444444444444,-0.37777777777777777,-0.6522222222222223,0.0036436676383945275,0.0058253292033874395,0.01515815550385527
1589986870.516701,-3.935545591093833,-0.7557424014843612,8.892969605937445,0.28444444444444444,-0.37777777777777777,-0.6522222222222223,-0.0017386982961862573,-0.0014362332225717053,0.053924922881783674
1589986870.526701,-3.8797431497053942,-0.747032778445169,8.927289628739775,0.28444444444444444,-0.37777777777777777,-0.6522222222222223,-0.005925655393664318,-0.009373993582070968,0.10400089632357493
1589986870.536701,-3.832563256325632,-0.7411551155115511,8.964873487348735,0.2860970541498594,-0.3752988632196553,-0.6468512406796235,-0.006544984694978735,-0.01308996938995747,0.14880179908470356
1589986870.546701,-3.8011893118491415,-0.7637621376301716,8.971189311849141,0.2888888888888889,-0.3711111111111111,-0.6377777777777778,-0.0069553702484766895,-0.014321126050451334,0.17291256714642966
1589986870.556701,-3.7328623811160764,-0.7625724762232153,8.922669111187501,0.2888888888888889,-0.3711111111111111,-0.6377777777777778,-0.006555525934349715,-0.016362461737446838,0.18080783750863033
1589986870.566701,-3.6671921077755383,-0.732134648704077,8.905394080831654,0.2888888888888889,-0.3711111111111111,-0.6377777777777778,-0.003272492347489368,-0.015933473372009777,0.18599291622803413
1589986870.576701,-3.7168187760313747,-0.72,8.973908734381176,0.2888888888888889,-0.3711111111111111,-0.6377777777777778,-0.00403109612791701,-0.017041706442614882,0.20790210640732634
1589986870.586701,-3.6577272920564723,-0.7270909168225889,9.027090916822589,0.29164646765322905,-0.3711111111111111,-0.6377777777777778,-0.008478732281529212,-0.025614693053596243,0.2760992163687749
1589986870.596701,-3.7339763151901617,-0.7268071054429515,9.031204736961968,0.2966666666666667,-0.3711111111111111,-0.6377777777777778,-0.01056001705815517,-0.031022969093002718,0.3570765380354819
1589986870.606701,-3.7304604731095834,-0.6916801455721795,8.928400727860897,0.2966666666666667,-0.3711111111111111,-0.6377777777777778,-0.00522947056034555,-0.031634092692397225,0.42322469976256755
1589986870.616701,-3.631358241758242,-0.6664197802197802,8.84148131868132,0.2966666666666667,-0.3711111111111111,-0.6377777777777778,-0.0014813721769330991,-0.03085300990352394,0.45433773371458924
1589986870.6267009,-3.5542834573795816,-0.6428556382530544,8.901430452183682,0.2966666666666667,-0.3711111111111111,-0.6377777777777778,-0.002181661564992912,-0.028984891188908735,0.4466161810916275
1589986870.6367009,-3.5273375000000002,-0.62366875,8.97035625,0.2823993055555556,-0.3735569444444444,-0.6357395833333334,0.0006197282383057991,-0.03116299014820656,0.41818157054708044
1589986870.6467009,-3.5554806304138595,-0.5525968479307026,8.952276427654795,0.2577777777777778,-0.37777777777777777,-0.6322222222222222,0.025155360131685848,-0.05006970597895702,0.35649925674774746
1589986870.6567008,-3.4514651230101303,-0.48515369030390737,8.854538929088278,0.2577777777777778,-0.37777777777777777,-0.6322222222222222,0.048130674521422785,-0.07338743263331468,0.29213363958516814
1589986870.6667008,-3.0746808723990973,-0.5847568312860366,8.783145901228378,0.2577777777777778,-0.37777777777777777,-0.6322222222222222,0.050292604191457244,-0.08634859508368506,0.2738571014764552
1589986870.6767008,-2.3811324824734856,-0.5746827251483013,8.820760381089341,0.2577777777777778,-0.37777777777777777,-0.6322222222222222,0.035431117188579386,-0.022450956397974425,0.268164756999473
1589986870.6867008,-1.9565028634768151,-0.5597542952152226,9.012514317384076,0.2577777777777778,-0.384158096762937,-0.6386025412073814,0.00809770059727602,0.08187216029307225,0.2086703062679933
1589986870.6967008,-1.99,-0.5971283936754025,9.138167279445058,0.2577777777777778,-0.3922222222222223,-0.6466666666666666,-0.0018195989181519472,0.11625919310141436,0.0821726129811575
1589986870.7067008,-1.976030365394323,-0.5542841610686133,8.987136644274454,0.2577777777777778,-0.3922222222222223,-0.6466666666666666,0.02173024885904999,0.04409937476902197,-0.07286324358522904
1589986870.7167008,-1.9442312974699252,-0.6066558006387238,8.765308854433835,0.2577777777777778,-0.3922222222222223,-0.6466666666666666,0.021178737851000683,0.01064027965675696,-0.23618638933408614
1589986870.7267008,-2.0221299838308946,-0.8534657096659699,8.932527112828804,0.2577777777777778,-0.3922222222222223,-0.6466666666666666,-0.0003268577625668682,0.07458999107943429,-0.3090674168000556
1589986870.7367008,-2.146450411973694,-0.868702471842165,9.06706194723713,0.25935537245613594,-0.39616620891811766,-0.6435114773099503,-0.008302031163254928,0.08789120214341473,-0.3639169272908918
1589986870.7467008,-2.1510046498520503,-0.8410046498520501,8.882751162463013,0.26222222222222225,-0.4033333333333333,-0.6377777777777778,0.002262586238373831,0.036949990681411055,-0.3703631801817153
1589986870.7567008,-2.1953192557272434,-0.8776596278636217,8.84787204675008,0.26222222222222225,-0.4033333333333333,-0.6377777777777778,-0.002019188669073451,0.02258250064058665,-0.3590689716432668
1589986870.7667007,-2.2152101375445747,-0.8876050687722873,8.784789862455424,0.26222222222222225,-0.4033333333333333,-0.6377777777777778,0.0005224929410302052,0.019589109184500162,-0.3507708639232647
1589986870.7767007,-2.211510560537164,-0.8876737070247759,8.8,0.26222222222222225,-0.4033333333333333,-0.6377777777777778,0.002181661564992912,0.022070374848577098,-0.3474675012190735
1589986870.7867007,-2.259380697485807,-0.8874082725060828,8.846169667477698,0.26222222222222225,-0.3958715688924934,-0.6354459763900153,0.004013054092349168,0.01935224047191547,-0.3524459218405577
1589986870.7967007,-2.3,-0.8539047236718854,8.936825460546858,0.26222222222222225,-0.3855555555555555,-0.6322222222222222,0.006544984694978735,0.018623774044709555,-0.36438944652959154
1589986870.8067007,-2.3,-0.84,8.934842475687757,0.26222222222222225,-0.3855555555555555,-0.6322222222222222,0.009838096926722441,0.023476918355303866,-0.3785595212947789
1589986870.8167007,-2.305086396481307,-0.84,8.94560477536915,0.26222222222222225,-0.3855555555555555,-0.6322222222222222,0.01308996938995747,0.02671592977703227,-0.39616006192883146
1589986870.8267007,-2.3140099083385905,-0.8520297250157717,8.996039633354362,0.26222222222222225,-0.3855555555555555,-0.6322222222222222,0.01308996938995747,0.02617993877991494,-0.4178152104979876
1589986870.8367007,-2.32,-0.87,9.02,0.26730108657553453,-0.387883368384157,-0.6332803189624956,0.012674455771703695,0.02742647963467627,-0.4391368148526348
1589986870.8467007,-2.3193399117888913,-0.8704950661583315,9.019009867683337,0.2888888888888889,-0.3977777777777778,-0.6377777777777778,0.010998313392444597,0.032778926815381706,-0.4607266147104166
1589986870.8567007,-2.2879853479853476,-0.8940109890109891,8.971978021978023,0.2888888888888889,-0.3977777777777778,-0.6377777777777778,0.015273628813526383,0.03534411606803076,-0.47953800256317647
1589986870.8667006,-2.2289926362297496,-0.9030220913107512,8.808058910162003,0.2888888888888889,-0.3977777777777778,-0.6377777777777778,0.013851141149525688,0.03675858758195126,-0.5213313255741229
1589986870.8767006,-2.220756406480118,-0.9277307805596466,8.873948748159059,0.2888888888888889,-0.3977777777777778,-0.6377777777777778,0.011155841266742253,0.034063287699167825,-0.5473858911076961
1589986870.8867006,-2.2497461159530125,-0.91,8.853718264494127,0.294259715380405,-0.3878624057934403,-0.6410829017725569,0.015397599382750987,0.038990276860907336,-0.593147504983452
1589986870.8967006,-2.320849486563664,-0.9183397946254658,8.872509691938198,0.3033333333333333,-0.3711111111111111,-0.6466666666666666,0.018817888224516764,0.04218019989180016,-0.6344213368955143
1589986870.9067006,-2.3543470948311267,-0.9365206422466901,8.88347935775331,0.3033333333333333,-0.3711111111111111,-0.6466666666666666,0.02096288211024387,0.0449611593251659,-0.6652156318040701
1589986870.9167006,-2.3684082071647223,-0.9607958964176387,8.865571274923472,0.3033333333333333,-0.3711111111111111,-0.6466666666666666,0.02181661564992912,0.04590171169605506,-0.699509611312099
1589986870.9267006,-2.35,-0.9888377654486321,8.951977393023403,0.3033333333333333,-0.3711111111111111,-0.6466666666666666,0.02284405637116992,0.049645565570656414,-0.7533458702103969
1589986870.9367006,-2.35,-1.0289592500478286,8.998785791722467,0.3033333333333333,-0.3711111111111111,-0.6466666666666666,0.02503234389318297,0.05548099896269121,-0.7803347496485579
1589986870.9467006,-2.4104183104765484,-1.0195816895234517,8.970418310476548,0.3111111111111111,-0.37777777777777777,-0.6377777777777778,0.02731640015685736,0.059253262317492124,-0.8439669667982509
1589986870.9567006,-2.397810556841313,-1.0452070378942087,8.921361291581853,0.3111111111111111,-0.37777777777777777,-0.6377777777777778,0.024805108136387075,0.0605636927593679,-0.8897627742119347
1589986870.9667006,-2.396924113156713,-1.06,8.836154018859451,0.3111111111111111,-0.37777777777777777,-0.6377777777777778,0.022320151368117873,0.062177354602297986,-0.9396241004600432
1589986870.9767005,-2.36,-1.0668989755776106,8.840348463366416,0.3111111111111111,-0.37777777777777777,-0.6377777777777778,0.021140077070485964,0.06368247758784774,-0.9826561453865198
1589986870.9867005,-2.3656691545888724,-1.0762205636074182,8.86188971819629,0.3197198273386584,-0.3754681222045334,-0.6394575272855919,0.024822822326425128,0.0673652228437869,-1.0220395206099901
1589986870.9967005,-2.386285557986871,-1.0674288840262582,8.867214168490152,0.3566666666666667,-0.3655555555555556,-0.6466666666666666,0.028564191729293816,0.07090400086226964,-1.0629446304151993
1589986871.0067005,-2.3591832356738505,-1.1675497070215513,8.83081676432615,0.3566666666666667,-0.3655555555555556,-0.6466666666666666,0.031878909397361516,0.07223964834973039,-1.1115782561435743
1589986871.0167005,-2.384467888446215,-1.2322339442231076,8.825637609561754,0.3566666666666667,-0.3655555555555556,-0.6466666666666666,0.03563764157737035,0.07599838052973923,-1.1478437008885998
1589986871.0267005,-2.4,-1.2538246455748472,8.904193129755983,0.3566666666666667,-0.3655555555555556,-0.6466666666666666,0.03968711228239063,0.07929383378725216,-1.1912523550387861
1589986871.0367005,-2.4028249527163634,-1.3025996217309073,8.944350094567273,0.36011938665333304,-0.3636722537446466,-0.6567109429915142,0.04192609144094055,0.08195409605758021,-1.2239556061412953
1589986871.0467005,-2.41,-1.3558651293961514,8.921730258792303,0.3688888888888889,-0.3588888888888889,-0.6822222222222222,0.041262827779632444,0.0873400231028825,-1.263885711608291
1589986871.0567005,-2.4207308961399465,-1.35,8.881384276960143,0.3688888888888889,-0.3588888888888889,-0.6822222222222222,0.040201282150716555,0.09014876855276496,-1.2978748127973738
1589986871.0667005,-2.451924955493678,-1.3698749258227965,8.837949970329118,0.3688888888888889,-0.3588888888888889,-0.6822222222222222,0.03556381220463624,0.08901452054696259,-1.3353049969888524
1589986871.0767004,-2.4572972420837593,-1.4031756894790601,8.84682431052094,0.3688888888888889,-0.3588888888888889,-0.6822222222222222,0.035252999023827496,0.08974294931797656,-1.3673859129438184
1589986871.0867004,-2.4348424694438933,-1.419684938887786,8.842421234721947,0.3801879842579726,-0.3459756370385075,-0.6838363787035199,0.03652564729565274,0.09298473224883361,-1.3984342362094349
1589986871.0967004,-2.462625692762088,-1.462625692762088,8.860100554209671,0.4155555555555556,-0.3055555555555556,-0.6888888888888889,0.03817907738737596,0.09436234706730436,-1.432602079880482
1589986871.1067004,-2.497423920618591,-1.4974239206185909,8.887939136494873,0.4155555555555556,-0.3055555555555556,-0.6888888888888889,0.03817907738737596,0.0958807061921923,-1.4515815689415814
1589986871.1167004,-2.4724854330415806,-1.552485433041581,8.80997669286653,0.4155555555555556,-0.3055555555555556,-0.6888888888888889,0.044450400981531524,0.10035516078274187,-1.4944305447785522
1589986871.1267004,-2.512377976796255,-1.6090238143700386,8.874755953592508,0.4155555555555556,-0.3055555555555556,-0.6888888888888889,0.04690572364734761,0.10336952730822162,-1.5197798607417985
1589986871.1367004,-2.5181913631152324,-1.6690956815576161,8.89452159221192,0.41907234949815964,-0.3032445195361301,-0.6909989652544513,0.046708431968521286,0.10283403107290634,-1.5401429659476795
1589986871.1467004,-2.5013186636361806,-1.6606593318180902,8.936703340909547,0.4518803762629817,-0.2816849590906755,-0.7106837813133446,0.04486790597096516,0.10559482006924052,-1.5594684889220185
1589986871.1567004,-2.4772451644575355,-1.7654338733431516,8.861887088856161,0.4544444444444444,-0.28,-0.7122222222222222,0.04779897321948084,0.10828448515719527,-1.583672178472496
1589986871.1667004,-2.5094750921842235,-1.7900874846359627,8.780087484635962,0.4544444444444444,-0.28,-0.7122222222222222,0.04691526674073797,0.11453723216212787,-1.6025831089815397
1589986871.1767004,-2.4441917293233084,-1.8145206766917295,8.801616541353383,0.4544444444444444,-0.28,-0.7122222222222222,0.047362970385123375,0.11453723216212787,-1.6265363444768044
1589986871.1867003,-2.4342104576867913,-1.85,8.840526144216978,0.45608184465597423,-0.2774269425247389,-0.7147952796974834,0.04512595833687859,0.1138482976341553,-1.6476137001354707
1589986871.1967003,-2.4376652748782184,-1.8828926003247506,8.863553699837626,0.4622222222222222,-0.2677777777777778,-0.7244444444444444,0.042990903779244166,0.11261024960028566,-1.6764626831572653
1589986871.2067003,-2.4162524047710656,-1.9262524047710656,8.806271642939592,0.4622222222222222,-0.2677777777777778,-0.7244444444444444,0.04608602664149321,0.11617242905655117,-1.7029161226893605
1589986871.2167003,-2.3906150513509856,-1.9393849486490145,8.758307835135291,0.4622222222222222,-0.2677777777777778,-0.7244444444444444,0.04927197176468876,0.1210151251624595,-1.7303934170808897
1589986871.2267003,-2.34,-1.9914526101089935,8.785810440435974,0.4622222222222222,-0.2677777777777778,-0.7244444444444444,0.04714340642062596,0.12621946040521775,-1.7561158156227137
1589986871.2367003,-2.34,-2.004819618841226,8.839278475364905,0.4622222222222222,-0.2677777777777778,-0.7244444444444444,0.049330578109878724,0.12330323148621407,-1.7750713035962375
1589986871.2467003,-2.280328714763497,-2.0629584328714765,8.886712852365028,0.4933333333333334,-0.2,-0.7555555555555555,0.05028578764964216,0.13013157808149384,-1.8115321005277532
1589986871.2567003,-2.2883445771619684,-2.1351011944577163,8.806554228380314,0.4933333333333334,-0.2,-0.7555555555555555,0.0529089724853946,0.13800113258875116,-1.8298943943780202
1589986871.2667003,-2.2827634566824715,-2.235789234654023,8.742894617327012,0.4933333333333334,-0.2,-0.7555555555555555,0.05640744692143053,0.1404157245805093,-1.8564647297384789
1589986871.2767003,-2.2446660126800735,-2.266267189855941,8.75813359492797,0.4933333333333334,-0.2,-0.7555555555555555,0.05474513233534051,0.14457151104573435,-1.8672697745480635
1589986871.2867002,-2.251055031800241,-2.3052751590012064,8.782110063600483,0.4948572681559042,-0.19554542128787,-0.7584861994451148,0.050578530078803904,0.14289883250703572,-1.885706139234125
1589986871.2967002,-2.2596325078222455,-2.3481625391112293,8.799265015644492,0.507246955743244,-0.15932941141718412,-0.7823125217284607,0.04496458515024722,0.14289883250703572,-1.9006766590436095
1589986871.3067002,-2.2324375332758084,-2.438109383318952,8.753531366465328,0.5077777777777778,-0.15777777777777774,-0.7833333333333333,0.04363323129985824,0.14699626200396046,-1.9112224465297447
1589986871.3167002,-2.201636160017625,-2.4304090400044065,8.645726560061687,0.5077777777777778,-0.15777777777777774,-0.7833333333333333,0.04363323129985824,0.15035617061327944,-1.9204621952053722
1589986871.3267002,-2.2031688708036623,-2.4820222351402412,8.739617788112193,0.5077777777777778,-0.15777777777777774,-0.7833333333333333,0.04306696948397721,0.15760420164610509,-1.9296379613869652
1589986871.3367002,-2.1499487500489027,-2.520153749853292,8.76979500019561,0.5079258331920591,-0.15786888880195085,-0.7835611108937661,0.04472965258478053,0.15928365625418592,-1.9329745085934231
1589986871.3467002,-2.1437375795025013,-2.5686878975125054,8.748687897512506,0.5366666666666666,-0.17555555555555555,-0.8277777777777777,0.041330119414159594,0.1628092040197972,-1.938130883068377
1589986871.3567002,-2.137028623353021,-2.6421569741026807,8.741085870059063,0.5366666666666666,-0.17555555555555555,-0.8277777777777777,0.03133957829326114,0.1621504346563695,-1.9391433918552519
1589986871.3667002,-2.105337601528906,-2.736993597706641,8.664662398471094,0.5366666666666666,-0.17555555555555555,-0.8277777777777777,0.0279599995003018,0.16489608931760186,-1.9358633566099355
1589986871.3767002,-2.089645900360729,-2.7603540996392706,8.681062298917812,0.5366666666666666,-0.17555555555555555,-0.8277777777777777,0.03354537030677894,0.1689242661723157,-1.926995851048674
1589986871.3867002,-2.081467485619577,-2.768532514380423,8.70559754314127,0.5366666666666666,-0.17555555555555555,-0.8277777777777777,0.027300483720608677,0.16535575955164697,-1.9153982045315006
1589986871.3967001,-1.5973030199541396,-2.3377765038786165,7.866499975606186,0.5466666666666666,-0.17555555555555555,-0.8277777777777777,-0.018633371642306395,0.1273392066855449,-1.9043104011815326
1589986871.4067001,-2.0088448737059195,-2.7946864598860595,8.742541196169318,0.5466666666666666,-0.17555555555555555,-0.8277777777777777,-0.03675342193980923,0.10887428059062693,-1.8815066887268657
1589986871.4167001,-1.8848944356555535,-2.6988099841799964,8.064193863401107,0.5466666666666666,-0.17555555555555555,-0.8277777777777777,0.14193048343717324,0.20565614835151882,-1.8076898071961995
1589986871.4267,-1.9668127575633287,-2.846262963613992,8.301756996933653,0.5466666666666666,-0.17555555555555555,-0.8277777777777777,0.08920865739657478,0.1788484401952823,-1.7924987725743322
1589986871.4367,-1.9792972712371035,-2.9971890849484137,9.13713354546331,0.541825646300046,-0.1789130374227279,-0.8267627251202605,-0.03729450628711608,0.06945359876427395,-1.798679596752367
1589986871.4467,-1.971208755182721,-2.964835020730884,8.643734066145985,0.4861047579254117,-0.21755816968255498,-0.8150793130417082,-0.0020016970997676284,0.10298176749225502,-1.759857506646284
1589986871.4567,-1.7247783745076979,-2.715418904403867,8.624335123523094,0.4777777777777778,-0.22333333333333333,-0.8133333333333334,0.06757505323744054,0.13956988488220662,-1.6813517336817978
1589986871.4667,-1.7848471177944862,-2.9406766917293234,8.80454135338346,0.4777777777777778,-0.22333333333333333,-0.8133333333333334,0.02744109226353804,0.09943592390830412,-1.6518655582724
1589986871.4767,-1.793446846846847,-3.0034468468468467,8.588276576576577,0.4777777777777778,-0.22333333333333333,-0.8133333333333334,0.019368142771920182,0.10449235129707446,-1.5903986542294013
1589986871.4867,-1.8085614414414415,-3.0185614414414417,8.580719279279279,0.4777777777777778,-0.22333333333333333,-0.8133333333333334,0.05646493913158142,0.1226285628506866,-1.5376387660734385
1589986871.4967,-1.86,-3.19,8.8,0.4544444444444444,-0.11333333333333333,-0.68,0.03381575425739013,0.10471975511965977,-1.4868023565426691
1589986871.5067,-1.8544850335980454,-3.203787416004887,8.750365302382408,0.4544444444444444,-0.11333333333333333,-0.68,0.03441734376895873,0.10020783378289526,-1.4558204966968862
1589986871.5167,-1.8428087117320733,-3.256852270392439,8.684600369837682,0.4544444444444444,-0.11333333333333333,-0.68,0.035997415822383035,0.0880509104605625,-1.3594340227846633
1589986871.5267,-1.804390978147276,-3.2478754035968866,8.827195489073638,0.4544444444444444,-0.11333333333333333,-0.68,0.03635278528664379,0.08797720152823797,-1.3115787868002982
1589986871.5367,-1.62120806101917,-3.038523498307623,8.735604030509586,0.4544444444444444,-0.11333333333333333,-0.68,0.03778008217829262,0.09083179531153562,-1.2737554191716045
1589986871.5467,-1.7708374189912652,-3.380837418991265,9.10334967596506,0.48,-0.031111111111111114,-0.65,0.06767472373259345,0.10013629871088446,-1.1963619755608297
1589986871.5567,-1.765733477133829,-3.366816900342472,9.02051787099582,0.48,-0.031111111111111114,-0.65,-0.02662548879981525,0.022351040380798555,-1.1685307885448344
1589986871.5667,-1.702244801422868,-3.2636478023121605,8.488800211916521,0.48,-0.031111111111111114,-0.65,0.02964452516711396,0.05871012632866051,-1.111395082055337
1589986871.5767,-1.7089463609772884,-3.32,8.550185177219545,0.48,-0.031111111111111114,-0.65,0.06033840759491666,0.0770839832922346,-1.0350249673040584
1589986871.5867,-1.6818840330350997,-3.32,8.811787680660702,0.48,-0.031111111111111114,-0.65,0.013105735010351428,0.0396914508294538,-1.0025525049021697
1589986871.5967,-1.713262018411183,-3.394839541425162,8.796737981588816,0.5030986238966549,0.04742421013751563,-0.6453802752206691,0.012538719560284281,0.04071656996196774,-0.9513094622285588
1589986871.6067,-1.6178952668680766,-3.2714300100704934,8.684511581067472,0.5077777777777778,0.06333333333333334,-0.6444444444444445,0.038408668156300195,0.050268294669725905,-0.87779032230243
1589986871.6167,-1.6706936052366566,-3.414739785642354,8.714682060135233,0.5077777777777778,0.06333333333333334,-0.6444444444444445,0.03264926288058911,0.03628116757157042,-0.8391200297369413
1589986871.6267,-1.6843931641964238,-3.4721504298749934,8.712242734321432,0.5077777777777778,0.06333333333333334,-0.6444444444444445,0.032857314509786045,0.03200105923761387,-0.768485999814125
1589986871.6367,-1.6475214937496703,-3.4205300912495384,8.726991402500133,0.5077777777777778,0.06333333333333334,-0.6444444444444445,0.04090146513486276,0.034414304425136884,-0.72182992618868
1589986871.6467,-1.5848538936423697,-3.373430737571754,8.706569262428246,0.5288888888888889,0.08888888888888889,-0.6311111111111111,0.03739873109490449,0.031227981814919342,-0.6414639808980668
1589986871.6567,-1.5635260735830612,-3.393526073583061,8.684710889625409,0.5288888888888889,0.08888888888888889,-0.6311111111111111,0.028265441604764085,0.024382912175497092,-0.5832790981394602
1589986871.6667,-1.5958553574628205,-3.4275132144776923,8.639947142089232,0.5288888888888889,0.08888888888888889,-0.6311111111111111,0.02609528261029144,0.02772864583222787,-0.519077671936299
1589986871.6766999,-1.550522743177047,-3.401219734079776,8.75,0.5288888888888889,0.08888888888888889,-0.6311111111111111,0.013013939476775772,0.020554717562773838,-0.468163884993591
1589986871.6866999,-1.5725362141357593,-3.452584499650105,8.75,0.5288888888888889,0.08888888888888889,-0.6311111111111111,0.009812209909928407,0.013350826037367269,-0.43054356258313453
1589986871.6966999,-1.5396510740099767,-3.459185839356612,8.751512012623435,0.5422222222222223,0.13444444444444445,-0.6588888888888889,0.019533455628741387,0.016311712509349426,-0.3660116506378351
1589986871.7066998,-1.5069388961115708,-3.386938896111571,8.866531142890912,0.5422222222222223,0.13444444444444445,-0.6588888888888889,0.011041873678961289,0.011464875191474096,-0.3209492067359984
1589986871.7166998,-1.4656287672851909,-3.3456287672851905,8.684766576054841,0.5422222222222223,0.13444444444444445,-0.6588888888888889,0.012844368085069661,0.004254897567040603,-0.294813037847427
1589986871.7266998,-1.508958015506468,-3.4579160310129358,8.723646945727362,0.5422222222222223,0.13444444444444445,-0.6588888888888889,0.016078304547339665,0.009419656976318063,-0.2543561335559169
1589986871.7366998,-1.491427347390859,-3.422854694781718,8.785004284131992,0.5422222222222223,0.13444444444444445,-0.6588888888888889,0.011297556442780844,0.002726609629935709,-0.22089089682400517
1589986871.7466998,-1.5182975077118934,-3.4577300102825244,8.686242471723057,0.5631833390458469,0.1512133379033443,-0.6588888888888889,0.015024013488973125,0.0032105879809950534,-0.18215373193921625
1589986871.7566998,-1.482647876702644,-3.4506619691756613,8.754704246594711,0.5644444444444444,0.15222222222222226,-0.6588888888888889,0.018327494396277295,0.005309734641707309,-0.13720499093333846
1589986871.7666998,-1.4450726500303452,-3.422058120024276,8.655217950091036,0.5644444444444444,0.15222222222222226,-0.6588888888888889,0.0071141747530619245,0.0008821744927311487,-0.1036923234487232
1589986871.7766998,-1.4998967798501515,-3.509852542643073,8.779749322493224,0.5644444444444444,0.15222222222222226,-0.6588888888888889,3.217020480819968e-06,-0.003269275327008548,-0.04043473042342773
1589986871.7866998,-1.3918456329988311,-3.3700355250573106,8.760913935235088,0.5644444444444444,0.15222222222222226,-0.6588888888888889,-0.0006939888987429061,-0.005354459043718086,-0.009825227407681002
1589986871.7966998,-1.4556464011180992,-3.4008644715747933,8.772172894314958,0.6473874935485492,0.161255623609798,-0.6802405648958861,-0.008346893479235737,-0.013801047391718016,0.07616529650223507
1589986871.8066998,-1.4762503336002135,-3.4162503336002135,8.819582777332977,0.6766666666666666,0.16444444444444445,-0.6877777777777778,-0.01090830782496456,-0.016362461737446838,0.10035643198967394
1589986871.8166997,-1.470097083732372,-3.43,8.679902916267627,0.6766666666666666,0.16444444444444445,-0.6877777777777778,-0.009732755503467385,-0.022907446432425576,0.14439209059978556
1589986871.8266997,-1.4779732597224569,-3.43,8.672026740277543,0.6766666666666666,0.16444444444444445,-0.6877777777777778,-0.0028594953287919512,-0.022907446432425576,0.17704007642949388
1589986871.8366997,-1.4717237897869175,-3.43,8.727933471491578,0.6766666666666666,0.16444444444444445,-0.6877777777777778,-0.011021570131622622,-0.025615829891278166,0.2757206816528172
1589986871.8466997,-1.4510684536522853,-3.3542738146091415,8.749465773173858,1.0889536760168967,0.22544609378708055,-0.8592134474820827,-0.01308996938995747,-0.0323752728348186,0.3585427631747142
1589986871.8566997,-1.460078689040584,-3.390019672260146,8.789881966439124,1.1122222222222222,0.2288888888888889,-0.8688888888888889,-0.01963709999562906,-0.03599848877772946,0.43312527092722497
1589986871.8666997,-1.5260877776247714,-3.406521944406193,8.690868333562843,1.1122222222222222,0.2288888888888889,-0.8688888888888889,-0.021437218639433233,-0.036898548099631556,0.4880288895632523
1589986871.8766997,-1.5496956827368051,-3.4487827309472205,8.74756546189444,1.1122222222222222,0.2288888888888889,-0.8688888888888889,-0.020758980731266467,-0.038145881523542154,0.5545975141538346
1589986871.8866997,-1.5669567830863302,-3.4839135661726606,8.73304321691367,1.1122222222222222,0.2288888888888889,-0.8688888888888889,-0.019800935819298454,-0.04372817167618122,0.5970170571910979
1589986871.8966997,-1.630547118232212,-3.478358645303364,8.756717290606728,1.0766666666666669,-0.5133333333333333,-1.16,-0.02248967704587224,-0.052300196218893695,0.648951500953165
1589986871.9066997,-1.6385095679246715,-3.4544712962259854,8.70894259245197,1.0766666666666669,-0.5133333333333333,-1.16,-0.01640969738584221,-0.05143162769603227,0.6793513992533152
1589986871.9166996,-1.6337038063050584,-3.4122228378303507,8.681111418915176,1.0766666666666669,-0.5133333333333333,-1.16,-0.015958439144450616,-0.053329471345834135,0.7063327852822815
1589986871.9266996,-1.6468609174594615,-3.3731390825405385,8.695291376189191,1.0766666666666669,-0.5133333333333333,-1.16,-0.016362461737446838,-0.05638077990341405,0.747365717733329
1589986871.9366996,-1.6383114437842425,-3.299868662705456,8.729221390539394,1.0766666666666669,-0.5133333333333333,-1.16,-0.016999973583601263,-0.0592732480744334,0.7730736189994961
1589986871.9466996,-1.641887270424319,-3.25,8.767830905636478,0.8039198508197876,-0.22671803532474838,-0.925556611075927,-0.019398342594749356,-0.06303157389460759,0.8024918755359544
1589986871.9566996,-1.6626754649070186,-3.3007018596280746,8.77366226754649,0.6177777777777778,-0.031111111111111114,-0.7655555555555555,-0.02418248169319003,-0.06781571299304827,0.8327177745492524
1589986871.9666996,-1.6793713560464838,-3.3112572879070323,8.704400507674611,0.6177777777777778,-0.031111111111111114,-0.7655555555555555,-0.024135426050067143,-0.06674640098500148,0.8688371784104305
1589986871.9766996,-1.7010508562983568,-3.3801695209945235,8.728067808397808,0.6177777777777778,-0.031111111111111114,-0.7655555555555555,-0.025529138684799176,-0.06883696993709953,0.8888533020706976
1589986871.9866996,-1.6953890591841547,-3.3588617071445412,8.725389059184156,0.6177777777777778,-0.031111111111111114,-0.7655555555555555,-0.025383035579757043,-0.06981317007977318,0.910210257614771
1589986871.9966996,-1.69,-3.378752018272752,8.745834678848501,0.594095988833318,0.04495766549836569,-0.7533558460993187,-0.027202702718207652,-0.07122223322696594,0.9194342159561049
1589986872.0066996,-1.6804652503293807,-3.4088833992094862,8.798697299077734,0.5811111111111111,0.08666666666666667,-0.7466666666666667,-0.02617993877991494,-0.07307551223964545,0.9227210397405964
1589986872.0166996,-1.7236378046772067,-3.3052692687747034,8.67781414690382,0.5811111111111111,0.08666666666666667,-0.7466666666666667,-0.02617993877991494,-0.07213363321481323,0.9114184914426102
1589986872.0266995,-1.7594006741388288,-3.2507991011482282,8.738401797703544,0.5811111111111111,0.08666666666666667,-0.7466666666666667,-0.024041861421462817,-0.06771867692786185,0.8808888282629406
1589986872.0366995,-1.751836387045657,-3.25,8.748163612954343,0.5811111111111111,0.08666666666666667,-0.7466666666666667,-0.026669813307017242,-0.06852202054547868,0.851804056492291
1589986872.0466995,-1.7898341867837113,-3.200207266520361,8.779875640087782,0.5877501422417296,0.07449510959386599,-0.7743292963775773,-0.01966660706301889,-0.06111817679788422,0.8030278082238521
1589986872.0566995,-1.7812974604496254,-3.2174050791007494,8.79740507910075,0.5877777777777777,0.07444444444444444,-0.7744444444444445,-0.020584253887680364,-0.05823862441156906,0.7601329647939046
1589986872.0666995,-1.8076871785594295,-3.256916238079239,8.689251285762282,0.5877777777777777,0.07444444444444444,-0.7744444444444445,-0.016698847980352472,-0.052780360363461926,0.7064475622818589
1589986872.0766995,-1.81,-3.26,8.695713795954584,0.5877777777777777,0.07444444444444444,-0.7744444444444445,-0.01379129788687742,-0.05150282294297341,0.6656416754028893
1589986872.0866995,-1.8328789908189855,-3.3057579816379707,8.738131651364975,0.5877777777777777,0.07444444444444444,-0.7744444444444445,-0.011426162226103927,-0.0462776252857728,0.6198174462575189
1589986872.0966995,-1.7820564709646456,-3.326438169892817,8.801505359142537,0.5412798841074317,0.023654437512220267,-0.7229390853019072,-0.007396830873951132,-0.04472406208235469,0.5756756932934962
1589986872.1066995,-2.375075141291317,-4.0273978849117995,8.225588499743107,0.5155555555555555,-0.004444444444444445,-0.6944444444444444,-0.3390540825508153,1.0986446122540943,0.4396402307249262
1589986872.1166995,-3.07877616747182,0.1007407407407408,1.312898550724638,0.5155555555555555,-0.004444444444444445,-0.6944444444444444,-0.6309814928214443,-0.09719109049199481,-1.6844904047290075
1589986872.1266994,-4.012188837453053,0.35095693947069617,-0.6561849943226483,0.5155555555555555,-0.004444444444444445,-0.6944444444444444,-0.3380278128862913,-1.035262115048843,-2.6922131507471825
1589986872.1366994,-1.5333220539439534,-0.48418804822760275,0.24262492197509755,0.5155555555555555,-0.004444444444444445,-0.6944444444444444,-0.15212228178740056,-0.7695805615836875,-2.7988653689724345
1589986872.1466994,-0.26613460674688544,-0.33255644074608165,0.08686910474929671,0.5155555555555555,0.1111111111111111,-0.6588888888888889,0.022952651660711348,-0.6504802585014579,-2.5507459821270153
1589986872.1566994,0.025579250720461095,0.0387369287772746,0.01115850144092219,0.5155555555555555,0.1111111111111111,-0.6588888888888889,0.09422478638576551,-0.5862355455527968,-2.3666324249577846
1589986872.1666994,-0.09529394812680117,0.004201729106628242,-0.23058789625360235,0.5155555555555555,0.1111111111111111,-0.6588888888888889,0.10552640404988625,-0.5391454719522938,-2.204642571772053
1589986872.1766994,-0.11546848313937322,0.062428009691385,-0.08522739007824602,0.5155555555555555,0.1111111111111111,-0.6588888888888889,0.09392660907806398,-0.49318501653658814,-1.94736851282697
1589986872.1866994,3.3329967827779328,1.303542320371768,2.3886716050363423,0.5155555555555555,0.1111111111111111,-0.6588888888888889,0.7590373798907534,0.25642753253509043,-1.861958113296379
1589986872.1966994,-0.86,4.43,13.74,0.4688888888888889,0.1511111111111111,-0.6588888888888889,1.198823029963605,4.360050637638334,-1.628610358267209
1589986872.2066994,-0.86,4.43,13.74,0.4688888888888889,0.1511111111111111,-0.6588888888888889,1.198823029963605,4.360050637638334,-1.628610358267209
1589986872.2166994,0.5978869436945088,-0.4928648167218679,5.17241782404186,0.4688888888888889,0.1511111111111111,-0.6588888888888889,0.08996446915393586,-0.045973800942326726,-0.8182068521351912
1589986872.2266994,0.7073802810337193,0.671421247640575,7.463795120359798,0.4688888888888889,0.1511111111111111,-0.6588888888888889,0.9721844230849601,0.7856786177125341,-0.7275846911560735
1589986872.2366993,0.7183568525741826,0.13173402495558229,3.8346280147854674,0.4688888888888889,0.1511111111111111,-0.6588888888888889,0.5461555620485471,0.11057986016963117,-0.6105419787480836
1589986872.2466993,0.9572908645432272,-0.46156087216125513,5.894678086845518,0.460358825130799,0.15188657145275566,-0.651909745814088,-0.29021527252300866,-0.14875027081309375,-0.4341738969165083
1589986872.2566993,0.43601265183889093,-3.1751256771762173,14.615377031528652,0.4566666666666666,0.15222222222222226,-0.6488888888888888,-0.4339618050936741,0.04043282723450567,-0.23147705224881146
1589986872.2666993,-0.23663527545785734,-2.3331230948427546,8.399345493296325,0.4566666666666666,0.15222222222222226,-0.6488888888888888,0.3349333051134472,0.16574329076758906,-0.1370448523876906
1589986872.2766993,-0.17313122651658064,-1.6758326187617905,5.899096677632092,0.4566666666666666,0.15222222222222226,-0.6488888888888888,0.19262970260918647,0.11068987721333909,-0.13246798955194516
1589986872.2866993,-0.6090784838664225,-2.6574274341270963,9.563747005777088,0.4566666666666666,0.15222222222222226,-0.6488888888888888,-0.10540849863612682,-0.06372176318374428,-0.16428761562447522
1589986872.2966993,-0.5930788723471649,-2.6163302009643474,9.409438989195086,0.4718916223794272,0.15920032692390418,-0.643813903651302,-0.09655896797006772,-0.046826213896509955,-0.16301687263484502
1589986872.3066993,-0.559919442401317,-2.412140380371966,7.982019543973942,0.4833333333333333,0.16444444444444445,-0.64,0.08704929745076513,0.06861375672280105,-0.1407215646774632
1589986872.3166993,-0.5882092052365735,-2.5163021853417176,8.332023245026287,0.4833333333333333,0.16444444444444445,-0.64,-0.018711779079854662,-0.020812198995496647,-0.19530191713089762
1589986872.3266993,-0.8127008378511582,-3.3021143420404138,10.813016264169542,0.4833333333333333,0.16444444444444445,-0.64,0.007136366587904369,-0.0023929461867381596,-0.2420961559865754
1589986872.3366992,-0.7277836701697655,-2.8680839126919966,9.34815020210186,0.4833333333333333,0.16444444444444445,-0.64,0.048236872299565914,0.035237925992364534,-0.269433757066048
1589986872.3466992,-0.8319326863514351,-2.8059102484685803,9.519792828136831,0.4750867613432139,0.17568976988551632,-0.66399002760762,-0.015182211210855584,0.02510134596407462,-0.31600021592590155
1589986872.3566992,-0.7876878482156302,-2.5919884053606386,8.924728203583799,0.4711111111111111,0.1811111111111111,-0.6755555555555556,-0.03495198157015499,0.01824651013815188,-0.3402849787945076
1589986872.3666992,-0.7406748731238527,-2.482024619371558,8.217668718280963,0.4711111111111111,0.1811111111111111,-0.6755555555555556,0.016663644580643403,0.022907446432425576,-0.3499759950329605
1589986872.3766992,-0.9107665768465587,-2.8672590596590197,9.363228990908862,0.4711111111111111,0.1811111111111111,-0.6755555555555556,0.022515962650880912,0.019984627585412106,-0.33858196362680043
1589986872.3866992,-0.8766178493405615,-2.7269754834533537,8.928048385791731,0.4711111111111111,0.1811111111111111,-0.6755555555555556,0.011002306917395883,0.016307474474925983,-0.32042931374135375
1589986872.3966992,-0.86,-2.786116260197326,8.633883739802673,0.48831352002923356,0.201897355220509,-0.6605034477521985,0.008339499871761923,0.017382684137810574,-0.2899174579471534
1589986872.4066992,-0.8837042121684867,-2.85,8.380366302652106,0.4977777777777778,0.21333333333333332,-0.6522222222222223,0.023379107367958674,0.027163218071843888,-0.2156465245857744
1589986872.4166992,-0.968515903686088,-2.963411860879905,8.88833531510107,0.4977777777777778,0.21333333333333332,-0.6522222222222223,-0.00698825630011329,-0.002903315520535677,-0.11682938736241676
1589986872.4266992,-0.8805666411422909,-2.8722805279041483,8.638555470474303,0.4977777777777778,0.21333333333333332,-0.6522222222222223,0.007886105644856704,-0.012155189171183764,-0.013428406506746607
1589986872.4366992,-0.8792266338130705,-3.016630826379944,8.723813070504564,0.4977777777777778,0.21333333333333332,-0.6522222222222223,0.04485684488522676,0.005785734216418594,0.09004527007438982
1589986872.4466991,-0.8814072700437111,-3.024072700437111,8.638145400874222,0.48441130895688395,0.22144868940316176,-0.6622470738378926,0.03702318522719621,0.011207193849347185,0.17634351811385082
1589986872.4566991,-0.8932687909141099,-2.95653758182822,8.740416830980362,0.4666666666666667,0.23222222222222225,-0.6755555555555556,-0.029800053319744158,-0.017973112662528955,0.2523506544063209
1589986872.4666991,-0.22846520495710199,-8.001077216396569,6.165943755958056,0.4666666666666667,0.23222222222222225,-0.6755555555555556,-0.1378757075357782,0.16463225801149325,0.12865407991025052
1589986872.476699,-0.25995283018867926,-1.9616981132075475,7.411415094339622,0.4666666666666667,0.23222222222222225,-0.6755555555555556,-0.5730411953577725,-0.2065169070107441,-2.689222040831581
1589986872.486699,-0.0146148969889065,-2.4971835182250395,11.612398732171156,0.4666666666666667,0.23222222222222225,-0.6755555555555556,0.02857713882662216,0.1657510977689743,-4.110092935407549
1589986872.496699,1.1594296752828628,-1.5907800570324717,11.309698279827064,0.48181318288208186,0.2549419965453449,-0.7067952452498493,1.0799237791329184,0.6903051329223607,-4.086887885662586
1589986872.506699,0.7081182129221005,-0.939396043040611,5.480972380621808,0.4844444444444445,0.2588888888888889,-0.7122222222222222,0.7218844640085009,0.32076456027969724,-3.8440869743489596
1589986872.516699,-1.3853900210822205,-2.4164089950808147,10.247856640899508,0.4844444444444445,0.2588888888888889,-0.7122222222222222,-0.2572689521529415,0.14117788021841693,-3.44936024848886
1589986872.526699,-1.24684854315558,-2.7782943925233643,10.279359538207807,0.4844444444444445,0.2588888888888889,-0.7122222222222222,-0.22589454866838143,0.20765828971611444,-3.0114900937295994
1589986872.536699,-0.5615119827567809,-2.639204635182142,8.473467210141061,0.4844444444444445,0.2588888888888889,-0.7122222222222222,0.21301523487458282,0.27313155970332387,-2.665222225335776
1589986872.546699,-0.8033054439368086,-3.006641712996092,9.636566851984368,0.44987871782169137,0.3003677608361926,-0.7182712243812039,0.10388771668992158,0.2076270631005704,-2.3795979052636995
1589986872.556699,-0.7174934839270201,-2.9401867940920936,9.329880538662033,0.44,0.31222222222222223,-0.72,-0.04900588091408274,0.06537284434242173,-2.1345610839817044
1589986872.566699,-0.5687237594834148,-2.689007832257114,8.045961354317562,0.44,0.31222222222222223,-0.72,0.05314083301630597,0.13961825179753617,-1.8462358265139764
1589986872.576699,-0.5584023137764137,-2.7676323928697912,8.18449486483296,0.44,0.31222222222222223,-0.72,0.04685426620658671,0.11784225241135948,-1.5984040163973652
1589986872.586699,-0.5951570152117857,-2.9798478821436425,8.903920482939213,0.44,0.31222222222222223,-0.72,0.017674349998363925,0.08409566803081794,-1.4003505446088904
1589986872.596699,-0.21568218205105816,-3.454317817948942,8.407137076820073,0.404073265475763,0.36129288401142395,-0.6902070981994133,0.04806841278459589,0.07738700256631795,-1.1445965181200428
1589986872.606699,4.0407992952755105,-16.630452603227965,7.750505660071687,0.3944444444444444,0.3744444444444445,-0.6822222222222222,-0.025369276621269803,0.03180597569028315,-1.3829337326283233
1589986872.616699,-4.412785271503446,-16.617839944661718,8.65448585947269,0.3944444444444444,0.3744444444444445,-0.6822222222222222,-0.14331531992448343,0.0926466117101298,-2.614644565757308
1589986872.626699,-1.475597316760382,-4.154352372496794,12.031428430502121,0.3944444444444444,0.3744444444444445,-0.6822222222222222,0.004330179608134338,0.08041834381040092,-1.1036524830553227
1589986872.636699,1.223462037138776,0.9496908032084388,10.097820459290189,0.3944444444444444,0.3744444444444445,-0.6822222222222222,0.3715332728813189,0.14056881028468932,0.5339524269537457
1589986872.646699,-0.21283587169233387,-1.3885093167701863,5.482386624691569,0.3917081218034166,0.4008955633077134,-0.6867827599572687,0.12954759461944132,-0.024926685307946145,1.047751180535285
1589986872.656699,0.24086671346466024,-2.546286798578511,6.340276181283728,0.3911111111111111,0.4066666666666667,-0.6877777777777778,-0.13132618179139316,-0.1536518884977346,0.9109886417877695
1589986872.666699,0.9255944794150994,-4.162076083981702,9.572244985729366,0.3911111111111111,0.4066666666666667,-0.6877777777777778,-0.35182881640008773,-0.18645768413434935,0.197077003048097
1589986872.676699,0.07,-2.623193096619041,7.986553402178526,0.3911111111111111,0.4066666666666667,-0.6877777777777778,0.2071754769850217,0.17263476544708717,-0.4829524979162749
1589986872.686699,0.0766313925718521,-4.469417771555629,8.956366630980812,0.3911111111111111,0.4066666666666667,-0.6877777777777778,0.05841815211896367,0.06908211672327513,-0.506180113339959
1589986872.696699,-1.9538201659805265,-8.349636672547867,9.405077435796903,0.3911111111111111,0.4103814066958548,-0.691492517806966,-0.13862197462825349,-0.02856767704831224,-0.549067532340903
1589986872.706699,-0.29098638667152477,-5.596928886091882,8.843971050975457,0.3911111111111111,0.4133333333333333,-0.6944444444444444,-0.037973600435302235,-0.009877562882330701,-0.22965317442472427
1589986872.716699,0.6454996818842058,-4.1327312341692375,8.95422541805217,0.3911111111111111,0.4133333333333333,-0.6944444444444444,0.003462470775546681,0.0008648680202578947,-0.07612319592896805
1589986872.7266989,0.1873153427847737,-4.8023852682376384,9.160660120283783,0.3911111111111111,0.4133333333333333,-0.6944444444444444,-0.022351457041959247,-0.0062751545675628915,-0.060744685739815577
1589986872.7366989,0.05908097928436912,-4.853276836158192,9.072128060263653,0.3911111111111111,0.4133333333333333,-0.6944444444444444,-0.04289327414758851,-0.027163946208946587,-0.03214848822523547
1589986872.7466989,-0.08482822891515228,-4.5784072520862455,8.647610878129367,0.38304740119456093,0.41064543002781656,-0.697580331634214,-0.023509073779742214,-0.018546849570757088,-0.001918322528713534
1589986872.7566988,-0.02831129350965192,-4.435238384759589,8.792728378172974,0.3711111111111111,0.4066666666666667,-0.7022222222222222,0.01495521983726319,0.0025735692043850344,0.0019266535480481559
1589986872.7666988,-0.017820213709112964,-4.457552610704121,8.707495450515609,0.3711111111111111,0.4066666666666667,-0.7022222222222222,-0.0025299679923468984,-0.003910723283130405,0.0007717153146759376
1589986872.7766988,-0.036208578598062896,-4.508957107009685,8.66653994981356,0.3711111111111111,0.4066666666666667,-0.7022222222222222,-0.007635815477475192,-0.001768081647528026,0.00033862543251578496
1589986872.7866988,-0.046644697423606954,-4.54,8.565745955662074,0.3711111111111111,0.4066666666666667,-0.7022222222222222,-0.013687998249145163,-0.0029064856139974474,0.0
1589986872.7966988,-0.04703373560065825,-4.552966264399342,8.523475498262936,0.37735412730338674,0.40762713069624756,-0.6959792060299466,-0.008643323063886824,-0.003891856451959494,0.0
1589986872.8066988,-0.03631207898864999,-4.53843960505675,8.6452483159546,0.3855555555555555,0.4088888888888889,-0.6877777777777778,0.0029862411175121213,-0.0029282218443709425,0.001032811509355277
1589986872.8166988,-0.04264345193035579,-4.471839137017411,8.687126040878121,0.3855555555555555,0.4088888888888889,-0.6877777777777778,0.0014043310902744875,-0.002181661564992912,0.002670636165943159
1589986872.8266988,-0.017137804237436525,-4.497844510593592,8.601448783050255,0.3855555555555555,0.4088888888888889,-0.6877777777777778,0.0033534403575790194,-0.0014030479068299715,0.0003893068290814702
1589986872.8366988,-0.03,-4.531586794462194,8.559520766773163,0.3855555555555555,0.4088888888888889,-0.6877777777777778,-0.003324768583072265,0.00034618484897118624,0.001090830782496456
1589986872.8466988,-0.021892566436938085,-4.5237851328738765,8.634322300689185,0.3797001868711219,0.41654590947622516,-0.6904802556321318,0.0012972777552296261,0.0008550858503479834,0.001090830782496456
1589986872.8566988,-0.03179655029093932,-4.494550862427265,8.719042238154614,0.3711111111111111,0.42777777777777776,-0.6944444444444444,0.004755269601917738,9.798661798297859e-05,0.002279648182975891
1589986872.8666987,-0.038007168986766836,-4.478007168986767,8.700035844933835,0.3711111111111111,0.42777777777777776,-0.6944444444444444,0.006110216412269068,-0.0015255990652061236,0.001964277423638078
1589986872.8766987,-0.03,-4.4763601855757065,8.640919443272882,0.3711111111111111,0.42777777777777776,-0.6944444444444444,0.0008943800258005528,-0.0025787037266523137,0.001090830782496456
1589986872.8866987,-0.035165738530893664,-4.500662954123575,8.655828692654469,0.3711111111111111,0.42777777777777776,-0.6944444444444444,-0.006725777386323282,-0.002181661564992912,-3.615853826890937e-05
1589986872.8966987,-0.04,-4.514903792439948,8.685096207560052,0.38186977151566565,0.4113566645287209,-0.705203104848999,-0.008107768551113795,-0.0027375715730425148,0.0005768992416523527
1589986872.9066987,-0.034589257994411676,-4.520821484011177,8.679178515988824,0.3922222222222223,0.3955555555555556,-0.7155555555555555,-0.002592661949233116,-0.0015018311667366604,0.0010012207778244404
1589986872.9166987,-0.03545394355706364,-4.497276338657618,8.631822395100555,0.3922222222222223,0.3955555555555556,-0.7155555555555555,0.0036686328319381354,-0.0005949329518043239,0.0005949329518043239
1589986872.9266987,-0.03377484415108178,-4.488675467546755,8.624900623395673,0.3922222222222223,0.3955555555555556,-0.7155555555555555,0.002882401339388692,0.00026728754267111546,0.0024489491076640276
1589986872.9366987,-0.03955009819642889,-4.504775049098214,8.64,0.3922222222222223,0.3955555555555556,-0.7155555555555555,0.0015626311632792784,0.0021325848913493085,0.001188984129783664
1589986872.9466987,-0.052716417284002434,-4.51,8.664447755556022,0.39041127736622067,0.40098839012356047,-0.7098208968448837,0.0029761771883398407,0.0020872317108912588,-0.0004982004641974013
1589986872.9566987,-0.053746840365545404,-4.51,8.72062026054832,0.3855555555555555,0.4155555555555556,-0.6944444444444444,0.002693246991277464,-0.0014318877333528242,0.0014318877333528242
1589986872.9666986,-0.02348994368463395,-4.5041834271922765,8.659530168946098,0.3855555555555555,0.4155555555555556,-0.6944444444444444,0.005327255979136352,-0.0031455944141434407,0.0030186964807975137
1589986872.9766986,-0.040118723720009894,-4.4748219144199854,8.609643828839971,0.3855555555555555,0.4155555555555556,-0.6944444444444444,0.0038243831131575604,-0.0011037815313363843,0.001090830782496456
1589986872.9866986,-0.03402374398442035,-4.4779287680467394,8.652071231953261,0.3855555555555555,0.4155555555555556,-0.6944444444444444,-0.0011167314516012912,-0.0004389223799090659,-0.00022593635723074166
1589986872.9966986,-0.038513401328273245,-4.46891959203036,8.667026802656547,0.38439931214421247,0.4155555555555556,-0.6956006878557874,-0.006825001681306247,-0.0009286680232626671,-0.0020194988057591233
1589986873.0066986,-0.0322955704459203,-4.506226577324478,8.65459114089184,0.37956322145793797,0.4155555555555556,-0.700436778542062,-0.0034337010178924028,-0.00025040789057989836,-0.0013412386730763544
1589986873.0166986,-0.03563319707034577,-4.536899591211037,8.604934423437234,0.37777777777777777,0.4155555555555556,-0.7022222222222222,-0.0009526886113525087,-0.0012289729536404032,-0.00047634430567625435
1589986873.0266986,-0.04,-4.5098965544893215,8.61010344551068,0.37777777777777777,0.4155555555555556,-0.7022222222222222,0.0024997755912695772,-0.0009317737693581233,-0.0006249438978173943
1589986873.0366986,-0.030828653173678076,-4.484585673413162,8.662928367065804,0.37777777777777777,0.4155555555555556,-0.7022222222222222,0.004363323129985824,0.0,-9.039203898614256e-05
1589986873.0466986,-0.03224709042076992,-4.49,8.69,0.3740356112603203,0.4175967372923506,-0.6998408435292947,0.0030273728072864937,-0.0010019627420244975,0.0007568432018216234
1589986873.0566986,-0.04245659163987138,-4.5031575562700965,8.676842443729903,0.3655555555555556,0.4222222222222222,-0.6944444444444444,-0.0004784222467283492,-0.0023156478540326698,-0.0014352667401850477
1589986873.0666986,-0.025267106616816803,-4.514732893383183,8.623130253682282,0.3655555555555556,0.4222222222222222,-0.6944444444444444,0.001207378030429357,-0.0005162785792650027,-0.0015488357377950082
1589986873.0766985,-0.03970850508959367,-4.490582989820813,8.60456275763439,0.3655555555555556,0.4222222222222222,-0.6944444444444444,0.003272492347489368,-0.0015885504305628438,0.0021180672407504586
1589986873.0866985,-0.04262429306997552,-4.477375706930024,8.649502827720097,0.3655555555555556,0.4222222222222222,-0.6944444444444444,0.0016633627151007413,-0.003272492347489368,0.0027541934975971972
1589986873.0966985,-0.03532639734366353,-4.495326397343663,8.694673602656335,0.3708819528992191,0.4151203590973375,-0.6965158211892024,-0.002833890237179116,-0.0029819824383755912,0.0005810198182275534
1589986873.1066985,-0.04070528169014084,-4.525491197183098,8.686196478873239,0.3855555555555555,0.3955555555555556,-0.7022222222222222,-0.006621918992772412,-0.0025196270598938386,0.0015057305751910587
1589986873.1166985,-0.02,-4.533427055829111,8.630910345155689,0.3855555555555555,0.3955555555555556,-0.7022222222222222,-0.0014646645816692827,-0.003272492347489368,0.0005797317096633084
1589986873.1266985,-0.029984739676840216,-4.51499236983842,8.614931328545781,0.3855555555555555,0.3955555555555556,-0.7022222222222222,0.0021799969219675587,-0.003272492347489368,0.001090830782496456
1589986873.1366985,-0.04375919258464839,-4.501204037076758,8.667518385169297,0.3855555555555555,0.3955555555555556,-0.7022222222222222,0.003682556646356055,-0.003272492347489368,0.0015008950813631431
1589986873.1466985,-0.05,-4.481882143764287,8.685941071882143,0.3875359128496034,0.4051272824767872,-0.7022222222222222,0.004363323129985824,-0.0026244219384827104,0.0018576263604895833
1589986873.1566985,-0.04152994011976048,-4.5057649700598805,8.670354790419161,0.3922222222222223,0.42777777777777776,-0.7022222222222222,0.0034393829252904722,-0.0024767410895394837,0.0015528008848441318
1589986873.1666985,-0.03260431329614375,-4.5026043132961435,8.616978433519282,0.3922222222222223,0.42777777777777776,-0.7022222222222222,0.0018975750539230703,-0.004363323129985824,0.0018975750539230703
1589986873.1766984,-0.039893297186451876,-4.509893297186451,8.58053351406774,0.3922222222222223,0.42777777777777776,-0.7022222222222222,0.0011024702538561838,-0.004363323129985824,0.0011024702538561838
1589986873.1866984,-0.02,-4.517868647071429,8.625576235142843,0.3922222222222223,0.42777777777777776,-0.7022222222222222,0.001716672488423232,0.0,0.000858336244211616
1589986873.1966984,-0.02,-4.510954319909002,8.70854816109197,0.3922222222222223,0.42777777777777776,-0.7022222222222222,0.00020820030661782658,0.0,0.00010410015330891329
1589986873.2066984,-0.02323760793092421,-4.513524784138151,8.68,0.3922222222222223,0.4222222222222222,-0.6944444444444444,-0.004685165304572083,-0.0018284933257222333,0.0007063364785413573
1589986873.2166984,-0.03,-4.525780978826796,8.623281846581047,0.3922222222222223,0.4222222222222222,-0.6944444444444444,-0.005386000652902494,-0.002215738194782805,0.0010567541527065631
1589986873.2266984,-0.03480207462654579,-4.530791701493817,8.60361452238582,0.3922222222222223,0.4222222222222222,-0.6944444444444444,-0.0022248421829931036,-0.00117719201849684,0.000523825082248132
1589986873.2366984,-0.04,-4.5134406301662935,8.650321890498882,0.3922222222222223,0.4222222222222222,-0.6944444444444444,0.00041042733613525124,-0.00041042733613525124,0.0007155162528385292
1589986873.2466984,-0.038172681386609744,-4.5145180441598285,8.675481955840171,0.38836454959395394,0.42323739922966125,-0.6944444444444444,0.003272492347489368,-0.0028738332689064016,0.0
1589986873.2566984,-0.03,-4.496135288552507,8.702045096184168,0.3711111111111111,0.42777777777777776,-0.6944444444444444,0.002826321573317844,-0.0008677453954106938,0.00044617077417152427
1589986873.2666984,-0.02505644776594053,-4.510112895531881,8.640790268723167,0.3711111111111111,0.42777777777777776,-0.6944444444444444,1.2314992138217316e-05,-0.0010785157903582387,0.002720919460172031
1589986873.2766984,-0.028951497373627122,-4.508951497373627,8.592378743434068,0.3711111111111111,0.42777777777777776,-0.6944444444444444,0.0013503114386507053,-0.002181661564992912,0.0022960354590305034
1589986873.2866983,-0.0329823654545816,-4.509473548181872,8.637544086363546,0.3711111111111111,0.42777777777777776,-0.6944444444444444,0.002449560184372596,-0.0025644141541155577,0.001090830782496456
1589986873.2966983,-0.025639127400709973,-4.498458691101065,8.684097818501774,0.37518381423384606,0.4243316443662328,-0.6925647353108745,-0.0013983974702521393,-0.0029649256597336845,0.001090830782496456
1589986873.3066983,-0.04,-4.515600568072405,8.69360340843443,0.3855555555555555,0.4155555555555556,-0.6877777777777778,-0.002181661564992912,-0.00026204725614564404,0.0006109272052846389
1589986873.3166983,-0.026413255006092793,-4.513396686248477,8.619239765018278,0.3855555555555555,0.4155555555555556,-0.6877777777777778,-0.002181661564992912,0.001811140573160822,0.0
1589986873.3266983,-0.005042648374589919,-4.52,8.548404413957648,0.3855555555555555,0.4155555555555556,-0.6877777777777778,-0.0025483733031468054,0.0007241190443425623,0.0003667117381538936
1589986873.3366983,-0.03,-4.517301486688948,8.616985133110521,0.3855555555555555,0.4155555555555556,-0.6877777777777778,-0.0028915124366497335,-0.0007964686438292378,0.0015929372876584756
1589986873.3466983,-0.031448367361981276,-4.507103265276037,8.69144836736198,0.3855555555555555,0.41652113379687644,-0.6898698639673063,0.001722800263621402,-0.00015799237028123653,0.0
1589986873.3566983,-0.03710321693023543,-4.498690349209293,8.705793566139528,0.3855555555555555,0.4222222222222222,-0.7022222222222222,0.00545415391248228,-0.0007748407682250792,0.0003159900142713767
1589986873.3666983,-0.03061942525004251,-4.5181417242498725,8.718761149499915,0.3855555555555555,0.4222222222222222,-0.7022222222222222,0.00545415391248228,-6.756881302019354e-05,0.0010232619694762624
1589986873.3766983,-0.04,-4.513073814584481,8.612295258337925,0.3855555555555555,0.4222222222222222,-0.7022222222222222,0.0029371911906454864,0.0008404569376173855,-0.00042022846880869274
1589986873.3866982,-0.04,-4.52,8.646033372138145,0.3855555555555555,0.4222222222222222,-0.7022222222222222,0.002181661564992912,-0.0018525921624656535,0.0001036225749146808
1589986873.3966982,-0.03871485336673433,-4.516144560100202,8.66,0.3845559970630155,0.4222222222222222,-0.7003658993075051,0.0017610983127165497,-0.0006702675302200937,-0.0020414738142341244
1589986873.4066982,-0.03053728515360671,-4.491074570307213,8.660537285153607,0.37777777777777777,0.4222222222222222,-0.6877777777777778,-0.0010322220640432021,0.0019472266911798963,-0.0010322220640432021
1589986873.4166982,-0.03314059930792451,-4.5134297003460375,8.628843595847547,0.37777777777777777,0.4222222222222222,-0.6877777777777778,-0.00037412227121967195,-0.002555783836212584,0.0
1589986873.4266982,-0.027477819400630918,-4.527477819400631,8.572433458201893,0.37777777777777777,0.4222222222222222,-0.6877777777777778,-0.002722237900127936,-0.003272492347489368,0.00040785177940787
1589986873.4366982,-0.036812013262394944,-4.53362402652479,8.625939933688025,0.37777777777777777,0.4222222222222222,-0.6877777777777778,-0.0044108876922112645,-0.002576981533975358,0.000743075375739451
1589986873.4466982,-0.02787292283910859,-4.515745845678217,8.666381231482674,0.3820319320995606,0.4222222222222222,-0.690850222565732,-0.0014855771918392577,-0.001554887031265559,0.0
1589986873.4566982,-0.0277822257806245,-4.5038911128903125,8.693891112890311,0.3977777777777778,0.4222222222222222,-0.7022222222222222,0.0019397399262807277,-0.003272492347489368,-0.0008489091437842716
1589986873.4666982,-0.04288835677940737,-4.504223286441185,8.671116432205926,0.3977777777777778,0.4222222222222222,-0.7022222222222222,0.0029574214989083803,-0.002012208953165417,-0.0018665907164119241
1589986873.4766982,-0.04819563723806252,-4.49721745104775,8.609021813809687,0.3977777777777778,0.4222222222222222,-0.7022222222222222,0.0017880106762905666,0.0006971798937941107,-0.001090830782496456
1589986873.4866982,-0.04,-4.524141425994104,8.651952858001966,0.3977777777777778,0.4222222222222222,-0.7022222222222222,-0.00042604752447769227,-0.0008778070202576098,-0.0006647832580187636
1589986873.4966981,-0.04,-4.5056852017542575,8.65810493274858,0.3977777777777778,0.4222222222222222,-0.7022222222222222,-0.0017682220264431307,-0.0002067197692748906,0.0006773912439466748
1589986873.5066981,-0.021361092318100745,-4.508638907681899,8.7,0.3711111111111111,0.4088888888888889,-0.68,-0.0004969422231349559,0.0009423586426560809,0.0009423586426560809
1589986873.5166981,-0.03,-4.5,8.66616260321493,0.3711111111111111,0.4088888888888889,-0.68,0.0021651661271083833,0.000369108740126995,-0.00073821748025399
1589986873.526698,-0.03260710902136917,-4.505214218042738,8.607821327064107,0.3711111111111111,0.4088888888888889,-0.68,-0.0008531744321501107,0.0005220478277297155,-0.0016128786102261716
1589986873.536698,-0.03996578827327275,-4.519931576546545,8.629897364819819,0.3711111111111111,0.4088888888888889,-0.68,-0.0032612965860984344,-0.0010833669415691671,-7.463840927288828e-06
1589986873.546698,-0.04572128539611836,-4.52,8.648557429207763,0.37206193657864034,0.4115828943802218,-0.6831694182250976,-0.0007796738758677076,-0.00124640923581083,-0.0018705046583641636
1589986873.556698,-0.019452025202520252,-4.51835607560756,8.698904050405039,0.37777777777777777,0.42777777777777776,-0.7022222222222222,0.0012701551156334072,-0.002002337231855961,5.9774777712317046e-05
1589986873.566698,-0.01491572153643712,-4.485084278463563,8.66033711385425,0.37777777777777777,0.42777777777777776,-0.7022222222222222,0.004095212111479504,0.0005546087454838174,0.0005546087454838174
1589986873.576698,-0.02805658249263738,-4.4719434175073625,8.60777367002945,0.37777777777777777,0.42777777777777776,-0.7022222222222222,0.0033784893295030517,-0.0008788368184690888,-0.0008788368184690888
1589986873.586698,-0.03813052021925742,-4.495608439342228,8.639347398903713,0.37777777777777777,0.42777777777777776,-0.7022222222222222,0.0006829735640787099,-0.0015698757373662927,0.001090830782496456
1589986873.596698,-0.031607464097325975,-4.5208037320486625,8.681607464097326,0.378938724070291,0.42679543860718966,-0.701061275929709,-0.0010031572165404034,0.001090830782496456,0.0011785043484525085
1589986873.606698,-0.04716683499254557,-4.521500504977637,8.7,0.3922222222222223,0.4155555555555556,-0.6877777777777778,0.00030905036020230955,0.0007817804222941464,0.0018726112047906024
1589986873.616698,-0.045632554578567616,-4.502816277289284,8.671837227107162,0.3922222222222223,0.4155555555555556,-0.6877777777777778,0.001090830782496456,0.000614416391839291,0.0013980389784161015
1589986873.626698,-0.05801130291448548,-4.511988697085514,8.607954788342058,0.3922222222222223,0.4155555555555556,-0.6877777777777778,0.000440031183114389,0.0015308619656108449,0.0019647283651988896
1589986873.636698,-0.05041389678845074,-4.519586103211549,8.638344412846198,0.3922222222222223,0.4155555555555556,-0.6877777777777778,-0.0020462141577073647,-0.000955383375210909,0.001135979918258305
1589986873.646698,-0.036244428643277087,-4.499366642964915,8.653755571356724,0.3922222222222223,0.4155555555555556,-0.6877777777777778,-0.002931911598329907,-0.0003405807491594613,0.001090830782496456
