time,acc_x,acc_y,acc_z,mag_x,mag_y,mag_z,gyr_x,gyr_y,gyr_z
1589986889.4900017,-3.82,-0.78,8.91,0.2877777777777778,-0.37777777777777777,-0.6522222222222223,0.01854412330243975,-0.016362461737446838,-0.007635815477475192
1589986889.5000017,-3.7903203799329086,-0.7996796200670914,8.801601899664544,0.2877777777777778,-0.37777777777777777,-0.6522222222222223,0.013901215938125181,-0.01284533318491982,-0.003377336435362647
1589986889.5100017,-3.8,-0.7871049117872212,8.870265617489451,0.2877777777777778,-0.37777777777777777,-0.6522222222222223,0.004822543644373919,-0.0029277128400488363,-0.006229179560924555
1589986889.5200016,-3.799161064136935,-0.7816778717261291,8.923355743452259,0.2877777777777778,-0.37843028344905016,-0.6510104259755735,0.002814923815503847,0.0034555197602835763,-0.00545415391248228
1589986889.5300016,-3.80199696002432,-0.7940015199878402,8.94200455996352,0.2877777777777778,-0.3855555555555555,-0.6377777777777778,0.001744334422279331,0.0034911559188461586,-0.010034482564299896
1589986889.5400016,-3.81,-0.8112184512545771,8.880490280405986,0.2877777777777778,-0.3855555555555555,-0.6377777777777778,0.006677897108525158,-0.004762060370625086,-0.016176068028009916
1589986889.5500016,-3.7993922964166504,-0.8093922964166504,8.865303851791674,0.2877777777777778,-0.3855555555555555,-0.6377777777777778,0.008792936437506754,-0.008214375957490973,-0.02208177636006954
1589986889.5600016,-3.79,-0.7951297506503395,8.879740498699322,0.2877777777777778,-0.3855555555555555,-0.6377777777777778,0.008754953460659489,-0.006070337305450108,-0.028304985943532174
1589986889.5700016,-3.7999771601114896,-0.79,8.89997716011149,0.2816806243763119,-0.3816755488455318,-0.6377777777777778,0.006547476140324327,-0.0016399833417630695,-0.0327199405842025
1589986889.5800016,-3.8470544783010157,-0.7838242536164974,8.91,0.27555555555555555,-0.37777777777777777,-0.6377777777777778,0.0014121373564727905,0.0026946777040063267,-0.03355924618788343
1589986889.5900016,-3.9113284752329123,-0.774095932109584,8.874575592657504,0.27555555555555555,-0.37777777777777777,-0.6377777777777778,-0.001090830782496456,-0.00014491416778446634,-0.01855617768190134
1589986889.6000016,-3.8544528150938366,-0.7897416580552685,8.876322210740359,0.27555555555555555,-0.37777777777777777,-0.6377777777777778,-0.001090830782496456,-0.004708146234436435,-0.0029840307121833786
1589986889.6100016,-3.81,-0.7938564005118859,8.908430798464343,0.27555555555555555,-0.37777777777777777,-0.6377777777777778,-0.002431156269889337,-0.004783991168785839,-0.002010488231089321
1589986889.6200016,-3.81694548546594,-0.8038909709318804,8.947781941863761,0.2840444822361492,-0.3831798220290646,-0.6331474541338176,-0.0017572224783635002,-0.004363323129985824,-0.0002419526092376327
1589986889.6300015,-3.8055255538347583,-0.8244744461652413,8.974474446165242,0.2877777777777778,-0.3855555555555555,-0.6311111111111111,-0.002669747926159766,-0.0027844059863225135,0.001090830782496456
1589986889.6400015,-3.8,-0.8020143545188403,8.875053829445651,0.2877777777777778,-0.3855555555555555,-0.6311111111111111,-0.0009829220805732302,0.00010790870192322602,0.001090830782496456
1589986889.6500015,-3.812857394288731,-0.79,8.842857394288732,0.2877777777777778,-0.3855555555555555,-0.6311111111111111,-0.004207572441852722,0.0017920928561385764,0.001090830782496456
1589986889.6600015,-3.8162436993206224,-0.79,8.861268902038132,0.2877777777777778,-0.3855555555555555,-0.6311111111111111,-0.007774231217791968,0.0038206569287438873,0.00027133310062096806
1589986889.6700015,-3.8101157133464825,-0.79,8.879652859960553,0.2877777777777778,-0.3855555555555555,-0.6311111111111111,-0.009779609938381444,0.006494495222863186,-0.0010655860464386816
1589986889.6800015,-3.81,-0.79,8.908384576612903,0.2877777777777778,-0.3855555555555555,-0.6377777777777778,-0.014224854011389173,0.0104289731921192,0.0005674423107158511
1589986889.6900015,-3.8228410729737528,-0.8028410729737526,8.812215171618114,0.2877777777777778,-0.3855555555555555,-0.6377777777777778,-0.01597200283895301,0.01339988237546627,-0.00030991298550879986
1589986889.7000015,-3.83,-0.8053194913054763,8.812763560861665,0.2877777777777778,-0.3855555555555555,-0.6377777777777778,-0.016362461737446838,0.011627978691589522,-6.970219015069493e-05
1589986889.7100015,-3.8268645182966097,-0.8031354817033906,8.871948371923734,0.2877777777777778,-0.3855555555555555,-0.6377777777777778,-0.01533637774944299,0.008384618263970365,0.00040677479049389077
1589986889.7200015,-3.80961520123962,-0.8065384004132068,8.937307997933967,0.28354693383836377,-0.3855555555555555,-0.6408547551882606,-0.011579561635577024,0.008013417416070303,-0.001090830782496456
1589986889.7300014,-3.8030618739377284,-0.8,8.973265468484433,0.27555555555555555,-0.3855555555555555,-0.6466666666666666,-0.007301816843135428,0.009439060968389758,-0.000378416074078346
1589986889.7400014,-3.816235932950342,-0.8,8.929531754151254,0.27555555555555555,-0.3855555555555555,-0.6466666666666666,-0.0023614207259709226,0.008906405420949658,0.001090830782496456
1589986889.7500014,-3.810074327389468,-0.8050371636947343,8.880074327389469,0.27555555555555555,-0.3855555555555555,-0.6466666666666666,-0.00219787728587589,0.004896576730571818,0.001090830782496456
1589986889.7600014,-3.8145102582382764,-0.8209794835234474,8.900979483523448,0.27555555555555555,-0.3855555555555555,-0.6466666666666666,-0.0025668093394924625,0.0014759785569960066,-0.0007056830079969056
1589986889.7700014,-3.81,-0.8073722110730729,8.921313894463463,0.27806975432521414,-0.38115570770865304,-0.6416382691273494,-0.001090830782496456,-0.000617077217533115,-0.002798738782526027
1589986889.7800014,-3.81,-0.8032980048352829,8.916701995164717,0.28,-0.37777777777777777,-0.6377777777777778,-0.0025414180845077876,-0.0032667117355134534,-0.003272492347489368
1589986889.7900014,-3.8155770522904233,-0.81,8.837498320224496,0.28,-0.37777777777777777,-0.6377777777777778,-0.001447406253293537,-0.004363323129985824,-0.0026641303160907575
1589986889.8000014,-3.835388609188169,-0.81,8.79538860918817,0.28,-0.37777777777777777,-0.6377777777777778,0.0011190912401508114,-0.00492286875006123,-0.003860298425219129
1589986889.8100014,-3.836913072087586,-0.81,8.839445587802933,0.28,-0.37777777777777777,-0.6377777777777778,0.0014678803742342443,-0.004740372721723612,-0.004026591530964944
1589986889.8200014,-3.8134244753384574,-0.81,8.892294930488472,0.28,-0.37777777777777777,-0.6377777777777778,0.00018677615565446766,-0.0034592685031438358,-0.001464383093805391
1589986889.8300014,-3.81,-0.8,8.952284541723667,0.27555555555555555,-0.3711111111111111,-0.6233333333333333,0.007215002508030595,-0.0050333409430376825,-0.003693305316933965
1589986889.8400013,-3.8191979440592876,-0.8,8.917005139851781,0.27555555555555555,-0.3711111111111111,-0.6233333333333333,0.007046654720756301,-0.0038616531042082584,-0.00486499315576339
1589986889.8500013,-3.826993005575266,-0.8120279776989356,8.899020983274202,0.27555555555555555,-0.3711111111111111,-0.6233333333333333,0.008619852101863683,-0.003928516763748361,-0.004470117288093789
1589986889.8600013,-3.82,-0.8354093107804171,8.924590689219583,0.27555555555555555,-0.3711111111111111,-0.6233333333333333,0.01090830782496456,-0.004703004145442942,-0.003183194587712029
1589986889.8700013,-3.82,-0.8168359302021447,8.94632813959571,0.2769618087990468,-0.3756814341524576,-0.6279036563746798,0.012634040191698481,-0.004942833351767187,-0.005509545274938382
1589986889.8800013,-3.82,-0.8057820502718462,8.95367307540777,0.28,-0.3855555555555555,-0.6377777777777778,0.01751272908807002,-0.011138361295089196,-0.0028123854072400947
1589986889.8900013,-3.807467927333727,-0.7774679273337273,8.867339636668635,0.28,-0.3855555555555555,-0.6377777777777778,0.020449578586643848,-0.011087780565270836,-0.001090830782496456
1589986889.9000013,-3.79,-0.7678593345974832,8.799648336493707,0.28,-0.3855555555555555,-0.6377777777777778,0.013828861042559017,-0.005959535193474778,-0.0006621705770527529
1589986889.9100013,-3.80258736918329,-0.78,8.846783158911053,0.28,-0.3855555555555555,-0.6377777777777778,0.005171915717400741,-0.0009153793183853296,0.0009153793183853296
1589986889.9200013,-3.816658863416209,-0.7833411365837908,8.893387956086535,0.27368896423061745,-0.3855555555555555,-0.6407476769633695,0.00145018503042736,-0.003639507418642518,0.001088277174755707
1589986889.9300013,-3.800952406350561,-0.79,8.926428609525841,0.2611111111111111,-0.3855555555555555,-0.6466666666666666,-0.002675131248009292,-0.006544984694978735,-0.001090830782496456
1589986889.9400012,-3.8030543295707533,-0.79,8.857782681716985,0.2611111111111111,-0.3855555555555555,-0.6466666666666666,-0.004221829983531473,-0.00559564705893663,-0.0001414931464543502
1589986889.9500012,-3.8148474735164526,-0.7951525264835474,8.820915158901284,0.2611111111111111,-0.3855555555555555,-0.6466666666666666,-0.00545415391248228,-0.0054874300291621655,-3.327611667988629e-05
1589986889.9600012,-3.8062779345764124,-0.7925558691528247,8.861166196270762,0.2611111111111111,-0.3855555555555555,-0.6466666666666666,-0.00707821132788833,-0.004920927279572686,-0.001090830782496456
1589986889.9700012,-3.797030127973683,-0.78,8.891879488105268,0.26672086938304296,-0.37961581150292184,-0.6509564818157909,-0.010141439825106258,-0.0018576987823547579,-0.00044290521722014807
1589986889.9800012,-3.792556544308491,-0.782556544308491,8.92,0.28,-0.3655555555555556,-0.6611111111111111,-0.012302686439223562,0.0016979264460215513,0.0005330793367928547
1589986889.9900012,-3.8051648559282003,-0.8106594237128011,8.878681152574398,0.28,-0.3655555555555556,-0.6611111111111111,-0.016925860120810855,0.009817477042468105,-0.0016542291658604735
1589986890.0000012,-3.81,-0.821294775892477,8.86611567232257,0.28,-0.3655555555555556,-0.6611111111111111,-0.01792808884119411,0.01171666232747136,-0.0017068652437420978
1589986890.0100012,-3.8070672746580048,-0.8070672746580049,8.91173090136798,0.28,-0.3655555555555556,-0.6611111111111111,-0.01854412330243975,0.014180800172453925,-0.0017306521984276025
1589986890.0200012,-3.8028831393463296,-0.8,8.94,0.28224244171381213,-0.36715729963684995,-0.6502192513583094,-0.017600618157678754,0.013866298457533593,-0.0013854820579673737
1589986890.0300012,-3.814447673253437,-0.7955523267465631,8.917761633732814,0.2877777777777778,-0.3711111111111111,-0.6233333333333333,-0.012845801507282758,0.010664139942289845,0.0018169946788887921
1589986890.0400012,-3.8280757777714753,-0.7940378888857378,8.857696888914099,0.2877777777777778,-0.3711111111111111,-0.6233333333333333,-0.008055615645322868,0.0049930233817573385,0.00044046534928630893
1589986890.0500011,-3.835790405666452,-0.7957904056664521,8.822628783000644,0.2877777777777778,-0.3711111111111111,-0.6233333333333333,-0.006831740436739314,0.00017243976632509977,0.0006316352744107779
1589986890.0600011,-3.8349898626243486,-0.7800202747513028,8.859959450497394,0.2877777777777778,-0.3711111111111111,-0.6233333333333333,-0.009543110622631856,-0.0013629855700498588,0.0005443095751068058
1589986890.0700011,-3.851876330909237,-0.7509381654546186,8.922814496363856,0.2877777777777778,-0.37246623899000453,-0.6260435890911201,-0.011999138607461015,-0.0019769856135983823,0.002898027394873766
1589986890.080001,-3.8664163462960226,-0.767167307407955,8.953583653703978,0.2877777777777778,-0.3855555555555555,-0.6522222222222223,-0.011217306652639791,-0.001172747932231838,0.01529030072621668
1589986890.090001,-3.848982127205518,-0.7882634045958614,8.929700849815175,0.2877777777777778,-0.3855555555555555,-0.6522222222222223,-0.008615613562282992,-0.0026715606073968116,0.03049749365825149
1589986890.100001,-3.8084471987101973,-0.8061490662367325,8.88080747010614,0.2877777777777778,-0.3855555555555555,-0.6522222222222223,-0.005874225621514991,-0.0019309742005618779,0.04808463575461637
1589986890.110001,-3.79,-0.8064564591852189,8.92677177040739,0.2877777777777778,-0.3855555555555555,-0.6522222222222223,-0.0056646216418326486,-0.0038007101793770203,0.05257034528918024
1589986890.120001,-3.7860585535773525,-0.8478828928452947,8.92576578569059,0.2829604543723199,-0.3798623551672871,-0.6500325297651959,-0.001090830782496456,-0.004395259152286602,0.043697103344459795
1589986890.130001,-3.78,-0.8695391869686361,8.945230406515682,0.27555555555555555,-0.3711111111111111,-0.6466666666666666,0.001510578913847882,-0.001090830782496456,0.030324581394384223
1589986890.140001,-3.800397641714096,-0.8545029478573798,8.88900589571476,0.27555555555555555,-0.3711111111111111,-0.6466666666666666,0.00603210129039106,-0.002203349556099947,0.014007296243597648
1589986890.150001,-3.82,-0.8154547392657656,8.844848420244745,0.27555555555555555,-0.3711111111111111,-0.6466666666666666,0.009222457292309184,-0.004859134162323359,0.0028097508877589607
1589986890.160001,-3.823655973678799,-0.7963440263212009,8.860967921036398,0.27555555555555555,-0.3711111111111111,-0.6466666666666666,0.011705917550730732,-0.007741399283627996,-0.0003988048628830864
1589986890.170001,-3.8194589457678663,-0.79,8.894054738976179,0.27555555555555555,-0.3761864335191755,-0.643543391338627,0.015006387129353487,-0.013267028973380935,-0.004157099165530083
1589986890.180001,-3.7914533691649246,-0.7814533691649249,8.907180053747387,0.27555555555555555,-0.3855555555555555,-0.6377777777777778,0.02087485530282309,-0.02149953968524288,-0.016343526643541457
1589986890.190001,-3.7762234134036574,-0.7624468268073152,8.848457547440233,0.27555555555555555,-0.3855555555555555,-0.6377777777777778,0.022762392141305897,-0.022762392141305897,-0.03332834182152604
1589986890.200001,-3.7782540848173305,-0.7376188727740041,8.784127042408665,0.27555555555555555,-0.3855555555555555,-0.6377777777777778,0.014423118007376032,-0.015323498987384122,-0.053658580997408285
1589986890.210001,-3.833155977752621,-0.7351045922134173,8.824524782202095,0.27555555555555555,-0.3855555555555555,-0.6377777777777778,0.0019234637388854422,-0.005752780718223546,-0.06303280603988799
1589986890.220001,-3.970784564650293,-0.7832745976276025,8.934627651720234,0.27555555555555555,-0.3855555555555555,-0.6377777777777778,-0.009336248696574727,0.00025239924735521134,-0.06228215854419064
1589986890.230001,-3.7924695604588896,-0.79,8.898643461606113,0.28,-0.3655555555555556,-0.6377777777777778,-0.008996033516750924,-0.002855129706941102,0.001225524410886094
1589986890.240001,-3.808864111634452,-0.79,8.956024390720582,0.28,-0.3655555555555556,-0.6377777777777778,-0.010784401625502614,-0.007326049978820326,0.002119708465261939
1589986890.250001,-3.882791629256164,-0.7548055804958906,8.892402790247946,0.28,-0.3655555555555556,-0.6377777777777778,-0.009555373285834003,-0.001090830782496456,0.00947054177391391
1589986890.260001,-3.8610655086677257,-0.769289660888183,8.899644830444092,0.28,-0.3655555555555556,-0.6377777777777778,-0.008765389248430712,-0.001090830782496456,0.01500043003573693
1589986890.270001,-3.75543983460231,-0.8397067769317933,8.95,0.28125828589856583,-0.36753286196758755,-0.6392158188047101,-0.006929918739073414,-0.0012992906419906894,0.022554498063224685
1589986890.280001,-3.680397193010357,-0.8897352046597619,8.95,0.28774345245589505,-0.37772383798624776,-0.6466274377273721,-0.0032917488080355948,0.003248421771806585,0.020735413097705775
1589986890.290001,-3.8041636285653015,-0.82,8.868754557152048,0.2877777777777778,-0.37777777777777777,-0.6466666666666666,0.0025679146157648316,0.006680841434617341,0.003522888658622682
1589986890.300001,-3.820830957334772,-0.8108309573347717,8.839169042665228,0.2877777777777778,-0.37777777777777777,-0.6466666666666666,0.0037725860467520828,0.00990812042643913,0.0005000936992627147
1589986890.310001,-3.8148821016909484,-0.8024410508454742,8.871969457609268,0.28479427118886486,-0.37967637287981326,-0.6444968436929117,0.001966827066491767,0.00846036891958342,0.001090830782496456
1589986890.320001,-3.8246984962845945,-0.8073492481422971,8.916143233280673,0.27879536338163685,-0.38349385966623106,-0.6401340016512914,-0.0028517843616545054,0.007924967649789389,0.001090830782496456
1589986890.3300009,-3.8266456268475046,-0.8066456268475048,8.936645626847504,0.27555555555555555,-0.3855555555555555,-0.6377777777777778,-0.0058200592615544255,0.009831247571908069,0.001090830782496456
1589986890.3400009,-3.818642015826131,-0.7986420158261314,8.916420158261314,0.27555555555555555,-0.3855555555555555,-0.6377777777777778,-0.006248718507178947,0.014180800172453925,0.0012389638763963503
1589986890.3500009,-3.8144283703092383,-0.7944283703092383,8.869855332783144,0.27555555555555555,-0.3855555555555555,-0.6377777777777778,-0.004846383394946874,0.012248559112609726,0.003147782094915012
1589986890.3600008,-3.8175602579915715,-0.7975602579915716,8.922439742008429,0.27555555555555555,-0.3855555555555555,-0.6377777777777778,-0.005188019344067936,0.008486804200396386,0.0038310539931571365
1589986890.3700008,-3.812171343406311,-0.792171343406311,8.92782865659369,0.27555555555555555,-0.3855555555555555,-0.6377777777777778,-0.004600179952683301,0.005547607243473213,0.0026553752103878675
1589986890.3800008,-3.8196549464106715,-0.8093098928213432,8.968619785642687,0.2798466428491874,-0.35980903179376467,-0.6377777777777778,-0.0054165144047972485,0.004363323129985824,0.0011284702901814868
1589986890.3900008,-3.8114342355126145,-0.7757369420504581,8.97,0.28,-0.3588888888888889,-0.6377777777777778,-0.00545415391248228,0.00529770308783133,0.00015645082465094923
1589986890.4000008,-3.8386507177033495,-0.7771626794258374,8.86134928229665,0.28,-0.3588888888888889,-0.6377777777777778,-0.002653485023067934,0.004525642925850129,-0.00016231979586430508
1589986890.4100008,-3.8199759717575734,-0.7733253239191912,8.899975971757573,0.28,-0.3588888888888889,-0.6377777777777778,-0.002541777059626651,0.0014561884264278143,0.001818924995710363
1589986890.4200008,-3.84,-0.7848675835298538,8.922433791764927,0.28094647457524935,-0.36037620607856646,-0.6406172015035257,-0.004923182917408562,-0.00039822824630528843,0.0009580880337280265
1589986890.4300008,-3.84,-0.819880626917378,8.939940313458688,0.28775456634504576,-0.37107463600253215,-0.6610414768129149,-0.0011038523658090165,-0.0032627261600049477,3.2553958281401982e-06
1589986890.4400008,-3.8230461637004165,-0.8304307544493754,8.895230818502082,0.2877777777777778,-0.3711111111111111,-0.6611111111111111,-0.000711557847895101,-0.004363323129985824,-0.00037927293460135507
1589986890.4500008,-3.806742279046071,-0.8467422790460709,8.83325772095393,0.2877777777777778,-0.3711111111111111,-0.6611111111111111,0.0,-0.0036525986705199264,-0.0007354685527635072
1589986890.4600008,-3.8080531107738995,-0.8292625189681335,8.858790591805766,0.2877777777777778,-0.3711111111111111,-0.6611111111111111,-0.0005856387418015875,-0.002181661564992912,-0.0008784581127023812
1589986890.4700007,-3.8264848632134427,-0.8023434245243717,8.911171712262187,0.2877777777777778,-0.371892252619235,-0.6594186378435094,-0.001670405643464577,-0.0023094755453749957,-0.003400306327871452
1589986890.4800007,-3.8072402832277437,-0.8163798583861279,8.934480566455488,0.2877777777777778,-0.37777777777777777,-0.6466666666666666,0.002181661564992912,-0.004062284729370968,-0.0031786345571634235
1589986890.4900007,-3.82,-0.8133742411899193,8.906012140961291,0.2877777777777778,-0.37777777777777777,-0.6466666666666666,0.0014455163334866183,-0.0058222265282354265,-0.0007227581667433091
1589986890.5000007,-3.827902132583898,-0.8160489337080509,8.831608530335593,0.2877777777777778,-0.37777777777777777,-0.6466666666666666,0.0012929834204826567,-0.006113990221484516,-0.0012929834204826567
1589986890.5100007,-3.836966375626974,-0.8039327512539477,8.892134497492105,0.2877777777777778,-0.37777777777777777,-0.6466666666666666,0.001617906923175126,-0.005123236827619431,-0.002610658177763671
1589986890.5200007,-3.83,-0.791857946348297,8.92092897317415,0.2859198314294808,-0.37850031246878213,-0.6471827628745269,-0.002181661564992912,-0.004363323129985824,-0.0013948365428388414
1589986890.5300007,-3.83,-0.8093974115039623,8.929698705751981,0.26838036627381556,-0.38532121558487414,-0.6520548365288784,-0.002181661564992912,-0.004363323129985824,-0.004264724817887382
1589986890.5400007,-3.825028102031993,-0.7874578469520104,8.865140510159966,0.2677777777777778,-0.3855555555555555,-0.6522222222222223,0.0,0.0019104865974462356,-0.005460284824792031
1589986890.5500007,-3.809922576752916,-0.809845153505832,8.790309692988336,0.2677777777777778,-0.3855555555555555,-0.6522222222222223,-1.689113224002422e-05,0.001090830782496456,-0.002190107131112924
1589986890.5600007,-3.804610526709142,-0.7923052633545712,8.839221053418285,0.2677777777777778,-0.3855555555555555,-0.6522222222222223,-0.0014272658963147516,0.0008393655596037359,-0.002769561901703928
1589986890.5700006,-3.8202319973137153,-0.8002319973137153,8.872087975823437,0.2677777777777778,-0.38509156092812485,-0.65173245011549,0.0009896028579935948,-7.592094337714582e-05,-0.0010655238013707407
1589986890.5800006,-3.8254798972703927,-0.81,8.96,0.2677777777777778,-0.3655555555555556,-0.6311111111111111,-0.0022863589079889467,-0.0025328922678640522,-0.0002465333598751053
1589986890.5900006,-3.8129303811575896,-0.8114651905787948,8.945348094212052,0.2677777777777778,-0.3655555555555556,-0.6311111111111111,0.001090830782496456,-0.0006393099942292922,-0.001250658281053779
1589986890.6000006,-3.8285121480050526,-0.8192560740025262,8.867439259974738,0.2677777777777778,-0.3655555555555556,-0.6311111111111111,0.001090830782496456,-0.0040387241788082985,-0.0021005118271985304
1589986890.6100006,-3.8024175990323554,-0.8051648019352888,8.922417599032356,0.2677777777777778,-0.3655555555555556,-0.6311111111111111,0.0018819882157645991,-0.005154480563253967,-0.006281265550556021
1589986890.6200006,-3.8112133515258413,-0.7906066757629207,8.931820027288762,0.2689911293036189,-0.3662970481546807,-0.632054828964543,0.00469421342857996,-0.007503459358037538,-0.005255619733325798
1589986890.6300006,-3.8201557341753984,-0.8,8.956718578058467,0.2877777777777778,-0.37777777777777777,-0.6466666666666666,0.009101581829631212,-0.004380311093226941,-0.003971399597085143
1589986890.6400006,-3.802998658415199,-0.8029986584151989,8.914016099017614,0.2877777777777778,-0.37777777777777777,-0.6466666666666666,0.0073087125869260965,-0.0031629702366401976,-0.007635815477475192
1589986890.6500006,-3.812310844360884,-0.81,8.836932533082653,0.2877777777777778,-0.37777777777777777,-0.6466666666666666,0.00755328075994304,-0.0057062279287233555,-0.007887889493716268
1589986890.6600006,-3.8221249180119754,-0.81,8.870624590059878,0.2877777777777778,-0.37777777777777777,-0.6466666666666666,0.013226233802708652,-0.007935740281625192,-0.008494853662197238
1589986890.6700006,-3.8313132577021465,-0.8060602268935603,8.921819319319319,0.2851512623734846,-0.3769022726430134,-0.6454993264869807,0.022676140806040357,-0.014092748738753914,-0.007349307092104779
1589986890.6800005,-3.831951719340465,-0.7759758596702326,8.985915508845814,0.2677777777777778,-0.3711111111111111,-0.6377777777777778,0.029239531573867,-0.0218231989036316,-0.005015188298002704
1589986890.6900005,-3.8004091071462143,-0.7602045535731072,8.930715937505875,0.2677777777777778,-0.3711111111111111,-0.6377777777777778,0.03268029680805068,-0.026124155446361194,-0.0032948056809108677
1589986890.7000005,-3.7825536390408074,-0.7774463609591923,8.815107278081616,0.2677777777777778,-0.3711111111111111,-0.6377777777777778,0.030659136866812993,-0.022187644967408455,-0.004363323129985824
1589986890.7100005,-3.7975632582976395,-0.7697469668094421,8.879240900428327,0.2677777777777778,-0.3711111111111111,-0.6377777777777778,0.021340204356994366,-0.009285862470882573,-0.003565901272607525
1589986890.7200005,-3.7905714285714285,-0.7994285714285715,8.967714285714287,0.26892063492063495,-0.3714920634920635,-0.6374603174603175,0.012653637076958888,-0.007074816789334157,-0.001153163970067682
1589986890.7300005,-3.802208809327523,-0.79,8.934417618655047,0.2877777777777778,-0.37777777777777777,-0.6322222222222222,0.004008491588205679,0.0016997741235673784,-0.0014588304028546114
1589986890.7400005,-3.8090906335253107,-0.7895453167626554,8.944543801151864,0.2877777777777778,-0.37777777777777777,-0.6322222222222222,-0.001090830782496456,4.9598247158068624e-05,0.0011900272768125932
1589986890.7500005,-3.792138829948469,-0.7810694149742347,8.842832979690815,0.2877777777777778,-0.37777777777777777,-0.6322222222222222,-0.001090830782496456,0.0009741757051806785,0.0030391821928578136
1589986890.7600005,-3.80389689019356,-0.7738968901935602,8.86584533529034,0.2877777777777778,-0.37777777777777777,-0.6322222222222222,-0.0028474075695749616,-0.0006376271668716097,-0.0017565767870785054
1589986890.7700005,-3.8192874048252454,-0.7892874048252454,8.888931107237868,0.2877777777777778,-0.37777777777777777,-0.6322222222222222,-0.0011685628577045326,-0.0031558942346772523,-7.773207520807681e-05
1589986890.7800004,-3.7916072929889055,-0.7748218789667167,8.931963535055472,0.2877777777777778,-0.3855555555555555,-0.6377777777777778,-0.002921835413731585,-0.00017532846687889165,0.0012661592493753476
1589986890.7900004,-3.7985216201513325,-0.7955648604539985,8.897391899243337,0.2877777777777778,-0.3855555555555555,-0.6377777777777778,-0.001413363231926179,-0.0009295645577815944,0.0020203953402780504
1589986890.8000004,-3.801909455395924,-0.7980905446040762,8.837637821583694,0.2877777777777778,-0.3855555555555555,-0.6377777777777778,0.0009319259307863138,-0.0002082892723677663,0.0008825415101286896
1589986890.8100004,-3.81,-0.7931835635960572,8.873183563596056,0.2877777777777778,-0.3855555555555555,-0.6377777777777778,-0.004363323129985824,-0.00039628494877360265,0.0005209093752921401
1589986890.8200004,-3.81,-0.8097874193420689,8.889787419342069,0.2877777777777778,-0.3855555555555555,-0.6377777777777778,-0.004363323129985824,0.0032261144424024276,0.0032377089186741634
1589986890.8300004,-3.81,-0.8010964412428772,8.916710676271368,0.2640349544254501,-0.3855555555555555,-0.6456920522285536,-0.007277005919796485,0.008128630330507135,0.00909985792711069
1589986890.8400004,-3.7980791762507184,-0.7642375287521564,8.923108467510064,0.2611111111111111,-0.3855555555555555,-0.6466666666666666,-0.007802160899058446,0.010865123879201197,0.004991911232025679
1589986890.8500004,-3.790541978148361,-0.7416259344450834,8.817587694077057,0.2611111111111111,-0.3855555555555555,-0.6466666666666666,-0.01273524552135382,0.014976027731114009,0.007458453543173368
1589986890.8600004,-3.8422354486324215,-0.805341269179453,8.908447089726485,0.2611111111111111,-0.3855555555555555,-0.6466666666666666,-0.028117750726814345,0.02166770887950328,0.00855725002709106
1589986890.8700004,-3.8015412506426385,-0.7807706253213194,8.902697188624618,0.2623954866466434,-0.3847849302342361,-0.646324166523858,-0.03268289238378036,0.03268289238378036,0.007593784386361872
1589986890.8800004,-3.84,-0.8,8.971527863850884,0.29444444444444445,-0.3655555555555556,-0.6377777777777778,-0.03130076450839559,0.030634108140392323,0.006544984694978735
1589986890.8900003,-3.841327070242021,-0.7787668761276676,8.969383438063835,0.29444444444444445,-0.3655555555555556,-0.6377777777777778,-0.02728101752160738,0.022772933484568422,0.007703071951403767
1589986890.9000003,-3.8496358106107507,-0.6396358106107507,8.900132432505181,0.29444444444444445,-0.3655555555555556,-0.6377777777777778,-0.013061077099306439,0.007614146259486918,0.01536191936323486
1589986890.9100003,-3.737025088521018,-0.5255376327815271,8.947437278697453,0.29444444444444445,-0.3655555555555556,-0.6377777777777778,-0.004201066879162046,0.00019842140296567965,0.046355422411720554
1589986890.9200003,-3.711638168447175,-0.48745725267076234,9.010904578882062,0.29444444444444445,-0.3655555555555556,-0.6377777777777778,-0.0028164251846957795,-0.007417107916598787,0.07889450223167782
1589986890.9300003,-3.70879948864957,-0.43480204540171996,9.09279693189742,0.2778231881063678,-0.3890208586210756,-0.6455995454662844,-0.0012217862560749992,-0.017627434987389945,0.14660458928518041
1589986890.9400003,-3.7032812566879256,-0.44139322860933955,9.133033856953302,0.27555555555555555,-0.3922222222222223,-0.6466666666666666,-8.096137383250624e-05,-0.03698029810643617,0.23983789144391335
1589986890.9500003,-3.5853964385196977,-0.45171806605650616,9.091718066056506,0.27555555555555555,-0.3922222222222223,-0.6466666666666666,0.02188389729389528,-0.06476748085743383,0.3169572322086413
1589986890.9600003,-3.2414403145103643,-0.48768003931379555,9.137733202287349,0.27555555555555555,-0.3922222222222223,-0.6466666666666666,0.0766344199510373,-0.10129594801253622,0.406053717903359
1589986890.9700003,-3.0172880040070122,-0.4580856498873028,9.226011770598548,0.2758568884436653,-0.39188543840609963,-0.6464362356345826,0.13197312274847614,-0.14041491820531504,0.43463241454025925
1589986890.9800003,-2.6788620402012757,-0.3407130748324947,8.851646530150957,0.29444444444444445,-0.3711111111111111,-0.6322222222222222,0.1333110102298517,-0.2624902013089859,0.39698462043095917
1589986890.9900002,-0.4576046535430385,-0.36774419160042304,7.280127938316673,0.29444444444444445,-0.3711111111111111,-0.6322222222222222,0.14397697271954715,-0.3043620708990386,0.38173115424585335
1589986891.0000002,-0.5005335880727372,-0.46791170550305344,7.845358909624373,0.29444444444444445,-0.3711111111111111,-0.6322222222222222,0.02690646460762111,-0.08895233597309471,0.3013427386756642
1589986891.0100002,-2.2957711198428292,-1.3966036345776032,11.446130893909627,0.29444444444444445,-0.3711111111111111,-0.6322222222222222,-0.21404741306096037,0.5273325672108813,0.0218032213623248
1589986891.0200002,-1.7821868896484376,-1.1028762817382813,8.980356140136719,0.29367845323350694,-0.3712643093532986,-0.6328860812717014,-0.24704537549156955,0.5666612914765532,-0.13863494515425073
1589986891.0300002,-1.627602862254025,-0.8800188720045607,8.043978847628221,0.2611111111111111,-0.37777777777777777,-0.6611111111111111,0.11428974787777413,-0.06985764477050618,-0.24945763967681797
1589986891.0400002,-2.3513390805904963,-1.204302026704274,9.355612674294294,0.2611111111111111,-0.37777777777777777,-0.6611111111111111,-0.026030766187863246,0.08248048379225086,-0.30761738222321655
1589986891.0500002,-1.9887992175238267,-0.9657889588972545,8.33477674408025,0.2611111111111111,-0.37777777777777777,-0.6611111111111111,-0.019786508674465776,0.06478842083762466,-0.35340860398813134
1589986891.0600002,-2.3186259721894884,-1.0186259721894886,8.940610417157671,0.2611111111111111,-0.37777777777777777,-0.6611111111111111,0.03667201869140749,-0.014081049443345131,-0.35124751196385884
1589986891.0700002,-2.310388286589677,-1.0103882865896772,9.064175701154843,0.2611111111111111,-0.37777777777777777,-0.6611111111111111,-0.018142099584285414,0.06499505561011348,-0.35124751196385884
1589986891.0800002,-2.2869046147996768,-0.9779364098664511,8.711031795066775,0.27555555555555555,-0.3922222222222223,-0.6522222222222223,0.01956558800979813,0.004727158044275075,-0.3466590860698598
1589986891.0900002,-2.2720893976873957,-0.9608059598458264,8.73128343784157,0.27555555555555555,-0.3922222222222223,-0.6522222222222223,0.0019341647804237338,0.04396864466535577,-0.3447025272688801
1589986891.1000001,-2.392733130069608,-0.9688488753379738,8.843884254731634,0.27555555555555555,-0.3922222222222223,-0.6522222222222223,0.02123577634009841,0.025544379085666303,-0.3447025272688801
1589986891.1100001,-2.359592531054672,-0.969592531054672,8.930407468945328,0.27555555555555555,-0.3922222222222223,-0.6522222222222223,0.010886083841540804,0.03446210537141149,-0.354720020162162
1589986891.1200001,-2.342999841759633,-0.9529998417596328,8.947000158240366,0.27555555555555555,-0.3922222222222223,-0.6522222222222223,0.0099810930291694,0.016362289123983353,-0.3628649374735046
1589986891.13,-2.3857381195367617,-0.9576230199227936,9.071968318764698,0.2789435644101305,-0.3922222222222223,-0.6302001646674851,0.010649019521204808,0.015584596826167585,-0.3701582787049732
1589986891.14,-2.4228643396905363,-0.9789806199557909,9.15432169845268,0.28,-0.3922222222222223,-0.6233333333333333,0.02050339064117548,0.029897219579918675,-0.38564039213568135
1589986891.15,-2.372554875854624,-0.9717935536935177,8.90277437927312,0.28,-0.3922222222222223,-0.6233333333333333,0.018935416018229616,0.0330331688258104,-0.3974002018077753
1589986891.16,-2.3886762428254733,-0.950882504783018,8.92602872847642,0.28,-0.3922222222222223,-0.6233333333333333,0.01854412330243975,0.0327730566440445,-0.41910345421642076
1589986891.17,-2.3644612408805163,-0.9840516788259781,8.85338372264155,0.28,-0.3922222222222223,-0.6233333333333333,0.012972430383580784,0.03272492347489368,-0.4394707764771419
1589986891.18,-2.35937571679792,-0.991872849606239,8.826878583989602,0.3022222222222222,-0.37777777777777777,-0.6233333333333333,0.012817574456427887,0.028974488945349413,-0.47437269082243727
1589986891.19,-2.35135847541861,-1.01592457374417,8.786792377093049,0.3022222222222222,-0.37777777777777777,-0.6233333333333333,0.009319392981525459,0.036845397263879885,-0.5006090518842055
1589986891.2,-2.3891628222841486,-0.98,8.718995386740978,0.3022222222222222,-0.37777777777777777,-0.6233333333333333,0.009908798964755177,0.039324701323244664,-0.5461094378576097
1589986891.21,-2.340052689506592,-0.98,8.66006322740791,0.3022222222222222,-0.37777777777777777,-0.6233333333333333,0.01526588342137987,0.04253895199721947,-0.5868232797279574
1589986891.22,-2.3857601572739187,-0.9865371653248455,8.875726455719903,0.3022222222222222,-0.37777777777777777,-0.6233333333333333,0.018124007421594368,0.04111621228403979,-0.6146776315328721
1589986891.23,-2.4341292661073552,-0.9980430887024517,8.981956911297548,0.3022222222222222,-0.37241571864281,-0.6421005403057207,0.024021778456428125,0.042115468700965636,-0.663626591598092
1589986891.24,-2.4799724814779176,-1.0100825555662465,9.05986240738959,0.3022222222222222,-0.3711111111111111,-0.6466666666666666,0.028364602150005455,0.046923734477933236,-0.7146382491798636
1589986891.25,-2.471901087270278,-1.034296738189166,9.019505436351391,0.3022222222222222,-0.3711111111111111,-0.6466666666666666,0.029245054675941164,0.05220644963354744,-0.7568999704247774
1589986891.26,-2.4323937839026537,-1.0964093241460198,8.831370473537605,0.3022222222222222,-0.3711111111111111,-0.6466666666666666,0.030477981580709294,0.055501809248936294,-0.8109527095871228
1589986891.27,-2.413535722390708,-1.0753035835860618,8.852928555218584,0.3022222222222222,-0.3711111111111111,-0.6466666666666666,0.027849300785733312,0.06371425327982161,-0.8478832713151438
1589986891.28,-2.3966094248400105,-1.103476437899974,8.853304712420005,0.3104053514866604,-0.3711111111111111,-0.6608011626688779,0.025079741825434043,0.0617981340548251,-0.8844250366369194
1589986891.29,-2.360809020941471,-1.11,8.798381958117059,0.3144444444444445,-0.3711111111111111,-0.6677777777777778,0.020681659620100604,0.06015013140296727,-0.9421370944990864
1589986891.3,-2.388108108108108,-1.11,8.743783783783785,0.3144444444444445,-0.3711111111111111,-0.6677777777777778,0.019192725389329535,0.06536140121066603,-0.9674489764221946
1589986891.31,-2.4283463058316372,-1.1383463058316368,8.767243843052729,0.3144444444444445,-0.3711111111111111,-0.6677777777777778,0.02472832789668142,0.06866220928048722,-1.0052734318077015
1589986891.32,-2.4363978927112417,-1.1463978927112415,8.763602107288758,0.3144444444444445,-0.3711111111111111,-0.6677777777777778,0.029974420816190846,0.07011814295978311,-1.025680161688065
1589986891.33,-2.5154217290232026,-1.200281152682135,8.952744418614852,0.3488963453562779,-0.3608686540832688,-0.6547419233787057,0.03638147208323216,0.06998986371018502,-1.0554861235654103
1589986891.34,-2.5206770985668325,-1.2286458028663352,8.943385492834162,0.3555555555555556,-0.3588888888888889,-0.6522222222222223,0.038105217391427464,0.07083014086632114,-1.079536105535018
1589986891.35,-2.52,-1.238976210121012,8.922047579757976,0.3555555555555556,-0.3588888888888889,-0.6522222222222223,0.03915823001839159,0.07090400086226964,-1.0986380528122692
1589986891.36,-2.5062486010457756,-1.2537513989542244,8.85811870470599,0.3555555555555556,-0.3588888888888889,-0.6522222222222223,0.04076995309803817,0.0784042255030984,-1.1156487088205818
1589986891.37,-2.5,-1.2947320582166955,8.857785646573356,0.3555555555555556,-0.3588888888888889,-0.6522222222222223,0.03766288991064228,0.0810545727223896,-1.1353463865912115
1589986891.3799999,-2.5,-1.31,8.86023351821505,0.37291818983990926,-0.318737797106321,-0.7021397957897391,0.030670626338526425,0.07859076211119509,-1.1601854406331764
1589986891.3899999,-2.4910496589477344,-1.3547517052613287,8.868950341052265,0.37333333333333335,-0.31777777777777777,-0.7033333333333334,0.03151959266326609,0.08049247784647547,-1.1801705676435355
1589986891.3999999,-2.4826714587570846,-1.389314164971662,8.767400422599183,0.37333333333333335,-0.31777777777777777,-0.7033333333333334,0.029235833178827088,0.07912263822902432,-1.1976495451454356
1589986891.4099998,-2.5126872196019785,-1.3918281950995053,8.754515414701483,0.37333333333333335,-0.31777777777777777,-0.7033333333333334,0.031927222878513836,0.07853981633974483,-1.2183402488614163
1589986891.4199998,-2.512332916792347,-1.436002499245917,8.821336665661223,0.37333333333333335,-0.31777777777777777,-0.7033333333333334,0.038579366737302265,0.08523060863964035,-1.2426392023332042
1589986891.4299998,-2.5450611302045183,-1.508435217007531,8.880904651905272,0.40449878240401654,-0.3021950532424362,-0.7033333333333334,0.043547885627052633,0.08726646259971647,-1.280235283370343
1589986891.4399998,-2.5534736183524505,-1.5747895724713243,8.868684045881126,0.4266666666666667,-0.2911111111111111,-0.7033333333333334,0.04581489286485115,0.08726646259971647,-1.3024519543007684
1589986891.4499998,-2.5439606746063466,-1.58,8.835842698425386,0.4266666666666667,-0.2911111111111111,-0.7033333333333334,0.047791257478324106,0.08924282721318942,-1.3176040830040612
1589986891.4599998,-2.5682410034957845,-1.6364820069915689,8.87648200699157,0.4266666666666667,-0.2911111111111111,-0.7033333333333334,0.04754707741525093,0.08976880104866104,-1.349875525355986
1589986891.4699998,-2.568696683234253,-1.693909950297242,8.877393366468505,0.4266666666666667,-0.2911111111111111,-0.7033333333333334,0.04382322217925124,0.09746262798175995,-1.392466170846025
1589986891.4799998,-2.56,-1.713619311969047,8.853619311969046,0.4266666666666667,-0.27551387370211494,-0.7217664320894197,0.03866746936779724,0.09945277378656119,-1.4333925692642673
1589986891.4899998,-2.5156402311523403,-1.77970820818918,8.830988670493861,0.4266666666666667,-0.26666666666666666,-0.7322222222222222,0.035014432260731435,0.09846648253828327,-1.462125166453746
1589986891.4999998,-2.481697850682875,-1.82,8.778489253414374,0.4266666666666667,-0.26666666666666666,-0.7322222222222222,0.03291013025378995,0.10017122521077766,-1.4945417392355163
1589986891.5099998,-2.443140612906944,-1.838429693546528,8.813002618275231,0.4266666666666667,-0.26666666666666666,-0.7322222222222222,0.038085904016901394,0.10035643198967394,-1.5108637013696478
1589986891.5199997,-2.448737665239248,-1.8787376652392478,8.822757400856451,0.4266666666666667,-0.26666666666666666,-0.7322222222222222,0.048975072901277304,0.11164168673929191,-1.5290947453874835
1589986891.5299997,-2.47,-1.9119464421693881,8.768187452407142,0.44259525622585105,-0.23879163493809402,-0.7501418854763047,0.05388996178183866,0.11738507670267366,-1.551315274083157
1589986891.5399997,-2.4391812983518335,-1.989342078708375,8.809342078708376,0.4533333333333333,-0.22,-0.7622222222222222,0.04756756036630728,0.11562806294462433,-1.5819900925239252
1589986891.5499997,-2.43,-2.0458119614541372,8.785235048182328,0.4533333333333333,-0.22,-0.7622222222222222,0.05362785085200111,0.12246440118338055,-1.6058287747859272
1589986891.5599997,-2.43,-2.058762795868266,8.771237204131733,0.4533333333333333,-0.22,-0.7622222222222222,0.0545415391248228,0.1261314966642508,-1.627957901094835
1589986891.5699997,-2.401730676398463,-2.095336654501921,8.777067330900383,0.4533333333333333,-0.22,-0.7622222222222222,0.04606135081897251,0.12807822318883438,-1.6462105440246566
1589986891.5799997,-2.3732046453232893,-2.2107721280602637,8.830386064030131,0.481325591127851,-0.19294081746529954,-0.7566237706633187,0.040710311528931606,0.13055012132301197,-1.6727616143548627
1589986891.5899997,-2.37,-2.2132710428918507,8.806542085783702,0.4866666666666667,-0.18777777777777774,-0.7555555555555555,0.044010431226895276,0.13454938617410112,-1.694855374069685
1589986891.5999997,-2.3122896198205893,-2.2512217001281503,8.668090559589919,0.4866666666666667,-0.18777777777777774,-0.7555555555555555,0.03752951817729476,0.13256506306516308,-1.7218057960384268
1589986891.6099997,-2.307053598774885,-2.295267993874426,8.689375191424197,0.4866666666666667,-0.18777777777777774,-0.7555555555555555,0.035997415822383035,0.13814595081889036,-1.74294312230104
1589986891.6199996,-2.2883546275608144,-2.3273162979513486,8.718658148975674,0.4866666666666667,-0.18777777777777774,-0.7555555555555555,0.03977524599122528,0.14449500111088506,-1.761026065630842
1589986891.6299996,-2.26,-2.3579994578476553,8.740665943796873,0.4866666666666667,-0.1860001204782988,-0.7786651004487817,0.04472406208235469,0.15060729118381516,-1.7799446728405326
1589986891.6399996,-2.2889407924358394,-2.38,8.76276480189104,0.4866666666666667,-0.1811111111111111,-0.8422222222222222,0.04314558671941196,0.15617485337641437,-1.8029827100812512
1589986891.6499996,-2.3,-2.5231170873633717,8.675813478021546,0.4866666666666667,-0.1811111111111111,-0.8422222222222222,0.04070573552445354,0.15891629767239787,-1.8194449290505312
1589986891.6599996,-2.294028535319941,-2.573885858720234,8.683885858720235,0.4866666666666667,-0.1811111111111111,-0.8422222222222222,0.03580103870965014,0.15860990849552276,-1.8282012642586796
1589986891.6699996,-2.277945979044768,-2.614108041910464,8.718081031432847,0.4866666666666667,-0.1811111111111111,-0.8422222222222222,0.03403981318597612,0.15554068403982124,-1.8378552734383757
1589986891.6799996,-1.8721666763324247,-2.4135318680044073,8.841159311024764,0.5022679734771598,-0.20061274462422754,-0.838321895519599,0.024695553610252073,0.14678705622412658,-1.8457896871044828
1589986891.6899996,-1.8116068363310693,-2.565664601835958,9.676519889543997,0.5133333333333333,-0.21444444444444444,-0.8355555555555556,-0.050065949732499296,0.05928448341599833,-1.8689638777396242
1589986891.6999996,-1.7888480774151527,-2.3948307706622622,8.832750005815441,0.5133333333333333,-0.21444444444444444,-0.8355555555555556,0.01587242651747031,0.229062715861805,-1.8236146113546872
1589986891.7099996,-1.77,-2.3748303910952178,8.192035306857388,0.5133333333333333,-0.21444444444444444,-0.8355555555555556,0.13260031746733034,0.10606073335249275,-1.8034622448158462
1589986891.7199996,-2.1611353247794707,-2.756375501202887,9.33292562149158,0.5133333333333333,-0.21444444444444444,-0.8355555555555556,0.01845839642458519,0.15426442324422968,-1.806077570159534
1589986891.7299995,-1.6710559712093949,-2.4980493733623765,7.864052782776146,0.4748472252913961,-0.23267470614852,-0.8679649096961342,0.024433170100995456,0.08055642591305591,-1.799552154340719
1589986891.7399995,-2.1430609465440926,-2.877564408126206,9.234761094086936,0.4711111111111111,-0.2344444444444445,-0.8711111111111111,0.03139069542552763,0.15037283708532545,-1.769705995864806
1589986891.7499995,-2.113730175612754,-2.93,8.747359427072254,0.4711111111111111,-0.2344444444444445,-0.8711111111111111,0.04213550147911084,0.13266659277109766,-1.7526896074968539
1589986891.7599995,-1.9561867195501994,-2.8820622398500664,8.889688800749667,0.4711111111111111,-0.2344444444444445,-0.8711111111111111,0.036660966711127646,0.11477350315712061,-1.7377104098029417
1589986891.7699995,-1.915242471390557,-2.8937876430472147,8.788244027278939,0.4711111111111111,-0.2344444444444445,-0.8711111111111111,0.035425550905465376,0.11541646673926884,-1.7245605927233678
1589986891.7799995,-1.9434454442211933,-2.9585908971782997,8.71033633266358,0.4582474787183444,-0.2198656610659756,-0.8262313269852363,0.039365106907682655,0.11914946330328524,-1.7058372134362334
1589986891.7899995,-1.9293904365904364,-3.0146952182952185,8.709649896049896,0.4211111111111111,-0.17777777777777778,-0.6966666666666667,0.029480733763923135,0.11445658779076491,-1.6695780617738962
1589986891.7999995,-1.9776140684410646,-3.1445556083650192,8.864707699619771,0.4211111111111111,-0.17777777777777778,-0.6966666666666667,0.03847252331080418,0.10368569523577707,-1.6395588464085435
1589986891.8099995,-1.9887005539896978,-3.1912994460103024,8.839604431917582,0.4211111111111111,-0.17777777777777778,-0.6966666666666667,0.04254240051736178,0.10329613030214957,-1.6168084152332187
1589986891.8199995,-1.874676952075116,-3.1052092568676044,8.548821599357744,0.4211111111111111,-0.17777777777777778,-0.6966666666666667,0.03967015994779146,0.09897527398051913,-1.589160047421939
1589986891.8299994,-1.7497672436751,-3.0603103417665336,8.647288770528185,0.4468649405730631,-0.12291092370666272,-0.6815502885042166,0.050829422121094286,0.11030085791415296,-1.5537149528607868
1589986891.8399994,-1.6379786143254724,-2.930830892046287,8.658051486743812,0.4722222222222222,-0.06888888888888889,-0.6666666666666666,0.09231884501628732,0.15225941331066561,-1.5052441795069675
1589986891.8499994,-1.5814776477647765,-2.9257129462946296,8.293350585058507,0.4722222222222222,-0.06888888888888889,-0.6666666666666666,0.039243725612836775,0.0876863653581752,-1.491971611506408
1589986891.8599994,-1.7352621636072003,-3.250596685082873,9.064610942790946,0.4722222222222222,-0.06888888888888889,-0.6666666666666666,-0.03817118436834738,0.012249654477417339,-1.4873191743206393
1589986891.8699994,-1.6592016112373478,-3.1255864490807688,8.72525676513117,0.4722222222222222,-0.06888888888888889,-0.6666666666666666,0.04547191547711351,0.08816280958787856,-1.42054325330859
1589986891.8799994,-1.5965516251704097,-3.1050570424051087,8.461263543086748,0.5066409955912718,-0.008901883874259567,-0.6538825508438768,0.06111172633913595,0.10084553305588764,-1.3606297003921708
1589986891.8899994,-1.6262661031505672,-3.225064412602269,8.726394928355106,0.5111111111111111,-0.0011111111111111113,-0.6522222222222223,0.044784919917788234,0.08228047148487051,-1.322611244802152
1589986891.8999994,-1.654704606066085,-3.33881842426434,8.982341454594765,0.5111111111111111,-0.0011111111111111113,-0.6522222222222223,0.03185925558930407,0.06625264771755014,-1.2853853315361177
1589986891.9099994,-1.66,-3.36,9.03,0.5111111111111111,-0.0011111111111111113,-0.6522222222222223,0.029452431127404314,0.06326818538479445,-1.2784536770858463
1589986891.9199994,-1.6146967079992782,-3.3394075945451265,8.964104302544404,0.5111111111111111,-0.0011111111111111113,-0.6522222222222223,0.037089793244384474,0.06147115900432853,-1.2357743005497805
1589986891.9299994,-1.5552276301203887,-3.312376195509268,8.877603825629656,0.5111111111111111,-0.0011111111111111113,-0.6522222222222223,0.047115265179552814,0.05911222443134775,-1.1797496044414868
1589986891.9399993,-1.511978021978022,-3.2535164835164836,8.731428571428571,0.5133333333333333,0.07444444444444444,-0.6466666666666666,0.04887161648613243,0.05885691364898459,-1.1002886449952438
1589986891.9499993,-1.434573281569085,-3.2022562330288817,8.592256233028882,0.5133333333333333,0.07444444444444444,-0.6466666666666666,0.0425357665741815,0.06007552067092462,-1.035005587605996
1589986891.9599993,-1.416590092724083,-3.2139178013532703,8.657835602706541,0.5133333333333333,0.07444444444444444,-0.6466666666666666,0.034826123626391946,0.05310380392423562,-0.992303822532526
1589986891.9699993,-1.432795706395248,-3.2803942751936637,8.83881717441901,0.5133333333333333,0.07444444444444444,-0.6466666666666666,0.031634092692397225,0.04904437646053819,-0.9489719660263952
1589986891.9799993,-1.3939174596814585,-3.241958729840729,8.797319042372033,0.5218213407236747,0.09588783153583312,-0.6430927688181018,0.0338270089474229,0.052798460810835016,-0.8906688738383045
1589986891.9899993,-1.3752420158599472,-3.240484031719894,8.715324348918838,0.5344444444444445,0.12777777777777774,-0.6377777777777778,0.03079827911627804,0.047160740853724875,-0.837792878340244
1589986891.9999993,-1.3600553963090598,-3.264958452768205,8.755180038004445,0.5344444444444445,0.12777777777777774,-0.6377777777777778,0.026720822071226228,0.04199547442613458,-0.7876614027613061
1589986892.0099993,-1.3552601482527356,-3.2990751853159193,8.724335333568655,0.5344444444444445,0.12777777777777774,-0.6377777777777778,0.02836160034490785,0.04087777657140743,-0.7373195945106075
1589986892.0199993,-1.3642651575352762,-3.3195101050235176,8.727550525117588,0.5344444444444445,0.12777777777777774,-0.6377777777777778,0.02550092525853235,0.03646267233555066,-0.6692577536737081
1589986892.0299993,-1.3562497633024049,-3.353748343116834,8.773746449536073,0.5490272254833891,0.12638894148835447,-0.6523605588167224,0.02563442010985754,0.031497867943096634,-0.6006401196957373
1589986892.0399992,-1.146728155555063,-3.213381371527393,8.550080704166021,0.5577777777777778,0.12555555555555556,-0.6611111111111111,0.024362725900407233,0.022182321972393896,-0.5359736816240612
1589986892.0499992,-1.2095638470676655,-3.3386939656217423,8.723040948432613,0.5577777777777778,0.12555555555555556,-0.6611111111111111,0.012947767602736984,0.020678340194515876,-0.4664965464512683
1589986892.0599992,-1.2740184909710583,-3.366859171107387,8.666559022351104,0.5577777777777778,0.12555555555555556,-0.6611111111111111,0.01897238740726682,0.02578441582535619,-0.4055522631462141
1589986892.0699992,-1.2584249384741593,-3.311062346185398,8.56952420016407,0.5577777777777778,0.12555555555555556,-0.6611111111111111,0.018424212453502488,0.023019303567628248,-0.3482506355975088
1589986892.0799992,-1.27,-3.3513716164640948,8.723790538821365,0.5847327205074843,0.1432447367219254,-0.6611111111111111,0.004926426918926462,0.012113381958157558,-0.29183114864457854
1589986892.0899992,-1.2586157331748626,-3.366205244391621,8.73,0.6288888888888889,0.17222222222222222,-0.6611111111111111,0.008463702723409398,0.009140589882938751,-0.23414327833284843
1589986892.0999992,-1.2270694028130043,-3.3018123126585195,8.658881715471523,0.6288888888888889,0.17222222222222222,-0.6611111111111111,0.004175439663413342,0.004175439663413342,-0.16647506359490472
1589986892.1099992,-1.2535414829468265,-3.2767082965893652,8.666958076125557,0.6288888888888889,0.17222222222222222,-0.6611111111111111,0.001822592424276022,-0.002567977426401374,-0.11688723582299668
1589986892.1199992,-1.280641750676174,-3.317246127366609,8.732567002704696,0.6288888888888889,0.17222222222222222,-0.6611111111111111,0.00044040918240943684,-0.00552415805170814,-0.07532847703341827
1589986892.1299992,-1.2836070751737207,-3.3404106127605813,8.75721415034744,0.7226517863409841,0.1988594089983856,-0.6955618726749491,-0.001788190701565574,-0.007242344614047854,-0.03353115974496371
1589986892.1399992,-1.2593376316527172,-3.3178675263305433,8.732132473669457,0.9222222222222224,0.25555555555555554,-0.7688888888888888,-0.003505109139640008,-0.009657113428574208,0.020036758639715848
1589986892.1499991,-1.2239260811381885,-3.3296304056909425,8.685034864065361,0.9222222222222224,0.25555555555555554,-0.7688888888888888,-0.005219861162008767,-0.013946507421980415,0.10193334628063352
1589986892.1599991,-1.23,-3.349595949013445,8.626010127466387,0.9222222222222224,0.25555555555555554,-0.7688888888888888,-0.008247343556798244,-0.01583908390889022,0.17375614397066097
1589986892.1699991,-1.2519947439810104,-3.355191590369617,8.7,0.9222222222222224,0.25555555555555554,-0.7688888888888888,-0.014529522017214365,-0.02081224865020938,0.27413864811041017
1589986892.179999,-1.3015650844395024,-3.480869066648134,8.716173813329627,1.1678245727832217,-0.03617211450104635,-1.1678429510196833,-0.014010075944072383,-0.02861768668748017,0.36707850735891273
1589986892.189999,-1.3382242767955013,-3.5226635848067485,8.743668207596626,1.3777777777777778,-0.2855555555555556,-1.5088888888888892,-0.01100515850159759,-0.0346160330099875,0.4385903945821746
1589986892.199999,-1.3476260732857661,-3.468345628250091,8.71669125650018,1.3777777777777778,-0.2855555555555556,-1.5088888888888892,-0.011504709562498298,-0.03986630990740615,0.49701833346179186
1589986892.209999,-1.315388047216284,-3.392328283297704,8.643059763918579,1.3777777777777778,-0.2855555555555556,-1.5088888888888892,-0.013762372935781107,-0.045142489319027514,0.5600846775913361
1589986892.219999,-1.3065642317380353,-3.349692695214106,8.697486146095718,1.3777777777777778,-0.2855555555555556,-1.5088888888888892,-0.011624354429293467,-0.0476552920036827,0.5974614832278032
1589986892.229999,-1.3073330062082649,-3.322666993791735,8.742666993791735,1.103197434201637,-0.20367031956326437,-1.2396046053520506,-0.010508354379953911,-0.05108715243739376,0.6379535781633454
1589986892.239999,-1.3357329910141207,-3.294267008985879,8.74966623876765,0.6288888888888889,-0.06222222222222223,-0.7744444444444445,-0.013249883222256696,-0.05582869144224352,0.6758639096945032
1589986892.249999,-1.3704760822117132,-3.27,8.706667424518006,0.6288888888888889,-0.06222222222222223,-0.7744444444444445,-0.01854412330243975,-0.05952817641578724,0.714182319449986
1589986892.259999,-1.3848626742624242,-3.27,8.649725348524848,0.6288888888888889,-0.06222222222222223,-0.7744444444444445,-0.02172673616486306,-0.06161695929687209,0.7456788578022455
1589986892.269999,-1.4102531775317753,-3.274050635506355,8.70860762607626,0.6288888888888889,-0.06222222222222223,-0.7744444444444445,-0.02376354062771692,-0.06394477776190008,0.7735371117125358
1589986892.279999,-1.432239039039039,-3.2916414414414414,8.760597597597597,0.6000008675342009,0.010213413413413412,-0.7571978645311979,-0.02139332089403064,-0.06442420395279144,0.8033069187161853
1589986892.289999,-1.42,-3.339646104597498,8.73,0.5544444444444444,0.12444444444444445,-0.73,-0.02257372106606469,-0.06432041216740758,0.8376036249577449
1589986892.299999,-1.42,-3.3322001869268063,8.67484636953093,0.5544444444444444,0.12444444444444445,-0.73,-0.023083665401348638,-0.06872233929727672,0.8656396349767845
1589986892.309999,-1.4278490069811065,-3.2735470209433197,8.654565566320512,0.5544444444444444,0.12444444444444445,-0.73,-0.024344020219797532,-0.07043472698268084,0.8904224845637457
1589986892.319999,-1.4349430699015133,-3.304943069901513,8.747243814556809,0.5544444444444444,0.12444444444444445,-0.73,-0.028875965184216177,-0.07143078592235393,0.905163417604344
1589986892.329999,-1.4274361964873765,-3.2862819017563116,8.698590491218441,0.554857566471521,0.1269231766069033,-0.7440461489206001,-0.021131366469088777,-0.06937974894387662,0.9177942696811757
1589986892.339999,-1.4559221076746849,-3.2879610538373423,8.72601947308133,0.5555555555555556,0.13111111111111112,-0.7677777777777778,-0.02138240752058488,-0.07070282817500512,0.9154400619566064
1589986892.349999,-1.4887088856161022,-3.308708885616102,8.711291114383899,0.5555555555555556,0.13111111111111112,-0.7677777777777778,-0.02262576896968962,-0.06663733701369795,0.9046687550522057
1589986892.359999,-1.5093357232089513,-3.3257809642786014,8.694219035721398,0.5555555555555556,0.13111111111111112,-0.7677777777777778,-0.024799262568708878,-0.06857741658292192,0.8673593052238726
1589986892.369999,-1.4953947107344312,-3.2946052892655686,8.72,0.5555555555555556,0.13111111111111112,-0.7677777777777778,-0.015970147301994725,-0.06396670173183878,0.8311126277245985
1589986892.379999,-1.5173402580407713,-3.27,8.7386181937146,0.5401881575689006,0.10658237970933496,-0.7562522292877866,-0.013310401651666682,-0.0604365575607235,0.7754752767760226
1589986892.389999,-1.4894180634908623,-3.2722868818343485,8.79,0.4977777777777778,0.03888888888888889,-0.7244444444444444,-0.01090830782496456,-0.05263884858631191,0.7180706792325817
1589986892.399999,-1.107366989939273,-2.244403154173842,4.757034170216622,0.4977777777777778,0.03888888888888889,-0.7244444444444444,-0.7330387208648497,0.885484700538028,-0.6406867899311814
1589986892.409999,-1.537868470499812,-0.6049387448327697,-1.135285231116122,0.4977777777777778,0.03888888888888889,-0.7244444444444444,-1.4596468600415273,0.9646333440421504,-3.7579556625342843
1589986892.419999,-1.5180746213215568,-1.136132320772628,0.27705683272111936,0.4977777777777778,0.03888888888888889,-0.7244444444444444,-0.6358349936672899,-1.829775420206827,-6.021548987979809
1589986892.4299989,-0.12335758039816225,-1.4544678407350689,0.3465007656967841,0.49473732346435256,0.10395461119618851,-0.6885670835460269,-0.6141840866775327,-1.2249845933398331,-5.704033927630881
1589986892.4399989,-0.73,-1.21,-0.07,0.4922222222222222,0.15777777777777774,-0.6588888888888889,-0.5519603759432067,-0.9010262263420724,-5.527239574909542
1589986892.4499989,-0.43226775771511006,-0.7715216068167985,-0.23781271837875612,0.4922222222222222,0.15777777777777774,-0.6588888888888889,-0.5566843831406765,-0.8165845976872993,-5.1983305737857055
1589986892.4599988,2.4727975995124005,-1.6048966196258614,4.723091565474237,0.4922222222222222,0.15777777777777774,-0.6588888888888889,-0.5049104799494829,-0.6892608821913839,-4.814720660462956
1589986892.4699988,2.7980493305144467,-1.8508343904157856,5.293821000704721,0.4922222222222222,0.15777777777777774,-0.6588888888888889,0.5414939353020187,0.5341729924732472,-4.684412822290906
1589986892.4799988,0.46802930787062585,0.5593876255657356,-0.39506402472679103,0.4603459726975016,0.20296942267358425,-0.6649413413302915,2.152971234320571,2.3809666082311676,-4.576129055523328
1589986892.4899988,-0.5936544902658571,2.006839020305631,7.369066359639943,0.4044444444444445,0.2822222222222222,-0.6755555555555556,1.5318924646255143,3.667615770345737,-4.087676790581106
1589986892.4999988,-1.5437819658223246,0.884975154526724,6.3751587686341065,0.4044444444444445,0.2822222222222222,-0.6755555555555556,0.6526066693424823,2.8296266839139568,-3.3765656158163475
1589986892.5099988,1.3719070236893667,0.6327940390666746,1.3799703140770654,0.4044444444444445,0.2822222222222222,-0.6755555555555556,0.6936230458221174,0.2291780877435987,-2.8255115623898237
1589986892.5199988,2.8027449516854612,-0.23931189606826586,14.29153517177382,0.4044444444444445,0.2822222222222222,-0.6755555555555556,-0.3297355613839033,-0.3142396291607521,-2.4639115818606534
1589986892.5299988,1.4754918363814689,-1.3286012231004443,13.162266774361047,0.40544824579959876,0.29828304390469046,-0.6615023365833959,-1.060852571309491,0.104921898342032,-2.144159497479343
1589986892.5399988,0.624196410475826,-1.2933096133492468,6.275363118427275,0.4066666666666667,0.31777777777777777,-0.6444444444444445,-0.21565798508763134,0.2933580432556819,-1.880230091685697
1589986892.5499988,1.1787639788110653,-1.567747463906104,7.951210400581656,0.4066666666666667,0.31777777777777777,-0.6444444444444445,0.4996184000484013,0.21336824590213826,-1.7013993969031156
1589986892.5599988,0.6349298363437136,-1.320059029373299,5.033042663744654,0.4066666666666667,0.31777777777777777,-0.6444444444444445,0.5571418510782045,0.2724893829490408,-1.546223234080153
1589986892.5699987,0.397303363455453,-2.5586593481877795,9.187630248262813,0.4066666666666667,0.31777777777777777,-0.6444444444444445,-0.17396745685591458,-0.018103723460702083,-1.3760078202033557
1589986892.5799987,-0.2047558150915082,-2.716015724398917,10.282283300166378,0.4066666666666667,0.31777777777777777,-0.6444444444444445,-0.43517272923687406,0.03040582712433324,-1.2595848987992708
1589986892.5899987,0.19105013618480784,-2.174668869161707,7.15762534046202,0.3511111111111111,0.36777777777777776,-0.6433333333333333,0.22614923206370913,0.149711628098504,-1.0071964518795458
1589986892.5999987,0.13548892563775858,-2.734483964540353,8.956228752677095,0.3511111111111111,0.36777777777777776,-0.6433333333333333,-0.021112353034775988,0.06594784327307851,-0.8051839949907831
1589986892.6099987,0.10561534830399892,-3.0847225032031833,9.773520803830333,0.3511111111111111,0.36777777777777776,-0.6433333333333333,-0.07333047224883837,-0.015049992736077794,-0.6012607192184866
1589986892.6199987,0.029975186104218357,-2.7300248138957817,8.377245657568238,0.3511111111111111,0.36777777777777776,-0.6433333333333333,0.09374377789131454,0.054067853301158084,-0.40637642151002584
1589986892.6299987,-0.03838454391080068,-2.8248034346864888,8.759606869372977,0.3529791134891901,0.37658407470300714,-0.645468193193995,0.07273864186273699,0.02167859729870428,-0.2248927773987053
1589986892.6399987,-0.013549311926605509,-2.8748394495412843,8.903228211009175,0.3588888888888889,0.4044444444444445,-0.6522222222222223,-0.07943643671056402,-0.006017082641981598,0.034591970427733085
1589986892.6499987,-0.07682313495389774,-2.9677619446772843,9.179639564124058,0.3588888888888889,0.4044444444444445,-0.6522222222222223,-0.01994400756731995,-0.014488024936006995,0.23177822511540583
1589986892.6599987,-0.09232952934505245,-3.0273865891692657,9.25994435781117,0.3588888888888889,0.4044444444444445,-0.6522222222222223,0.0028201315952214694,-0.04112307564786248,0.4156371855174029
1589986892.6699986,-0.09631852886237101,-2.9715405959268058,8.854621787780417,0.3588888888888889,0.4044444444444445,-0.6522222222222223,-0.018501353382566026,-0.047649093341656186,0.6484720255705776
1589986892.6799986,-0.1049841761023982,-3.064994725367466,9.065058020957872,0.3530617092935118,0.4080517460987255,-0.6552745543912293,0.002740310538770196,-0.05781057923339154,0.8243450187207708
1589986892.6899986,-0.15,-3.1414950760966875,9.027382657628852,0.33555555555555555,0.4188888888888889,-0.6644444444444444,-0.04640613737901153,-0.07673532078325418,1.0490220664764915
1589986892.6999986,-0.13909623430962342,-3.100058577405858,8.805642259414226,0.33555555555555555,0.4188888888888889,-0.6644444444444444,-0.04830029831509569,-0.08716787705619378,1.2011794983025297
1589986892.7099986,-0.1103613265137766,-2.7834326018808775,7.79174311169774,0.33555555555555555,0.4188888888888889,-0.6644444444444444,-0.014318751301769803,-0.08419104329410693,1.3311613570689025
1589986892.7199986,-0.17446620501316687,-3.163495172144738,8.996115868526285,0.33555555555555555,0.4188888888888889,-0.6644444444444444,-0.023733469078997555,-0.10352300108279351,1.5393108841336418
1589986892.7299986,-0.22761831610044314,-3.2080915805022157,8.911104283604136,0.34091659281142295,0.4225569670113245,-0.66811252256688,-0.020569233731794027,-0.10397476764463014,1.665937846459363
1589986892.7399986,-0.23330632577121593,-3.2365316288560795,8.85623994718521,0.3566666666666667,0.43333333333333335,-0.6788888888888889,-0.053468384750397044,-0.1243653150494384,1.8039370851253724
1589986892.7499986,-0.2074361400189215,-3.1245316934720906,8.468807947019867,0.3566666666666667,0.43333333333333335,-0.6788888888888889,-0.07526732399225547,-0.1390669926816721,1.9147073051421355
1589986892.7599986,4.210366130336141,-9.213219026260203,6.104530471744856,0.3566666666666667,0.43333333333333335,-0.6788888888888889,-0.06811796892136937,-0.14488333267339293,2.0436769469224525
1589986892.7699986,10.61,-17.75,2.09,0.3566666666666667,0.43333333333333335,-0.6788888888888889,-0.05781403147231216,-0.1461713248545251,2.1042125794356634
1589986892.7799985,1.7661768013147652,-8.206233024824844,6.189271689300234,0.3653629059385482,0.4265173620121289,-0.6866449941854318,-0.45993104666636475,-0.1989326330487405,-1.024009825130974
1589986892.7899985,-2.672914196457098,-4.1517710958855485,3.8296354148177074,0.3977777777777778,0.4011111111111111,-0.7155555555555555,-0.3679404486879159,0.20358924329214817,-5.707339845770445
1589986892.7999985,-6.189021661663391,-9.40778610457206,9.508703755696175,0.3977777777777778,0.4011111111111111,-0.7155555555555555,0.5892999449848111,0.6466991342384986,-4.11946170441891
1589986892.8099985,1.2284330484330481,2.4095200525969753,8.026156037694498,0.3977777777777778,0.4011111111111111,-0.7155555555555555,0.7234842529157532,0.31761535578688893,-0.9665566365120442
1589986892.8199985,-0.09312871044739578,0.7287796070750964,6.88495562763939,0.3977777777777778,0.4011111111111111,-0.7155555555555555,0.33279538724262225,-0.012976206267772888,0.8647270444913596
1589986892.8299985,0.2540846648192913,-0.33350863746241394,7.933465007959437,0.3846737941290149,0.4110815334525611,-0.7155555555555555,-0.07905940963564655,-0.05179696874408787,1.1094246527248
1589986892.8399985,0.48029800251934496,-2.4749577109951413,10.497885549757063,0.3466666666666667,0.44,-0.7155555555555555,-0.3596600413589482,-0.16116091412002237,1.3282387071786967
1589986892.8499985,-0.12380350267047571,-2.4215714818035026,8.634053906347038,0.3466666666666667,0.44,-0.7155555555555555,-0.24834719918003711,-0.1825330464535789,1.4694892691765864
1589986892.8599985,0.965569565934973,-3.6528664796170984,7.446650932497112,0.3466666666666667,0.44,-0.7155555555555555,0.10056177966924407,-0.011175947541297164,1.6764720306336351
1589986892.8699985,6.9810839485433895,-11.685949781176783,8.421707557873953,0.3466666666666667,0.44,-0.7155555555555555,-0.12116850216191836,-0.15811819076987585,1.747874941744507
1589986892.8799984,3.587967375447593,-12.390531364661156,8.094138926955779,0.3466666666666667,0.44,-0.7155555555555555,-0.1993748148682365,-0.24711158109085854,1.6346106267905294
1589986892.8899984,-1.6979029455568426,-0.878408075459209,10.572819377792486,0.3711111111111111,0.43,-0.6855555555555556,-0.09644073216481734,-0.01764919258724501,-0.8361765348852698
1589986892.8999984,0.2714434541034842,-2.376772774626693,9.887875911563837,0.3711111111111111,0.43,-0.6855555555555556,0.4753489692944616,0.33747502098695215,-1.3268986519021826
1589986892.9099984,-1.555100220769853,-3.6636660910620993,8.63791886161446,0.3711111111111111,0.43,-0.6855555555555556,0.14760209693554285,0.1186126173584009,-0.9910718765600152
1589986892.9199984,-3.398748976751801,-7.382077807793058,9.888890389652914,0.3711111111111111,0.43,-0.6855555555555556,-0.27613000307845775,0.011225439907809692,-0.7252004398554446
1589986892.9299984,-1.829896170212766,-10.410359999999999,8.543621276595745,0.37536359338061465,0.4281572576832151,-0.6847050591016549,-0.25062083245011274,-0.10929400314648235,-0.18522705884437887
1589986892.9399984,5.608707006369427,-6.567015085484411,8.514165269862554,0.4044444444444445,0.4155555555555556,-0.6788888888888889,0.07278459605675319,-0.08423678340662792,0.9253218765346435
1589986892.9499984,-1.164379812471978,-2.4935304781769623,8.7439117721593,0.4044444444444445,0.4155555555555556,-0.6788888888888889,0.0823743207650794,0.053366459691080684,0.0537381148971563
1589986892.9599984,-0.9813590877356295,-4.6891389341400975,8.2198696765185,0.4044444444444445,0.4155555555555556,-0.6788888888888889,0.02465983295594735,0.06926838933524505,-0.24898739367259284
1589986892.9699984,-0.3682297680790684,-6.223815441824054,8.622508073196986,0.4044444444444445,0.4155555555555556,-0.6788888888888889,-0.07032928387108059,-0.04728733829138565,-0.08401126299973316
1589986892.9799984,-0.17469592808038076,-4.280951877313591,8.373664727657324,0.40109759680357254,0.4151371996004466,-0.6828632704624243,-0.03430146526683594,-0.04187324995803027,0.02540926192882279
1589986892.9899983,0.09004747166825681,-4.596693039815698,8.853409815465524,0.38666666666666666,0.4133333333333333,-0.7,0.017462786172065647,0.005100324990200425,0.0014558794754683578
1589986892.9999983,-0.03,-4.518011372183278,8.650009476819399,0.38666666666666666,0.4133333333333333,-0.7,-0.0037115124381312745,-0.015275765997478577,-0.0010918645431285037
1589986893.0099983,-0.03,-4.480155540178705,8.61846295014892,0.38666666666666666,0.4133333333333333,-0.7,0.005235587378849305,-0.001510997048277684,0.0023493276941717197
1589986893.0199983,-0.03817396002160994,-4.47730415991356,8.56182603997839,0.38666666666666666,0.4133333333333333,-0.7,-0.005205166335170149,9.9595030924852e-05,-4.9797515462426e-05
1589986893.0299983,-0.009849405726634255,-4.590602377093463,8.590150594273366,0.38666666666666666,0.4133333333333333,-0.7,-0.0013430043694886897,0.0016444598171974363,-0.0008222299085987181
1589986893.0399983,-0.039869828326964916,-4.450390515019105,8.62973965665393,0.38666666666666666,0.4133333333333333,-0.7066666666666667,0.014180800172453925,-0.002160362274799552,-0.0021674620381973387
1589986893.0499983,-0.024533338208676893,-4.496399985373969,8.599066676417355,0.38666666666666666,0.4133333333333333,-0.7066666666666667,0.014180800172453925,0.0003490650526726418,-0.0004945104865492096
1589986893.0599983,0.0,-4.434335879329394,8.606349618100591,0.38666666666666666,0.4133333333333333,-0.7066666666666667,-0.00010375390062655429,-0.0023143931964510244,-0.0009580991510383437
1589986893.0699983,-0.0043925061801540445,-4.597920608004577,8.577803746909924,0.38666666666666666,0.4133333333333333,-0.7066666666666667,-0.008966220307652546,-0.0031527053236489193,-0.00023957404768089774
1589986893.0799983,-0.038668764173493776,-4.5036608985228925,8.560665617913253,0.38666666666666666,0.4133333333333333,-0.7066666666666667,-0.010835700174048803,-0.0022179653904507894,-0.0021090539140771573
1589986893.0899982,-0.006251020280027629,-4.567497959439945,8.619060714509953,0.40354115652665284,0.4255204648988789,-0.7010418367133379,-0.007226865229325111,-0.002181661564992912,-0.00034094026717318773
1589986893.0999982,0.0,-4.444141857227319,8.700201399881754,0.4066666666666667,0.42777777777777776,-0.7,0.005608417644334572,-0.001090830782496456,0.0009365670506441641
1589986893.1099982,0.0,-4.524135372761429,8.588210478134,0.4066666666666667,0.42777777777777776,-0.7,0.00648101153578173,-0.001090830782496456,6.397315919700578e-05
1589986893.1199982,0.0,-4.5398077099166745,8.632153832066662,0.4066666666666667,0.42777777777777776,-0.7,-0.0002139710376580815,0.000427942075316163,-0.002416608196857042
1589986893.1299982,0.0,-4.578213533559198,8.601429173152642,0.4066666666666667,0.42777777777777776,-0.7,-0.0010518561307859792,0.0021037122615719583,0.0009349321756545485
1589986893.1399982,-0.01,-4.510704215971405,8.656422529582843,0.38,0.4133333333333333,-0.7,0.0027255391422703005,0.0004670595313639555,-0.0004670595313639555
1589986893.1499982,-0.014094578526877908,-4.539081123928326,8.670445983437284,0.38,0.4133333333333333,-0.7,0.009173295489818389,0.0017350123351461706,-0.001883895411761751
1589986893.1599982,-0.03938795490782959,-4.470765056365213,8.609846988726957,0.38,0.4133333333333333,-0.7,0.011832229200757174,-0.001074139841826072,-1.6690940670384107e-05
1589986893.1699982,-0.0019224297732781978,-4.520961214886639,8.601922429773278,0.38,0.4133333333333333,-0.7,-6.254428313729127e-05,-0.00031455683608193113,-0.0008811262251085019
1589986893.1799982,-0.013883929844574362,-4.526941964922287,8.613883929844574,0.38,0.4133333333333333,-0.7,-0.0072389291485691655,-0.0022717527084724423,0.000423671023151839
1589986893.1899981,-0.0037273737694506204,-4.562545252461099,8.579318434423627,0.38,0.4133333333333333,-0.7,-0.012683375985398813,-0.0014974241870551143,0.00020329670227932915
1589986893.1999981,-0.0030834298957126303,-4.525374855156431,8.610749710312861,0.38,0.4133333333333333,-0.7,-0.0013407865035146183,-0.0007544807579051385,-0.0009226557702007972
1589986893.2099981,-0.019283893395133256,-4.5010741599073,8.5621483198146,0.38,0.4133333333333333,-0.7,0.0030772045654549507,0.0010127156696826888,-3.905755640688357e-05
1589986893.2199981,-0.028872897014489935,-4.52112710298551,8.63774579402898,0.38,0.4133333333333333,-0.7,0.002181661564992912,0.0019357658386653046,-0.0001229478631638036
1589986893.229998,-0.02071516094524944,-4.529284839054751,8.621430321890498,0.38,0.4133333333333333,-0.7,0.002181661564992912,0.00015602391470347044,-0.0010128188251447207
1589986893.239998,-0.02,-4.545882621508322,8.651765243016644,0.38,0.4195099083643474,-0.7,0.00044913632019112767,0.0034650504896035685,0.0006416944623053283
1589986893.249998,-0.009043023314877838,-4.517129069944633,8.63521511657439,0.38,0.4211111111111111,-0.7,0.002703611378124248,0.0017641017144878431,-0.004050153242107022
1589986893.259998,-0.0019413826382892272,-4.495824147914868,8.599706913191445,0.38,0.4211111111111111,-0.7,0.006576955506250157,-0.0013345735880128835,-0.0017261467652314772
1589986893.269998,-0.019094754144366267,-4.474526229278168,8.667284262433098,0.38,0.4211111111111111,-0.7,0.0058537556634419025,-0.002976251333973583,-9.874700450526179e-05
1589986893.279998,-0.010687152965702489,-4.516564235171487,8.642061458897109,0.38,0.4211111111111111,-0.7,-0.0005661334574060522,-0.00022487028218160171,-0.0010158740217692554
1589986893.289998,-0.01150100935553192,-4.561501009355531,8.620993943866809,0.38666666666666666,0.4133333333333333,-0.7066666666666667,-0.008998803437553413,-0.001090830782496456,-0.0031087576265064294
1589986893.299998,-0.019325709588511195,-4.5673028383540455,8.567977128765534,0.38666666666666666,0.4133333333333333,-0.7066666666666667,-0.003922001087669309,-0.0009437234350576176,-0.0018874468701152352
1589986893.309998,-0.01072158105475023,-4.527113675780999,8.546494229492751,0.38666666666666666,0.4133333333333333,-0.7066666666666667,0.002653935260945599,0.0010121184998376747,0.0019455247170165684
1589986893.319998,-0.01970237457979145,-4.491190501680834,8.627321371218123,0.38666666666666666,0.4133333333333333,-0.7066666666666667,0.00853185087796149,3.246589700169316e-05,-0.0009934330914913771
1589986893.329998,-0.026721974506456265,-4.510165923519368,8.636721974506457,0.38666666666666666,0.4133333333333333,-0.7066666666666667,0.00506037790457219,0.0,-0.0018240844535763476
1589986893.339998,-0.004017972260207073,-4.545982027739793,8.64,0.3914781532851469,0.4133333333333333,-0.7008928827244905,-0.0014511735942177905,-0.001889466376682863,-0.0012369283766514804
1589986893.349998,-0.029341454515972108,-4.529341454515972,8.644731636127776,0.3922222222222223,0.4133333333333333,-0.7,7.18361685651651e-05,-0.0022534977335580773,-0.001090830782496456
1589986893.359998,-0.020839954597048807,-4.520839954597048,8.57671963677639,0.3922222222222223,0.4133333333333333,-0.7,0.0009992059494604313,-0.003180867514453343,-0.001090830782496456
1589986893.369998,-0.010664379957513983,-4.51,8.66,0.3922222222222223,0.4133333333333333,-0.7,0.00509179085801731,0.0018917711214209358,-0.001018358171603462
1589986893.379998,-0.018838650581746604,-4.51,8.66,0.3922222222222223,0.4133333333333333,-0.7,0.0006334178473325781,-0.0016749272871268493,-0.00012668356946651566
1589986893.389998,-0.026686611539533587,-4.536746446158134,8.666686611539534,0.3885074380335925,0.4229917722237707,-0.6955422589736443,-0.004376377018751553,-0.0029110577347848375,0.0
1589986893.399998,-9.99011394973724e-05,-4.549950049430251,8.659350642593267,0.38666666666666666,0.42777777777777776,-0.6933333333333334,-0.009784784471017043,-0.003267043585580858,-5.448761908510317e-06
1589986893.409998,-0.014649045215671992,-4.542675477392164,8.564781206098132,0.38666666666666666,0.42777777777777776,-0.6933333333333334,-0.005023588205836872,-0.002473510874717496,-0.0007989814727718721
1589986893.419998,-0.02978688524590164,-4.529893442622951,8.640319672131149,0.38666666666666666,0.42777777777777776,-0.6933333333333334,0.0043749467366845565,0.0,-0.0011024543891951888
1589986893.429998,-0.016035081967213115,-4.523017540983607,8.66094737704918,0.38666666666666666,0.42777777777777776,-0.6933333333333334,0.005124991253246013,0.0,-0.0018524989057566452
1589986893.439998,-0.0015708043836401408,-4.52,8.67,0.3810472029224268,0.4221583140335379,-0.6989527970775732,-0.0009822243225243868,-0.0009194826050009522,-0.002181661564992912
1589986893.449998,-0.019306037473976405,-4.5103469812630115,8.61208188757807,0.38,0.4211111111111111,-0.7,-0.002181661564992912,-0.001090830782496456,-0.002181661564992912
1589986893.459998,-0.03817146568521325,-4.5272571985278205,8.534571335786966,0.38,0.4211111111111111,-0.7,0.0016892172377225914,9.973107587102258e-05,0.0009910997066254334
1589986893.469998,-0.020010391859709896,-4.500015587789565,8.579974020350726,0.38,0.4211111111111111,-0.7,0.007632414749337511,0.0010902639944735091,5.667880229468306e-07
1589986893.4799979,-0.0026941892868201055,-4.5,8.675181958922488,0.38,0.4211111111111111,-0.7,0.0029163877169767977,0.002978601886695814,-0.0009438855520996788
1589986893.4899979,-0.01967665768493569,-4.509838328842467,8.670323342315065,0.37344111410502145,0.42657684935692664,-0.7,-0.00425750960481908,0.0011261019575520372,-0.002164025977465121
1589986893.4999979,-0.02,-4.519790280966696,8.660209719033304,0.37333333333333335,0.4266666666666667,-0.7,-0.007567185084314126,-0.001045077187055745,0.0010222003893353895
1589986893.5099978,0.0049627092537797395,-4.553283612338372,8.568470066069475,0.37333333333333335,0.4266666666666667,-0.7,-0.004005136588337581,-0.00018316106021205338,-0.0007245086620723492
1589986893.5199978,-0.020060596763058988,-4.539878806473882,8.620060596763059,0.37333333333333335,0.4266666666666667,-0.7,0.0032857125103822452,-6.610081446438599e-06,0.002161831320653596
1589986893.5299978,-0.028103666487688885,-4.523792667024622,8.62810366648769,0.37333333333333335,0.4266666666666667,-0.7,0.005040438118660563,-0.0008839728855855974,-0.0004702570917638803
1589986893.5399978,-0.015670667650148642,-4.498506001475223,8.665823330874629,0.3828862215665676,0.4171137784334324,-0.721493998524777,0.002327978548514252,0.0004722568994875579,-0.00030928694150444904
1589986893.5499978,-0.01,-4.5187331412858445,8.593800576142463,0.38666666666666666,0.4133333333333333,-0.73,4.6064282749130056e-05,-0.0009987022169981959,0.0
1589986893.5599978,-0.016697695108489712,-4.533395390216979,8.54981382934906,0.38666666666666666,0.4133333333333333,-0.73,-0.0007306051996116517,-0.001090830782496456,-0.0007306051996116517
1589986893.5699978,-0.011088911495422177,-4.513266734486266,8.601288708036622,0.38666666666666666,0.4133333333333333,-0.73,0.0037694140406754444,-0.0030349287117652163,0.0018253161114066844
1589986893.5799978,-0.002687437148497151,-4.51,8.624625125703005,0.38666666666666666,0.4133333333333333,-0.73,0.003565646264249887,-0.001677138616017494,0.0005863078335210381
1589986893.5899978,-0.00933432856076542,-4.491331342878469,8.667337314243062,0.38666666666666666,0.4133333333333333,-0.7165170809677832,-0.001818594116520013,-0.004145482660902085,0.001018217292801876
1589986893.5999978,-0.01,-4.503797494564655,8.656202505435346,0.38666666666666666,0.4133333333333333,-0.7155555555555555,-0.00594434451310614,-0.004363323129985824,-0.001166778986371481
1589986893.6099977,-0.01,-4.53871919805104,8.544696273812852,0.38666666666666666,0.4133333333333333,-0.7155555555555555,-0.006591555968052289,-0.00018628509229421525,-0.004270180583838716
1589986893.6199977,0.009389483171651529,-4.530305258414175,8.578778966343304,0.38666666666666666,0.4133333333333333,-0.7155555555555555,-0.0012573234198951112,0.0,-0.00013319410991892346
1589986893.6299977,-0.010705530845754254,-4.523098156384749,8.614509218076257,0.38666666666666666,0.4133333333333333,-0.7155555555555555,0.00267354095324998,0.0,0.0
1589986893.6399977,-0.013772047420024709,-4.507544094840049,8.654911810319902,0.38666666666666666,0.41056535440889985,-0.7017156609333882,0.004363323129985824,0.0,0.0
1589986893.6499977,-0.0008834704463607235,-4.5,8.679116529553639,0.38666666666666666,0.4088888888888889,-0.6933333333333334,0.0023744049166561443,0.0,0.0
1589986893.6599977,-0.009742234792100825,-4.519484469584201,8.57283541728689,0.38666666666666666,0.4088888888888889,-0.6933333333333334,0.001118948604839758,0.0,0.001062712960153154
1589986893.6699977,-0.0007160852493247691,-4.538567829501351,8.6071356590027,0.38666666666666666,0.4088888888888889,-0.6933333333333334,-0.0019473232151363798,-0.00202543599842189,-0.00397275921355827
1589986893.6799977,0.0,-4.524680884676145,8.64063823064771,0.38666666666666666,0.4088888888888889,-0.6933333333333334,0.001995979073975546,-0.0005106053094055291,-0.0010212106188110582
1589986893.6899977,-0.010456978037253267,-4.52,8.66568546705588,0.3831810073209156,0.41121266178605625,-0.7003046520248355,0.0015614733172505829,0.0,-0.0005703396767462618
1589986893.6999977,-0.02,-4.508522745284514,8.651306863211286,0.38,0.4133333333333333,-0.7066666666666667,-0.0025039485484409057,-0.0012519742742204529,0.0001611434917239969
1589986893.7099977,-0.014692227838191997,-4.5053077721618076,8.57692227838192,0.38,0.4133333333333333,-0.7066666666666667,-0.004363323129985824,-0.0016026734389351191,-0.0006461335956769228
1589986893.7199976,-0.00459432010532255,-4.520811359789355,8.55162271957871,0.38,0.4133333333333333,-0.7066666666666667,-0.00495299133292946,-0.0028598353913273644,-0.0015919933620492759
1589986893.7299976,0.0,-4.535372451930027,8.602234711580165,0.38,0.4133333333333333,-0.7066666666666667,-0.0019378923468284046,-0.002605192347158886,-0.001090830782496456
1589986893.7399976,0.0,-4.527807135393342,8.648289296909986,0.38,0.4180750029025891,-0.7026023784644474,0.005080936394422588,-0.0017558483844841446,-0.001090830782496456
1589986893.7499976,-0.006021651397203681,-4.507956697205593,8.672043302794407,0.38,0.4211111111111111,-0.7,0.0050083743952621645,-0.0034953821060994253,0.00022288975861005757
1589986893.7599976,-0.018274499060738886,-4.508274499060739,8.60552950845335,0.38,0.4211111111111111,-0.7,0.002369884518970169,-0.0016554996444282273,-0.0016169927030611406
1589986893.7699976,-0.006763528644226193,-4.523236471355774,8.596618235677887,0.38,0.4211111111111111,-0.7,1.5849004016311227e-05,0.001796919298805678,-0.002181661564992912
1589986893.7799976,-0.012539385259446954,-4.53,8.618809077889171,0.38,0.4211111111111111,-0.7,-0.00040691341076710356,-0.0008310118828867459,-0.002181661564992912
1589986893.7899976,-0.013534808541638209,-4.523534808541638,8.66232595729181,0.3843101276389079,0.41320921043978004,-0.7100569644907849,0.0,-0.0025672493617379484,-0.0007711755934900729
1589986893.7999976,-0.01,-4.503277837564094,8.638194593910237,0.38666666666666666,0.4088888888888889,-0.7155555555555555,-0.0018241049534991696,0.0005544958652558426,0.0009120524767495848
1589986893.8099976,-0.018981750665722035,-4.526945251997167,8.576109496005667,0.38666666666666666,0.4088888888888889,-0.7155555555555555,-0.0012019045543051488,0.00011107377180869286,0.00011107377180869286
1589986893.8199975,-0.02,-4.5123514296393195,8.57882428518034,0.38666666666666666,0.4088888888888889,-0.7155555555555555,-0.005903731736617604,-0.002887740572472689,-0.0009625801908242297
1589986893.8299975,-0.006188444843586289,-4.53071733273462,8.60071733273462,0.38666666666666666,0.4088888888888889,-0.7155555555555555,-0.002778467315287803,-0.0017658853956129949,0.0011690796453181034
1589986893.8399975,-0.008065079365079365,-4.515804761904762,8.642260317460318,0.39114726631393304,0.4187462081128748,-0.7030098765432098,0.0006686965844446529,-0.00021106709902590152,0.0013018978815223575
1589986893.8499975,-0.018216364886545953,-4.493567270226908,8.65,0.3922222222222223,0.4211111111111111,-0.7,0.003779629904036655,-0.002688799121540199,0.00019456440864972315
1589986893.8599975,-0.011766251295524116,-4.498233748704476,8.567662512955241,0.3922222222222223,0.4211111111111111,-0.7,0.002566997821549302,0.00032015826938367603,0.0
1589986893.8699975,0.004382764781651224,-4.514382764781651,8.607531059126606,0.3922222222222223,0.4211111111111111,-0.7,0.002181661564992912,0.0003063726544349023,-0.0023533743841846607
1589986893.8799975,0.0012845907369647535,-4.515642295368482,8.625642295368483,0.3922222222222223,0.4211111111111111,-0.7,0.0002802542237581923,0.0004753518353086799,-0.002797140512180688
1589986893.8899975,-0.01,-4.513894677022163,8.627789354044326,0.38984214181978916,0.4211111111111111,-0.704111047967839,-0.0017568182066271772,0.0013032524616793232,-0.0019692398858100445
1589986893.8999975,-0.014927826211233387,-4.53,8.679711304844933,0.38,0.4211111111111111,-0.7211111111111111,0.0,0.0005690342083910338,-0.0016283732346970819
1589986893.9099975,-0.0032781309470785933,-4.513278130947079,8.599668785682471,0.38,0.4211111111111111,-0.7211111111111111,0.0018240729503801532,-0.004738976683256763,-0.00035758861461275874
1589986893.9199975,-0.012616526834465309,-4.51,8.598924790251697,0.38,0.4211111111111111,-0.7211111111111111,-0.0005708376028525533,-0.0020135299526754477,0.0
1589986893.9299974,-0.030517186336064702,-4.515258593168032,8.620517186336064,0.38,0.4211111111111111,-0.7211111111111111,-0.002181661564992912,0.0,-0.0011472470600630493
1589986893.9399974,-0.030394249532077575,-4.524802875233961,8.63,0.3858701808415082,0.4211111111111111,-0.7077697910167744,-0.0011338367350539602,-0.0005239124149694758,-0.0006099243200844845
1589986893.9499974,-0.02,-4.53,8.61766199376947,0.3922222222222223,0.4211111111111111,-0.6933333333333334,0.0006729338495447373,0.00025503691659301865,0.002436698481585931
1589986893.9599974,-0.02,-4.514790847505803,8.579581695011607,0.3922222222222223,0.4211111111111111,-0.6933333333333334,0.004408953125766978,0.0002613001966788256,-4.562999578115344e-05
1589986893.9699974,-0.02,-4.51,8.585682506836154,0.3922222222222223,0.4211111111111111,-0.6933333333333334,0.00032206555140590776,-0.0008553480601793953,-0.001090830782496456
1589986893.9799974,-0.007619402985074627,-4.51,8.620951492537314,0.3922222222222223,0.4211111111111111,-0.6933333333333334,-0.0017660875989746725,-0.0004155739660182394,-0.001090830782496456
1589986893.9899974,0.0,-4.524704013663536,8.654704013663535,0.3881377739823513,0.41212532498339505,-0.7031360091090236,-0.0013796820284712648,0.0016039590730432944,-0.001090830782496456
1589986893.9999974,0.0,-4.522373017466372,8.667626982533628,0.38666666666666666,0.4088888888888889,-0.7066666666666667,-0.000258856049972056,0.000517712099944112,-0.000258856049972056
1589986894.0099974,-0.007818236307784521,-4.512181763692215,8.58399940061437,0.38666666666666666,0.4088888888888889,-0.7066666666666667,0.0017056745658725584,-0.0008528372829362792,0.0008528372829362792
