time,acc_x,acc_y,acc_z,mag_x,mag_y,mag_z,gyr_x,gyr_y,gyr_z
1589987329.5149894,-3.78,-0.75,9.03,0.3033333333333333,-0.3711111111111111,-0.6377777777777778,-0.001090830782496456,-0.001090830782496456,0.002181661564992912
1589987329.5249894,-3.770704740376305,-0.75,9.020704740376305,0.29197246045992803,-0.3711111111111111,-0.6512042639008931,0.0019510358161504992,-7.687524961413764e-05,0.0011677060321105936
1589987329.5349894,-3.7782227784730913,-0.7582227784730914,9.044668335419274,0.2911111111111111,-0.3711111111111111,-0.6522222222222223,0.00038772958977345865,-0.0017939319752194533,0.001987796770106183
1589987329.5449893,-3.761879240019443,-0.7581207599805567,8.933758480038886,0.2911111111111111,-0.3711111111111111,-0.6522222222222223,0.00040998657218160433,-0.0004758509242240494,0.0
1589987329.5549893,-3.77,-0.7492612037464824,8.955171573774622,0.2911111111111111,-0.3711111111111111,-0.6522222222222223,0.002101071395459909,0.0019398910563939032,-8.05901695330029e-05
1589987329.5649893,-3.77,-0.7404529799655593,9.016829140241084,0.2911111111111111,-0.3711111111111111,-0.6522222222222223,0.0011402432315250764,-0.0009425934354105945,-0.0010414183334678355
1589987329.5749893,-3.7862474732006124,-0.7643712098009189,9.028123736600305,0.2911111111111111,-0.3711111111111111,-0.645903760421984,-0.0015676558032557033,0.0033399801937571425,0.0006814936080049834
1589987329.5849893,-3.777493398480303,-0.74,9.019973593921213,0.2911111111111111,-0.3711111111111111,-0.6444444444444445,-0.002318375469849794,0.005590867817339162,-0.0012275446873533382
1589987329.5949893,-3.7624246887855,-0.74,8.959698755142,0.2911111111111111,-0.3711111111111111,-0.6444444444444445,-0.0031402460892295003,0.006412738436718867,-0.002049415306733044
1589987329.6049893,-3.7311552279714064,-0.7582310455942812,8.980613726434314,0.2911111111111111,-0.3711111111111111,-0.6444444444444445,-0.004875264936905065,0.005647116904341352,-0.002953513532429198
1589987329.6149893,-3.6923176784325347,-0.7504635356865069,9.027218785880958,0.2911111111111111,-0.3711111111111111,-0.6444444444444445,-0.0023333532636811206,0.0064944207954159994,-0.006342729096727791
1589987329.6249893,-3.46,-0.7597141836370133,9.010285816362986,0.2911111111111111,-0.3655555555555556,-0.6444444444444445,-0.001757800343469816,0.021903835345935804,-0.02405431918224
1589987329.6349893,-3.4473905837261096,-0.8,8.942679598073239,0.2911111111111111,-0.3655555555555556,-0.6444444444444445,-0.0016047195991016519,0.04586263472071739,-0.05401233901479778
1589987329.6449893,-3.390472463888773,-0.8023818840278067,8.835236231944387,0.2911111111111111,-0.3655555555555556,-0.6444444444444445,-0.010493871137130188,0.0766737841619697,-0.08981529136727635
1589987329.6549892,-3.3538311388311386,-0.8188126588126589,8.831456456456456,0.2911111111111111,-0.3655555555555556,-0.6444444444444445,-0.021365315596463853,0.11302445724812522,-0.12226514712008409
1589987329.6649892,-3.3053869253869252,-0.8880186780186781,8.921424281424281,0.2911111111111111,-0.3655555555555556,-0.6444444444444445,-0.03495388569157786,0.1439762002425516,-0.14868736674947244
1589987329.6749892,-3.254933536890316,-0.8983111789634387,8.96,0.3244444444444444,-0.3655555555555556,-0.6522222222222223,-0.05427970643009021,0.1709841001560223,-0.17033932386553927
1589987329.6849892,-3.1653333333333333,-0.8533333333333334,8.958666666666668,0.3244444444444444,-0.3655555555555556,-0.6522222222222223,-0.06414085001079162,0.16755160819145562,-0.1588976839836504
1589987329.6949892,-2.962257355679702,-0.6971210428305401,8.950856052141527,0.3244444444444444,-0.3655555555555556,-0.6522222222222223,-0.06925288526333338,0.16499559056518473,-0.15037762522941414
1589987329.7049892,-2.5856870860927152,-0.5904602649006623,8.912504966887417,0.3244444444444444,-0.3655555555555556,-0.6522222222222223,-0.07526732399225547,0.15140099157120554,-0.16598055902308864
1589987329.7149892,-2.8815700598802394,-0.9120934131736528,9.188691616766466,0.32426999334664003,-0.36607890884896876,-0.6520186959414505,-0.0732692094032395,0.0735546543445275,-0.20780019406277384
1589987329.7249892,-2.9318011976047904,-0.9790682634730539,9.146832335329341,0.31868875582168993,-0.38282262142381895,-0.6455072521623421,-0.009343259588520544,0.018760983074768388,-0.22515152329819754
1589987329.7349892,-1.6899046133939384,-0.8694454305668453,8.877227152834227,0.31777777777777777,-0.3855555555555555,-0.6444444444444445,0.05094576594374906,0.08128673530180881,-0.20894515204773317
1589987329.7449892,-1.8081891474925764,-0.8276979479437965,8.668489739718984,0.31777777777777777,-0.3855555555555555,-0.6444444444444445,0.05398172855287956,0.0964665483474613,-0.18541644182697178
1589987329.7549891,-1.8916189396087326,-0.8067394386163879,8.701136943578112,0.31777777777777777,-0.3855555555555555,-0.6444444444444445,0.011875117302164421,0.007509319931673929,-0.14137841171691592
1589987329.7649891,-2.0370130316482884,-0.8789981383359587,9.095992553343835,0.31705421102041464,-0.38516594268620613,-0.6441104905564308,-0.02988551422369433,0.002181661564992912,-0.1137701983216275
1589987329.7749891,-2.1746492451664166,-0.86,9.001403019334333,0.3033333333333333,-0.37777777777777777,-0.6377777777777778,0.006315416193229372,0.005055534085969582,-0.07414448189589816
1589987329.784989,-2.1968667784938645,-0.86,8.912532886024543,0.3033333333333333,-0.37777777777777777,-0.6377777777777778,0.020856757752061885,0.018789023335978063,-0.05314032186647341
1589987329.794989,-2.2256418950301904,-0.8537612633534603,8.786925685090571,0.3033333333333333,-0.37777777777777777,-0.6377777777777778,0.001528759062501478,0.005416686687045395,-0.029722681540494702
1589987329.804989,-2.278837868368378,-0.8905810658158109,8.94941893418419,0.3033333333333333,-0.37777777777777777,-0.6377777777777778,-0.014384248684990327,-0.005010462777502251,-0.02086584893211477
1589987329.814989,-2.262213282070592,-0.898893358964704,8.941106641035296,0.3033333333333333,-0.37777777777777777,-0.6377777777777778,-0.0016900213490644456,0.0013366508904606896,-0.007264891072194189
1589987329.824989,-2.2854264668174085,-0.8830490221217278,8.923049022121727,0.32122603220484286,-0.36741884685216697,-0.6434281037372019,0.0036981296926071605,0.003106193988144702,-0.0036050890661787002
1589987329.834989,-2.335855726032042,-0.8889639315080106,8.936531109604136,0.3244444444444444,-0.3655555555555556,-0.6444444444444445,-0.004889066210563871,-0.00011301754038368172,0.0025207141861439573
1589987329.844989,-2.300301771636857,-0.8800754429092142,8.820980757819784,0.3244444444444444,-0.3655555555555556,-0.6444444444444445,-4.114772384597107e-05,-0.0010826012377272618,0.0054294652781746965
1589987329.854989,-2.286063953270678,-0.8812127906541356,8.88848953457895,0.3244444444444444,-0.3655555555555556,-0.6444444444444445,0.0020493666271673974,0.00013229493782551468,-0.0010583595026041174
1589987329.864989,-2.325326131725765,-0.889065226345153,8.94345658441607,0.3244444444444444,-0.3655555555555556,-0.6444444444444445,0.0011927987702338432,0.0009888627947590687,-0.00791090235807255
1589987329.874989,-2.33,-0.8815329972502292,8.983868010999084,0.3291483348609838,-0.3608516651390162,-0.6331551074447499,0.0038616509529761115,0.001090830782496456,-0.01796271349490383
1589987329.884989,-2.260563396652497,-0.8705633966524974,8.966056223432519,0.33,-0.36,-0.6311111111111111,0.0030266641829695437,-0.0009679167002365438,-0.03728801368611211
1589987329.894989,-2.2675278958554728,-0.8775278958554729,8.91730472901169,0.33,-0.36,-0.6311111111111111,-1.217186314156479e-05,0.0005515013228190105,-0.053241902928195445
1589987329.904989,-2.3381807093263274,-0.9002598986676675,8.920259898667668,0.33,-0.36,-0.6311111111111111,-0.0009774285956878545,0.009874178135872406,-0.08610542071600098
1589987329.914989,-2.283085757177707,-0.9081306061174704,8.92813060611747,0.33,-0.36,-0.6311111111111111,0.0024568153908198463,0.011591300129126255,-0.11701361659457027
1589987329.924989,-2.3408664151697605,-0.93,8.959711194943415,0.3244444444444444,-0.37777777777777777,-0.6588888888888889,0.0013113569946023177,0.015429149677883142,-0.16921658654332972
1589987329.934989,-2.3672718795790595,-0.9313640602104702,8.939087518316237,0.3244444444444444,-0.37777777777777777,-0.6588888888888889,0.008801044203309624,0.021023376640784564,-0.21358065669867304
1589987329.944989,-2.330023977620887,-0.9499880111895563,8.790095910483547,0.3244444444444444,-0.37777777777777777,-0.6588888888888889,0.009816823154294236,0.02508649244472301,-0.2552275936890421
1589987329.954989,-2.3201506215193737,-0.969698756961252,8.878644406325634,0.3244444444444444,-0.37777777777777777,-0.6588888888888889,0.010891877565980604,0.022940306950393487,-0.3089744292797957
1589987329.964989,-2.3623758028440687,-0.9615248394311863,8.939326123981695,0.3244444444444444,-0.37777777777777777,-0.6588888888888889,0.009059314617952119,0.024756439639438015,-0.3532472825937858
1589987329.974989,-2.37961846102394,-0.9407630779521194,8.95,0.35009367384161844,-0.37777777777777777,-0.6588888888888889,0.012923491606034208,0.03033516467999669,-0.41247634449559334
1589987329.984989,-2.38,-0.9595109518886297,8.940244524055684,0.3511111111111111,-0.37777777777777777,-0.6588888888888889,0.012025812044161236,0.031607419255697,-0.4741085087132423
1589987329.994989,-2.380245816477662,-0.9707374494329862,8.890491632955325,0.3511111111111111,-0.37777777777777777,-0.6588888888888889,0.012052767443596747,0.034003455183865196,-0.5449230380215105
1589987330.004989,-2.3895176514799834,-0.9985529544399496,8.909035302959966,0.3511111111111111,-0.37777777777777777,-0.6588888888888889,0.014075568049748738,0.04108325730539718,-0.6086412571152984
1589987330.014989,-2.4146498315802525,-0.9835667789464984,8.926433221053502,0.3511111111111111,-0.37777777777777777,-0.6588888888888889,0.015077093341490351,0.04593303558004745,-0.6666299522917336
1589987330.024989,-2.4342445427917814,-0.9728777286041091,8.94424454279178,0.3511111111111111,-0.36907277940502237,-0.6652197967963474,0.01604855024294355,0.05079032008731344,-0.7282195811443584
1589987330.0349889,-2.447779689719218,-0.9855593794384355,8.95,0.3511111111111111,-0.3655555555555556,-0.6677777777777778,0.019756991747044407,0.05490577506702806,-0.8026223969461299
1589987330.0449889,-2.467921664929421,-1.0019477766196139,8.87233945197251,0.3511111111111111,-0.3655555555555556,-0.6677777777777778,0.024635685623152517,0.059542270663039104,-0.860480345059307
1589987330.0549889,-2.472678414433699,-1.031964756698903,8.878572684530408,0.3511111111111111,-0.3655555555555556,-0.6677777777777778,0.0272707695624114,0.062177354602297986,-0.9417387197564705
1589987330.0649889,-2.47,-1.0674961041414157,8.9329953249697,0.3511111111111111,-0.3655555555555556,-0.6677777777777778,0.027870641498335087,0.06457684234599276,-0.9982139794066466
1589987330.0749888,-2.47,-1.1151450312664808,8.96,0.3600515666725265,-0.36276166319261327,-0.6677777777777778,0.031104497758139164,0.06928357514551511,-1.0626653558182262
1589987330.0849888,-2.463749972823133,-1.158750081530601,8.96,0.3688888888888889,-0.36,-0.6677777777777778,0.03722461527537314,0.07608546486634568,-1.1378730408283306
1589987330.0949888,-2.477743847673792,-1.240975390695168,8.862408837794144,0.3688888888888889,-0.36,-0.6677777777777778,0.03733435464562237,0.07950759310186985,-1.2179888895823483
1589987330.1049888,-2.48,-1.2704801196340605,8.904613652357494,0.3688888888888889,-0.36,-0.6677777777777778,0.03783292476908095,0.08260935977904704,-1.2674496241030022
1589987330.1149888,-2.5013809140506216,-1.3085078854008287,8.93,0.3688888888888889,-0.36,-0.6677777777777778,0.03740164541389832,0.09099085801352581,-1.3291616499136103
1589987330.1249888,-2.5613200953137407,-1.3520750595710882,8.942830023828435,0.3859955873268026,-0.33433995234312947,-0.6998528373488659,0.039187554344712536,0.09661052428113925,-1.378274570944733
1589987330.1349888,-2.5901149127992906,-1.3806894767957434,8.878621046408513,0.3955555555555556,-0.32,-0.7177777777777777,0.04256747060111558,0.10038150207342773,-1.4459650038597722
1589987330.1449888,-2.597863767366243,-1.4271826041974578,8.785634791605084,0.3955555555555556,-0.32,-0.7177777777777777,0.04425800841925956,0.10207203989157174,-1.4873831804042998
1589987330.1549888,-2.563024494142705,-1.4769755058572949,8.824707135250266,0.3955555555555556,-0.32,-0.7177777777777777,0.04472406208235469,0.10354644405435474,-1.5421605666367095
1589987330.1649888,-2.567611350089697,-1.5408908007175788,8.883279450627882,0.3955555555555556,-0.32,-0.7177777777777777,0.0463846010771945,0.10528946333200312,-1.5814088071865338
1589987330.1749887,-2.5303583174658124,-1.5704777566210837,8.890477756621085,0.44222222222222224,-0.31222222222222223,-0.7033333333333334,0.049048298840179055,0.1102129954043035,-1.6400658753024338
1589987330.1849887,-2.5575846027349836,-1.6067794703133116,8.926779470313312,0.44222222222222224,-0.31222222222222223,-0.7033333333333334,0.04607837183371492,0.11318292241076763,-1.6816448533929318
1589987330.1949887,-2.5892217125382264,-1.6392217125382262,8.894933944954127,0.44222222222222224,-0.31222222222222223,-0.7033333333333334,0.04772744947808875,0.11663399573502739,-1.7121093515423509
1589987330.2049887,-2.59981126867474,-1.7007549253010386,8.87509436566263,0.44222222222222224,-0.31222222222222223,-0.7033333333333334,0.051865930653385295,0.12056768255674055,-1.752265397173816
1589987330.2149887,-2.5765887873071156,-1.7757632338476919,8.888940808461923,0.44222222222222224,-0.31222222222222223,-0.7033333333333334,0.052590957306688724,0.12363598400320364,-1.7935687761016823
1589987330.2249887,-2.56,-1.8329891742729783,8.909741880704734,0.4490776197551829,-0.29742899596688605,-0.7148792660204251,0.04946976643802819,0.12686243910071002,-1.8329662867834555
1589987330.2349887,-2.490704742641188,-1.9085066801511683,8.839916165433545,0.4633333333333333,-0.26666666666666666,-0.7388888888888889,0.053287812416404484,0.13434422710555863,-1.888169498869836
1589987330.2449887,-2.478497384109989,-1.9392486920549945,8.735259155615038,0.4633333333333333,-0.26666666666666666,-0.7388888888888889,0.05260574250989372,0.13635384781205698,-1.9415911308736418
1589987330.2549887,-2.4580522657770367,-1.969263645630618,8.781211379853582,0.4633333333333333,-0.26666666666666666,-0.7388888888888889,0.05076379328673258,0.13874797422170296,-1.976872970653127
1589987330.2649887,-2.45,-2.0083409876670624,8.821255740750297,0.4633333333333333,-0.26666666666666666,-0.7388888888888889,0.05249685762635576,0.14349074287874436,-2.016408216069265
1589987330.2749887,-2.4703231796277465,-2.0945183253017374,8.877420752464742,0.47537669903866464,-0.235052831690172,-0.7388888888888889,0.05345070834232633,0.14951432405925882,-2.0515015179261393
1589987330.2849886,-2.4628364343760785,-2.138581782811961,8.88283643437608,0.4811111111111111,-0.22,-0.7388888888888889,0.054386835628324914,0.15724224248299884,-2.093653210138751
1589987330.2949886,-2.430195719263315,-2.169804280736685,8.783136087605774,0.4811111111111111,-0.22,-0.7388888888888889,0.05616711046870989,0.15735767779004256,-2.1239547813534316
1589987330.3049886,-2.3655596724476133,-2.2707338792539775,8.79536693962699,0.4811111111111111,-0.22,-0.7388888888888889,0.05375394143464903,0.15510012650937854,-2.15731800690696
1589987330.3149886,-2.40798300701884,-2.30399150350942,8.839985839182367,0.4811111111111111,-0.22,-0.7388888888888889,0.05868484245161576,0.16013210522378618,-2.1799091300952584
1589987330.3249886,-2.3880238468213633,-2.441976153178637,8.827741539224414,0.4955555555555556,-0.18222222222222226,-0.8044444444444444,0.05868929738299008,0.1702927819962006,-2.2063681267866664
1589987330.3349886,-2.3549357059943876,-2.475064294005612,8.789926521136444,0.4955555555555556,-0.18222222222222226,-0.8044444444444444,0.05507994112802583,0.1723552712847516,-2.2182274401958346
1589987330.3449886,-2.3218475651674124,-2.5081524348325877,8.752111503048472,0.4955555555555556,-0.18222222222222226,-0.8044444444444444,0.051470584873061595,0.17441776057330258,-2.230086753605003
1589987330.3549886,-2.2644875440563923,-2.5734428067926944,8.734139298301827,0.4955555555555556,-0.18222222222222226,-0.8044444444444444,0.053864248023987676,0.18145346185717762,-2.237669486862997
1589987330.3649886,-2.227778923441052,-2.6344421531178965,8.73,0.4955555555555556,-0.18222222222222226,-0.8044444444444444,0.05615750141353687,0.18406755260376165,-2.2427075210426515
1589987330.3749886,-2.200855206051337,-2.6563815979828878,8.793815979828876,0.5125731501765892,-0.1737134249117054,-0.8228801719505642,0.04906583281643949,0.1808697804812755,-2.2521924118207104
1589987330.3849885,-2.142072572736188,-2.6679879045439687,8.798048381824126,0.5222222222222223,-0.1688888888888889,-0.8333333333333334,0.03513926470172998,0.1823816291951005,-2.2647709959329507
1589987330.3949885,-2.1468552925939006,-2.7205658777817026,8.646730012951842,0.5222222222222223,-0.1688888888888889,-0.8333333333333334,0.04191805947959948,0.19521064826552212,-2.267665679628106
1589987330.4049885,-2.1277862463190713,-2.7688740689416247,8.658874068941625,0.5222222222222223,-0.1688888888888889,-0.8333333333333334,0.03999851435336563,0.196228799316361,-2.2720776999143735
1589987330.4149885,-2.0857776049766716,-2.8193779160186625,8.719066874027993,0.5222222222222223,-0.1688888888888889,-0.8333333333333334,0.03338909182846656,0.1915595552904527,-2.2749445616052624
1589987330.4249885,-2.054964753087556,-2.900422962949329,8.744964753087556,0.5356495473220731,-0.16776994513056798,-0.8182275925960011,0.03110021182627359,0.18432733319165187,-2.269988099641459
1589987330.4349885,-2.0440398168425244,-2.9838407326299023,8.757880549472427,0.5488888888888889,-0.16666666666666666,-0.8033333333333333,0.030124302971897148,0.17847728939141516,-2.2572035186104005
1589987330.4449885,-2.0576659814434133,-3.035331962886827,8.734668037113174,0.5488888888888889,-0.16666666666666666,-0.8033333333333333,0.027719247132858296,0.17029105464393032,-2.2392700240437438
1589987330.4549885,-2.0623193931141803,-3.1521672826298386,8.73304182065746,0.5488888888888889,-0.16666666666666666,-0.8033333333333333,0.03564901198171797,0.16329280621366934,-2.208127695673125
1589987330.4649885,-2.0272130998159317,-3.1865573800368137,8.72032785988956,0.5488888888888889,-0.16666666666666666,-0.8033333333333333,0.04247087258538638,0.1575266921942931,-2.174115149490449
1589987330.4749885,-1.9923733608594258,-3.19,8.771693236992009,0.5048222910374534,-0.1901688521874323,-0.7925614983029824,0.039917141940730885,0.15201381902952246,-2.1242737402949663
1589987330.4849885,-1.9230823569951756,-3.208250266274043,8.743499467451914,0.4988888888888889,-0.19333333333333333,-0.7911111111111111,0.039933506577888515,0.14698028991089465,-2.09294027406997
1589987330.4949884,-1.860057299843014,-3.213352433281005,8.70670486656201,0.4988888888888889,-0.19333333333333333,-0.7911111111111111,0.036009916708901454,0.14181425216779844,-2.0439449493053283
1589987330.5049884,-1.872917686343572,-3.294031516593097,8.738196143905952,0.4988888888888889,-0.19333333333333333,-0.7911111111111111,0.037148996621012405,0.1332173756238927,-1.9903554480701608
1589987330.5149884,-1.8032220468617215,-3.2432220468617214,8.78838897656914,0.4988888888888889,-0.19333333333333333,-0.7911111111111111,0.0444604589898988,0.1322955564779131,-1.9431725437009415
1589987330.5249884,-1.7727522911549534,-3.3147706203945804,8.803623854422524,0.4925127433114122,-0.1288634169388468,-0.7145973641813907,0.05216973195159819,0.13099476670369056,-1.886271601432424
1589987330.5349884,-1.738796992481203,-3.352531328320802,8.8137343358396,0.4888888888888889,-0.09222222222222222,-0.6711111111111111,0.041057886444941794,0.11707430225274619,-1.8286151391070413
1589987330.5449884,-1.72,-3.3534188902225095,8.7461961037762,0.4888888888888889,-0.09222222222222222,-0.6711111111111111,0.04076168044854821,0.11272851366680389,-1.7745436964963954
1589987330.5549884,-1.688663912625205,-3.391336087374795,8.704777318770867,0.4888888888888889,-0.09222222222222222,-0.6711111111111111,0.04705146817100071,0.112876695234441,-1.7254734279790116
1589987330.5649884,-1.5003795860188398,-3.3633604982647496,9.734958168071394,0.4888888888888889,-0.09222222222222222,-0.6711111111111111,0.04231478355871865,0.10673883314276474,-1.666440641565449
1589987330.5749884,-1.3267211759844146,-2.914259991735049,8.59938662258693,0.4957863182268401,-0.0034178194961003855,-0.6495566444300136,0.07722868140075033,0.18863078127554966,-1.5679287664953638
1589987330.5849884,-1.3473070884918823,-3.018456707935057,7.518952723515033,0.4977777777777778,0.022222222222222227,-0.6433333333333333,0.16912945315673616,0.18997290320346558,-1.5017183906661564
1589987330.5949883,-1.4461629625162087,-3.331490907994331,9.454074062905221,0.4977777777777778,0.022222222222222227,-0.6433333333333333,-0.06383835425645126,-0.029588912443304832,-1.5050363458739573
1589987330.6049883,-1.4841625410019763,-3.439568893506917,9.603879958437748,0.4977777777777778,0.022222222222222227,-0.6433333333333333,-0.1377630625928837,-0.035512528060581444,-1.4585926364326205
1589987330.6149883,-1.3817758474299524,-3.2375392419393463,8.488069797313479,0.4977777777777778,0.022222222222222227,-0.6433333333333333,0.030454680741270113,0.08419773068838021,-1.3546420314971372
1589987330.6249883,-1.3989514965175378,-3.386504988391793,8.67056346865784,0.529075526552467,0.07658147009405089,-0.6433333333333333,0.11916742792943275,0.13974071414696881,-1.2469032259330244
1589987330.6349883,-1.3679250054428833,-3.405352280149386,8.927427274706503,0.54,0.09555555555555556,-0.6433333333333333,0.01892840133345268,0.06556265497648117,-1.2141172225238943
1589987330.6449883,-1.3518585486838948,-3.3782302584206736,8.782565805264422,0.54,0.09555555555555556,-0.6433333333333333,-0.025948140511388613,0.018553810654776508,-1.1580083818265203
1589987330.6549883,-1.3370308399498538,-3.3395565399080653,8.539659339740911,0.54,0.09555555555555556,-0.6433333333333333,0.043037354158663346,0.05947061733244005,-1.0819330677132686
1589987330.6649883,-1.3400008576819715,-3.3757167362342044,8.635721024644061,0.54,0.09555555555555556,-0.6433333333333333,0.07137104534161856,0.07916285417417544,-1.014939391525284
1589987330.6749883,-1.332032708092756,-3.421475297275366,8.956852470272464,0.5316247585558781,0.1275337501603848,-0.6532313459491138,0.016541231202784654,0.03629779346334201,-0.9425349573666546
1589987330.6849883,-1.31,-3.4349622468421424,8.720201350175241,0.5277777777777778,0.14222222222222222,-0.6577777777777778,0.03297086267114491,0.04334336430976432,-0.8628993132098849
1589987330.6949883,-1.3314389475126764,-3.5500484217258235,8.782926316751176,0.5277777777777778,0.14222222222222222,-0.6577777777777778,0.04675139981867867,0.05251684238395229,-0.7867738728782012
1589987330.7049882,-1.3453119645015243,-3.59,8.861247858006097,0.5277777777777778,0.14222222222222222,-0.6577777777777778,0.03408986388474557,0.04417958131226067,-0.7287467612885111
1589987330.7149882,-1.3413202208982835,-3.581320220898283,8.80622187763541,0.5277777777777778,0.14222222222222222,-0.6577777777777778,0.022290024161400215,0.034103781776498664,-0.6615352316549032
1589987330.7249882,-1.296534198860038,-3.536534198860038,8.689920519316022,0.5374456758848779,0.16899486313419185,-0.6525719864893392,0.022907446432425576,0.033094313734172244,-0.5619304933032129
1589987330.7349882,-1.2921746188184822,-3.580873094092411,8.582603049452143,0.5422222222222223,0.18222222222222226,-0.65,0.020251356637953365,0.0258474848739735,-0.48646025300802404
1589987330.7449882,-1.3109629280288357,-3.6528887840865067,8.636937898974246,0.5422222222222223,0.18222222222222226,-0.65,0.019341369926449557,0.019928538243422854,-0.42737142777268383
1589987330.7549882,-1.3207755484312524,-3.6946259140520876,8.798489967940636,0.5422222222222223,0.18222222222222226,-0.65,0.0198872585571962,0.01770559699220329,-0.36820515448955077
1589987330.7649882,-1.252726659925851,-3.5823626558813615,8.628729356252107,0.5422222222222223,0.18222222222222226,-0.65,0.014894785133562157,0.011959431925792793,-0.2831987156371023
1589987330.7749882,-1.222654736122193,-3.5538926250997376,8.755928416733159,0.5516612839900199,0.19225122535050726,-0.6561943842851172,0.014180800172453925,0.008948716678020056,-0.2248567427953532
1589987330.7849882,-1.225959940679329,-3.6280801186413423,8.812120177962013,0.5777777777777777,0.22,-0.6733333333333333,0.01241799174441402,0.004341474159928852,-0.16059618640347625
1589987330.7949882,-1.2079047820269033,-3.6218571730403553,8.748357278681597,0.5777777777777777,0.22,-0.6733333333333333,0.010477168846771018,0.001090830782496456,-0.11648776728095271
1589987330.8049881,-1.1938967725731509,-3.566103227426849,8.624851605341371,0.5777777777777777,0.22,-0.6733333333333333,0.007956731327422244,-0.00042507194751808413,-0.06000414059453903
1589987330.8149881,-1.196879126187537,-3.528131876979228,8.79184611668724,0.5777777777777777,0.22,-0.6733333333333333,0.0004099617379120916,-0.00361292686978155,-0.019776409034778477
1589987330.8249881,-1.162832006874399,-3.5,8.789824048120794,0.6035297674661793,0.22476888697933362,-0.6704720011457331,-0.0018679391943573847,-0.008731444603123575,0.018881837388834914
1589987330.834988,-1.1699914578587698,-3.54998576309795,8.684984339407745,0.6377777777777778,0.2311111111111111,-0.6666666666666666,0.0027263004536909573,-0.010363668936266513,0.06217176378393668
1589987330.844988,-1.194057146509844,-3.605942853490156,8.698400025568908,0.6377777777777778,0.2311111111111111,-0.6666666666666666,-0.0010284936104463516,-0.012821933495818096,0.10450157501748442
1589987330.854988,-1.2018875710466896,-3.574337286859931,8.735381640756794,0.6377777777777778,0.2311111111111111,-0.6666666666666666,-0.007399253176508688,-0.016362461737446838,0.14398094366426917
1589987330.864988,-1.2003372808225465,-3.5065177637014595,8.717192325346552,0.6377777777777778,0.2311111111111111,-0.6666666666666666,-0.007145587531763895,-0.021105637922070094,0.17985184934154128
1589987330.874988,-1.2096432259213103,-3.5336620972049135,8.758037742567206,0.7861932625165667,0.2747627242695785,-0.7266876347595592,-0.0043827821373574,-0.0256442528923525,0.22535441480722013
1589987330.884988,-1.2236681322707703,-3.5530131904369333,8.724367042227719,0.94,0.32,-0.7888888888888889,-0.012251587446150885,-0.028542606112288302,0.2909516581066747
1589987330.894988,-1.2260738467305485,-3.5503692336527424,8.71896000749713,0.94,0.32,-0.7888888888888889,-0.017453292519943295,-0.03319347750263985,0.3592129304355438
1589987330.904988,-1.23,-3.574785930106607,8.707782908614105,0.94,0.32,-0.7888888888888889,-0.020063612461525233,-0.03490658503988659,0.424358173762569
1589987330.914988,-1.2546258882879386,-3.6257337925347435,8.692769760617011,0.94,0.32,-0.7888888888888889,-0.02252369390398554,-0.03567409009676666,0.48969825449491616
1589987330.924988,-1.2957592731934342,-3.671833458740908,8.751833458740908,1.1525075321956852,0.09948220605857927,-1.1017602888399645,-0.021354024115853132,-0.04078897887748738,0.590515010655415
1589987330.934988,-1.301119995818961,-3.642239991637922,8.744479983275843,1.4411111111111108,-0.2,-1.5266666666666666,-0.02072578486743266,-0.04581489286485115,0.6621342849753488
1589987330.944988,-1.317749235947232,-3.675498471894464,8.801993887577856,1.4411111111111108,-0.2,-1.5266666666666666,-0.021462345681301405,-0.04753353476387821,0.6699909336566153
1589987330.954988,-1.31,-3.6183220362429105,8.747577811592198,1.4411111111111108,-0.2,-1.5266666666666666,-0.020278527647994357,-0.05345070834232633,0.7094400352383275
1589987330.964988,-1.308147681141592,-3.540738405707959,8.75073840570796,1.4411111111111108,-0.2,-1.5266666666666666,-0.014382856815428958,-0.054460991557201494,0.7370398326372302
1589987330.974988,-1.3044610631478648,-3.5044610631478648,8.73676637888719,1.0946352066269485,-0.1306056843665483,-1.1935739516260984,-0.016731510456255805,-0.05939148875524377,0.7739019666643528
1589987330.984988,-1.3260165138045086,-3.477966972390983,8.75398348619549,0.6644444444444444,-0.04444444444444445,-0.78,-0.017961746426231842,-0.058830939284889264,0.7846030244946293
1589987330.994988,-1.350461655133188,-3.434307517300218,8.719076689733624,0.6644444444444444,-0.04444444444444445,-0.78,-0.020876861156486348,-0.06066700533609804,0.7909530348359664
1589987331.004988,-1.36,-3.415098506121532,8.67549253060766,0.6644444444444444,-0.04444444444444445,-0.78,-0.024532947255207105,-0.06273351534450937,0.7919646387943533
1589987331.014988,-1.379961626218627,-3.433288563921731,8.706557940952777,0.6644444444444444,-0.04444444444444445,-0.78,-0.02617784581481681,-0.06072570417910022,0.7919410551273289
1589987331.024988,-1.4187903167355223,-3.4715322171486553,8.81395158367761,0.6554390245866654,-0.02347660119349618,-0.7746236299356543,-0.026778128654552046,-0.05847381134329375,0.7941248096574199
1589987331.034988,-1.397247404345318,-3.380243943472409,8.761498269563544,0.59,0.1288888888888889,-0.7355555555555555,-0.019444908124007614,-0.061413395531880126,0.7955159020471056
1589987331.044988,-1.4041064740502942,-3.373749063670412,8.745178705189941,0.59,0.1288888888888889,-0.7355555555555555,-0.024563186318388226,-0.06153447064995992,0.7995009887210303
1589987331.054988,-1.43,-3.400459192294694,8.725688788442042,0.59,0.1288888888888889,-0.7355555555555555,-0.02243716620469798,-0.061757164483584155,0.8038421064818605
1589987331.064988,-1.4372393310022327,-3.397239331002233,8.738957324008933,0.59,0.1288888888888889,-0.7355555555555555,-0.022041932384418737,-0.060221009771794703,0.8053342597546892
1589987331.074988,-1.4549092134642119,-3.414909213464212,8.809636853856848,0.59,0.1288888888888889,-0.7355555555555555,-0.025254407669855598,-0.06343348505723155,0.8034067745834271
1589987331.0849879,-1.47,-3.443796512976198,8.743796512976198,0.5722222222222222,0.15555555555555556,-0.7644444444444445,-0.01953142025442161,-0.061397125311345335,0.7934555653211681
1589987331.0949879,-1.47,-3.479166824784433,8.779166824784433,0.5722222222222222,0.15555555555555556,-0.7644444444444445,-0.018566844631748597,-0.06429085217936435,0.777057779735727
1589987331.1049879,-1.4755616396812292,-3.513904099203073,8.670589018246762,0.5722222222222222,0.15555555555555556,-0.7644444444444445,-0.0143033309430452,-0.053328177571735066,0.7372671320441879
1589987331.1149879,-1.4896950449008475,-3.5492376122521185,8.748322746954662,0.5722222222222222,0.15555555555555556,-0.7644444444444445,-0.017386761638056327,-0.050244746876723936,0.7064328250940768
1589987331.1249878,-1.43,-3.602038244241634,8.75407648848327,0.5674069245255685,0.1317465836109904,-0.7719349075281279,-0.007635815477475192,-0.042845330056699125,0.6361141071574944
1589987331.1349878,-1.4160398406374501,-3.642326693227092,8.81603984063745,0.5522222222222222,0.05666666666666665,-0.7955555555555556,-0.0053515897432913784,-0.0395993303743076,0.5593589031309436
1589987331.1449878,-1.3782705427659216,-3.6045120147874306,8.67075348680894,0.5522222222222222,0.05666666666666665,-0.7955555555555556,0.002181661564992912,-0.03212627715451808,0.45636981681993943
1589987331.1549878,-3.4002339426783186,-5.848544059840476,7.170135862305843,0.5522222222222222,0.05666666666666665,-0.7955555555555556,-0.3320189498988719,0.5644524969620834,-0.13598142586876005
1589987331.1649878,-4.433326921170054,-7.3092971740208235,1.8118950917203769,0.5522222222222222,0.05666666666666665,-0.7955555555555556,-1.091542975476552,0.31304020385419884,-4.222568664204535
1589987331.1749878,0.21674137462646015,-1.552264330345015,0.04765688671556642,0.5435893024238583,0.09713347822149779,-0.7178592773702799,-0.8255290899966996,-1.457430233793982,-7.533655663054961
1589987331.1849878,-0.001224411627016364,-1.9008788355960333,0.4639483763884751,0.5344444444444445,0.14,-0.6355555555555555,-0.6759797859467735,-0.9342486321621691,-7.483011913533395
1589987331.1949878,-0.1535364591036829,-1.7630306167726668,0.11366661736429523,0.5344444444444445,0.14,-0.6355555555555555,-0.6059427049671372,-0.738583113747995,-7.1487231505522235
1589987331.2049878,-0.35136325207834296,-1.181363252078343,-0.2628512047343948,0.5344444444444445,0.14,-0.6355555555555555,-0.6249613479715465,-0.5639252387630819,-6.822147474473593
1589987331.2149878,0.527011580202502,-3.2517602716194096,5.153208302176593,0.5344444444444445,0.14,-0.6355555555555555,-0.3570257119075837,-0.13860850185337098,-6.5314672202729165
1589987331.2249877,0.7589634694979306,-4.197883750224942,7.270100773798813,0.5056847219722872,0.19154339871633375,-0.6504956711255073,0.6343199648574697,1.143966431741085,-6.13644412777016
1589987331.2349877,1.54047501680484,0.3074363816779233,4.911112640440447,0.4488888888888889,0.2933333333333333,-0.68,1.9643408451229405,2.8189354459696054,-5.622569931005794
1589987331.2449877,0.4979847522236338,2.016817662007624,12.483891359593391,0.4488888888888889,0.2933333333333333,-0.68,1.2853853730747469,3.3135633739061463,-5.027887528137046
1589987331.2549877,-1.856162977390572,0.9730579317242651,4.570036585686837,0.4488888888888889,0.2933333333333333,-0.68,0.07919773720361206,2.322278246167399,-4.2510360646988
1589987331.2649877,-0.7882534645511148,-0.7444531030327375,1.8060144607350872,0.4488888888888889,0.2933333333333333,-0.68,-0.09602325513718793,0.46648266550391815,-3.720751150072018
1589987331.2749877,0.8392847124824687,-0.7358625525946704,11.243772791023844,0.41649057191834193,0.3322113136979897,-0.668429172510519,0.3883740064923883,-0.4085872691829117,-3.401706072914453
1589987331.2849877,2.690204476659185,-0.7744284743529024,10.730574923295514,0.3711111111111111,0.38666666666666666,-0.6522222222222223,0.3952241001267865,-1.0108140329851463,-3.0226162210581498
1589987331.2949877,0.6128570635273212,-1.185590293203021,4.061802532207908,0.3711111111111111,0.38666666666666666,-0.6522222222222223,0.0004606106880332833,-0.6244696086877597,-2.6755435005141397
1589987331.3049877,0.5428751210067764,-1.7800232333010648,7.923091965150048,0.3711111111111111,0.38666666666666666,-0.6522222222222223,-0.1874585835828498,0.5695919184496799,-2.2757750235207084
1589987331.3149877,0.674487364761942,-1.8230480803030895,10.364629145022068,0.3711111111111111,0.38666666666666666,-0.6522222222222223,0.10480492368327382,0.9625673943551335,-1.9099147957238511
1589987331.3249876,0.3090033583563809,-1.4686932042670882,5.307432832872383,0.34410707230343734,0.40479794986610473,-0.652607994205189,0.07322821172845209,0.2139151057592068,-1.7489394234876452
1589987331.3349876,0.89,-2.82,10.21,0.2933333333333333,0.4388888888888889,-0.6533333333333333,-0.07417649320975901,-0.2945243112740431,-1.6449728200046556
1589987331.3449876,0.6221534808148981,-2.5577336166312543,8.725683872849228,0.2933333333333333,0.4388888888888889,-0.6533333333333333,0.08225899350834646,-0.000522987986708634,-1.2821885784327067
1589987331.3549876,0.3258923918151138,-2.017996283480713,6.500868255799052,0.2933333333333333,0.4388888888888889,-0.6533333333333333,0.12021440782372493,0.12852779282543825,-0.876049235003319
1589987331.3649876,0.2795930554019684,-2.248512661727303,7.777556120756386,0.2933333333333333,0.4388888888888889,-0.6533333333333333,-0.018591891630413724,0.018467283845572533,-0.6175127559202109
1589987331.3749876,0.35770823824737563,-3.1952538795070744,11.298329529895025,0.28416406765048935,0.46161272123332825,-0.6485493686292408,-0.023604213972409055,0.042633261593493954,-0.3158027928655373
1589987331.3849876,0.30473773883412436,-2.7542132165023734,9.103705732018986,0.2677777777777778,0.5022222222222222,-0.64,0.008255904388883357,0.0009154641689297256,-0.004625244650475729
1589987331.3949876,0.28591833349132617,-2.6447753341548963,8.483468338231113,0.2677777777777778,0.5022222222222222,-0.64,-0.03683888283276933,-0.017453292519943295,0.27319318718955343
1589987331.4049876,0.26,-2.51,7.68,0.2677777777777778,0.5022222222222222,-0.64,-0.01308996938995747,-0.017453292519943295,0.4134248665661568
1589987331.4149876,0.31228625798559195,-3.12996563040059,9.883492300821375,0.2677777777777778,0.5022222222222222,-0.64,-0.027756230458817862,-0.050859776065680845,0.5951235453637049
1589987331.4249876,0.29164133484068167,-3.0144680316543147,9.140729389105221,0.26394799648285394,0.5040459276007574,-0.6454711161356055,-0.02002619708132965,-0.054100557204419024,0.9409857197045142
1589987331.4349875,0.3,-3.19,9.45,0.24444444444444444,0.5133333333333333,-0.6733333333333333,-0.01090830782496456,-0.07963064712224129,1.1333731830138176
1589987331.4449875,0.2893951106024503,-3.2112097787950993,9.43939511060245,0.24444444444444444,0.5133333333333333,-0.6733333333333333,-0.021705238304794205,-0.08965636828208311,1.2914710936113232
1589987331.4549875,0.2654792534879507,-3.2364377604638523,9.316022830222867,0.24444444444444444,0.5133333333333333,-0.6733333333333333,-0.04588980224455149,-0.11021136372199224,1.626228971298028
1589987331.4649875,0.23752656930958024,-3.2124521752427553,9.004904350485512,0.24444444444444444,0.5133333333333333,-0.6733333333333333,-0.05564396295562318,-0.12298015733058669,1.8281350098583071
1589987331.4749875,0.20545760379233888,-3.2701763131737898,9.12035262634758,0.24444444444444444,0.5133333333333333,-0.6733333333333333,-0.041651237056013465,-0.13627324693521592,1.9456739074150289
1589987331.4849875,0.21093361526524906,-3.200674931364357,8.093307129580683,0.2855555555555556,0.5166666666666667,-0.6855555555555556,-0.1521530834992811,-0.20814866064120677,2.580814745872516
1589987331.4949875,0.5470898487458009,-2.907432259604727,7.292253977456816,0.2855555555555556,0.5166666666666667,-0.6855555555555556,-0.5008982676317647,-0.4453265934740367,4.169282743397654
1589987331.5049875,-0.42246703370484756,-3.169533234859675,9.849909493755876,0.2855555555555556,0.5166666666666667,-0.6855555555555556,0.019403927052553588,-0.43192864949025633,6.578704681119354
1589987331.5149875,0.0732160834742912,-4.708829199698384,8.082039984511606,0.2855555555555556,0.5166666666666667,-0.6855555555555556,0.2964236893346618,-0.15086826182528462,6.497023776118077
1589987331.5249875,2.570028998001489,-4.581715976331361,3.154990399310318,0.2959255195475267,0.5146297094539581,-0.690370181694685,-0.21288978248509655,-0.5010504796119932,5.192572913117936
1589987331.5349874,-1.0787605313687831,1.6228698224852076,4.363035581331557,0.3470597071463093,0.5045854940327686,-0.7141110545084055,-0.7193807159717261,-1.0622245050325774,0.5893323052350272
1589987331.5449874,-1.415935418427726,0.0750992392223161,11.723430938292477,0.3477777777777778,0.5044444444444445,-0.7144444444444444,0.36039828208411534,0.43917039097730615,-1.1869764601315216
1589987331.5549874,-2.8483083685545223,2.0463847844463228,9.851418765849536,0.3477777777777778,0.5044444444444445,-0.7144444444444444,0.6790816090532198,1.1631694056449802,-1.060895435141318
1589987331.5649874,-1.7608324675324674,-1.8227155844155845,10.33955064935065,0.3477777777777778,0.5044444444444445,-0.7144444444444444,-0.12104510027723464,-0.0409193293128083,-0.8106688876368356
1589987331.5749874,-1.1276021103896103,-2.2108245129870134,9.372682792207794,0.3477777777777778,0.5044444444444445,-0.7144444444444444,-0.1403563113692228,-0.3833219567515213,-0.672519454440305
1589987331.5849874,-1.2628858855807337,-2.4696890559902447,9.7387145615283,0.4,0.4133333333333333,-0.7144444444444444,-0.08932486394418951,0.07507910829581416,-0.33590349888300963
1589987331.5949874,-0.75,-2.21,7.83,0.4,0.4133333333333333,-0.7144444444444444,0.10471975511965977,0.0545415391248228,-0.18435040224190105
1589987331.6049874,-0.6909748688999053,-2.9281390950511508,9.187578015302176,0.4,0.4133333333333333,-0.7144444444444444,-0.02727242626732794,0.010544145329160232,-0.014799470053737995
1589987331.6149874,3.301958232081418,-10.734771311021822,7.975579000553377,0.4,0.4133333333333333,-0.7144444444444444,-0.05225681251440815,-0.047736437886636826,0.12374122679137131
1589987331.6249874,1.3345454545454547,-12.495454545454546,8.348181818181818,0.4,0.4133333333333333,-0.7144444444444444,-0.11423973285781065,-0.06002874851556255,-0.7866542715712321
1589987331.6349874,0.4337740673886884,0.408599578820698,9.735637785800241,0.4088888888888889,0.43,-0.7144444444444444,0.15169308139672888,0.1504670453547894,-0.6844123049815324
1589987331.6449873,0.7528713887065004,-2.56853947800394,6.602911195009849,0.4088888888888889,0.43,-0.7144444444444444,0.18283913963450282,-0.012316969309846309,0.43484629778782435
1589987331.6549873,2.3003486342406947,-5.4675840920885035,8.542792376279662,0.4088888888888889,0.43,-0.7144444444444444,-0.15047171049113953,-0.018393340918483783,0.36820283665501374
1589987331.6649873,0.7469045908553684,-5.7846805404278,9.716688836875159,0.4088888888888889,0.43,-0.7144444444444444,-0.17310987272697403,-0.08190374422616237,-0.16307150441020285
1589987331.6749873,-0.2517175143471316,-4.061994990829668,8.085382491569211,0.4059500003286857,0.43,-0.7125341668803123,0.08708429534339722,0.10763800228412966,-0.23322289979205768
1589987331.6849873,0.550631471000059,-4.5748366103299345,8.556865915948489,0.3875685802749127,0.43,-0.70058624384536,0.004073077425892857,-0.010562753663621138,0.10243115526567736
1589987331.6949873,-0.13017237480649146,-4.512629281104869,8.761551373258422,0.38666666666666666,0.43,-0.7,0.003521696074982514,-0.007156211196993674,-0.0051673438359795855
1589987331.7049873,-0.10099006801064515,-4.490742551007984,8.498910612095807,0.38666666666666666,0.43,-0.7,0.007500815894628098,0.003985324298013959,-0.007554815727766936
1589987331.7149873,-0.012240862690660392,-4.458094665741227,8.69621929542415,0.38666666666666666,0.43,-0.7,-0.006092704768705215,0.00011306998156838054,0.0008463905822644371
1589987331.7249873,-0.019341301146078446,-4.578802119483333,8.525808772494116,0.38666666666666666,0.43,-0.7,-0.018485307706931783,-0.0029850807529882622,7.185289862527647e-05
1589987331.7349873,-0.048143354477691636,-4.438443006343308,8.68964161380577,0.4133333333333333,0.43,-0.7,-0.0034423340083765586,-0.0056239955733694705,0.00047683803475694585
1589987331.7449872,-0.0968356903609974,-4.456139281726833,8.554398260141422,0.4133333333333333,0.43,-0.7,0.00017258631797871429,-0.0030619228307435064,-0.0008802612657505942
1589987331.7549872,-0.006840106611316839,-4.465650399792438,8.707509493596245,0.4133333333333333,0.43,-0.7,0.004334944085404991,-0.0018085916226338156,-0.0001865349711795482
1589987331.7649872,-0.040953075477519425,-4.57284464140465,8.568108434072869,0.4133333333333333,0.43,-0.7,-0.0006749731549281775,0.000519822034460348,-0.001090830782496456
1589987331.7749872,-0.046835189184640844,-4.466966594676465,8.679868594508177,0.4133333333333333,0.43,-0.7,0.001891583124220778,0.003728017383396542,-0.001090830782496456
1589987331.7849872,-0.0654120267260579,-4.502472160356348,8.655233853006683,0.38935906953724325,0.425718881464984,-0.7,-0.0017710816045432443,0.0037729625951380763,-0.0002502351238243541
1589987331.7949872,-0.04824845168660935,-4.4719958711642915,8.717006193253562,0.38222222222222224,0.4244444444444445,-0.7,0.004636593808245766,0.0024815837319158546,-0.0015818172311470266
1589987331.8049872,-0.06,-4.517445043454012,8.589368174001953,0.38222222222222224,0.4244444444444445,-0.7,0.006266282170148403,0.00199585988177269,-9.290084161011087e-05
1589987331.8149872,-0.059454210046436674,-4.49,8.69,0.38222222222222224,0.4244444444444445,-0.7,0.002498518520727925,0.0,-0.0009717578860716186
1589987331.8249872,-0.05056063272619325,-4.49,8.69,0.38222222222222224,0.4244444444444445,-0.7,-0.010113285758936098,0.0,0.0009685196954151546
1589987331.8349872,-0.05,-4.53655397081122,8.708621588324489,0.39360208175385386,0.4296171078679134,-0.7,-0.012939608001297398,0.0,-0.0019561194820028023
1589987331.8449872,-0.03,-4.537145956941854,8.620010849296492,0.3944444444444444,0.43,-0.7,-0.00701434334765419,0.00015566390111976887,-0.004051995327746286
1589987331.8549871,-0.03,-4.522925580606882,8.57023953212409,0.3944444444444444,0.43,-0.7,0.001517269987025201,0.00093126511336335,-0.0025007929032591237
1589987331.8649871,-0.04717830351990768,-4.473762261973456,8.665643392960185,0.3944444444444444,0.43,-0.7,0.0031698925681778144,0.0003077993379346607,0.0008856312238733489
1589987331.8749871,-0.02375649163300635,-4.504991344489325,8.712487016733988,0.3944444444444444,0.43,-0.7,0.0023182514552420354,0.0028627226767419978,-0.0008176510019982091
1589987331.884987,-0.03168764328826089,-4.510125859729565,8.693249426846956,0.4088888888888889,0.43,-0.7066666666666667,-0.0016293815903803562,0.0016431107571090115,0.0012749241073673077
1589987331.894987,-0.04296771207036223,-4.549613007753732,8.651096863788913,0.4088888888888889,0.43,-0.7066666666666667,0.0009289671984995857,0.003715868793998343,0.002181661564992912
1589987331.904987,-0.057593025430067314,-4.487593025430067,8.609627898279731,0.4088888888888889,0.43,-0.7066666666666667,0.0009189606837490596,-0.00026256019535687413,0.0019191013696360378
1589987331.914987,-0.04,-4.469220567748005,8.684676593511968,0.4088888888888889,0.43,-0.7066666666666667,0.0069556325227980945,-0.0022666844343275493,0.0
1589987331.924987,-0.04,-4.461631958893452,8.730208246639286,0.4088888888888889,0.43,-0.7066666666666667,0.00033332201490081023,-0.00309447324781471,0.0
1589987331.934987,-0.0394546179335775,-4.530545382066423,8.716727707601466,0.4011111111111111,0.4444444444444444,-0.7,-0.010967799779592079,-0.001090830782496456,-0.0021221696103653925
1589987331.944987,-0.03155109489051095,-4.536897810218978,8.656122262773723,0.4011111111111111,0.4444444444444444,-0.7,-0.011322345786204089,-0.001090830782496456,-0.001090830782496456
1589987331.954987,-0.04783584407516696,-4.504328311849666,8.615410389812082,0.4011111111111111,0.4444444444444444,-0.7,-0.004216783507861359,-0.001090830782496456,-0.001090830782496456
1589987331.964987,-0.03912113433565579,-4.507363403006967,8.674394328321721,0.4011111111111111,0.4444444444444444,-0.7,0.005550023284516866,0.000899092038427283,-0.0012825695265656289
1589987331.974987,-0.03057633541131891,-4.481729006233957,8.717118322943406,0.4011111111111111,0.4444444444444444,-0.7,0.006482116254207793,-0.0009650939009545713,-0.003146755465947484
1589987331.984987,-0.03,-4.5114503387138924,8.72,0.4107209368292448,0.42435117248834664,-0.6886429332422056,0.002256609996347021,-0.001090830782496456,0.00015820741141600331
1589987331.994987,-0.04057475172228684,-4.492299006889148,8.63655148966628,0.4133333333333333,0.4188888888888889,-0.6855555555555556,-0.0001253913741926677,0.002181661564992912,0.0008400480341111205
1589987332.004987,-0.04807998568488861,-4.522319942739554,8.591520085890668,0.4133333333333333,0.4188888888888889,-0.6855555555555556,-0.0017627794214414413,0.002181661564992912,-0.0024347280603864265
1589987332.014987,-0.04093612936327976,-4.48280838808984,8.68093612936328,0.4133333333333333,0.4188888888888889,-0.6855555555555556,-0.00010211587258643729,-0.002181661564992912,-0.0008865990373235814
1589987332.024987,-0.047878150912792336,-4.5036344527383765,8.687878150912791,0.4133333333333333,0.4188888888888889,-0.6855555555555556,-0.000859372952482643,-0.002181661564992912,0.0006279151224688299
1589987332.034987,-0.030126245393749147,-4.500063122696875,8.709873754606251,0.3868349938583322,0.4244093762795142,-0.7142620899868067,-0.004342666275738331,-0.0032656067294068703,6.885618082497821e-06
1589987332.044987,-0.04899313501144165,-4.502013729977117,8.677917620137299,0.38666666666666666,0.4244444444444445,-0.7144444444444444,-0.00839715046297043,-0.0027233326858206717,0.0
1589987332.054987,-0.03949052374159364,-4.52,8.574075810067251,0.38666666666666666,0.4244444444444445,-0.7144444444444444,-0.00523185295823397,0.0021260863264308343,0.0
1589987332.064987,-0.03000616054377066,-4.519987678912458,8.650043123806395,0.38666666666666666,0.4244444444444445,-0.7144444444444444,-0.0010881427381836733,0.0010915027935746516,-1.3440221563913045e-06
1589987332.074987,-0.03861921678953529,-4.502761566420929,8.710334517526748,0.38666666666666666,0.4244444444444445,-0.7144444444444444,0.0026700120155176924,0.002031041481999993,-0.001880421399007074
1589987332.084987,-0.04,-4.490179298421728,8.739641403156545,0.4008521245019488,0.4364475241512216,-0.7002589866091622,0.005415037064947551,0.002181661564992912,-0.002181661564992912
1589987332.094987,-0.05918296456916696,-4.499182964569167,8.730195574830004,0.4011111111111111,0.43666666666666665,-0.7,0.002826868648317904,0.002181661564992912,-0.0030942428678207823
1589987332.104987,-0.05035304519904844,-4.490353045199049,8.62423654238858,0.4011111111111111,0.43666666666666665,-0.7,-0.0019891052796255984,0.002181661564992912,-0.0011678532966433812
1589987332.114987,-0.05893089248424052,-4.528396338726361,8.605345537578797,0.4011111111111111,0.43666666666666665,-0.7,0.0,0.0009742092436975804,-0.002181661564992912
1589987332.124987,-0.0425593785983333,-4.5038390678975,8.687203107008333,0.4011111111111111,0.43666666666666665,-0.7,0.0,-0.0008116458865839965,-0.002181661564992912
1589987332.1349869,-0.03190585113683151,-4.5,8.732376595452674,0.3957150118689987,0.43127056742455433,-0.7,0.0,-0.0019737654563017444,-0.002181661564992912
1589987332.1449869,-0.04032864909934166,-4.500657298198683,8.695727561708559,0.3944444444444444,0.43,-0.7,-0.005525854023322604,0.0011266808379166177,-0.00010755016626048541
1589987332.1549869,-0.04761434105160764,-4.515228682103215,8.601013566329101,0.3944444444444444,0.43,-0.7,-0.007115345433986289,0.0019214265432484605,-0.0024917872822560138
1589987332.1649868,-0.030593327102044134,-4.528220018693868,8.606526598122485,0.3944444444444444,0.43,-0.7,-0.0060272091213794095,-0.0008319429956967931,0.0
1589987332.1749868,-0.0362750436867558,-4.511174868939733,8.669025480554314,0.3944444444444444,0.43,-0.7,-0.0010689760429601148,0.0016471735435128543,0.0
1589987332.1849868,-0.03464643095396931,-4.489292861907939,8.715353569046032,0.4021773775109332,0.42702579497442744,-0.7077329330664888,0.003349629147319004,0.00444045992981546,-0.0017519513734891381
1589987332.1949868,-0.046800068557717026,-4.48,8.736800068557717,0.4088888888888889,0.4244444444444445,-0.7144444444444444,0.0034470215334453953,0.003621550719401423,-0.0005235875578680819
1589987332.2049868,-0.03024421257990907,-4.510732637739727,8.611465275479453,0.4088888888888889,0.4244444444444445,-0.7144444444444444,0.0010375518625689174,0.0,0.0021283826450653734
1589987332.2149868,-0.03755020989740285,-4.532650629692209,8.655301259384418,0.4088888888888889,0.4244444444444445,-0.7144444444444444,-0.0005563694915828308,0.0,0.0005344612909136252
