time,acc_x,acc_y,acc_z,mag_x,mag_y,mag_z,gyr_x,gyr_y,gyr_z
1589987357.247453,-3.83,-0.84,8.91,0.31222222222222223,-0.38222222222222224,-0.68,-0.004363323129985824,0.003272492347489368,-0.001090830782496456
1589987357.257453,-3.83693123791582,-0.84,8.923862475831639,0.31222222222222223,-0.38222222222222224,-0.68,-0.007387646201738925,0.004028573115427643,-0.0003347500145581807
1589987357.267453,-3.8310640006117143,-0.8489359993882857,8.867448004282,0.31222222222222223,-0.38222222222222224,-0.68,-0.0058023472984381945,0.010211921053052728,-0.001949532641022302
1589987357.277453,-3.837704414889431,-0.8422955851105689,8.93704414889431,0.31222222222222223,-0.38222222222222224,-0.68,-0.002932890035727663,0.005865780071455326,0.0011800236040132432
1589987357.287453,-3.8315331263808488,-0.8145993791425455,8.951533126380848,0.31222222222222223,-0.38222222222222224,-0.68,0.0005891163475903755,0.0062105084050413486,0.0031052542025206747
1589987357.297453,-3.814861532073905,-0.794861532073905,8.995415403778285,0.31810940419348144,-0.3763350402509631,-0.6631794800821166,0.00026515544181546615,0.006544984694978735,0.001621141666127388
1589987357.307453,-3.8056079440263515,-0.781401986006588,8.993176167920945,0.32,-0.3744444444444445,-0.6577777777777778,-0.0027933933620390835,0.005301220963220736,0.0013763965433538873
1589987357.317453,-3.8386856426172353,-0.7926287147655288,8.89,0.32,-0.3744444444444445,-0.6577777777777778,-0.007548603739603307,0.003789826533057497,0.01110784438555684
1589987357.327453,-3.829070604878467,-0.8093029536588503,8.890929395121534,0.32,-0.3744444444444445,-0.6577777777777778,-0.014130109532070414,-5.069064038351088e-05,0.01996444324742903
1589987357.337453,-3.793109701204613,-0.7823322759034596,8.926890298795387,0.32,-0.3744444444444445,-0.6577777777777778,-0.012168746497378907,-0.002012053675075021,0.03271330297292384
1589987357.3474529,-3.765869364659573,-0.7913768784468089,8.927246243106381,0.31222222222222223,-0.37666666666666665,-0.6644444444444444,-0.00906650634570055,0.0012410249218499669,0.041301375595511815
1589987357.3574529,-3.740072575189126,-0.7999758082702914,8.910048383459417,0.31222222222222223,-0.37666666666666665,-0.6644444444444444,-0.004376517671709852,0.0021790226566481066,0.04036337786071368
1589987357.3674529,-3.7103072248480755,-0.8303072248480756,8.84276502363268,0.31222222222222223,-0.37666666666666665,-0.6644444444444444,0.00671254985569308,0.003306005379632237,0.02928486596668997
1589987357.3774529,-3.718636851094253,-0.8386368510942527,8.917731659848274,0.31222222222222223,-0.37666666666666665,-0.6644444444444444,0.011255656213703252,0.004214626651234271,0.024741759608679793
1589987357.3874528,-3.697397187454695,-0.8286985937273473,8.969554921954284,0.31222222222222223,-0.37666666666666665,-0.6644444444444444,0.012615534699846415,0.005596115314756621,0.01845071238345344
1589987357.3974528,-3.6978140274190343,-0.8378140274190343,8.994061990860322,0.31222222222222223,-0.36940909994039345,-0.6684031172042298,0.01308996938995747,0.004601775748086877,0.009646645963039588
1589987357.4074528,-3.775272904984824,-0.8744773393693092,9.006318226246206,0.31222222222222223,-0.3644444444444445,-0.6711111111111111,0.010419905864191996,0.0006024288217238907,-0.0032452482328280156
1589987357.4174528,-3.8375683309037902,-0.8516818513119533,8.898738611516036,0.31222222222222223,-0.3644444444444445,-0.6711111111111111,0.010770711686265002,0.0011366961620629752,-0.022321134825160828
1589987357.4274528,-3.9522084548104957,-0.8771574344023324,8.87963192419825,0.31222222222222223,-0.3644444444444445,-0.6711111111111111,0.00868649541848763,0.0018314349179887656,-0.029963261140344526
1589987357.4374528,-4.053574541188301,-0.8725701835246794,8.904859632950641,0.31222222222222223,-0.3644444444444445,-0.6711111111111111,0.005734517443020839,0.00028036353053855954,-0.04142094639520754
1589987357.4474528,-4.032059574468085,-0.8472399345335515,8.896199672667757,0.3055555555555556,-0.37666666666666665,-0.6711111111111111,-0.00015053821862537017,0.004550924600730059,-0.031708219196634954
1589987357.4574528,-3.917842517945886,-0.8305393705135284,8.808921258972944,0.3055555555555556,-0.37666666666666665,-0.6711111111111111,-0.001031994586563682,-0.001090830782496456,-0.01801459753904478
1589987357.4674528,-3.880786305908338,-0.8398034235229155,8.790393152954168,0.3055555555555556,-0.37666666666666665,-0.6711111111111111,-2.144316723184654e-05,-0.001090830782496456,-0.008919634765058266
1589987357.4774528,-3.816801812267658,-0.8094669687112764,8.863731219021066,0.3055555555555556,-0.37666666666666665,-0.6711111111111111,0.0001162893875547066,-0.0021235168712155587,-0.003039913572379955
1589987357.4874527,-3.7680762081784382,-0.8013460346964065,8.920577757125155,0.3055555555555556,-0.37666666666666665,-0.6711111111111111,0.0018880023487632279,-0.0012376603906112979,0.0005035123500370877
1589987357.4974527,-3.7893588730911008,-0.7702137089696331,8.999572582060734,0.32666666666666666,-0.3744444444444445,-0.6644444444444444,-0.002181661564992912,-0.002158349532735769,-0.006754792985293022
1589987357.5074527,-3.7617502632964714,-0.7794165789011761,8.981166842197648,0.32666666666666666,-0.3744444444444445,-0.6644444444444444,-0.002181661564992912,-0.0011544721518719622,-0.01578968941306728
1589987357.5174527,-3.7498602121428397,-0.7698951591071297,8.87024462875003,0.32666666666666666,-0.3744444444444445,-0.6644444444444444,-0.008722834137531402,-0.0010870186600562104,-0.021835676262130347
1589987357.5274527,-3.710418022167842,-0.74,8.940836044335684,0.32666666666666666,-0.3744444444444445,-0.6644444444444444,-0.007658615049897602,4.5599144844820906e-05,-0.027521564859057913
1589987357.5374527,-3.722493162516194,-0.74,8.964986325032388,0.32666666666666666,-0.3744444444444445,-0.6644444444444444,-0.008317211789644958,0.0013627926243395339,-0.03476612899627884
1589987357.5474527,-3.7648772803868416,-0.7632515202578943,8.974187119935527,0.3143950309750002,-0.3789655733834795,-0.6644444444444444,-0.006824385707185316,0.004083922117779244,-0.044342602977302636
1589987357.5574527,-3.8178060782794914,-0.8008545587096186,8.956096960860254,0.3055555555555556,-0.38222222222222224,-0.6644444444444444,-0.003179274452899123,0.006212447065676665,-0.051029727042621605
1589987357.5674527,-3.899098901772175,-0.8484981696202919,8.810901098227825,0.3055555555555556,-0.38222222222222224,-0.6644444444444444,0.0033707869159858017,0.005323094487820369,-0.041025626604714115
1589987357.5774527,-3.879825692710647,-0.8163761545177447,8.830174307289353,0.3055555555555556,-0.38222222222222224,-0.6644444444444444,0.005473167888166274,0.002519919858246404,-0.03191530905859873
1589987357.5874527,-3.829848977997657,-0.7732326519984377,8.880151022002345,0.3055555555555556,-0.38222222222222224,-0.6644444444444444,0.006544984694978735,-0.00109906775494598,-0.014861344516904263
1589987357.5974526,-3.7344919854513554,-0.7193418383199605,8.934849852868606,0.3055555555555556,-0.37447781047364326,-0.660572238570155,0.004644220081251383,-0.0015480733604171279,0.0014107650132408976
1589987357.6074526,-3.632436731484129,-0.6764104947097512,8.980384257935373,0.3055555555555556,-0.3688888888888889,-0.6577777777777778,-0.00043347032488608465,0.000391554286453725,0.010950223863396918
1589987357.6174526,-3.6556081561684977,-0.7286390579309255,8.924845491187861,0.3055555555555556,-0.3688888888888889,-0.6577777777777778,-0.002181661564992912,0.0018015562208036388,0.013420589484075379
1589987357.6274526,-3.696989585517579,-0.8109687565527364,8.89849479275879,0.3055555555555556,-0.3688888888888889,-0.6577777777777778,0.0005982528646717301,0.002181661564992912,0.020667267175004757
1589987357.6374526,-3.6765278672847845,-0.827824044238405,8.97824044238405,0.3055555555555556,-0.3688888888888889,-0.6577777777777778,0.00023735995260982493,0.00047471990521964985,0.03803256141777511
1589987357.6474526,-3.63,-0.849283229615446,8.989283229615447,0.32,-0.3688888888888889,-0.6711111111111111,0.002259849084938246,-0.00011728127991800097,0.06463267248709956
1589987357.6574526,-3.63,-0.8358978777724588,8.975897877772459,0.32,-0.3688888888888889,-0.6711111111111111,0.003719964467425843,-0.0023074543536493967,0.06974307632580615
1589987357.6674526,-3.638683197631384,-0.8560495928941525,8.874484826054774,0.32,-0.3688888888888889,-0.6711111111111111,0.00531051305666724,-0.0023253024208079523,0.07199483164476607
1589987357.6774526,-3.7478395566225675,-0.8698035960565971,8.879607192113195,0.32,-0.3688888888888889,-0.6711111111111111,0.008662373219791351,-0.0011122551292232215,0.06771720590168734
1589987357.6874526,-3.6103561132779376,-0.7769040755186253,8.887757993706781,0.32,-0.3688888888888889,-0.6711111111111111,0.010419177929125797,-0.001090830782496456,0.0634001793418949
1589987357.6974525,-3.730356373042104,-0.7685026584279351,8.988680844948988,0.31109131260877204,-0.3661477543069726,-0.6669994092382366,0.003507775722187914,-0.0004180551367894881,0.10254389334471606
1589987357.7074525,-3.8775561912545977,-0.7443328565590519,8.96083214139763,0.3055555555555556,-0.3644444444444445,-0.6644444444444444,-0.001090830782496456,0.0,0.12762720155208535
1589987357.7174525,-3.847095087418213,-0.6710739568808324,8.89301056526869,0.3055555555555556,-0.3644444444444445,-0.6644444444444444,0.002721314496084758,-0.007624290557162428,0.18099723545222235
1589987357.7274525,-3.7267773976382297,-0.5906765257697826,8.915424346098664,0.3055555555555556,-0.3644444444444445,-0.6644444444444444,-0.00857905123300546,-0.016455039694817965,0.30382652998419857
1589987357.7374525,-3.630068923130954,-0.5480275692523816,8.93598621537381,0.3055555555555556,-0.3644444444444445,-0.6644444444444444,-0.011780220616233017,-0.016581379728674836,0.33836142387055523
1589987357.7474525,-3.390344885317261,-0.5033908142195435,9.013218371560912,0.3055555555555556,-0.38681672464361233,-0.6451229297269813,-0.011000777938174678,-0.020355904414592188,0.3505077510581779
1589987357.7574525,-2.8959630810470522,-0.6343104603700018,9.012099384684117,0.3055555555555556,-0.3888888888888889,-0.6433333333333333,-0.00229007343773701,-0.015554844235096132,0.33918198382174025
1589987357.7674525,-2.313618779806578,-0.7961053371587088,8.979974919724118,0.3055555555555556,-0.3888888888888889,-0.6433333333333333,0.0170311865421674,0.006780660187136722,0.28357223010993177
1589987357.7774525,-2.053970990119823,-1.1584829374255483,8.820758531287225,0.3055555555555556,-0.3888888888888889,-0.6433333333333333,0.0587393763992901,0.03431584257597209,0.17756146922919144
1589987357.7874525,-2.10033903549485,-1.0703810281571853,8.671398134641736,0.3055555555555556,-0.3888888888888889,-0.6433333333333333,0.0689858012340473,0.04837096547285715,0.10115597917772842
1589987357.7974524,-2.1277644767741566,-0.9922355232258434,8.711057907096627,0.28186958652334676,-0.3711244121147323,-0.6492548255913856,0.01930834214178366,0.012512970576946718,0.023075079114104814
1589987357.8074524,-2.0867958723411157,-0.9838279817630166,8.892816510635537,0.2788888888888889,-0.3688888888888889,-0.65,-0.0010485483244077054,-0.002463125747071363,-0.0069460397390520325
1589987357.8174524,-2.140418326693227,-0.9215139442231076,8.926892430278885,0.2788888888888889,-0.3688888888888889,-0.65,-0.0010451984190852515,0.0008431122382641931,-0.036675382364492394
1589987357.8274524,-2.202701930448115,-0.8672980695518852,8.883649034775944,0.2788888888888889,-0.3688888888888889,-0.65,0.00842430923146873,0.011497777605958184,-0.06662118437376847
1589987357.8374524,-2.2245025632298825,-0.86,8.901753844844825,0.2788888888888889,-0.3688888888888889,-0.65,0.0042805322037781845,0.010716993030518936,-0.10047054795802852
1589987357.8474524,-2.290990910523827,-0.8523761361845216,8.932871591446435,0.30430176827381683,-0.38413661651984565,-0.65,0.002181661564992912,0.011480746108765044,-0.138708679408538
1589987357.8574524,-2.318387853445858,-0.85,8.93161214655414,0.31222222222222223,-0.3888888888888889,-0.65,0.011331390302803881,0.015659030102585403,-0.18203112484070325
1589987357.8674524,-2.3062571858482195,-0.8637428141517806,8.854414522165207,0.31222222222222223,-0.3888888888888889,-0.65,0.014589077861446486,0.022358895623402895,-0.22019500327315616
1589987357.8774524,-2.2519607843137255,-0.87,8.82,0.31222222222222223,-0.3888888888888889,-0.65,0.011778120605778727,0.02072222006095392,-0.2694637217284546
1589987357.8874524,-2.282371035688737,-0.8770618392814562,8.869432874970194,0.31222222222222223,-0.3888888888888889,-0.65,0.012448962158815566,0.023486589919563726,-0.3120562448813185
1589987357.8974524,-2.3,-0.88,8.907813709412922,0.31222222222222223,-0.3948267920265297,-0.6371345432017783,0.016976317905569967,0.027032282255224735,-0.3659934762514684
1589987357.9074523,-2.3327446199512347,-0.88,8.901813845012192,0.31222222222222223,-0.3955555555555556,-0.6355555555555555,0.014774379564646686,0.029949682517708007,-0.4137450733335407
1589987357.9174523,-2.34,-0.8718100424362842,8.867240169745136,0.31222222222222223,-0.3955555555555556,-0.6355555555555555,0.01507418595423801,0.03233003347346893,-0.46165793222534046
1589987357.9274523,-2.3596152318256625,-0.87,8.918845695476987,0.31222222222222223,-0.3955555555555556,-0.6355555555555555,0.013845171042867924,0.03272492347489368,-0.5072360249701164
1589987357.9374523,-2.37,-0.8784157323367148,8.954207866168357,0.31222222222222223,-0.3955555555555556,-0.6355555555555555,0.012630962395450508,0.034101944458414565,-0.5493626106766294
1589987357.9474523,-2.386145354580989,-0.89,8.96,0.31805248915424594,-0.390173770695226,-0.6413858224875792,0.014200619828868858,0.039519785776635584,-0.602336788502193
1589987357.9574523,-2.4502575368998727,-0.9050965763374523,8.924774655212612,0.32666666666666666,-0.38222222222222224,-0.65,0.019649000543836698,0.048017624118194796,-0.6606630846936848
1589987357.9674523,-2.4696746343203713,-0.9301626828398145,8.849349268640742,0.32666666666666666,-0.38222222222222224,-0.65,0.022925192377370934,0.053486200232217056,-0.714401268740037
1589987357.9774523,-2.4441200793567925,-0.957639761929623,8.815879920643209,0.32666666666666666,-0.38222222222222224,-0.65,0.02271547752767257,0.05499097006369452,-0.7719107247479523
1589987357.9874523,-2.4504492215061857,-0.9752246107530927,8.882695329037114,0.32666666666666666,-0.38222222222222224,-0.65,0.023526365520739806,0.05568137237202992,-0.8192501435606873
1589987357.9974523,-2.430387957577831,-0.9948060212110845,8.92025863838522,0.32666666666666666,-0.3756417683506291,-0.6538385980917627,0.02778091861464289,0.059415011307040105,-0.8669001283013352
1589987358.0074522,-2.413273479269646,-1.016636739634823,8.9,0.32666666666666666,-0.3688888888888889,-0.6577777777777778,0.02909534993208493,0.06579713454683758,-0.921614900833737
1589987358.0174522,-2.4953094570061065,-1.02,8.869876217197557,0.32666666666666666,-0.3688888888888889,-0.6577777777777778,0.03082609656236849,0.06845300725393381,-0.973991085426365
1589987358.0274522,-2.52,-1.0657183671492907,8.89047891143286,0.32666666666666666,-0.3688888888888889,-0.6577777777777778,0.02747817584140381,0.06622878918668068,-1.0201895455549421
1589987358.0374522,-2.539351184139164,-1.0864503947130548,8.970954341843601,0.32666666666666666,-0.3688888888888889,-0.6577777777777778,0.02477268095746446,0.06896799150591357,-1.0617947615530614
1589987358.0474522,-2.55,-1.1119742282041223,8.973376286326463,0.35515177730164,-0.3688888888888889,-0.6846351678050383,0.029591315609142327,0.07649703925648993,-1.1107918632845395
1589987358.0574522,-2.55,-1.1353569024350612,8.936964646347409,0.3655555555555556,-0.3688888888888889,-0.6944444444444444,0.034984449072389116,0.07937740543474281,-1.1601563844637621
1589987358.0674522,-2.572255097775094,-1.162255097775094,8.848397974824655,0.3655555555555556,-0.3688888888888889,-0.6944444444444444,0.03114210667827485,0.08124908350361068,-1.211203951744744
1589987358.0774522,-2.566797858672377,-1.1898032119914346,8.833202141327623,0.3655555555555556,-0.3688888888888889,-0.6944444444444444,0.03377282177391629,0.0825323737949862,-1.2530855079458478
1589987358.0874522,-2.551484566389025,-1.2127731504164625,8.848515433610975,0.3655555555555556,-0.3688888888888889,-0.6944444444444444,0.03831964009967216,0.08476091889156195,-1.2884453877564839
1589987358.0974522,-2.555110942790946,-1.2451109427909464,8.869066565674567,0.3692493415711202,-0.36318031050119803,-0.6873926711420028,0.042110908996821614,0.08924448038558534,-1.329819539712348
1589987358.1074522,-2.5993263071982398,-1.3219683823920796,8.87601053920264,0.37777777777777777,-0.35,-0.6711111111111111,0.0426158890019724,0.09432011844363813,-1.3790868182839686
1589987358.1174521,-2.61,-1.3891377989272895,8.826508851877243,0.37777777777777777,-0.35,-0.6711111111111111,0.04092966723038745,0.0943803755727138,-1.4178495073732194
1589987358.1274521,-2.6430334775677524,-1.4364267820542018,8.8164267820542,0.37777777777777777,-0.35,-0.6711111111111111,0.04324345368707369,0.09669416202940004,-1.459685858425471
1589987358.1374521,-2.6541069949880147,-1.479465025059926,8.877144040095882,0.37777777777777777,-0.35,-0.6711111111111111,0.04536688920920263,0.0994604246783769,-1.4863157495052215
1589987358.147452,-2.6359322274785293,-1.4906214849856863,8.92406777252147,0.39966097947784346,-0.3338481130309039,-0.6888260839159261,0.04581489286485115,0.10086795063325987,-1.507873243744028
1589987358.157452,-2.6262198581560283,-1.5173191489361701,8.915120567375887,0.4244444444444445,-0.31555555555555553,-0.7088888888888889,0.043779449043043935,0.10212574404610614,-1.5362231801005817
1589987358.167452,-2.604595159187648,-1.5450809681624704,8.859352254700237,0.4244444444444445,-0.31555555555555553,-0.7088888888888889,0.04254240051736178,0.10198384590701615,-1.553466685864588
1589987358.177452,-2.584119654142918,-1.5664786165716724,8.824119654142919,0.4244444444444445,-0.31555555555555553,-0.7088888888888889,0.04299178507259519,0.10369418554833744,-1.5690677717466297
1589987358.187452,-2.59,-1.6292402704796198,8.852423011702639,0.4244444444444445,-0.31555555555555553,-0.7088888888888889,0.041798752944744395,0.10751290946969064,-1.5910091811830096
1589987358.197452,-2.5769056025997563,-1.6665471987001217,8.889641596100365,0.4339015092335094,-0.3075534238109621,-0.7030691567110028,0.0446458704810971,0.10870643605527051,-1.609870755961625
1589987358.207452,-2.587781849577897,-1.717418265541059,8.85258173445894,0.4388888888888889,-0.3033333333333333,-0.7,0.048845422536276786,0.1090830782496456,-1.6213394855440388
1589987358.217452,-2.580851614493468,-1.788296771013064,8.800851614493467,0.4388888888888889,-0.3033333333333333,-0.7,0.04808945116027357,0.1069943134150822,-1.6343891802028274
1589987358.227452,-2.5964654209292646,-1.8298490656969486,8.82308177616158,0.4388888888888889,-0.3033333333333333,-0.7,0.048349188438416,0.1101409802753614,-1.6452925252564468
1589987358.237452,-2.5882686787501026,-1.857385056999918,8.853038792749938,0.4388888888888889,-0.3033333333333333,-0.7,0.05098380074543711,0.11330377836368327,-1.651564039535064
1589987358.247452,-2.566898620275945,-1.9006958608278344,8.883797240551889,0.45421915616876624,-0.28761980937145903,-0.7130307271878957,0.051569401503887634,0.11491349352981561,-1.660772525609561
1589987358.257452,-2.546315009954839,-1.9602109940270966,8.903263001990968,0.4833333333333333,-0.2577777777777778,-0.7377777777777778,0.04358719954392227,0.11636295542561129,-1.679615530254905
1589987358.267452,-2.5243506094539687,-1.9982469527301556,8.826557922901596,0.4833333333333333,-0.2577777777777778,-0.7377777777777778,0.04391658137884741,0.11856765246010734,-1.6928702689284654
1589987358.277452,-2.5081843971631206,-2.02,8.77590780141844,0.4833333333333333,-0.2577777777777778,-0.7377777777777778,0.04774821635808423,0.12128026840343221,-1.7098254177600547
1589987358.287452,-2.4670851720232747,-2.0693722419650875,8.796457413988362,0.4833333333333333,-0.2577777777777778,-0.7377777777777778,0.04609534291587491,0.1227714560988962,-1.7271405954574046
1589987358.297452,-2.429082473030971,-2.124556702625372,8.828195878281715,0.4902073317953146,-0.23634707669042432,-0.7426300119862351,0.044030203782743305,0.12127901600767417,-1.7434512246095628
1589987358.307452,-2.415903940967121,-2.170663793384922,8.85704802951644,0.5022222222222222,-0.1988888888888889,-0.7511111111111111,0.04633411221859893,0.12102982478210572,-1.7631245710922698
1589987358.317452,-2.406490809354249,-2.2356727937638343,8.802981618708497,0.5022222222222222,-0.1988888888888889,-0.7511111111111111,0.05231526173050056,0.1295728506288472,-1.784229300187983
1589987358.327452,-2.3452472483649704,-2.26,8.763003668846707,0.5022222222222222,-0.1988888888888889,-0.7511111111111111,0.05473233445948659,0.13449983569090534,-1.8022577338479113
1589987358.337452,-2.275140912085499,-2.2550201302979285,8.760201302979285,0.5022222222222222,-0.1988888888888889,-0.7511111111111111,0.055623586407862795,0.13853990112677814,-1.820018222472375
1589987358.347452,-2.2642983924983255,-2.3180354989953114,8.778035498995312,0.5092417578328496,-0.17999013916796905,-0.7619103966659224,0.047211857671370386,0.1353242438343651,-1.839364673955049
1589987358.357452,-2.276968835750686,-2.429093492747942,8.85,0.5166666666666667,-0.16,-0.7733333333333333,0.04310481336984256,0.13450283497405952,-1.8582472354439452
1589987358.367452,-2.27,-2.4822674892329184,8.733837038761495,0.5166666666666667,-0.16,-0.7733333333333333,0.05324143034259282,0.14371062595655418,-1.8648640153637817
1589987358.377452,-2.234109650399767,-2.5179451748001163,8.67,0.5166666666666667,-0.16,-0.7733333333333333,0.05215566590699147,0.14378545163669376,-1.8703264986652857
1589987358.387452,-2.1977695678760703,-2.5544608642478597,8.727075349911672,0.5166666666666667,-0.16,-0.7733333333333333,0.04552969672060286,0.1402724598805756,-1.8774035641610871
1589987358.3974519,-2.174346696510652,-2.581520044765978,8.81,0.5242044046524642,-0.1433541619480306,-0.7811851437352056,0.040052399078920095,0.13993468003299514,-1.8841731012448284
1589987358.4074519,-2.1373473048239404,-2.6053053903521195,8.770357783441895,0.5433333333333333,-0.10111111111111112,-0.8011111111111111,0.04297644675055565,0.14627697881306767,-1.8824845664334204
1589987358.4174519,-2.1053962778592528,-2.64,8.705924648338256,0.5433333333333333,-0.10111111111111112,-0.8011111111111111,0.04209784861314897,0.1500036416628392,-1.8800612627022182
1589987358.4274518,-2.085226301828843,-2.6734158871981015,8.698642189026945,0.5433333333333333,-0.10111111111111112,-0.8011111111111111,0.039220536769665054,0.15256819534888175,-1.8795014382413937
1589987358.4374518,-2.0510483669907753,-2.7244758165046123,8.744475816504613,0.5433333333333333,-0.10111111111111112,-0.8011111111111111,0.03825531678636868,0.1549360908139931,-1.8758169494508934
1589987358.4474518,-2.035723119520074,-2.7635846792801106,8.771792339640054,0.5433333333333333,-0.10678890427113778,-0.8181444905911911,0.03556863425314885,0.1538071403320003,-1.866720243933108
1589987358.4574518,-2.0233685795549605,-2.815699180190731,8.73766939936423,0.5433333333333333,-0.11555555555555555,-0.8444444444444444,0.0309107169370847,0.15494881693280083,-1.852496432069558
1589987358.4674518,-1.9858839963739578,-2.858812025382295,8.69,0.5433333333333333,-0.11555555555555555,-0.8444444444444444,0.02412786514310376,0.15643778824260857,-1.8377967878541925
1589987358.4774518,-1.9808352890975036,-2.903341156390015,8.690835289097503,0.5433333333333333,-0.11555555555555555,-0.8444444444444444,0.020090533614856586,0.15707963267948966,-1.8232286969028733
1589987358.4874518,-1.9842885399925825,-2.951422920014835,8.688577079985164,0.5433333333333333,-0.11555555555555555,-0.8444444444444444,0.02415457253905522,0.15427602630439988,-1.7983153896795043
1589987358.4974518,-1.9434806629834254,-2.9590055248618783,8.673259668508287,0.5451135666052793,-0.11623081645181092,-0.8451810926949048,0.018501936476597345,0.1452130812389619,-1.7824235252886151
1589987358.5074518,-1.6303726501414073,-2.75406754283813,9.194440192979538,0.5755555555555556,-0.12777777777777774,-0.8577777777777778,-0.05647912027017543,0.10793308745465639,-1.7493080350431125
1589987358.5174518,-1.834221513944223,-2.975999203187251,8.96654701195219,0.5755555555555556,-0.12777777777777774,-0.8577777777777778,0.026762990006128987,0.13636632065805607,-1.6764852263946228
1589987358.5274518,-1.814177984925172,-2.9342875869351492,7.963520372865309,0.5755555555555556,-0.12777777777777774,-0.8577777777777778,0.12460434950128571,0.17948350875687427,-1.6009197084221707
1589987358.5374517,-1.8355222569844667,-3.0350214062242715,8.450214062242713,0.5755555555555556,-0.12777777777777774,-0.8577777777777778,0.009670847447740966,0.12298929968734301,-1.588915978675606
1589987358.5474517,-1.7615081948044355,-3.105344259739247,9.069049168826613,0.5516867070722818,-0.14738433188903827,-0.8552204011545699,-0.03805747950621758,0.06086477775365416,-1.5664902311991902
1589987358.5574517,-1.7876746781754596,-3.1338373390877297,8.976621028350324,0.5133333333333333,-0.17888888888888888,-0.8511111111111112,0.01990232491591644,0.10846205389389886,-1.5047367379864802
1589987358.5674517,-1.7684434994528997,-3.1715565005471005,8.6815565005471,0.5133333333333333,-0.17888888888888888,-0.8511111111111112,0.039404810723372735,0.11133684337128516,-1.4383057430596935
1589987358.5774517,-1.7745990517886714,-3.2883962071546855,8.933690991992378,0.5133333333333333,-0.17888888888888888,-0.8511111111111112,0.004794899467293192,0.08383639453317583,-1.3991332691746294
1589987358.5874517,-1.7947831583786684,-3.359566316757337,8.931722090261282,0.5133333333333333,-0.17888888888888888,-0.8511111111111112,0.016412527451853048,0.08617701092287561,-1.3534330187425647
1589987358.5974517,-1.776776241000379,-3.3792895035998485,8.751420992800304,0.48959349080038733,-0.13760220622289587,-0.780923750578923,0.04094490591082401,0.09571895443888828,-1.296676214049225
1589987358.6074517,-1.7406358576488445,-3.39,8.767456569404622,0.4622222222222222,-0.09,-0.7,0.02912457475121799,0.08141509100138332,-1.2487175453231563
1589987358.6174517,-1.7324329268292682,-3.4094634146341463,8.788103658536587,0.4622222222222222,-0.09,-0.7,0.01795480862360325,0.07060934352285139,-1.2141511978798434
1589987358.6274517,-1.7399549856527976,-3.469639885222382,8.72040512912482,0.4622222222222222,-0.09,-0.7,0.02287798461107623,0.07307093151658788,-1.177227377973796
1589987358.6374516,-1.664401431649424,-3.4306914296906994,8.75063996866041,0.4622222222222222,-0.09,-0.7,0.028107748469047414,0.07432733976786843,-1.1122077948366844
1589987358.6474516,-1.5822466568136897,-3.400816966114069,9.587124948806068,0.4622222222222222,-0.09,-0.7,0.027293048857048474,0.06780974287187687,-1.0722875138487362
1589987358.6574516,-1.4722148779276354,-3.2058057922286327,7.788020670156268,0.5066666666666667,0.012222222222222223,-0.6555555555555556,0.11024692838532792,0.12782462887859303,-0.9809642882754436
1589987358.6674516,-1.526631679389313,-3.3477282124681933,8.288404898218829,0.5066666666666667,0.012222222222222223,-0.6555555555555556,0.01630295872243471,0.04064003881875235,-0.9671994772936111
1589987358.6774516,-1.5763244480726912,-3.4204424291900333,9.016188329665649,0.5066666666666667,0.012222222222222223,-0.6555555555555556,-0.06952607878097959,-0.009305165233211593,-0.9379709272975553
1589987358.6874516,-1.5195832581634494,-3.3443748872451744,8.258228396175356,0.5066666666666667,0.012222222222222223,-0.6555555555555556,0.05122358729496707,0.06592707311748605,-0.8642676101829231
1589987358.6974516,-1.5466707982647288,-3.4133044121468985,8.776410507586814,0.5155445379607232,0.034046989153444444,-0.6577750233790697,0.029846688133796692,0.05310918176579495,-0.8115889186757963
1589987358.7074516,-1.5280587661885532,-3.4570146915471383,9.019837418186881,0.5333333333333333,0.07777777777777778,-0.6622222222222223,-0.001073095857854145,0.02819963149351712,-0.7726321317102722
1589987358.7174516,-1.5598273065309076,-3.580532305158344,8.761409997254873,0.5333333333333333,0.07777777777777778,-0.6622222222222223,0.024150532376173373,0.04217827302998506,-0.6972119631116889
1589987358.7274516,-1.5498258290073101,-3.5846952007627926,8.674404915774977,0.5333333333333333,0.07777777777777778,-0.6622222222222223,0.02130761521572768,0.031630926174393156,-0.6456831607337881
1589987358.7374516,-1.5120553359683795,-3.5204347826086955,8.569249011857709,0.5333333333333333,0.07777777777777778,-0.6622222222222223,0.032612822287759656,0.028538375293849966,-0.5935757858746525
1589987358.7474515,-1.5680553112135394,-3.611666373456247,8.736388937757292,0.5293210419525468,0.09182079761053055,-0.6598148473937503,0.030149356124715126,0.024301296427047203,-0.5366284098139105
1589987358.7574515,-1.5599654947505734,-3.634987060531465,8.755021565780892,0.5222222222222223,0.11666666666666667,-0.6555555555555556,0.028906545243803178,0.020723902898021045,-0.4744878657683131
1589987358.7674515,-1.524524075869441,-3.5973796206527955,8.707614786088945,0.5222222222222223,0.11666666666666667,-0.6555555555555556,0.02836160034490785,0.01854412330243975,-0.42256561471986903
1589987358.7774515,-1.4987187254571974,-3.5521249859755413,8.67809379557949,0.5222222222222223,0.11666666666666667,-0.6555555555555556,0.02446187723782078,0.015619330972124446,-0.37173806999813114
1589987358.7874515,-1.4627350657155962,-3.5546155914403657,8.747264934284404,0.5222222222222223,0.11666666666666667,-0.6555555555555556,0.020828351634825416,0.01289418676987792,-0.33177093684017833
1589987358.7974515,-1.4693687823240071,-3.6143190409160644,8.740631217675993,0.5222222222222223,0.11666666666666667,-0.6555555555555556,0.02372285654635048,0.015065065453521721,-0.29776050412975885
1589987358.8074515,-1.491723624432105,-3.667355123674912,8.768276375567895,0.5422222222222223,0.1511111111111111,-0.6555555555555556,0.01109632608376487,0.004125058375020545,-0.2169634894058785
1589987358.8174515,-1.517849066584382,-3.721773599876573,8.718603733662471,0.5422222222222223,0.1511111111111111,-0.6555555555555556,0.01137756870113581,0.0028855528792497884,-0.16138530197296258
1589987358.8274515,-1.5273456653374686,-3.732036996012406,8.675308669325062,0.5422222222222223,0.1511111111111111,-0.6555555555555556,0.009305732251358962,-0.0016699167738837713,-0.11815980208905377
1589987358.8374515,-1.5168967107728675,-3.706276052927441,8.69,0.5422222222222223,0.1511111111111111,-0.6555555555555556,0.011179120898240223,-0.003272492347489368,-0.07985649239537945
1589987358.8474514,-1.476163943735803,-3.6541092958238686,8.700273239559671,0.5479295775331509,0.15499211272254257,-0.6587516745296755,0.012806230446467382,-0.00461725626120737,-0.023730024904505126
1589987358.8574514,-1.4943167353051292,-3.6832609509546987,8.732422313740173,0.57,0.17,-0.6711111111111111,0.0034791416832973825,-0.010644074385700163,0.025604097745351106
1589987358.8674514,-1.4577788764044943,-3.723705168539326,8.679631460674157,0.57,0.17,-0.6711111111111111,0.007029558692920082,-0.014180800172453925,0.09514240792764864
1589987358.8774514,-1.4478465065887274,-3.688230240116909,8.665693013177455,0.57,0.17,-0.6711111111111111,0.007056662910044283,-0.016748563449067444,0.15552835471769508
1589987358.8874514,-1.4739910912266243,-3.6490133631600634,8.72497772806656,0.57,0.17,-0.6711111111111111,-5.381269180738382e-05,-0.020344237042664717,0.2095374176587018
1589987358.8974514,-1.4890439758661442,-3.599043975866144,8.773565963799216,0.5861297021970655,0.1681739959776907,-0.6732414491371386,-0.003974336821840512,-0.02142762934178381,0.25590827735004484
1589987358.9074514,-1.46,-3.581727805924026,8.73,0.6288888888888889,0.16333333333333333,-0.6788888888888889,-0.007447341088664445,-0.02617993877991494,0.31195866233576064
1589987358.9174514,-1.4667163792657034,-3.6067163792657038,8.70985086220289,0.6288888888888889,0.16333333333333333,-0.6788888888888889,-0.006553118899974826,-0.02874419041739755,0.36010430550376793
1589987358.9274514,-1.5094240624929447,-3.5979319531302916,8.692068046869709,0.6288888888888889,0.16333333333333333,-0.6788888888888889,-0.011936313571311998,-0.035019379499142765,0.41373753871784164
1589987358.9374514,-1.5541009619453299,-3.5678653840728933,8.728033653981777,0.6288888888888889,0.16333333333333333,-0.6788888888888889,-0.01723879744337156,-0.038589712140881666,0.4560165635633504
1589987358.9474514,-1.5363530706084798,-3.5915292391886937,8.722117690202827,0.6288888888888889,0.16333333333333333,-0.6788888888888889,-0.01659346590355028,-0.0431070329196306,0.4857018143951291
1589987358.9574513,-1.53,-3.542869783217814,8.742139065034657,0.8011111111111111,0.18666666666666668,-0.7288888888888889,-0.013634419586589126,-0.04394434569793347,0.5444743264970697
1589987358.9674513,-1.537223300133661,-3.4319417496658478,8.748330099599016,0.8011111111111111,0.18666666666666668,-0.7288888888888889,-0.0223016644948343,-0.0495724340572457,0.6075652081700555
1589987358.9774513,-1.5525795771253745,-3.3845225372477525,8.730636617002997,0.8011111111111111,0.18666666666666668,-0.7288888888888889,-0.025651884424254947,-0.05264126577324811,0.6526987507158218
1589987358.9874513,-1.5538222915780016,-3.3369111457890006,8.765289166312005,0.8011111111111111,0.18666666666666668,-0.7288888888888889,-0.025586060934410536,-0.05496694610752711,0.696737766895268
1589987358.9974513,-1.532609139126887,-3.3280239976262007,8.656364563628946,0.8835162930817766,0.1876855870001525,-0.8017416927331248,-0.01923838949480086,-0.06189274167475557,0.7496079410930047
1589987359.0074513,-1.618172174622603,-3.382473202032566,8.835269092392714,1.4427009796042845,0.19459977168667503,-1.296105897819484,-0.03875384620515515,-0.05255926237849917,0.7954268394564451
1589987359.0174513,-1.6595276941390658,-3.4395276941390662,8.66635179609271,1.52,0.1955555555555556,-1.3644444444444443,-0.027617206297514872,-0.05575406769768495,0.8572570899466498
1589987359.0274513,-1.7035823821861213,-3.4835823821861216,8.69572158812408,1.52,0.1955555555555556,-1.3644444444444443,-0.029219079958681768,-0.06136062551176908,0.8868917526782374
1589987359.0374513,-1.7262818616622808,-3.4488455849868425,8.618290851116958,1.52,0.1955555555555556,-1.3644444444444443,-0.023562435200617488,-0.06669686091456475,0.9425734671810827
1589987359.0474513,-1.6837953152131542,-3.321385945639463,8.688223182961835,1.4761430242035507,0.16174913671245933,-1.334363057199444,-0.028969425683295975,-0.07131800552864821,0.9711417628551243
1589987359.0574512,-1.7367434486813371,-3.470460692088023,8.770921384176045,0.8266666666666667,-0.3388888888888889,-0.8888888888888888,-0.020750911722976058,-0.076738516272613,1.0178742130116205
1589987359.0674512,-1.7222402358142963,-3.419653647752395,8.674480471628593,0.8266666666666667,-0.3388888888888889,-0.8888888888888888,-0.020519194218131566,-0.0769602419199913,1.0446782706716573
1589987359.0774512,-1.7099105472684542,-3.3999105472684543,8.666338673317666,0.8266666666666667,-0.3388888888888889,-0.8888888888888888,-0.025819581112187743,-0.0807312356840526,1.0700366931738192
1589987359.0874512,-1.73,-3.4293281347722524,8.74,0.8266666666666667,-0.3388888888888889,-0.8888888888888888,-0.025699632990589395,-0.07915034133291574,1.089039778542999
1589987359.0974512,-1.73,-3.4572346937417664,8.74,0.8266666666666667,-0.3388888888888889,-0.8888888888888888,-0.027526113004039295,-0.08097682134636565,1.0999986586236987
1589987359.1074512,-1.712097313456319,-3.4789513432718406,8.748951343271841,0.6436614264423728,-0.02658646807134396,-0.7774943948393187,-0.03129092058059269,-0.08474162892291903,1.1098937830617177
1589987359.1174512,-1.696395864456617,-3.4631979322283084,8.708020677716915,0.6222222222222222,0.01,-0.7644444444444445,-0.03049895200189725,-0.08006810722974597,1.078881592769529
1589987359.1274512,-1.71,-3.47489694910246,8.649793898204921,0.6222222222222222,0.01,-0.7644444444444445,-0.03138948776957326,-0.07715941619794417,1.0450185891094221
1589987359.1374512,-1.708912976153608,-3.489184732115206,8.681630535769587,0.6222222222222222,0.01,-0.7644444444444445,-0.027300413539235204,-0.07939349530765086,1.0028468680929838
1589987359.1474512,-1.67247451505796,-3.4591751616473467,8.74247451505796,0.6207558429286163,0.016598706821226772,-0.7642611470327437,-0.027821744905513087,-0.07054409723600646,0.9308264245151227
1589987359.1574512,-1.69690685617755,-3.451031047940817,8.766906856177549,0.6062774185614519,0.08175161647346653,-0.7624513439868482,-0.02249143494917257,-0.06699055726511279,0.8588672401045258
1589987359.1674511,-1.719327649290054,-3.4416595616125676,8.75134470141989,0.6044444444444445,0.09,-0.7622222222222222,-0.020290382603840793,-0.058215087816868696,0.7333799508381714
1589987359.1774511,-1.7474858178644557,-3.4768572723305695,8.695028364271089,0.6044444444444445,0.09,-0.7622222222222222,-0.015683013044888543,-0.0528398233314244,0.6619657226744116
1589987359.1874511,-1.7570168117324432,-3.5676610627558523,8.729355748976591,0.6044444444444445,0.09,-0.7622222222222222,-0.014506215531677266,-0.03908504658024701,0.5256811130774963
1589987359.197451,-1.7725835780791102,-3.557881022308317,8.763178466537523,0.6036203975643456,0.08517343970227804,-0.7637525949995487,-0.011536849388758836,-0.03432872351650887,0.42723856874578847
1589987359.207451,-1.7187923300202304,-3.5224153399595393,8.79,0.5966666666666667,0.04444444444444445,-0.7766666666666666,-0.00635702291268385,-0.02465695900943678,0.2813251532632324
1589987359.217451,-1.744751855625091,-3.4633685053121814,8.759112938436909,0.5966666666666667,0.04444444444444445,-0.7766666666666666,-0.0022357982695237364,-0.011794101792500431,0.1429794025291747
1589987359.227451,-1.7654232158211522,-3.4136154772141016,8.672654170249356,0.5966666666666667,0.04444444444444445,-0.7766666666666666,0.0022739929340633773,-0.004677910098557889,-0.009444849997523829
1589987359.237451,-1.787061908856406,-3.4280412725709373,8.72314445399828,0.5966666666666667,0.04444444444444445,-0.7766666666666666,0.006994823425232648,0.007124166129365289,-0.12982602752234026
1589987359.247451,-1.8255003799314071,-3.448200151972563,8.72089992401372,0.5928169917190926,0.04204464707452817,-0.7730669706117922,0.0176987087239613,0.02126570051627227,-0.3171584283495336
1589987359.257451,-1.7393627420779167,-3.4137450968311667,8.738127451584417,0.5191214571111065,-0.003895426447333289,-0.704156860329,0.022396788069067256,0.03160147507550538,-0.4581008087027122
1589987359.267451,-10.846633811977785,-10.559813378696152,-0.5782858858257868,0.5111111111111111,-0.008888888888888889,-0.6966666666666667,-0.23344673808456776,0.6783425120707115,-0.8503508683250331
1589987359.277451,5.732012341885594,0.5370287294515287,-2.7832905720284735,0.5111111111111111,-0.008888888888888889,-0.6966666666666667,-0.6867493421702751,1.3419445870227897,-2.097416827117259
1589987359.287451,1.4899314974921447,0.15444622260387594,-0.9769673490895606,0.5111111111111111,-0.008888888888888889,-0.6966666666666667,-0.005377491962643881,-1.1867206393548346,-3.42709948858533
1589987359.297451,0.046816590443147774,-0.332879671976029,0.053830941491878254,0.5135065271863883,0.01566412588270339,-0.693472778566297,0.028146874752302254,-0.7445201356636622,-3.3853811366787476
1589987359.307451,-0.3568489316819482,-0.5168328494747175,0.003295808183128305,0.5244444444444445,0.12777777777777774,-0.6788888888888889,0.07598811209279724,-0.6131504032665251,-3.1987753660917218
1589987359.317451,-0.13735309259395456,-0.2511752592483636,-0.02353092593954549,0.5244444444444445,0.12777777777777774,-0.6788888888888889,0.08212240831101955,-0.47550578970559093,-3.0320915184741044
1589987359.327451,1.0824852514280365,-0.5628176795580111,1.91965071635921,0.5244444444444445,0.12777777777777774,-0.6788888888888889,0.06496873327008343,-0.43284183835969425,-2.843058448767882
1589987359.337451,5.756347036239348,-2.4166519337016577,10.081234572525519,0.5244444444444445,0.12777777777777774,-0.6788888888888889,0.02212510042969682,-0.3745744976967684,-2.6802526439744137
1589987359.347451,3.685948440194862,3.6724294229780026,5.153599503767134,0.5236469081263175,0.12890532912409516,-0.6792464051694286,0.5710978895390811,0.33613840486055335,-2.527665933398384
1589987359.357451,-1.1206459384837242,0.535185797442977,15.866221268663278,0.4922222222222222,0.17333333333333334,-0.6933333333333334,0.6947076205135649,3.2294421216290896,-2.101155345027615
1589987359.367451,2.633814255315407,-1.5153838172449572,17.275065860049594,0.4922222222222222,0.17333333333333334,-0.6933333333333334,-0.7286529784282814,0.4760560449874851,-1.5226385159494982
1589987359.377451,2.179092444796856,-0.8368996604209402,13.193445434643959,0.4922222222222222,0.17333333333333334,-0.6933333333333334,0.03967560628862413,-0.10352917329341202,-1.2046194775613746
1589987359.387451,1.072912967783083,0.07407167359040212,5.204371433988934,0.4922222222222222,0.17333333333333334,-0.6933333333333334,1.0034219795760613,0.40910187632756523,-1.1525677094460138
1589987359.397451,0.6072237629543132,-1.6128763684133702,7.835669829222011,0.4909434470231434,0.17751841580304578,-0.6910082875168264,0.4520657518066276,-0.025301924290497563,-1.039223866368596
1589987359.407451,0.06002168813349268,-2.809869871199044,12.708546452441022,0.48,0.21333333333333332,-0.6711111111111111,-0.6450359119916393,-0.04817399005705934,-0.8310213775031037
1589987359.417451,0.0494858934169279,-2.9266708463949844,10.651065830721002,0.48,0.21333333333333332,-0.6711111111111111,-0.38014119152430415,0.1951376586257986,-0.7105322924894093
1589987359.427451,0.14220296506537033,-2.600636492647725,7.539437784957275,0.48,0.21333333333333332,-0.6711111111111111,0.3956857493072267,0.1821833975112996,-0.6675363659548582
1589987359.437451,-0.40389675736116293,-2.729068207230712,9.785978382407752,0.48,0.21333333333333332,-0.6711111111111111,0.08775882043706393,0.07655351228164328,-0.6719196428855704
1589987359.4474509,-0.6288329467115366,-3.0117848858104357,11.121864932858497,0.48,0.21681837488156303,-0.670457665820818,-0.249828119602768,-0.07494905957928806,-0.6972775903098523
1589987359.4574509,-0.25,-2.2,7.09,0.48,0.2488888888888889,-0.6644444444444444,0.01090830782496456,0.02836160034490785,-0.6392268385429232
1589987359.4674509,-0.30991506943647423,-2.3298159837790275,7.149915069436474,0.48,0.2488888888888889,-0.6644444444444444,0.11874769125155037,0.10570095613569164,-0.6032803774007279
1589987359.4774508,-0.48095638321248074,-2.7717346004541126,8.705269354720574,0.48,0.2488888888888889,-0.6644444444444444,0.036119158545947744,0.05703773435150128,-0.5874044466185983
1589987359.4874508,-0.58,-2.8991029954197236,8.668805480118358,0.48,0.2488888888888889,-0.6644444444444444,-0.020381349222519718,0.003052212709112427,-0.5624711457857049
1589987359.4974508,-0.5794607393542349,-2.7962251754796443,8.628770238652317,0.48005991784952945,0.24990749233088963,-0.6647440336920917,0.06894630416116448,0.0565838887866061,-0.4723937187820762
1589987359.5074508,-0.5716099204492279,-2.741269443144595,7.88294244267665,0.48093223106119687,0.26473681692923623,-0.6691055997504289,-0.0389590239491089,0.006913182196162791,-0.44156362503628377
1589987359.5174508,-0.6738131019594819,-2.986072318166722,8.78197276652275,0.4811111111111111,0.2677777777777778,-0.67,0.00836889288975734,0.03522996691541828,-0.36805091605140394
1589987359.5274508,-0.6898591622402547,-2.8819717286364344,8.46,0.4811111111111111,0.2677777777777778,-0.67,-0.019204789626665726,0.006544984694978735,-0.2548550212990872
1589987359.5374508,-0.6826022111874319,-2.9835690433759536,8.46,0.4811111111111111,0.2677777777777778,-0.67,0.0029603060407039986,0.006544984694978735,-0.17806879702284215
1589987359.5474508,-0.6813279953129577,-2.9861087784396054,8.615139146567717,0.48046186895810955,0.2685450639585978,-0.67,0.012481549760075646,0.008031309540106706,-0.043526076161962385
1589987359.5574508,-0.7222839566448589,-3.174506200566351,9.082037105751391,0.46043895452918004,0.29220850828369627,-0.67,-0.006282380045904744,-0.013413181666728028,0.02706204072720194
1589987359.5674508,-0.6545925548746113,-2.9053085162487045,8.260617032497409,0.4566666666666666,0.2966666666666667,-0.67,0.009461061092566963,-0.0028496215953302644,0.1357756315206495
1589987359.5774508,-0.7232402844205205,-3.134134281401735,8.71826856280347,0.4566666666666666,0.2966666666666667,-0.67,-0.012171821907059689,-0.01283402913361949,0.19235394090428842
1589987359.5874507,-0.47452985615233356,-3.529843112904895,8.38474924971541,0.4566666666666666,0.2966666666666667,-0.67,0.010504803162959453,-0.01351228108998016,0.280034041629672
1589987359.5974507,1.5481792404015318,-7.471087446962642,7.490590292869709,0.4566666666666666,0.2966666666666667,-0.67,0.006716934756853784,-0.027716787612876416,0.3283293638075192
1589987359.6074507,-6.600531921831185,-21.21902310718866,6.24442145077495,0.4755555555555556,0.3033333333333333,-0.7066666666666667,-0.2096830578985379,0.1083351016784857,-0.5365105243469669
1589987359.6174507,-0.35225877013097096,-3.558962622699806,12.307532059169333,0.4755555555555556,0.3033333333333333,-0.7066666666666667,-0.5478407024088847,-0.30672268838059025,-4.014668551991734
1589987359.6274507,1.1843834059480962,-2.1058538548967607,9.57089789732904,0.4755555555555556,0.3033333333333333,-0.7066666666666667,0.5363862300677079,0.6009284805968815,-4.63040407908312
1589987359.6374507,0.15225120499007655,-1.200269350722994,2.9179160759852567,0.4755555555555556,0.3033333333333333,-0.7066666666666667,0.9655841095899265,0.7014954307638308,-4.253615615288812
1589987359.6474507,0.350450808052169,-2.7382982704848313,7.206955486248937,0.4755555555555556,0.3033333333333333,-0.7066666666666667,0.3031404826954811,0.09872361882462943,-3.995037750482756
1589987359.6574507,-0.43806256367231966,-3.0032797986456523,9.095085395817103,0.4621298016419968,0.3385759373564251,-0.7175750917214332,0.1480075708352481,0.22379975132373806,-3.320383590695469
1589987359.6674507,-0.25992614360388006,-2.5613231737445714,7.246101214469612,0.4577777777777778,0.35,-0.7211111111111111,0.11890055529211367,0.28361600344907856,-3.1099585608973963
1589987359.6774507,-0.40727279058430255,-2.9283334494045548,8.369975160758642,0.4577777777777778,0.35,-0.7211111111111111,0.16762985061668853,0.2810955226564282,-2.8621112829534376
1589987359.6874506,-0.4165410919650021,-3.043270545982501,8.738595881251673,0.4577777777777778,0.35,-0.7211111111111111,0.15211952637697615,0.22224836345505403,-2.443599156088388
1589987359.6974506,-5.582249220651663,-8.315423410342914,6.6707857539394455,0.4577777777777778,0.35,-0.7211111111111111,0.02723089463608365,0.17737643600889397,-1.8129820488751518
1589987359.7074506,-5.866310717756777,-16.642519489650326,8.232443392129696,0.4266666666666667,0.41,-0.7211111111111111,-0.19476252518457743,-0.20143461820395012,1.6726682689678416
1589987359.7174506,1.9252879406925367,0.7712822835591873,13.578841951526131,0.4266666666666667,0.41,-0.7211111111111111,0.31479929228663994,-0.15970566495850724,3.027345537928322
1589987359.7274506,10.261004603353607,-10.580800687729939,4.963975707603852,0.4266666666666667,0.41,-0.7211111111111111,0.18961392142056552,-0.025215975987521927,2.8336465519260847
1589987359.7374506,0.871869472400122,-4.215855981917012,12.865049961430135,0.4266666666666667,0.41,-0.7211111111111111,-0.3350977253415685,-0.460684435579005,0.1687040654436476
1589987359.7474506,-0.7910125038121378,-0.5364474463161288,9.178117072995711,0.4266666666666667,0.41,-0.7211111111111111,-0.001040440791557129,0.18773142386696295,-0.35413251995772144
1589987359.7574506,-0.7190851922853492,-1.9402471825258512,7.019461484837922,0.3944444444444444,0.4155555555555556,-0.7211111111111111,0.1766759476294411,0.3041635159975349,-0.2961905308973126
1589987359.7674506,-0.4571546415708145,-2.610302079702568,7.531139769954688,0.3944444444444444,0.4155555555555556,-0.7211111111111111,-0.008711057531466143,-0.0446829990901938,-0.2430329666934683
1589987359.7774506,0.8771937935898442,-7.2519300995219815,9.821962620484287,0.3944444444444444,0.4155555555555556,-0.7211111111111111,-0.2828657741282902,-0.19377684367473588,-0.36491341367863955
1589987359.7874506,0.5197540113899655,-6.146352179467746,9.489723262813712,0.3944444444444444,0.4155555555555556,-0.7211111111111111,0.08793377297489907,0.10814653833723142,-0.818347814878766
1589987359.7974505,-3.8215135720920643,-7.578179894725978,7.146051708122613,0.3944444444444444,0.4155555555555556,-0.7211111111111111,0.15470714046362136,0.13029883066434056,-0.8732912710725468
1589987359.8074505,-0.39,-7.51,8.51,0.4133333333333333,0.4044444444444445,-0.72,-0.1090830782496456,-0.025089107997418484,0.09381144729469522
1589987359.8174505,0.5023872180451128,-5.606240601503759,8.660714285714286,0.4133333333333333,0.4044444444444445,-0.72,-0.05370496213373529,-0.051912882991062545,0.15914031865018316
1589987359.8274505,0.5414210967767703,-3.612185565363262,8.726416902983585,0.4133333333333333,0.4044444444444445,-0.72,0.0013437473736372454,-0.02566987942892697,0.06602639221258944
1589987359.8374505,-0.1353853281853282,-5.361286486486486,8.642050965250966,0.4133333333333333,0.4044444444444445,-0.72,-0.0506260041369027,-0.017984809295043883,-0.07691797418637134
1589987359.8474505,0.010362548262548288,-4.454410810810811,8.7068277992278,0.4133333333333333,0.4044444444444445,-0.72,0.004135933346406738,-0.00031966817139567755,0.008757960263322456
1589987359.8574505,-0.04208186912337354,-4.600631588944819,8.695836261753252,0.3944444444444444,0.4222222222222222,-0.72,0.013272413402492017,-0.0037955813987596313,0.001090830782496456
1589987359.8674505,-0.06,-4.52,8.66,0.3944444444444444,0.4222222222222222,-0.72,0.00545415391248228,0.001090830782496456,0.001090830782496456
1589987359.8774505,-0.04092940006629102,-4.472323500165727,8.602788200198873,0.3944444444444444,0.4222222222222222,-0.72,0.002333734295227585,0.0016109007187055718,0.001090830782496456
1589987359.8874505,0.012394466122738559,-4.50422561191912,8.695493437389144,0.3944444444444444,0.4222222222222222,-0.72,-0.0025043060156653297,0.0035951367981617854,0.001090830782496456
1589987359.8974504,-0.042496294771510915,-4.589543433511733,8.641597982708934,0.3944444444444444,0.4222222222222222,-0.72,0.0010410271045306852,0.003644403221315815,0.000371910873826447
1589987359.9074504,-0.013320822699294396,-4.562372016213781,8.712883951358656,0.3944444444444444,0.4179886236634473,-0.72,0.004311573763934348,0.0011943295145994074,0.0
1589987359.9174504,-0.030643300573439114,-4.436140196559365,8.72,0.3944444444444444,0.4177777777777778,-0.72,0.004363323129985824,0.002592053963685398,0.0007506115905944709
1589987359.9274504,-0.00011876988335100813,-4.46973276776246,8.690089077412512,0.3944444444444444,0.4177777777777778,-0.72,-0.00977537074291045,-0.0010778749980171762,-0.0010843528902568162
1589987359.9374504,-0.03978432304038005,-4.48989216152019,8.63032351543943,0.3944444444444444,0.4177777777777778,-0.72,-0.014157273465791056,-5.8816766657172805e-06,0.0021640165349957607
1589987359.9474504,-0.0075551234687925364,-4.571112191328019,8.621888780867197,0.3944444444444444,0.4177777777777778,-0.72,-0.007102426161546338,-0.0008847967513634485,-0.0004727286890974336
1589987359.9574504,-0.009231496333638864,-4.534611021998167,8.684620474335471,0.400598775333537,0.4177777777777778,-0.7128199472960587,0.006629846530601456,-8.38307455728114e-05,0.001930169328274478
1589987359.9674504,-0.029730130411840083,-4.47080960876448,8.709730130411842,0.4011111111111111,0.4177777777777778,-0.7122222222222222,0.007635815477475192,0.0010761116797952323,0.002181661564992912
1589987359.9774504,-0.03,-4.487066194048306,8.65026832083093,0.4011111111111111,0.4177777777777778,-0.7122222222222222,0.006704998987077692,0.0020216472728939554,0.0012508450745954127
1589987359.9874504,-0.03,-4.49,8.63050443081118,0.4011111111111111,0.4177777777777778,-0.7122222222222222,-0.003813074473511812,0.00011004973129480258,5.502486564740129e-05
1589987359.9974504,-0.02221238078589049,-4.536725715284657,8.653362857642328,0.4011111111111111,0.4177777777777778,-0.7122222222222222,-0.0018148307016523694,0.0025484924283334545,0.0016989949522223029
1589987360.0074503,-0.023357103614987364,-4.539928689155038,8.680142621689924,0.40372219170054574,0.4192698238288833,-0.7148333028116568,0.0011063883954585522,0.0025400859548376986,0.0014492551723412424
1589987360.0174503,-0.027965718052961212,-4.526102845841116,8.707794308317768,0.4073066695967476,0.4213180969124272,-0.7184177807078587,0.0041227194916182396,0.0015346422561178027,0.0004438114736213469
1589987360.0274503,-0.03,-4.480594830969333,8.641189661938666,0.4088888888888889,0.4222222222222222,-0.72,0.00043931058620077807,0.0003744245930276701,0.0
1589987360.0374503,-0.003452324195470799,-4.477698450536353,8.670793802145411,0.4088888888888889,0.4222222222222222,-0.72,-0.006042864494501821,0.002895902197131682,0.0009653007323772274
1589987360.0474503,-0.0135570230869186,-4.500335534630378,8.646107442282704,0.4088888888888889,0.4222222222222222,-0.72,-0.009502668315423922,0.0003148087270441811,-0.0011274319328374342
1589987360.0574503,-0.02,-4.544282222701459,8.664282222701459,0.4022229011413829,0.4222222222222222,-0.72,-0.0006243792757981478,-0.0001559281871176913,0.003427754007279677
1589987360.0674503,-0.007154554066856139,-4.5371545540668565,8.657154554066857,0.4011111111111111,0.4222222222222222,-0.72,0.0038932723502499034,0.0,0.0015608815622323762
1589987360.0774503,-0.02550944476244991,-4.5129937034917,8.607484258729249,0.4011111111111111,0.4222222222222222,-0.72,0.008236802671609617,0.003710198345503115,0.0
1589987360.0874503,-0.03658830413382439,-4.503411695866175,8.639529824802946,0.4011111111111111,0.4222222222222222,-0.72,0.0051332837831595006,0.0022073056438985353,-0.001437344990724859
1589987360.0974503,-0.04,-4.494126035691523,8.671747928616954,0.4011111111111111,0.4222222222222222,-0.72,0.0007094919143005949,0.001090830782496456,-0.0002594112401013318
1589987360.1074502,-0.0225233851041299,-4.536604306388988,8.668348923402753,0.40564208534337376,0.4222222222222222,-0.72,-0.0029972337327215763,0.001090830782496456,0.001726298432571496
1589987360.1174502,-0.035444129241425044,-4.51911174151715,8.643037247172384,0.4088888888888889,0.4222222222222222,-0.72,0.000262550105074949,0.0020160054295086105,0.0031068362120050667
1589987360.1274502,-0.04,-4.501566848019978,8.614700544059936,0.4088888888888889,0.4222222222222222,-0.72,0.0038505733144799425,0.0012617473876650833,-0.0004071643618219463
1589987360.1374502,-0.04,-4.472965467403086,8.655057554328188,0.4088888888888889,0.4222222222222222,-0.72,0.0004313097503702498,0.001090830782496456,-0.00010782743759256246
1589987360.1474502,-0.026821686663669998,-4.48317831333633,8.67317831333633,0.4088888888888889,0.4222222222222222,-0.72,-0.006468889431893552,-0.0010654656948013948,0.0
1589987360.1574502,-0.027819077789510736,-4.505638155579021,8.664361844420979,0.4123640345731158,0.42830372716961945,-0.72,-0.008964547968114838,-0.0030345906393461778,0.0
1589987360.1674502,-0.021313845555717546,-4.518686154444282,8.66,0.4133333333333333,0.43,-0.72,0.0035910157841725545,-0.0004299549526868597,0.0018950249298683392
1589987360.1774502,-0.027989154202746433,-4.527989154202746,8.588097612175282,0.4133333333333333,0.43,-0.72,0.006325635445528954,0.0017429630660933488,0.0030531430980395863
1589987360.1874502,-0.022923698597575468,-4.5158473971951505,8.647839315426669,0.4133333333333333,0.43,-0.72,0.006544984694978735,0.0006378520857954081,0.0017286828682918638
1589987360.1974502,-0.02901742359325907,-4.500982576406741,8.689017423593258,0.4133333333333333,0.43,-0.72,0.005069512209828216,0.0004918241617168397,0.001090830782496456
1589987360.2074502,-0.03434080129564648,-4.49,8.702829599352176,0.4098749341251172,0.43,-0.72,0.001729185309746146,0.0007821693749478116,0.00047350796739916725
1589987360.2174501,-0.02437375894496272,-4.511868794724814,8.69250496422015,0.4011111111111111,0.43,-0.72,-0.001227455386516,0.0004771030892384559,0.0008175815744573677
1589987360.2274501,-0.016934722984092154,-4.522579630645456,8.62644907661364,0.4011111111111111,0.43,-0.72,0.0009501337567197144,0.0001406970257767416,0.002797425469129511
1589987360.2374501,-0.015722293069189475,-4.492138853465406,8.640750318811353,0.4011111111111111,0.43,-0.72,-0.0003908926227024728,-0.002805866907626713,0.00046662543986265544
1589987360.24745,-0.03345563024233385,-4.49,8.686911260484667,0.4011111111111111,0.43,-0.72,-0.0032925031324306563,-0.003272492347489368,-0.0007338907833114002
1589987360.25745,-0.045205618934812876,-4.5160280946740645,8.689588762130374,0.3912782753453535,0.4259511852729233,-0.7234704126232085,-0.0049311680675898535,-0.003272492347489368,4.4859092711603326e-05
1589987360.26745,-0.0427932022150086,-4.525586404430017,8.651172808860034,0.38222222222222224,0.4222222222222222,-0.7266666666666667,-0.00545415391248228,0.0006582060860585836,0.001090830782496456
1589987360.27745,-0.028343936180955265,-4.525828031909523,8.581719680904776,0.38222222222222224,0.4222222222222222,-0.7266666666666667,-0.001639715947515121,0.002181661564992912,0.001090830782496456
1589987360.28745,-0.03345728406683926,-4.516542715933161,8.600557778300777,0.38222222222222224,0.4222222222222222,-0.7266666666666667,0.004760735709723295,0.0007136995941021765,-0.0003771311883942795
1589987360.29745,-0.027848554432531147,-4.497848554432531,8.68468150505361,0.38222222222222224,0.4222222222222222,-0.7266666666666667,0.006544984694978735,-0.0013255170876825143,-0.001090830782496456
1589987360.30745,-0.027245033112582782,-4.49,8.705509933774835,0.4047623252391464,0.4222222222222222,-0.7113715967623253,0.002593432125273031,-0.001391351051051771,0.000489790245385826
1589987360.31745,-0.046225807215786605,-4.514338710823679,8.691887096392106,0.4133333333333333,0.4222222222222222,-0.7055555555555556,0.0002058502834047987,0.0015641107147785157,0.001090830782496456
1589987360.32745,-0.027273416423268155,-4.52,8.599093665693072,0.4133333333333333,0.4222222222222222,-0.7055555555555556,-0.0008263618982159169,-0.00029742412965483864,0.001090830782496456
1589987360.33745,-0.02,-4.52,8.642450621458387,0.4133333333333333,0.4222222222222222,-0.7055555555555556,0.0020704239414158073,-0.0018811444634745217,0.0026714581444525877
1589987360.34745,-0.030668531567579052,-4.50933146843242,8.686002797351367,0.4133333333333333,0.4222222222222222,-0.7055555555555556,0.0009449798198992885,-0.0010179053011978721,0.002108736083694328
1589987360.35745,-0.03420682992085021,-4.488413659841701,8.7,0.40239067873938367,0.4222222222222222,-0.7139234678921053,-0.001722767607553858,0.0006319368250574021,-0.00017304286761834825
1589987360.36745,-0.039639107921368655,-4.499278215842737,8.65662401435384,0.3944444444444444,0.4222222222222222,-0.72,-0.003758856910458065,0.0005650990006747384,0.0010120963447904144
1589987360.37745,-0.04306125586042579,-4.523469372069787,8.589183767581277,0.3944444444444444,0.4222222222222222,-0.72,-0.003940354772619394,0.0011353493548971645,0.0017586932076264822
1589987360.38745,-0.00999385223992302,-4.53,8.596681011440179,0.3944444444444444,0.4222222222222222,-0.72,0.002546389520147626,0.0025450482869605515,-0.001090830782496456
1589987360.39745,-0.017055250216951114,-4.507259666377399,8.659795583839552,0.3944444444444444,0.4222222222222222,-0.72,0.005603615925974466,0.0015615151669985908,0.00014946201349218626
1589987360.40745,-0.03,-4.49,8.70338043899437,0.4063381679949956,0.4222222222222222,-0.7259468617752756,0.006058458203699574,0.0015773572737756173,0.0015773572737756173
1589987360.41745,-0.03,-4.49573388381392,8.697064464744319,0.4211111111111111,0.4222222222222222,-0.7333333333333333,0.004203214518985808,0.002807131261741148,0.0009307221714964398
1589987360.42745,-0.014803051341992862,-4.5,8.61921220536797,0.4211111111111111,0.4222222222222222,-0.7333333333333333,0.0005096091147939693,0.001614762407872129,0.0
1589987360.43745,-0.016104187630621564,-4.489263874912919,8.608312562891864,0.4211111111111111,0.4222222222222222,-0.7333333333333333,-0.0010105319920208674,-0.0011711295729720445,0.0
1589987360.44745,-0.03,-4.4851580541359075,8.67063221654363,0.4211111111111111,0.4222222222222222,-0.7333333333333333,0.0005626564229231198,-0.000493692296223552,0.00168796926876936
1589987360.45745,-0.034940414415059226,-4.494940414415059,8.69,0.41726856656606504,0.4260647667672683,-0.7229035695682082,0.002168662006943622,0.001090830782496456,0.003272492347489368
