time,acc_x,acc_y,acc_z,mag_x,mag_y,mag_z,gyr_x,gyr_y,gyr_z
1589987531.610909,-3.82,-0.82,8.96,0.31777777777777777,-0.3644444444444445,-0.6488888888888888,-0.001090830782496456,0.008726646259971648,-0.003272492347489368
1589987531.620909,-3.8482835962744724,-0.8265671925489451,8.963432807451056,0.2977777777777777,-0.3644444444444445,-0.6622222222222223,0.0007163695786970643,0.004363323129985824,0.002181661564992912
1589987531.630909,-3.8403111575746056,-0.8106223151492112,8.979377684850789,0.2977777777777777,-0.3644444444444445,-0.6622222222222223,-0.0010229467303791131,0.004363323129985824,0.002181661564992912
1589987531.640909,-3.8283971651261024,-0.8116028348738976,8.864425513865077,0.2977777777777777,-0.3644444444444445,-0.6622222222222223,-0.0014405151064377211,0.0008742108098531626,0.002181661564992912
1589987531.650909,-3.8209842526643216,-0.8190157473356781,8.931141726021101,0.2977777777777777,-0.3644444444444445,-0.6622222222222223,-0.0030577617266900623,0.004917327360484015,0.002181661564992912
1589987531.660909,-3.838792591253132,-0.810603704373434,8.930603704373434,0.2977777777777777,-0.3644444444444445,-0.6622222222222223,-0.0022475154963998564,0.007504107614661304,0.002181661564992912
1589987531.670909,-3.8335985909855097,-0.8111995303285032,8.91640140901449,0.2911111111111111,-0.3588888888888889,-0.6344444444444445,-0.0020508131043059756,0.01540247941563732,0.0009599823218095195
1589987531.680909,-3.8581863974753197,-0.8218136025246803,8.880931987376599,0.2911111111111111,-0.3588888888888889,-0.6344444444444445,-0.0012886641286099195,0.015571128352992984,0.0001978333461134635
1589987531.690909,-3.851169757489301,-0.8296100808368996,8.843119353304802,0.2911111111111111,-0.3588888888888889,-0.6344444444444445,-0.002181661564992912,0.011956605024881505,0.001090830782496456
1589987531.700909,-3.877804300651016,-0.817804300651016,8.918902150325508,0.2911111111111111,-0.3588888888888889,-0.6344444444444445,-0.0014631206332991523,0.01066879418106664,0.001090830782496456
1589987531.710909,-3.8612554744525545,-0.8012554744525547,8.910627737226278,0.2911111111111111,-0.3588888888888889,-0.6344444444444445,0.003952470076140444,0.008863597277920108,0.001090830782496456
1589987531.7209089,-3.8589959962317475,-0.8189959962317475,8.996987988695242,0.3033333333333333,-0.3644444444444445,-0.6344444444444445,0.0008717911392660089,0.0046918825948314945,-0.00010951982161522355
1589987531.7309089,-3.8506797561152646,-0.8106797561152647,8.96388219496262,0.3033333333333333,-0.3644444444444445,-0.6344444444444445,-0.0009425310034722953,0.00733921591942687,-0.001090830782496456
1589987531.7409089,-3.858290810771576,-0.8182908107715758,8.895382703055818,0.3033333333333333,-0.3644444444444445,-0.6344444444444445,0.0007179435378011625,0.0040182668368799555,-0.001090830782496456
1589987531.7509089,-3.83,-0.8365759167768422,8.897989527520702,0.3033333333333333,-0.3644444444444445,-0.6344444444444445,-0.003272492347489368,0.004736832668150839,0.003272492347489368
1589987531.7609088,-3.83,-0.814686521466843,8.949064783244033,0.3033333333333333,-0.3644444444444445,-0.6344444444444445,-0.003272492347489368,0.007124595289588919,0.003272492347489368
1589987531.7709088,-3.8612420215299608,-0.81,8.944968086119843,0.2977777777777777,-0.3533333333333333,-0.6266666666666667,0.004634290193466771,0.0143162837041944,0.0023171450967333857
1589987531.7809088,-3.868744932391426,-0.8087449323914258,8.96242905347996,0.2977777777777777,-0.3533333333333333,-0.6266666666666667,0.006408078056824033,0.01513472431679568,0.0036832122619534766
1589987531.7909088,-3.8585701519213584,-0.8014298480786417,8.84857908847185,0.2977777777777777,-0.3533333333333333,-0.6266666666666667,0.00545415391248228,0.013868855712758782,0.006700956924826308
1589987531.8009088,-3.8523462753786366,-0.8135194130679548,8.902346275378637,0.2977777777777777,-0.3533333333333333,-0.6266666666666667,0.0050702455013977386,0.012127108077822529,0.00789175441819822
1589987531.8109088,-3.867579994915193,-0.836369992372789,8.917579994915192,0.2977777777777777,-0.3533333333333333,-0.6266666666666667,0.002577633971038778,0.012957978587942181,0.009553495438437528
1589987531.8209088,-3.8383388674504175,-0.8320847168626043,8.959576415686978,0.3021751572985531,-0.36212809237488414,-0.6380998534206827,0.003908508464682177,0.007909428690889675,0.010680900492312736
1589987531.8309088,-3.85740336061292,-0.81129831969354,8.90961344245168,0.3033333333333333,-0.3644444444444445,-0.6411111111111111,0.005312529203758804,0.002181661564992912,0.010483433698794132
1589987531.8409088,-3.840464786065884,-0.8209295721317682,8.841394358197652,0.3033333333333333,-0.3644444444444445,-0.6411111111111111,0.004211222245603272,0.0021309612701987278,0.007534414887886824
1589987531.8509088,-3.85,-0.8390318986747977,8.872581603533872,0.3033333333333333,-0.3644444444444445,-0.6411111111111111,0.001126031940033332,0.001161233097570208,0.0053133492823347755
1589987531.8609087,-3.85,-0.8144376685821508,8.938166217114263,0.3033333333333333,-0.3644444444444445,-0.6411111111111111,0.0020203033819286616,0.0029497759813608675,0.0017362635147534578
1589987531.8709087,-3.877953195357588,-0.8289765976787942,8.96795319535759,0.3033333333333333,-0.3588888888888889,-0.6488888888888888,-0.0008675590315265241,0.0031608564720044022,0.0034957640984593
1589987531.8809087,-3.8602194363993827,-0.8201097181996913,8.950219436399381,0.3033333333333333,-0.3588888888888889,-0.6488888888888888,0.0010668939845717722,0.002193629963955254,0.005430217114557595
1589987531.8909087,-3.8672607445838882,-0.8272607445838883,8.870131809577227,0.3033333333333333,-0.3588888888888889,-0.6488888888888888,-0.0004932179566935178,0.004557734673777873,0.006246178282077267
1589987531.9009087,-3.8190103417266186,-0.820329886091127,8.910659772182255,0.3033333333333333,-0.3588888888888889,-0.6488888888888888,0.005418168922190393,0.010980277805548333,0.010213311935678862
1589987531.9109087,-3.8001510791366906,-0.8266163069544364,8.923232613908873,0.3033333333333333,-0.3588888888888889,-0.6488888888888888,0.004732426783247814,0.01235176208343349,0.017756475464047225
1589987531.9209087,-3.79770549852789,-0.799178005888438,8.945410997055781,0.30932649885502594,-0.3631697214043837,-0.63176555882691,0.0068849416265970515,0.010568350893346245,0.03274362913524443
1589987531.9309087,-3.8305910447761193,-0.8194089552238806,8.945271641791043,0.3111111111111111,-0.3644444444444445,-0.6266666666666667,0.0030146004132394597,0.0059002548593539645,0.05949032904493657
1589987531.9409087,-3.8398653399668325,-0.8101346600331676,8.87107728026534,0.3111111111111111,-0.3644444444444445,-0.6266666666666667,-0.0010320742587560166,-0.004216431820634726,0.08579371441290717
1589987531.9509087,-3.820854582088515,-0.8195727089557423,8.898718126867227,0.3111111111111111,-0.3644444444444445,-0.6266666666666667,-0.003179271902657114,-0.010628646490467797,0.11332536637930857
1589987531.9609087,-3.8370466574556272,-0.82,8.934093314911255,0.3111111111111111,-0.3644444444444445,-0.6266666666666667,0.00044651139076488976,-0.007189304086710301,0.1294132471151449
1589987531.9709086,-3.83268003932314,-0.82731996067686,8.94731996067686,0.2964711897573911,-0.3644444444444445,-0.6323599694153356,0.001090830782496456,-0.008940436224873484,0.13997536311505365
1589987531.9809086,-3.808811835054749,-0.8191088762910615,8.936435505164246,0.2911111111111111,-0.3644444444444445,-0.6344444444444445,0.0,-0.010875905652540478,0.14646294440634183
1589987531.9909086,-3.776239807408558,-0.7946798555564184,8.838719422225674,0.2911111111111111,-0.3644444444444445,-0.6344444444444445,0.0,-0.009987641392420714,0.1544573227474197
1589987532.0009086,-3.691579601630482,-0.7507898008152409,8.82980254979619,0.2911111111111111,-0.3644444444444445,-0.6344444444444445,-0.0032078769193914455,-0.0034017232036852134,0.17416677110687806
1589987532.0109086,-3.7061146695828775,-0.7338853304171223,8.918630682705826,0.2911111111111111,-0.3644444444444445,-0.6344444444444445,-0.010303843399794283,-0.005030330110565597,0.1965058972378858
1589987532.0209086,-3.771304592901879,-0.7426091858037578,8.962609185803759,0.31777777777777777,-0.3644444444444445,-0.6344444444444445,-0.022907446432425576,-0.0272707695624114,0.2814343418840856
1589987532.0309086,-3.79757369519833,-0.7951473903966597,9.01514739039666,0.31777777777777777,-0.3644444444444445,-0.6344444444444445,-0.022907446432425576,-0.0272707695624114,0.2814343418840856
1589987532.0409086,-3.7838560705652853,-0.8322878588694288,8.923136423391714,0.31777777777777777,-0.3644444444444445,-0.6344444444444445,-0.01850487263796631,-0.037836946669113636,0.4029453786111614
1589987532.0509086,-3.6963754599523266,-0.8019888454328759,8.9304089236537,0.31777777777777777,-0.3644444444444445,-0.6344444444444445,-0.02242894101754926,-0.05528768444518677,0.5115793658302921
1589987532.0609086,-3.483393404483179,-0.8949662099782119,9.062460578307913,0.31777777777777777,-0.3644444444444445,-0.6344444444444445,-0.022089937665485025,-0.04409286345866339,0.5996639501196774
1589987532.0709085,-2.8784392500608718,-0.7970943916889863,8.882782241701161,0.2915799583367151,-0.369684008332657,-0.6283316199081965,-0.014724533412507654,-0.00871991765519365,0.6995495771861484
1589987532.0809085,-2.3607430997876855,-0.5506245145254001,8.847976282947542,0.28444444444444444,-0.3711111111111111,-0.6266666666666667,-0.06383644998382683,-0.05707071200325977,0.7476347212903587
1589987532.0909085,-1.8401672519492887,-0.7938833005971867,9.111817153740848,0.28444444444444444,-0.3711111111111111,-0.6266666666666667,-0.05096259351304064,-0.0582647947907225,0.778826017766969
1589987532.1009085,-1.7684905388135383,-0.898993692542359,8.991530486045265,0.28444444444444444,-0.3711111111111111,-0.6266666666666667,0.01618863123945697,0.00031784606384487046,0.806338903582535
1589987532.1109085,-1.9324422169811322,-0.7507682783018867,8.75755778301887,0.28444444444444444,-0.3711111111111111,-0.6266666666666667,0.019678561589094968,-0.02695734866600189,0.811413898699314
1589987532.1209085,-2.0593050796513377,-0.7560875663761146,9.047046588518185,0.2851787507375124,-0.37551694886951875,-0.6318068107181423,-0.03957388940806855,-0.060972817743645914,0.7978619843334352
1589987532.1309085,-2.100652643859589,-0.7889122602340185,9.17706310263185,0.2855555555555556,-0.37777777777777777,-0.6344444444444445,-0.015058053751336316,-0.05543065810390596,0.7896309671252255
1589987532.1409085,-2.1438290498575987,-0.7169515835706688,8.982769275640806,0.2855555555555556,-0.37777777777777777,-0.6344444444444445,-0.000928607929278201,-0.04208618149418441,0.7809963057895234
1589987532.1509085,-2.1507753437181334,-0.7084493125637329,9.01147121910053,0.2855555555555556,-0.37777777777777777,-0.6344444444444445,-0.0187805166394954,-0.05419456295623519,0.7546185081504919
1589987532.1609085,-2.127795451582261,-0.6951969677215072,9.071810612974724,0.2855555555555556,-0.37777777777777777,-0.6344444444444445,-0.02395530552416638,-0.049980708758035244,0.730873975489602
1589987532.1709085,-2.12,-0.6997133735859532,9.002579637726422,0.27368365450605714,-0.38533262390018574,-0.6344444444444445,-0.010255202324194423,-0.03316264875662,0.6924934327577575
1589987532.1809084,-2.1361505980320916,-0.7,8.927322308855588,0.2733333333333333,-0.3855555555555555,-0.6344444444444445,-0.009817477042468105,-0.03272492347489368,0.6510663062777493
1589987532.1909084,-2.112837283981916,-0.6524652469683525,8.77418641990958,0.2733333333333333,-0.3855555555555555,-0.6344444444444445,-0.01500271422699688,-0.035687916151767266,0.602148847139341
1589987532.2009084,-2.132216769531838,-0.5816748457022429,8.73416257714888,0.2733333333333333,-0.3855555555555555,-0.6344444444444445,-0.01921044471583944,-0.03445251831103529,0.5317584788566676
1589987532.2109084,-2.1176967563490066,-0.5848688291006621,8.844081803704636,0.2733333333333333,-0.3855555555555555,-0.6344444444444445,-0.018013016436668073,-0.030571878960853865,0.46408957242719634
1589987532.2209084,-2.2016466086527187,-0.4891887304820095,9.008305252113805,0.2488942376926084,-0.3855555555555555,-0.6476822879165037,-0.013454454846751632,-0.02445388403591473,0.3800778470691895
1589987532.2309084,-2.156392804280997,-0.4710654673801662,9.002130934760332,0.2466666666666667,-0.3855555555555555,-0.6488888888888888,-0.007242331464597442,-0.02009985193134868,0.2991102716874974
1589987532.2409084,-2.0852887036554657,-0.47,8.943377615698532,0.2466666666666667,-0.3855555555555555,-0.6488888888888888,-0.007427348120327089,-0.014340773532846088,0.21868955069084067
1589987532.2509084,-1.9998727956736422,-0.4855838231836351,8.976751469550905,0.2466666666666667,-0.3855555555555555,-0.6488888888888888,-0.0016860555642833185,-0.009690106582419257,0.1287066443997728
1589987532.2609084,-2.0498345954991097,-0.483016540450089,9.010950378649733,0.2466666666666667,-0.3855555555555555,-0.6488888888888888,0.004570663587217038,-0.00415598267275461,0.037146961865285044
1589987532.2709084,-2.117803904857829,-0.5070027891841636,9.025400557836832,0.24546654270292606,-0.3957566092473507,-0.6536893847438513,0.007134094168085697,0.009600527897146311,-0.04765308683086168
1589987532.2809083,-2.1572325119236884,-0.5155349761526232,8.979372416534181,0.24444444444444444,-0.4044444444444445,-0.6577777777777778,0.010791594133927974,0.0212128434131626,-0.169550135049562
1589987532.2909083,-2.112092035883038,-0.5159884955146203,8.858195576251456,0.24444444444444444,-0.4044444444444445,-0.6577777777777778,0.008079677458547159,0.023776346224386045,-0.26189582432179564
1589987532.3009083,-2.093480192251675,-0.52,8.810220288377513,0.24444444444444444,-0.4044444444444445,-0.6577777777777778,0.004718923479377419,0.029500490596047653,-0.37492390989457786
1589987532.3109083,-2.1061963524351532,-0.4952145902593866,8.83858905730546,0.24444444444444444,-0.4044444444444445,-0.6577777777777778,0.009094743512809336,0.03771734747031317,-0.4766532631907926
1589987532.3209083,-2.1967159704177495,-0.5060147911253248,8.9193727763342,0.274313278699447,-0.3986633797499278,-0.6558507562129389,0.01672876110074767,0.03955972073755067,-0.6136829960502069
1589987532.3309083,-2.2170416628680827,-0.5029583371319172,8.965208314340414,0.2788888888888889,-0.3977777777777778,-0.6555555555555556,0.021293923828176783,0.04925554957127948,-0.7028267780976882
1589987532.3409083,-2.248895005898545,-0.5144475029492726,8.929433739677547,0.2788888888888889,-0.3977777777777778,-0.6555555555555556,0.026059402621880532,0.054238697389690074,-0.8113520432617614
1589987532.3509083,-2.290003041576004,-0.5275007603940011,8.955004562364007,0.2788888888888889,-0.3977777777777778,-0.6555555555555556,0.03545282989231802,0.06190539342173875,-0.9179419004058897
1589987532.3609083,-2.2934049914558763,-0.5695700512647413,8.996380034176495,0.2788888888888889,-0.3977777777777778,-0.6555555555555556,0.038898481220451676,0.071553054498048,-1.0075955680031725
1589987532.3709083,-2.274350436681223,-0.6369486899563319,9.00217521834061,0.28323598981077147,-0.40212487869966035,-0.6607720766618147,0.0401234594399099,0.08038863161248036,-1.120032834615105
1589987532.3809083,-2.286643530707003,-0.6749652960605046,8.966712938585994,0.28444444444444444,-0.4033333333333333,-0.6622222222222223,0.03945297517113768,0.08816665515585256,-1.220167514459672
1589987532.3909082,-2.3230145078209916,-0.6634927460895043,8.836195595671283,0.28444444444444444,-0.4033333333333333,-0.6622222222222223,0.03926990816987242,0.09304944830472014,-1.3088380904037022
1589987532.4009082,-2.3724593454307135,-0.7590718060049974,8.916148363576784,0.28444444444444444,-0.4033333333333333,-0.6622222222222223,0.035410244753166405,0.09689917802806003,-1.3898828480346999
1589987532.4109082,-2.3837489551092332,-0.7749958204369338,8.847481191966201,0.28444444444444444,-0.4033333333333333,-0.6622222222222223,0.046771535417659306,0.10567548583325792,-1.4694941943229347
1589987532.4209082,-2.4009807978811453,-0.7914711968217183,8.827206795232577,0.2943520434438742,-0.4033333333333333,-0.6697986214570804,0.051108564099309306,0.11017390903214204,-1.5467561570553034
1589987532.4309082,-2.4328809645101037,-0.852202411275259,8.953726269315673,0.3033333333333333,-0.4033333333333333,-0.6766666666666666,0.04869910205963733,0.11087645666193531,-1.6444534296983015
1589987532.4409082,-2.4301445643491473,-0.9094217426034112,8.921156514793177,0.3033333333333333,-0.4033333333333333,-0.6766666666666666,0.05553775276205847,0.1171775767352133,-1.7142182872128642
1589987532.4509082,-2.4380680529300567,-0.960840831758034,8.854454442344046,0.3033333333333333,-0.4033333333333333,-0.6766666666666666,0.0625715383686156,0.1244464297210524,-1.7796778430649467
1589987532.4609082,-2.498309946697305,-0.9705633511008984,8.913028271146855,0.3033333333333333,-0.4033333333333333,-0.6766666666666666,0.06172411731938175,0.12705106012472647,-1.8579000178453748
1589987532.4709082,-2.5522282630421746,-1.0100135918448931,8.972228263042174,0.32247433761965044,-0.3841923290470162,-0.6859284429342395,0.05999569303730508,0.13247665626565183,-1.9281130703521134
1589987532.4809082,-2.554724128533558,-1.0881896786661052,8.928896514134232,0.3377777777777778,-0.3688888888888889,-0.6933333333333334,0.05999569303730508,0.13968652597706782,-1.9930945611312734
1589987532.4909081,-2.492260823089257,-1.149490723066351,8.794521646178513,0.3377777777777778,-0.3688888888888889,-0.6933333333333334,0.05999569303730508,0.14431623788662837,-2.0436369478827805
1589987532.5009081,-2.514931752515692,-1.1716439175052307,8.787465876257846,0.3377777777777778,-0.3688888888888889,-0.6933333333333334,0.059360615855127336,0.14508049407202864,-2.0797960978916548
1589987532.5109081,-2.5632572964882616,-1.2265145929765238,8.832560215083566,0.3377777777777778,-0.3688888888888889,-0.6933333333333334,0.05991965325189034,0.14660268056765122,-2.1171007032560674
1589987532.520908,-2.6024411481939294,-1.298661722290894,8.87,0.3661159486639503,-0.34124189290237905,-0.6933333333333334,0.061086523819801536,0.14835298641951802,-2.1613656402657266
1589987532.530908,-2.572878668141826,-1.354545598229809,8.899697065486539,0.38333333333333336,-0.3244444444444444,-0.6933333333333334,0.06594569479718104,0.14916284824908127,-2.20374271328558
1589987532.540908,-2.529072858825509,-1.462781423523473,8.840413932357395,0.38333333333333336,-0.3244444444444444,-0.6933333333333334,0.06931832239516769,0.15619107272356414,-2.237754458950927
1589987532.550908,-2.5429607044475313,-1.5359214088950628,8.82,0.38333333333333336,-0.3244444444444444,-0.6933333333333334,0.07482241871960728,0.16234483732851454,-2.269975993576877
1589987532.560908,-2.5567809657102867,-1.5906857942617216,8.90815255423373,0.38333333333333336,-0.3244444444444444,-0.6933333333333334,0.07192002309565157,0.1651039946008352,-2.298365955021735
1589987532.570908,-2.5517479649728663,-1.6595122101628021,8.916991859891466,0.4273441868113797,-0.3042728032670065,-0.7281752590034534,0.07431395699269139,0.16850675108721222,-2.3370029720051777
1589987532.580908,-2.4851395811448116,-1.7429679712120874,8.869462238215506,0.43666666666666665,-0.3,-0.7355555555555555,0.07349853045593413,0.16642558098246868,-2.3687520270790468
1589987532.590908,-2.477652706656913,-1.8059162399414777,8.806431053401608,0.43666666666666665,-0.3,-0.7355555555555555,0.06807697763279684,0.16914540213577178,-2.398112475868958
1589987532.600908,-2.4314280237684494,-1.8625004792026068,8.777857005942112,0.43666666666666665,-0.3,-0.7355555555555555,0.0691898680742869,0.173481089996951,-2.4231639102132063
1589987532.610908,-2.380235172693428,-1.9216237236905156,8.789764827306572,0.43666666666666665,-0.3,-0.7355555555555555,0.07090400086226964,0.17691736090413354,-2.4481015573948657
1589987532.620908,-2.357332503713219,-1.999330014852876,8.841997511139658,0.4411476411580783,-0.27066998514712376,-0.7432954205861757,0.07090400086226964,0.180895878520206,-2.4793480638197307
1589987532.630908,-2.3852521130865636,-2.0652521130865638,8.859663849217915,0.4488888888888889,-0.22,-0.7566666666666667,0.07589524319815184,0.18601414968719512,-2.5096487240339425
1589987532.640908,-2.353716181319773,-2.1064478963887012,8.787104207222598,0.4488888888888889,-0.22,-0.7566666666666667,0.08072147790473774,0.19122916702852444,-2.5389413005449795
1589987532.650908,-2.2805654639598916,-2.1694345360401086,8.792956357360072,0.4488888888888889,-0.22,-0.7566666666666667,0.07832482396558303,0.1948745389562387,-2.567353939424959
1589987532.660908,-2.244661231825914,-2.270596013736881,8.84330615912957,0.4488888888888889,-0.22,-0.7566666666666667,0.07788353932276963,0.19279031023732074,-2.59529036933575
1589987532.670908,-2.2268846469997263,-2.324589764666484,8.846884646999726,0.4959757190746322,-0.178906039110624,-0.7797820196669406,0.08131164302897266,0.2055236844392007,-2.6260771907988363
1589987532.680908,-2.21610048045063,-2.32,8.834429257786613,0.51,-0.16666666666666666,-0.7866666666666666,0.08138693709109421,0.20986189994216745,-2.6323599621698714
1589987532.690908,-2.1575398278883835,-2.391628364939643,8.751309741832575,0.51,-0.16666666666666666,-0.7866666666666666,0.06718551830769118,0.20058737150319844,-2.661393502533714
1589987532.700908,-2.1657910642816303,-2.5142089357183695,8.736328514253042,0.51,-0.16666666666666666,-0.7866666666666666,0.06206010120772433,0.20628097464841053,-2.6740853715631276
1589987532.710908,-2.1540283065539567,-2.57374524101439,8.719858467230216,0.51,-0.16666666666666666,-0.7866666666666666,0.0669955366415238,0.21139374234969247,-2.6831854178262593
1589987532.720908,-2.1270019482878184,-2.6636621206617574,8.76299805171218,0.5210731360095691,-0.1683702260527542,-0.8198860746953736,0.06017785237644204,0.2127120025868089,-2.688897878853764
1589987532.730908,-2.0616556685317025,-2.65406918601409,8.737586482517612,0.5244444444444445,-0.1688888888888889,-0.83,0.060319168760359636,0.21483346234513545,-2.6846549593371107
1589987532.740908,-2.0118660890114217,-2.688357095969542,8.677687541026652,0.5244444444444445,-0.1688888888888889,-0.83,0.05910842098846235,0.21928133298653024,-2.6777373208856603
1589987532.750908,-2.0173379345933045,-2.754675869186609,8.661558623062204,0.5244444444444445,-0.1688888888888889,-0.83,0.05781403147231216,0.22206907393875674,-2.6652607023016666
1589987532.760908,-2.0248402090463418,-2.8212783276292663,8.768036028119507,0.5244444444444445,-0.1688888888888889,-0.83,0.054436956190213825,0.21858955846682895,-2.6521633122600163
1589987532.7709079,-1.5541294196130755,-2.4930753835890593,7.981854569713142,0.5395611889407753,-0.1688888888888889,-0.8212964198354459,0.015291279007737184,0.19015894881020443,-2.6472549225306423
1589987532.7809079,-1.2358334877074126,-2.3094879191256252,7.995940932066584,0.5611111111111111,-0.1688888888888889,-0.8088888888888889,-0.04257326028676629,0.14416896172523985,-2.639538615897502
1589987532.7909079,-1.8810972577564773,-2.923643832654679,9.422628734099673,0.5611111111111111,-0.1688888888888889,-0.8088888888888889,0.09685591508922209,0.2181797569983991,-2.554174597238223
1589987532.8009079,-1.7643365043048949,-2.867398097417063,8.30734601721958,0.5611111111111111,-0.1688888888888889,-0.8088888888888889,0.16740893128183465,0.2705454252198491,-2.4952725744265143
1589987532.8109078,-1.749235417242605,-2.960007108723984,8.336952332056395,0.5611111111111111,-0.1688888888888889,-0.8088888888888889,0.08600378536599856,0.21908552855131347,-2.483905870226678
1589987532.8209078,-1.8846214926355631,-3.2062149263556323,9.27553731588908,0.531841657752544,-0.18018587088693236,-0.8119698839792644,-0.008618083778985104,0.1262972999402316,-2.467259428367731
1589987532.8309078,-1.8232094188050867,-3.2394490519400265,8.891088561485674,0.4977777777777778,-0.19333333333333333,-0.8155555555555556,0.05232078120824075,0.17275240923100837,-2.4015481383502904
1589987532.8409078,-1.7759983799909123,-3.2839935199636487,8.607978939881857,0.4977777777777778,-0.19333333333333333,-0.8155555555555556,0.06792457621557584,0.1805714473577254,-2.349723876894928
1589987532.8509078,-1.7124850389893005,-3.2790953877773075,8.873051743940035,0.4977777777777778,-0.19333333333333333,-0.8155555555555556,0.04063181465489217,0.1460910769513456,-2.304666269722779
1589987532.8609078,-1.6329613994022865,-3.281115801793141,8.661702856904009,0.4977777777777778,-0.19333333333333333,-0.8155555555555556,0.04930427927626393,0.15122283183017582,-2.2383270883670114
1589987532.8709078,-1.5621714044044348,-3.2685968039150533,8.546380992659275,0.4770737126880075,-0.1062334733005065,-0.7413064945439655,0.06459103560781163,0.1583283724463598,-2.1639956291766076
1589987532.8809078,-1.6065932883279521,-3.410861950885432,8.876914196262597,0.4655555555555556,-0.057777777777777775,-0.7,0.05047330914752289,0.1386360438254514,-2.105504479114963
1589987532.8909078,-1.6262582550335571,-3.5131291275167786,8.766324295302013,0.4655555555555556,-0.057777777777777775,-0.7,0.04479088827955354,0.12899013970722495,-2.0346835231881526
1589987532.9009078,-1.5452805224183188,-3.5164158432745043,9.038891141509636,0.4655555555555556,-0.057777777777777775,-0.7,0.054459457361680556,0.13567486914343252,-1.9542316225278225
1589987532.9109077,-1.382146665087075,-3.328667219523753,8.767611657386567,0.4655555555555556,-0.057777777777777775,-0.7,0.08247383727100382,0.15944570551407414,-1.8667929559347118
1589987532.9209077,-1.2921309544838957,-3.232458340693635,8.18254018724607,0.4802822430273411,-0.011366399078817382,-0.6759017841370782,0.08236681272923455,0.14975694209541787,-1.7882026335528622
1589987532.9309077,-1.34,-3.407158835291177,8.634138652836791,0.5022222222222222,0.057777777777777775,-0.64,0.014578581255098845,0.07309298961478555,-1.7293889725779763
1589987532.9409077,-1.2702131361461506,-3.338581992170509,8.764327968682036,0.5022222222222222,0.057777777777777775,-0.64,0.021352099192311014,0.07409108671091195,-1.6143061931519758
1589987532.9509077,-1.22,-3.3243538148463125,8.437260205321346,0.5022222222222222,0.057777777777777775,-0.64,0.07313829226258012,0.11958663166280212,-1.5146019424736699
1589987532.9609077,-1.228944023796647,-3.4105712547322877,8.362608166576528,0.5022222222222222,0.057777777777777775,-0.64,0.07704928958367274,0.1203722034191756,-1.4440730133513198
1589987532.9709077,-1.3066434637090314,-3.6253426145163874,8.954587776610706,0.5117202035846888,0.08063229543121302,-0.64,0.023281180893431154,0.07105349464667186,-1.3475637525352893
1589987532.9809077,-1.2688374789601646,-3.6388374789601645,8.82709369740041,0.5377777777777778,0.14333333333333334,-0.64,0.03933331385665004,0.07725876849691553,-1.268059714233545
1589987532.9909077,-1.23,-3.6,8.693266009600654,0.5377777777777778,0.14333333333333334,-0.64,0.04278725531791654,0.06600648705774854,-1.1358450160396432
1589987533.0009077,-1.2207967726904874,-3.6322112955832946,8.686016136547565,0.5377777777777778,0.14333333333333334,-0.64,0.04773581117661324,0.059908778619561474,-1.0340704512397494
1589987533.0109076,-1.205967546131434,-3.6579026383943023,8.780324538685658,0.5377777777777778,0.14333333333333334,-0.64,0.050389301815567715,0.05580805404920724,-0.9432500117498497
1589987533.0209076,-1.1790808267518063,-3.6065293228028903,8.773058645605781,0.5387075188110308,0.16518224761477998,-0.6376756474168674,0.044979915150109455,0.04525824105502335,-0.8440454495447852
1589987533.0309076,-1.101027994036773,-3.478379990061289,8.720810004969355,0.54,0.1955555555555556,-0.6344444444444445,0.04016024436296055,0.03610955257633655,-0.7497405367561957
1589987533.0409076,-1.039381018920654,-3.385797802031799,8.768273726349182,0.54,0.1955555555555556,-0.6344444444444445,0.0368466728404413,0.0327106696340861,-0.6713230687676307
1589987533.0509076,-1.083799235993209,-3.515997453310696,8.73,0.54,0.1955555555555556,-0.6344444444444445,0.02432538754931666,0.03536537291016492,-0.5553659348301229
1589987533.0609076,-1.0832303250858968,-3.5532303250858965,8.719938195051538,0.54,0.1955555555555556,-0.6344444444444445,0.023612194040658896,0.024377618515155873,-0.4790517985952991
1589987533.0709076,-1.0558827643206816,-3.541570135842499,8.739218428804543,0.54,0.20165620003626236,-0.6357517254045959,0.017645881818881094,0.02731339765834722,-0.40133894603237097
1589987533.0809076,-1.0840544093851134,-3.6313514697950375,8.890539711434736,0.54,0.22666666666666666,-0.6411111111111111,0.022170334005404895,0.017217320933802526,-0.316752562569174
1589987533.0909076,-1.1056649721874752,-3.64,8.738964415936977,0.54,0.22666666666666666,-0.6411111111111111,0.017926170698031343,0.008253768081883599,-0.19826207295027862
1589987533.1009076,-1.0851145698227411,-3.6300763798818276,8.684503530768122,0.54,0.22666666666666666,-0.6411111111111111,0.015296626212828597,-0.00048292724655269077,-0.10397885794745833
1589987533.1109076,-1.0537716718266255,-3.6646279024767803,8.725657507739937,0.54,0.22666666666666666,-0.6411111111111111,0.011556579609461727,-0.009169205257970936,-0.022851870630368427
1589987533.1209075,-1.0566303059046716,-3.695761035265422,8.754673600054202,0.5408454065366562,0.24103857778982274,-0.6411111111111111,0.008833368008670782,-0.01106244093224437,0.06197562536886703
1589987533.1309075,-1.0559843691849646,-3.605765620477195,8.771968738369928,0.5422222222222223,0.2644444444444444,-0.6411111111111111,0.003853700412347608,-0.014156938390047252,0.16046462273080178
1589987533.1409075,-1.0144614468437678,-3.5566156594686964,8.688922893687534,0.5422222222222223,0.2644444444444444,-0.6411111111111111,-0.0012250169211645897,-0.01819164108594253,0.2387737976879091
1589987533.1509075,-1.0013768887479328,-3.521376888747933,8.653442221869831,0.5422222222222223,0.2644444444444444,-0.6411111111111111,-0.00545415391248228,-0.022324482225419395,0.31074040799948965
1589987533.1609075,-0.9836205093807335,-3.5036205093807333,8.697753753279803,0.5422222222222223,0.2644444444444444,-0.6411111111111111,-0.00545415391248228,-0.026066936897082595,0.36781581316222567
1589987533.1709075,-0.9931195401552301,-3.5068804598447696,8.820087357516318,0.5838160909586234,0.2689504468908879,-0.6463103447031613,-0.00681531008390578,-0.03265495982096485,0.42171267244897886
1589987533.1809075,-1.0,-3.4806582074021155,8.735789056797179,0.6755555555555556,0.2788888888888889,-0.6577777777777778,-0.01122405189276375,-0.03736809102790397,0.47541537020940794
1589987533.1909075,-1.0,-3.4415729883361545,8.78790268221846,0.6755555555555556,0.2788888888888889,-0.6577777777777778,-0.014066409232614888,-0.04234221637264347,0.508102479617696
1589987533.2009075,-1.05694443237607,-3.45,8.67694443237607,0.6755555555555556,0.2788888888888889,-0.6577777777777778,-0.016604873843823406,-0.04472406208235469,0.5638686633272222
1589987533.2109075,-1.0594835167447056,-3.445258241627647,8.686596154303235,0.6755555555555556,0.2788888888888889,-0.6577777777777778,-0.020152199684508484,-0.045758553281499234,0.6042741032690898
1589987533.2209074,-1.087943989641634,-3.4402800517918304,8.742056010358366,0.7799551926414762,0.31315572819498977,-0.7226563268639954,-0.02181661564992912,-0.05020876490635914,0.6493192557890909
1589987533.2309074,-1.0837557721908673,-3.48,8.747496151872756,1.1833333333333331,0.4455555555555555,-0.9733333333333334,-0.021953179380523852,-0.05385872047184913,0.695825228937974
1589987533.2409074,-1.1316566561638441,-3.490828328081922,8.697515015754234,1.1833333333333331,0.4455555555555555,-0.9733333333333334,-0.026844737630669357,-0.05184348905111116,0.7703587475027339
1589987533.2509074,-1.1880139765554554,-3.5424251577998196,8.647205590622182,1.1833333333333331,0.4455555555555555,-0.9733333333333334,-0.03224373824604132,-0.05908122470683893,0.833762688788277
1589987533.2609074,-1.2276162224883964,-3.5923837775116034,8.690464889953585,1.1833333333333331,0.4455555555555555,-0.9733333333333334,-0.03000629845651662,-0.0635451190493506,0.8925362343422952
1589987533.2709074,-1.2517851154391848,-3.5726776731587773,8.77642976912163,1.1649863135417113,0.37444845722802633,-0.9761101795720654,-0.030855189143848227,-0.06513791971583989,0.9437615236739322
1589987533.2809074,-1.2655725223399945,-3.56015270105995,8.757709910640022,0.9777777777777776,-0.3511111111111111,-1.0044444444444445,-0.022424483540390634,-0.0726026995352276,1.0245648771494238
1589987533.2909074,-1.2638903786070999,-3.4594250781077025,8.725534699500603,0.9777777777777776,-0.3511111111111111,-1.0044444444444445,-0.023514113546005178,-0.07411670401486116,1.070717514852337
1589987533.3009074,-1.2858856028599286,-3.387942801429964,8.671771205719857,0.9777777777777776,-0.3511111111111111,-1.0044444444444445,-0.025746726164961847,-0.08004826124696693,1.1103721456400275
1589987533.3109074,-1.31,-3.4064023889211774,8.736005972302944,0.9777777777777776,-0.3511111111111111,-1.0044444444444445,-0.02683508872660219,-0.0839939702522271,1.1391797904580838
1589987533.3209074,-1.3151592356687898,-3.4096815286624205,8.762261146496815,0.880038924274593,-0.23674805378627034,-0.9313552724699222,-0.029980476601733804,-0.0839939702522271,1.1626831808224884
1589987533.3309073,-1.33,-3.400765676567657,8.728133899104195,0.5988888888888889,0.09222222222222222,-0.7211111111111111,-0.030950381969978177,-0.08561195876789605,1.1787079251862884
1589987533.3409073,-1.33,-3.4469075907590763,8.701767090994814,0.5988888888888889,0.09222222222222222,-0.7211111111111111,-0.03670272715435647,-0.0892071745081325,1.1873364429628561
1589987533.3509073,-1.2951274163533477,-3.4279459572367172,8.644872583646652,0.5988888888888889,0.09222222222222222,-0.7211111111111111,-0.032948984782368976,-0.08670714824042573,1.1881665813822009
1589987533.3609073,-1.31,-3.482807548693107,8.638422646079322,0.5988888888888889,0.09222222222222222,-0.7211111111111111,-0.027806717656526245,-0.08539105708850349,1.1840486522778582
1589987533.3709073,-1.3010984782228443,-3.489480496764037,8.751271645968165,0.5956391269702447,0.1005585680135269,-0.7256325189979205,-0.033796864586676974,-0.08903197899475579,1.1567410413192825
1589987533.3809073,-1.24,-3.2762566388214256,8.750641597053564,0.5733333333333334,0.15777777777777774,-0.7566666666666667,-0.02536326405919673,-0.08454228237578361,1.1126647785402348
1589987533.3909073,-1.266687886250639,-3.2920254635007664,8.718006365875192,0.5733333333333334,0.15777777777777774,-0.7566666666666667,-0.02501893211254481,-0.07570226748673071,1.0526378169238466
1589987533.4009073,-1.3539815338232524,-3.3883889202939512,8.726018466176749,0.5733333333333334,0.15777777777777774,-0.7566666666666667,-0.030765456761206338,-0.0699889116134145,0.9848282169540412
1589987533.4109073,-1.392918492887351,-3.407081507112649,8.713347943098809,0.5733333333333334,0.15777777777777774,-0.7566666666666667,-0.02131565549241585,-0.0663580757627725,0.9133762257848419
1589987533.4209073,-1.3947129492180756,-3.3982376497393587,8.773524700521282,0.5733333333333334,0.15307817708273397,-0.7556875831885326,-0.01822226288548262,-0.06211472983648546,0.8510577261144096
1589987533.4309072,-1.3888934169278997,-3.40133605015674,8.78244263322884,0.5733333333333334,0.13111111111111112,-0.7511111111111111,-0.019343473157350008,-0.05425005819723659,0.7661208923841395
1589987533.4409072,-1.416958628959728,-3.4595378235235335,8.75175177375837,0.5733333333333334,0.13111111111111112,-0.7511111111111111,-0.014276344609433856,-0.04752411907345956,0.7035061707587796
1589987533.4509072,-1.4021187768040275,-3.5473729256013424,8.699491702405371,0.5733333333333334,0.13111111111111112,-0.7511111111111111,-0.009133444985497082,-0.03973215356168697,0.6307686591018621
1589987533.4609072,-1.3816425054704593,-3.542190007293946,8.675475018234865,0.5733333333333334,0.13111111111111112,-0.7511111111111111,-0.0010311075982432538,-0.03484686185563339,0.5617374739468625
1589987533.4709072,-1.2468737089037498,-3.5516806134239,8.543776128286824,0.5722476648421119,0.1297862275286035,-0.7494182043112402,-0.008888126339394464,-0.012426442091042482,0.4614379203797073
1589987533.4809072,6.857949121644017,-1.6174229366920783,-4.017461054027179,0.5077777777777778,0.05111111111111112,-0.6488888888888888,-0.6754500494676161,1.0899118741657585,-0.9760634164950641
1589987533.4909072,2.0686340735830298,-0.8528007954922108,-1.3760391117003645,0.5077777777777778,0.05111111111111112,-0.6488888888888888,-1.0955197278348328,0.5818853678371748,-4.3502693167371485
1589987533.5009072,-0.019889197165426684,-1.2221909625885803,0.303708448937035,0.5077777777777778,0.05111111111111112,-0.6488888888888888,-0.6700946489719911,-1.8498342799843266,-6.453656228915409
1589987533.5109072,0.21729884955908604,-1.2296030890487215,0.21476293141534275,0.5077777777777778,0.05111111111111112,-0.6488888888888888,-0.7080959147924392,-0.9523575765652332,-6.295991402639082
1589987533.5209072,-0.1927410946141495,-0.9558613990921165,-0.020845045295062144,0.5092030800201752,0.0806861326408574,-0.6533429583963808,-0.6010063957762993,-0.806012869355735,-5.98595228794547
1589987533.5309072,-0.05139849743294944,-0.6232905821951751,-0.1289305607865681,0.516593542617885,0.23403823154333586,-0.6764381540142239,-0.606448073042767,-0.7488752580578247,-5.768285197286766
1589987533.5409071,0.04398565733502596,-0.6460003117970646,0.3479650787287588,0.5166666666666667,0.23555555555555555,-0.6766666666666666,-0.45693784191685227,-0.41537502935547854,-5.4614594006585895
1589987533.5509071,-0.7107769210999743,-0.497887432536623,-0.7849979439732717,0.5166666666666667,0.23555555555555555,-0.6766666666666666,0.6615917851945189,0.8935563763807213,-5.282876350419128
1589987533.5609071,-0.34493443528425016,1.0041049035451997,6.489205449747355,0.5166666666666667,0.23555555555555555,-0.6766666666666666,2.2927683136462047,2.9076824993412904,-5.084939837560325
1589987533.570907,0.9276950124603147,2.7787150513774623,16.962842317277165,0.4911083421522776,0.26211616730580306,-0.6734092331501269,1.7786714427703076,3.32611111370632,-4.632937674437763
1589987533.580907,-0.8640183359280401,-0.21449057256530013,-0.47756270541428836,0.4033333333333333,0.3533333333333333,-0.6622222222222223,0.3540460089946848,2.4548798622598964,-3.5652433275587927
1589987533.590907,0.33482553757481726,-0.02417889603192197,8.89618864996675,0.4033333333333333,0.3533333333333333,-0.6622222222222223,0.22963891061388184,0.2619712220607415,-3.045710320518503
1589987533.600907,2.444606291324384,-0.7406291324383891,17.16011620917652,0.4033333333333333,0.3533333333333333,-0.6622222222222223,-0.13668234283631908,-0.39901545309005804,-2.8030469492307364
1589987533.610907,0.5856771473407574,-0.5061012270518614,1.567973379213855,0.4033333333333333,0.3533333333333333,-0.6622222222222223,-0.11827296306070632,-1.046990773683877,-2.55576259129307
1589987533.620907,1.2398224981538715,-1.0322840029538058,6.324224762738288,0.4013406388364679,0.35515275004786256,-0.6597963332695166,0.2056312837244673,-0.4403648932996221,-2.3352912808612873
1589987533.630907,0.3822127869533603,-2.2937381842733977,11.289057858107407,0.37777777777777777,0.37666666666666665,-0.6311111111111111,0.10959450078385127,0.8862044908500808,-1.895711838598337
1589987533.640907,0.30400658503961314,-1.9563743183455087,7.837020886922523,0.37777777777777777,0.37666666666666665,-0.6311111111111111,-0.306451371321105,0.6778216639892067,-1.6168605203423367
1589987533.650907,0.3492368020913917,-1.680062955157788,5.812800971003281,0.37777777777777777,0.37666666666666665,-0.6311111111111111,0.025172359974603174,-0.03219107489976951,-1.4365837803617594
1589987533.660907,0.16231629600728312,-1.9988498721116748,6.833083192439416,0.37777777777777777,0.37666666666666665,-0.6311111111111111,0.020035734025182342,0.140193532443123,-1.1640009515612666
1589987533.670907,0.21485184368221755,-2.7096222565346864,9.51107440902908,0.3756214028079033,0.3802246853669595,-0.6311111111111111,-0.06557592951955202,0.03640626181435214,-0.9888979374100377
1589987533.680907,0.2534009779052241,-2.5477158927980588,7.930559905885813,0.3584884542643449,0.4084940504638309,-0.6311111111111111,0.08076009670711795,0.10032314683289764,-0.8030343638692672
1589987533.690907,0.16182390490090914,-2.946478098018183,9.565912392072732,0.3555555555555556,0.4133333333333333,-0.6311111111111111,-0.001118280425518814,0.026872855240359827,-0.5071265728351839
1589987533.700907,0.12494575061107496,-2.208915012221499,6.615660048885997,0.3555555555555556,0.4133333333333333,-0.6311111111111111,0.04795966717370709,0.034918420420560786,-0.3196649041365014
1589987533.710907,0.09187833053181217,-3.3016651764958334,10.388485748006152,0.3555555555555556,0.4133333333333333,-0.6311111111111111,0.00571378264026433,0.0033994002740821557,-0.002576429873997664
1589987533.720907,0.09937859876256214,-2.829148277958585,8.385914130395909,0.3555555555555556,0.4133333333333333,-0.6311111111111111,-0.02373970182683196,-0.01787256072993184,0.18314415273797058
1589987533.730907,0.05290872501850481,-2.8098094004441156,8.325245651369356,0.3422222222222222,0.4477777777777778,-0.6433333333333333,-0.0327851018477715,-0.02673355457836874,0.5141893760504023
1589987533.740907,0.04096062081264761,-3.094236275124114,9.181829180122428,0.3422222222222222,0.4477777777777778,-0.6433333333333333,-0.014294420711374007,-0.05910560414171138,0.7397121386218581
1589987533.750907,-0.007349100930694859,-3.2038334688714194,9.370162645703443,0.3422222222222222,0.4477777777777778,-0.6433333333333333,-0.004915859920351731,-0.06192822884077636,0.9622898487620775
1589987533.760907,-0.005284834416009884,-2.730464458880132,7.662532714304435,0.3422222222222222,0.4477777777777778,-0.6433333333333333,-0.02469330736791203,-0.07943274680748806,1.1508312336364686
1589987533.770907,-0.028840818466031412,-3.044544246213752,8.698996012505383,0.3422222222222222,0.4477777777777778,-0.6433333333333333,-0.0521019393825883,-0.0931370628148262,1.301578709717188
1589987533.780907,-0.020917393581888995,-3.159908670599221,8.786330425672443,0.3381855082586173,0.46695216910490106,-0.6493884042787407,-0.05047843234247373,-0.09579296462793029,1.4724721189876406
1589987533.790907,-0.06669138561560341,-3.2407803738317758,9.031560747663551,0.3377777777777778,0.4688888888888889,-0.65,-0.0389698521364669,-0.11177972630169397,1.662206949062427
1589987533.800907,-0.10929906542056075,-3.436775700934579,9.423551401869158,0.3377777777777778,0.4688888888888889,-0.65,-0.02316741077778688,-0.122004835416134,1.7858378138097468
1589987533.810907,-0.11654875514272384,-3.3041156635704287,8.877170123425373,0.3377777777777778,0.4688888888888889,-0.65,-0.036339997852709,-0.12123656268102008,1.943990301997058
1589987533.8209069,-0.10078472389840964,-3.184708343390458,8.488631962882506,0.339695991751668,0.46906327197742437,-0.6522669801509612,-0.06070246432151491,-0.14341243309752325,2.047065942032091
1589987533.8309069,1.6648740079573918,-4.982951813569669,7.707351325179462,0.3622222222222222,0.4711111111111111,-0.6788888888888889,-0.08024533163450083,-0.1506625771319182,2.1591984375468765
1589987533.8409069,10.58884876905041,-14.113776084407972,3.1793130128956624,0.3622222222222222,0.4711111111111111,-0.6788888888888889,-0.07488227223538593,-0.15768297847454454,2.228316512653803
1589987533.8509068,1.8527725674091435,-13.154938452520517,5.654261430246191,0.3622222222222222,0.4711111111111111,-0.6788888888888889,-0.13477738632656755,-0.17019837544882133,2.0647223950614717
1589987533.8609068,-17.522545821683753,-19.528591177384282,4.931848400124262,0.3622222222222222,0.4711111111111111,-0.6788888888888889,-0.7210842172811273,-0.1694074776737235,-3.5875540304854354
1589987533.8709068,0.5970516853059955,-1.24612088381485,9.78545744019882,0.3622222222222222,0.4711111111111111,-0.6788888888888889,-0.637580892142043,0.6976057705788954,-2.775617443494766
1589987533.8809068,2.1289534803504493,0.24374226780417138,17.811125393795848,0.4177777777777778,0.4244444444444445,-0.6877777777777778,1.5609788497524284,0.2399827721492203,-0.10035643198967394
1589987533.8909068,-0.2237322510775155,0.7343754785919006,-0.5046522414509813,0.4177777777777778,0.4244444444444445,-0.6877777777777778,1.4807730147445473,0.187183956139007,-0.05985047008870878
1589987533.9009068,0.4792667610663055,-0.21473003755463893,2.8582971126023518,0.4177777777777778,0.4244444444444445,-0.6877777777777778,0.9070314704103861,-0.021928499174132726,0.16248274728921397
1589987533.9109068,0.20382995752016253,-3.7523714831004127,17.36176629932894,0.4177777777777778,0.4244444444444445,-0.6877777777777778,-1.0628262557999217,0.19214564838351747,0.5530741744119443
1589987533.9209068,-0.04750929520757585,-2.725596228508042,9.14231342823689,0.41739268571585086,0.4247974455012109,-0.6881949608448653,-0.25563558102658496,-0.12911948925410288,0.7682483836021596
1589987533.9309068,-0.27152235985292006,-3.1908541320022183,11.59784125223393,0.40590483624685886,0.4353279741811202,-0.70064013110294,0.41635537211381735,0.05415077069327959,1.0050899503033923
1589987533.9409068,0.7175577784625595,-5.970391352786403,6.294871168843482,0.4044444444444445,0.43666666666666665,-0.7022222222222222,0.09346550600854028,0.013922255668360667,1.0027886863844597
1589987533.9509068,4.03,-19.7,9.29,0.4044444444444445,0.43666666666666665,-0.7022222222222222,-0.4156065281311497,-0.2334377874542416,0.26070855701665296
1589987533.9609067,-1.0457365711211866,-12.879478982555906,7.807924575424575,0.4044444444444445,0.43666666666666665,-0.7022222222222222,-0.336123603789701,-0.13989665880750268,-0.335683725627006
1589987533.9709067,-2.041113498326654,-2.626934677519316,10.994049497996116,0.4044444444444445,0.43666666666666665,-0.7022222222222222,0.20940192180513362,0.081164561713469,-0.3788079468338398
1589987533.9809067,-0.35049956276629396,-3.2758099986976017,6.9067812156957595,0.3911111111111111,0.43,-0.7155555555555555,0.12878586042684934,0.09226177225427407,0.2188338430879858
1589987533.9909067,1.428763279810966,-6.483165385975031,8.998195434163767,0.3911111111111111,0.43,-0.7155555555555555,-0.31727481137567726,-0.011592048279902012,0.3456717058715287
1589987534.0009067,0.2891251033668045,-7.0379496751329,9.563143059657412,0.3911111111111111,0.43,-0.7155555555555555,-0.13729968121753455,-0.17180686626601308,0.060255817197676864
1589987534.0109067,-0.21201108242188632,-3.846365719922249,10.251908381444196,0.3911111111111111,0.43,-0.7155555555555555,0.18349192167568845,0.10108797756303517,-0.0581983808834764
1589987534.0209067,-0.22417940758362587,-4.247920450259654,9.053328353012851,0.3911111111111111,0.43,-0.7155555555555555,0.07929428996155302,0.0659129808697283,-0.0011219711547142963
1589987534.0309067,0.028018867924528318,-4.698018867924529,9.067215354586859,0.4079169377575363,0.425057109809875,-0.7036926190992554,-0.05013137485518521,-0.04311336562114734,0.0019165832974181347
1589987534.0409067,-0.05516574256954525,-4.646887656759393,8.612845346595911,0.41,0.4244444444444445,-0.7022222222222222,-0.01681747858028006,-0.001090830782496456,-0.0016181664640616822
1589987534.0509067,-0.06624038596000559,-4.633717661865473,8.347540204167249,0.41,0.4244444444444445,-0.7022222222222222,-0.0012257545452035064,-0.0009543815956773985,0.001090830782496456
1589987534.0609066,0.014407949937071743,-4.362445986575303,8.684796881555027,0.41,0.4244444444444445,-0.7022222222222222,0.010770657366657294,-0.00015462080155334503,0.001090830782496456
1589987534.0709066,-0.00785198858868938,-4.59388991441517,8.797314985735863,0.41,0.4244444444444445,-0.7022222222222222,0.0027674408071457317,0.001032252858281174,-0.000973674934065892
1589987534.0809066,-0.0658211958795752,-4.522280977903525,8.584689673035923,0.4055697463587639,0.4288746980856806,-0.6960198671244916,-0.0012978515082188004,0.0037004655874052408,0.002388682290715256
1589987534.0909066,-0.04376658706261032,-4.6174447097912985,8.54376658706261,0.4044444444444445,0.43,-0.6944444444444444,-0.004901501049839438,0.006408027724550461,-0.0017707906537080876
1589987534.1009066,-0.069896583947669,-4.530344720174437,8.569896583947669,0.4044444444444445,0.43,-0.6944444444444444,0.006499860929663961,0.0054579142262585105,0.0010795498411677626
1589987534.1109066,-0.0225882482515557,-4.5861176276226665,8.64064706206289,0.4044444444444445,0.43,-0.6944444444444444,0.01308996938995747,0.004080989043431865,0.0020404945217159325
1589987534.1209066,-0.053385098298364436,-4.539922352552454,8.64834627457459,0.4044444444444445,0.43,-0.6944444444444444,0.01308996938995747,0.0007215738399332246,0.0003607869199666123
1589987534.1309066,-0.0001400480973263545,-4.510140048097326,8.680140048097327,0.3977777777777778,0.4244444444444445,-0.7022222222222222,-0.005492346106380691,0.0032801307862690503,7.638438779682356e-06
1589987534.1409066,-0.019917951619748197,-4.5299179516197485,8.699917951619748,0.3977777777777778,0.4244444444444445,-0.7022222222222222,-0.010885932600256398,0.0043588480850441915,0.0010863557375548239
1589987534.1509066,-0.0348644128113879,-4.537432206405694,8.566220284697508,0.3977777777777778,0.4244444444444445,-0.7022222222222222,-0.01009757987204473,0.002741867224146163,-0.0005306251233432049
1589987534.1609066,-0.012571200691236583,-4.558285866205842,8.638858130337976,0.3977777777777778,0.4244444444444445,-0.7022222222222222,0.0011532551156013347,-0.0008103562962987533,0.0019011870787952092
1589987534.1709065,-0.042460469622941026,-4.495079060754119,8.68246046962294,0.3977777777777778,0.4244444444444445,-0.7022222222222222,0.00749299348684219,0.0015648351784281831,0.002181661564992912
1589987534.1809065,-0.0008067351906951582,-4.53,8.786504147506987,0.38333333333333336,0.43,-0.6877777777777778,0.0030671563123115687,0.0032138249088671396,0.0011201645018075702
1589987534.1909065,-0.029169596970516635,-4.53,8.663598413127762,0.38333333333333336,0.43,-0.6877777777777778,-0.004151962986483446,0.001151219394925707,0.0021514672587782863
1589987534.2009065,-0.010010089619561992,-4.609976457554356,8.579989910380439,0.38333333333333336,0.43,-0.6877777777777778,-0.0010893633068162027,0.0032732260853294945,0.0032717586096492417
1589987534.2109065,-0.03490355510712802,-4.551891704750035,8.555096444892873,0.38333333333333336,0.43,-0.6877777777777778,0.0025312444847638204,0.005083529981119506,0.0014614547138592298
1589987534.2209065,-0.016460680764978478,-4.532153560254993,8.6598501564301,0.38333333333333336,0.43,-0.6877777777777778,0.011831630354346836,0.00545415391248228,0.0019467445831822029
1589987534.2309065,-0.0402891454965358,-4.493653025404157,8.720289145496535,0.39612208365409296,0.4266345393892738,-0.7046050808314087,0.006911927070164194,0.004132540621156874,0.001520854919330209
1589987534.2409065,-0.01830939181807146,-4.520028729818314,8.731661878363616,0.4044444444444445,0.4244444444444445,-0.7155555555555555,-0.006004270209259414,0.0023629443725724426,0.00018128280757953087
1589987534.2509065,-0.024878197440081788,-4.559756394880164,8.573778926879141,0.4044444444444445,0.4244444444444445,-0.7155555555555555,-0.013316173991970607,0.00623906050391821,0.0
1589987534.2609065,-0.03,-4.541736764945431,8.567105391757616,0.4044444444444445,0.4244444444444445,-0.7155555555555555,-0.008077869365843766,0.002497414342399037,0.004110720908060924
1589987534.2709064,-0.007030061571894241,-4.555313292285404,8.623596522998914,0.4044444444444445,0.4244444444444445,-0.7155555555555555,0.0015515003559810146,0.0030168720953071128,0.001022481008729021
1589987534.2809064,-0.027257683939570374,-4.496398737474336,8.730858946465235,0.4044444444444445,0.42949216369251303,-0.7094982924578732,0.01031002727015435,0.005254727060878876,0.0009911173566947544
1589987534.2909064,-0.0396658148708661,-4.538329074354331,8.74,0.4044444444444445,0.43,-0.7088888888888889,0.0035276699456276333,0.004399777072577005,-0.0010179228973140944
1589987534.3009064,-0.02320640370653815,-4.54,8.622444825945767,0.4044444444444445,0.43,-0.7088888888888889,-0.00039130200965594624,0.0025314259514131665,0.0016570149853625301
1589987534.3109064,-0.038702037467523584,-4.624159168603856,8.618702037467523,0.4044444444444445,0.43,-0.7088888888888889,-0.001090830782496456,0.005241775289739431,0.0011616236567440724
1589987534.3209064,-0.028383801318087744,-4.55449470856757,8.64904049670478,0.4044444444444445,0.43,-0.7088888888888889,0.0020769959919597052,0.004820588557591048,0.0004572654276052238
1589987534.3309064,-0.02,-4.510271680736761,8.705950882578664,0.4072976890935448,0.4271467553508997,-0.7088888888888889,0.006044022960331092,0.0038030898532040677,-0.0005602332767817562
1589987534.3409064,-0.037194641912931085,-4.4598187533047415,8.731402679043535,0.41,0.4244444444444445,-0.7088888888888889,0.004822348773580846,-0.0004787965910364265,0.0007848136867664413
1589987534.3509064,-0.0477460767355105,-4.519714690619595,8.621554925702853,0.41,0.4244444444444445,-0.7088888888888889,-0.00493130171135613,0.0014440669015058957,0.001090830782496456
1589987534.3609064,-0.04407773824698921,-4.551844523506022,8.58407773824699,0.41,0.4244444444444445,-0.7088888888888889,-0.00828183401969375,0.002181661564992912,0.001736849324715015
1589987534.3709064,-0.03400765477546966,-4.548015309550939,8.59797703567359,0.41,0.4244444444444445,-0.7088888888888889,-0.004151002018787314,0.0015279981019665784,-0.0004329922871124216
1589987534.3809063,-0.024096461139462896,-4.54,8.657228310884296,0.4145916413359733,0.43625152216551866,-0.7003615549792241,0.0021290501748725066,0.0017348069739702484,-0.0002497329905715344
1589987534.3909063,-0.02724019560218919,-4.54,8.718960782408757,0.4177777777777778,0.4444444444444444,-0.6944444444444444,0.007522454423651197,0.002181661564992912,0.001090830782496456
1589987534.4009063,-0.03,-4.554152745135404,8.65923627432298,0.4177777777777778,0.4444444444444444,-0.6944444444444444,0.004095171244813919,0.002181661564992912,0.000318918279970168
1589987534.4109063,-0.013050183746008796,-4.543050183746009,8.63,0.4177777777777778,0.4444444444444444,-0.6944444444444444,-0.0005917456341339444,0.002181661564992912,-0.0018489381327512374
1589987534.4209063,-0.016588184855034924,-4.553176369710069,8.662940924275174,0.4177777777777778,0.4444444444444444,-0.6944444444444444,0.0017838071537631627,0.0014630020809280073,-2.5683112798198168e-05
1589987534.4309063,-0.02,-4.543998318856823,8.68,0.4284455652065627,0.43288767472992745,-0.689110550730052,0.005018004983756462,0.0028363434187635506,-0.0006546818537706384
1589987534.4409063,-0.02,-4.514018881453155,8.723301864244743,0.4311111111111111,0.43,-0.6877777777777778,0.006398854041635221,0.003272492347489368,-0.00014613065334351423
1589987534.4509063,-0.037500481602774034,-4.501249759198613,8.633747351184741,0.4311111111111111,0.43,-0.6877777777777778,0.0017724686847740275,0.002317989145448426,0.0019090064040818827
1589987534.4609063,-0.01768488160291439,-4.522315118397086,8.642315118397086,0.4311111111111111,0.43,-0.6877777777777778,-0.006211774636281731,0.0013702609629064467,0.0005588603608199815
1589987534.4709063,-0.01,-4.544231934297701,8.640512043801532,0.4311111111111111,0.43,-0.6877777777777778,-0.007174183057331671,0.0005733430482831307,0.0005174877342133253
1589987534.4809062,-0.017529038652130822,-4.56,8.645058077304261,0.4231637925338619,0.43,-0.6982347759057372,-0.0029902817751773017,0.0012319360686524892,0.0002695400700614632
1589987534.4909062,-0.02161554453862146,-4.551615544538621,8.678384455461378,0.41,0.43,-0.7155555555555555,0.0056638418383675735,0.0023578901363151446,-0.00017622857132223242
1589987534.5009062,-0.02,-4.505991888345461,8.618388643683645,0.41,0.43,-0.7155555555555555,0.007505092752424979,0.0031417696224391545,0.0
1589987534.5109062,-0.02826746086839689,-4.533069843473587,8.626534921736795,0.41,0.43,-0.7155555555555555,0.0031266150733090864,0.0014688121858229255,0.0
1589987534.5209062,-0.023035812447828652,-4.546964187552171,8.657856750208685,0.41,0.43,-0.7155555555555555,0.0014219865492941972,0.00033115576679774127,0.0015193500313974294
1589987534.5309062,-0.030916727243356756,-4.55,8.664541636378322,0.4033286666846153,0.43,-0.7082777373933177,0.0016862458885550174,0.0005954151060585614,0.002777076671051474
1589987534.5409062,-0.03209083885658521,-4.518363355426341,8.707454966860489,0.3977777777777778,0.43,-0.7022222222222222,0.0056326841405776006,0.001090830782496456,0.002409736703593196
1589987534.5509062,-0.02471455038993494,-4.515285449610065,8.672430953509416,0.3977777777777778,0.43,-0.7022222222222222,0.005968431581579449,0.0028204901226943136,0.002181661564992912
1589987534.5609062,-0.03011800828647529,-4.52,8.63674533885765,0.3977777777777778,0.43,-0.7022222222222222,0.003614648096408702,0.004363323129985824,0.002181661564992912
1589987534.5709062,-0.03542461986412165,-4.524858460045293,8.659716920090586,0.3977777777777778,0.43,-0.7022222222222222,-0.0042398062183475966,0.003303371575398925,0.0011217100104060128
1589987534.5809062,-0.02,-4.541592320920928,8.67,0.4048619738961226,0.43386410697364264,-0.6938499904459965,-0.006829857184802767,0.0002848724898240314,0.001264526050112587
1589987534.5909061,-0.02,-4.5654299691040165,8.646855046343976,0.41,0.43666666666666665,-0.6877777777777778,-0.001246282594574672,0.003958614798992674,-0.00034306122575165346
1589987534.6009061,-0.01135002223442936,-4.535400088937718,8.605400088937717,0.41,0.43666666666666665,-0.6877777777777778,0.00566139720875662,0.00545415391248228,0.0007963016204224176
1589987534.6109061,-0.033720630280100604,-4.506279369719899,8.631627507040134,0.41,0.43666666666666665,-0.6877777777777778,0.007407491151303778,0.0028666345435071528,0.001090830782496456
1589987534.620906,-0.02685174222784707,-4.513148257772152,8.666296515544305,0.41,0.43666666666666665,-0.6877777777777778,0.003333058183256384,0.0014645353492897773,0.0018079569981995906
1589987534.630906,-0.025457937437632867,-4.541831749750531,8.68,0.41,0.4233250418191196,-0.6956614651876919,0.0016861993990874324,0.0028769366322693854,0.002181661564992912
1589987534.640906,-0.022628013898150424,-4.5526280138981505,8.67262801389815,0.41,0.4122222222222222,-0.7022222222222222,0.0029858205017962696,0.004363323129985824,0.0013775026281895547
1589987534.650906,-0.044565093397975195,-4.517246542136033,8.596304719806074,0.41,0.4122222222222222,-0.7022222222222222,0.003272492347489368,0.0034701111282054308,0.00019761878071606264
1589987534.660906,-0.017826005437330088,-4.518043498640667,8.64434798912534,0.41,0.4122222222222222,-0.7022222222222222,0.003272492347489368,0.0023950827558685195,0.0
1589987534.670906,-0.029571042973377093,-4.526523680991126,8.679571042973377,0.41,0.4122222222222222,-0.7022222222222222,-0.002420493284756151,0.0036049079730542917,0.0
1589987534.680906,-0.03005851338778042,-4.544912229918329,8.680058513387781,0.4039246470703102,0.4210590992108618,-0.6906238211746327,-0.004911929931463004,0.0027366511869279945,0.0010844479620385527
1589987534.690906,-0.026680189573459717,-4.55331981042654,8.66331981042654,0.3977777777777778,0.43,-0.6788888888888889,-0.0007198449201649597,0.0025482220664248016,0.002910357206957085
1589987534.700906,-0.02490520272033651,-4.5449052027203365,8.624336419042356,0.3977777777777778,0.43,-0.6788888888888889,0.003313855463790911,0.0027167361771657543,0.0010494676661949127
1589987534.710906,-0.027557202828939906,-4.53244279717106,8.612671608486819,0.3977777777777778,0.43,-0.6788888888888889,0.006278516860019974,0.0013572986174552174,-0.00026646783495876147
1589987534.720906,-0.04,-4.52,8.667937973859658,0.3977777777777778,0.43,-0.6788888888888889,0.0071466331259318885,0.0024459117577165157,0.0006016484309531528
1589987534.730906,-0.04,-4.52,8.702440571764246,0.3977777777777778,0.43276457150316555,-0.7000839370798251,0.0038308729685197643,0.005001801958072451,-0.0004523519544098286
1589987534.740906,-0.024398404993065188,-4.530401063337957,8.693997341655109,0.3977777777777778,0.43666666666666665,-0.73,-0.0017018700089607504,0.004930613132972741,0.0006110392264642944
1589987534.750906,-0.01646395626921763,-4.54,8.624752306115477,0.3977777777777778,0.43666666666666665,-0.73,0.0002530488900974017,0.0047490456649649255,0.0007714450699582043
1589987534.760906,-0.02557391051813383,-4.534426089481866,8.616721731554401,0.3977777777777778,0.43666666666666665,-0.73,0.0009656229305806817,0.0037553038127797088,-0.0018240579516183458
1589987534.770906,-0.03391703718180486,-4.5260829628181956,8.66133629745444,0.3977777777777778,0.43666666666666665,-0.73,0.00042728247340959047,0.003272492347489368,-0.0019906449272605966
1589987534.780906,-0.04,-4.535521504519478,8.70611962387013,0.4003646951976908,0.43192398473015947,-0.7218080948369421,-0.0010255860825666228,0.003272492347489368,0.0004232833730126158
1589987534.790906,-0.04,-4.56,8.688416884514838,0.4044444444444445,0.4244444444444445,-0.7088888888888889,-0.0037315621835645914,0.0020089704546469023,0.002354352675338922
1589987534.800906,-0.018549975779105443,-4.567150008073631,8.608499919263684,0.4044444444444445,0.4244444444444445,-0.7088888888888889,-0.0009326576769447337,0.00343066545304109,0.002492547457307823
1589987534.810906,-0.017012371427217142,-4.541950514291131,8.622074228563303,0.4044444444444445,0.4244444444444445,-0.7088888888888889,0.003824655305553531,0.0013035988855429992,-0.0008780626794499128
1589987534.820906,-0.014606375937637889,-4.524606375937638,8.661574496249449,0.4044444444444445,0.4244444444444445,-0.7088888888888889,0.007219213259413732,0.0023534124625752707,-0.00041660221806145894
1589987534.830906,-0.02112516469038208,-4.5088748353096175,8.696687747035574,0.4044444444444445,0.4275347679695506,-0.7125972771190162,0.006299511839049362,0.003149755919524681,0.0004840471772658845
1589987534.840906,-0.03,-4.522796404908221,8.681504493864724,0.4044444444444445,0.43,-0.7155555555555555,0.00187662110957174,0.002181661564992912,0.000621675505103521
1589987534.850906,-0.03655043227665706,-4.533449567723343,8.601046109510087,0.4044444444444445,0.43,-0.7155555555555555,-0.0014290826332071724,0.0028962028815964986,0.0018053720991000422
1589987534.860906,-0.0338294334243972,-4.523829433424397,8.61319396602922,0.4044444444444445,0.43,-0.7155555555555555,-0.0001623483751595268,0.0039455967441004965,0.0015085571683817836
1589987534.8709059,-0.03373074700784152,-4.516269252992158,8.647461494015683,0.4044444444444445,0.43,-0.7155555555555555,0.0014977921502824635,0.0027354776588417937,0.00027690804692444076
1589987534.8809059,-0.03852872454845529,-4.51,8.665885101806179,0.4044444444444445,0.4291826247491418,-0.716699880906757,0.002021170309785278,0.0006419650208305368,-0.0007698482720811875
1589987534.8909059,-0.03,-4.522518113947188,8.691654590701873,0.4044444444444445,0.4244444444444445,-0.7233333333333334,-0.0016401980239818864,0.003452980194493043,0.0006356593147500655
1589987534.9009058,-0.024701050686197337,-4.54,8.627010506861973,0.4044444444444445,0.4244444444444445,-0.7233333333333334,-0.004298102507205396,0.002759687267631354,0.0
1589987534.9109058,-0.03104424432263117,-4.534477877838684,8.613132732967895,0.4044444444444445,0.4244444444444445,-0.7233333333333334,-0.0008630120121818088,0.002670122263662478,0.0
1589987534.9209058,-0.04,-4.520933941857424,8.644533029071289,0.4044444444444445,0.4244444444444445,-0.7233333333333334,0.0025742610771700217,0.002181661564992912,0.001483430294673566
1589987534.9309058,-0.04,-4.51,8.682477980412747,0.41256393954763115,0.42218902913800377,-0.7147627551688586,0.004363323129985824,0.0026245113248371753,0.0023867928278008413
1589987534.9409058,-0.04,-4.515097294391686,8.724902705608315,0.4244444444444445,0.4188888888888889,-0.7022222222222222,0.004363323129985824,0.003272492347489368,0.001646859345486228
1589987534.9509058,-0.03362563998466292,-4.526374360015337,8.637133319800618,0.4244444444444445,0.4188888888888889,-0.7022222222222222,0.001581983880608118,0.0025771575351449414,0.0014863267526484855
1589987534.9609058,-0.03642555516915892,-4.53,8.602851110338317,0.4244444444444445,0.4188888888888889,-0.7022222222222222,0.0,0.0007798228903633565,0.001090830782496456
1589987534.9709058,-0.034513758910437654,-4.535486241089562,8.642917446537373,0.4244444444444445,0.4188888888888889,-0.7022222222222222,0.00059845606606915,0.00299228033034575,-0.00010608134964184396
1589987534.9809058,-0.024335841072058304,-4.528671682144116,8.692656635711767,0.4244444444444445,0.42895850476078523,-0.7097744341261445,0.001090830782496456,0.002982698346261909,-0.00047296689094136334
1589987534.9909058,-0.03330739299610895,-4.533307392996109,8.696692607003891,0.4244444444444445,0.43666666666666665,-0.7155555555555555,0.00036502508674978677,-0.00036078060899688244,0.0007258056957466692
1589987535.0009058,-0.04,-4.533225087475435,8.60870104970522,0.4244444444444445,0.43666666666666665,-0.7155555555555555,0.0,0.0018652824697100638,-0.0003872258436068039
1589987535.0109057,-0.04,-4.541062739082312,8.58659410862347,0.4244444444444445,0.43666666666666665,-0.7155555555555555,0.0,0.00447924998046065,-0.001090830782496456
1589987535.0209057,-0.031633642216296644,-4.547211214072099,8.619521501495308,0.4244444444444445,0.43666666666666665,-0.7155555555555555,0.0009126280607842447,0.004541525851698035,-0.001090830782496456
1589987535.0309057,-0.013096392109488944,-4.541032130703163,8.66277508507786,0.4244444444444445,0.43666666666666665,-0.7155555555555555,0.0029347283647184006,0.0025194255477638794,-0.001090830782496456
1589987535.0409057,-0.03696195476812062,-4.53696195476812,8.70303804523188,0.3977777777777778,0.4444444444444444,-0.7022222222222222,0.005882186043468613,0.0015188629134827894,-0.0007594314567413947
1589987535.0509057,-0.04128470500743679,-4.524357647496282,8.659218827466534,0.3977777777777778,0.4444444444444444,-0.7022222222222222,0.0012858972316098375,0.0,0.0006154851796751973
1589987535.0609057,-0.03101140813894092,-4.52,8.63898859186106,0.3977777777777778,0.4444444444444444,-0.7022222222222222,-0.0005729972695388331,-0.0010356670259152457,0.0005729972695388331
1589987535.0709057,-0.01873143726714593,-4.525820958178097,8.66291047908905,0.3977777777777778,0.4444444444444444,-0.7022222222222222,-0.0003174840182146504,-0.0012292095103489606,0.0
1589987535.0809057,-0.03085400236995873,-4.54,8.676097331753361,0.39981022169556474,0.4444444444444444,-0.6998510376514707,-9.315720734759088e-05,0.001090830782496456,0.0
1589987535.0909057,-0.01857034632034632,-4.54,8.684286435786435,0.4044444444444445,0.4444444444444444,-0.6944444444444444,0.001558408392800312,0.001090830782496456,0.0
1589987535.1009057,-0.04437770616263667,-4.544377706162637,8.64373376302418,0.4044444444444445,0.4444444444444444,-0.6944444444444444,-0.0009550673277857026,-0.0003417702091820982,-0.0009550673277857026
1589987535.1109056,-0.040500439599085634,-4.554749780200457,8.614749780200457,0.4044444444444445,0.4444444444444444,-0.6944444444444444,-0.0026997822102680005,-0.000627299629167647,-0.0011454202744427355
1589987535.1209056,-0.03,-4.549602001539646,8.640795996920708,0.4044444444444445,0.4444444444444444,-0.6944444444444444,-0.002138246667798865,0.0027921993020322104,0.0011342456796905028
1589987535.1309056,-0.03505336702839304,-4.54,8.67516010108518,0.38423097633087233,0.43714513651454334,-0.6983748410220835,0.0011141165414330532,0.0032608494680210695,0.002181661564992912
