time,acc_x,acc_y,acc_z,mag_x,mag_y,mag_z,gyr_x,gyr_y,gyr_z
1589987541.5969298,-3.82,-0.79,8.92,0.2966666666666667,-0.3688888888888889,-0.65,0.0,0.0,0.0
1589987541.6069298,-3.820657581887221,-0.801315163774442,8.951972745661662,0.29703198993734503,-0.3692542121595672,-0.6490501594962363,-0.0012342928954150077,-0.001090830782496456,0.0018947373391558088
1589987541.6169298,-3.8373496952726076,-0.8163251523636963,8.991024542908912,0.3022222222222222,-0.3744444444444445,-0.6355555555555555,-0.00407421973202226,0.0005126239865693278,-0.00137993418046002
1589987541.6269298,-3.843058525345622,-0.8169414746543779,8.964880414746544,0.3022222222222222,-0.3744444444444445,-0.6355555555555555,-0.004318357778145128,0.001379498790260783,-0.00037859871144571696
1589987541.6369298,-3.8332523007051513,-0.8234953985896976,8.893009202820606,0.3022222222222222,-0.3744444444444445,-0.6355555555555555,-0.0018268905926815272,-0.0018268905926815272,-0.0007360598101850712
1589987541.6469297,-3.837470768322821,-0.807470768322821,8.927587695031537,0.3022222222222222,-0.3744444444444445,-0.6355555555555555,-0.0013667271594496556,-0.0013667271594496556,-0.00027589637695319975
1589987541.6569297,-3.8302971137521222,-0.8002971137521223,8.950891341256366,0.30205715902659874,-0.37427938124882104,-0.6362488209771741,-0.0021168413996493197,-0.002149251482321116,-0.0010260106171528635
1589987541.6669297,-3.838981324278438,-0.808981324278438,8.976943972835315,0.29723259762309,-0.3694548198453122,-0.6565119788719109,-0.0002222405668923168,-0.0012019510659426144,0.0008685902156041392
1589987541.6769297,-3.84,-0.81,8.953808805150093,0.2966666666666667,-0.3688888888888889,-0.6588888888888889,0.0,0.0017661853747676485,0.001090830782496456
1589987541.6869297,-3.830423313686968,-0.8291533726260641,8.863809823182711,0.2966666666666667,-0.3688888888888889,-0.6588888888888889,0.002089308844913579,0.0011370071425361224,4.617636003966647e-05
1589987541.6969297,-3.8283359196341067,-0.8116640803658935,8.886640803658935,0.2966666666666667,-0.3688888888888889,-0.6588888888888889,-0.0001815230087664594,-0.0018186155474599931,0.0018186155474599931
1589987541.7069297,-3.820346937507765,-0.82,8.971734687538826,0.2966666666666667,-0.3686575972170456,-0.6585804999930978,-0.001052985771189196,-3.7845011307259946e-05,0.0
1589987541.7169297,-3.832135597884846,-0.815728804230308,9.02,0.2966666666666667,-0.3622222222222222,-0.65,-0.00046591518236486395,-0.00039195800894915997,-0.00023295759118243197
1589987541.7269297,-3.839623953538061,-0.7996239535380611,9.015487442456733,0.2966666666666667,-0.3622222222222222,-0.65,-0.002181661564992912,0.002099620953726547,-0.001090830782496456
1589987541.7369297,-3.83147699240526,-0.79147699240526,8.91772390886312,0.2966666666666667,-0.3622222222222222,-0.65,-0.002181661564992912,0.00032222975623421505,-0.001090830782496456
1589987541.7469296,-3.84,-0.7768634888358816,8.916863488835881,0.2966666666666667,-0.3622222222222222,-0.65,-0.0007164855376214355,-0.0019944889425554018,-0.0005615178673125307
1589987541.7569296,-3.84,-0.8096660540413718,8.949666054041371,0.2966666666666667,-0.3622222222222222,-0.65,0.0010726168559283572,-0.0010999377457805053,-0.0032451714576372205
1589987541.7669296,-3.8217309830077815,-0.8182690169922184,8.944807050976655,0.3088888888888889,-0.36777777777777776,-0.6588888888888889,0.001090830782496456,-0.001090830782496456,-0.001804019655219643
1589987541.7769296,-3.8291318617331003,-0.8108681382668996,8.922604414800698,0.3088888888888889,-0.36777777777777776,-0.6588888888888889,0.001090830782496456,-0.001090830782496456,-0.0001893983889994376
1589987541.7869296,-3.8174518407283133,-0.8149036814566273,8.842740796358433,0.3088888888888889,-0.36777777777777776,-0.6588888888888889,-0.001090830782496456,-0.001090830782496456,-0.00027796105722592063
1589987541.7969296,-3.811963256414705,-0.8,8.901595820561758,0.3088888888888889,-0.36777777777777776,-0.6588888888888889,-0.001090830782496456,-0.0019474629949340562,-0.000662514676277656
1589987541.8069296,-3.82,-0.8001537716430561,8.990153771643056,0.3089401461032409,-0.3677350634324844,-0.6587692887220675,-0.0010992177245824864,-0.005428993086224188,0.001090830782496456
1589987541.8169296,-3.8245469661248293,-0.8154530338751705,9.01454696612483,0.31555555555555553,-0.3622222222222222,-0.6433333333333333,-0.002429660095789538,-0.002181661564992912,0.0008428322516998302
1589987541.8269296,-3.8356064547597755,-0.8065903178603366,9.003638728558654,0.31555555555555553,-0.3622222222222222,-0.6433333333333333,-0.003272492347489368,-0.0019420308453765355,0.0004792614392327531
1589987541.8369296,-3.8209516912099994,-0.83,8.91190338242,0.31555555555555553,-0.3622222222222222,-0.6433333333333333,-0.0028572387205697655,-0.0011946441892263565,0.0020778481582630114
1589987541.8469296,-3.8316186270257484,-0.8251441189227554,8.933237254051496,0.31555555555555553,-0.3622222222222222,-0.6433333333333333,0.0005611363269764112,-0.002887920839019638,0.0012673956010031376
1589987541.8569295,-3.839887819880919,-0.8003365403572414,8.949775639761839,0.31555555555555553,-0.3622222222222222,-0.6433333333333333,-0.002144950706869781,-0.006496036884147894,0.0021694246122852014
1589987541.8669295,-3.82513890522453,-0.8025694526122651,8.98,0.3022222222222222,-0.3566666666666667,-0.6433333333333333,-0.003272492347489368,-0.005984417094253803,-0.0002802838003624659
1589987541.8769295,-3.8335854549959736,-0.8121381816680089,8.952203638315885,0.3022222222222222,-0.3566666666666667,-0.6433333333333333,-0.0030392529092860025,-0.0034303653771723605,-0.001090830782496456
1589987541.8869295,-3.8110920124188543,-0.82,8.85546006209427,0.3022222222222222,-0.3566666666666667,-0.6433333333333333,-0.0019434214127220235,-0.0001191200761354442,-0.0008525906302255676
1589987541.8969295,-3.82,-0.8181358519023935,8.90559244429282,0.3022222222222222,-0.3566666666666667,-0.6433333333333333,0.00020334701280014017,-0.0014975248080967363,0.0008874837696963158
1589987541.9069295,-3.82,-0.8106047438636813,8.928185768408955,0.3022222222222222,-0.3566666666666667,-0.6433333333333333,0.001024863460293521,-0.003140557703083498,6.596732220293501e-05
1589987541.9169295,-3.84,-0.8008254365900592,8.982476309770178,0.2966666666666667,-0.36777777777777776,-0.6355555555555555,-0.001821496908418727,0.0,0.00027012349243063857
1589987541.9269295,-3.84,-0.8084395309152961,9.005318592745889,0.2966666666666667,-0.36777777777777776,-0.6355555555555555,0.001500778479901271,0.0,0.0027618300336706373
1589987541.9369295,-3.8314261433327492,-0.8042784299982478,8.904278429998248,0.2966666666666667,-0.36777777777777776,-0.6355555555555555,0.0038966188157013317,0.002961356137966373,0.003116924242727871
1589987541.9469295,-3.8387755388119853,-0.8263266164359558,8.926326616435956,0.2966666666666667,-0.36777777777777776,-0.6355555555555555,0.0014915347692540464,0.001357966773668183,0.0023152295605787755
1589987541.9569294,-3.84,-0.8206342103852955,8.967463158458818,0.2966666666666667,-0.36777777777777776,-0.6355555555555555,0.001090830782496456,6.918162108593092e-05,0.0011600124035823869
1589987541.9669294,-3.8228485991029055,-0.8114242995514529,8.961424299551453,0.2966666666666667,-0.36301349975080716,-0.6422255447933144,0.0020262945855708397,-0.0018709276061487678,0.001090830782496456
1589987541.9769294,-3.8228416798960887,-0.8114208399480445,8.9672124404676,0.2966666666666667,-0.3622222222222222,-0.6433333333333333,0.002181661564992912,0.0023366511602256673,0.00015498959523275522
1589987541.9869294,-3.837047074599478,-0.82,8.894429388100784,0.2966666666666667,-0.3622222222222222,-0.6433333333333333,0.0016984902761971073,0.0031114352512240998,0.0009297736862311877
1589987541.9969294,-3.8211222224405192,-0.8188777775594805,8.923366667321558,0.2966666666666667,-0.3622222222222222,-0.6433333333333333,-0.0008459998259110709,0.002181661564992912,-0.00012241547829269252
1589987542.0069294,-3.829362659384271,-0.8106373406157292,8.948087978152811,0.2966666666666667,-0.3622222222222222,-0.6433333333333333,0.0009517846299819269,0.002181661564992912,-0.0010213077062391914
1589987542.0169294,-3.838149893141636,-0.8181498931416359,8.958149893141636,0.31555555555555553,-0.3622222222222222,-0.6433333333333333,0.002181661564992912,0.005252338561281143,-0.0006872000800941827
1589987542.0269294,-3.828408646637946,-0.81,8.937269173103566,0.31555555555555553,-0.3622222222222222,-0.6433333333333333,0.0018344821183613133,0.004016143683354225,0.0009172410591806566
1589987542.0369294,-3.8204484636845,-0.81,8.873587709476,0.31555555555555553,-0.3622222222222222,-0.6433333333333333,9.783959837691937e-05,0.0022795011633698313,4.8919799188459684e-05
1589987542.0469294,-3.8306814036306784,-0.8006814036306784,8.923407018153393,0.31555555555555553,-0.3622222222222222,-0.6433333333333333,-0.0010165011769315755,0.004363323129985824,0.001090830782496456
1589987542.0569293,-3.8367532354729437,-0.8067532354729436,8.953766177364718,0.31555555555555553,-0.3622222222222222,-0.6433333333333333,-0.00035416706896306373,0.004363323129985824,0.001090830782496456
1589987542.0669293,-3.831903497489939,-0.801903497489939,8.97,0.3047602188754742,-0.36761989056226285,-0.6433333333333333,-0.0026495742505603043,0.0025969402962789543,-0.0015587434680638483
1589987542.0769293,-3.8439023800219583,-0.806951190010979,8.942195239956083,0.3022222222222222,-0.3688888888888889,-0.6433333333333333,-0.0009977207358020396,0.002939918768888688,-0.0006651471572013596
1589987542.0869293,-3.829548441998153,-0.8195484419981531,8.85203201100831,0.3022222222222222,-0.3688888888888889,-0.6433333333333333,0.0010662021140716025,0.0010415734456467492,0.0022062902334177652
1589987542.0969293,-3.8143602324781374,-0.8043602324781373,8.920378953848381,0.3022222222222222,-0.3688888888888889,-0.6433333333333333,0.00023781379029964747,-0.000615203201897161,0.0030346785571897204
1589987542.1069293,-3.8351228050522304,-0.8083742683507436,8.973497073402974,0.3022222222222222,-0.3688888888888889,-0.6433333333333333,-0.001826981939575379,-0.0020043217522841454,0.003272492347489368
1589987542.1169293,-3.830576740119822,-0.8005767401198222,8.982306960479288,0.3022222222222222,-0.3622222222222222,-0.6433333333333333,-0.002307486740233433,0.0023703993278536934,0.00025165035048104194
1589987542.1269293,-3.84,-0.81,9.00583467094703,0.3022222222222222,-0.3622222222222222,-0.6433333333333333,-0.0038804488495117456,0.005067854488103017,0.004073598561701377
1589987542.1369293,-3.84,-0.81,8.893627608346709,0.3022222222222222,-0.3622222222222222,-0.6433333333333333,-5.548266520121435e-05,0.002007881540654592,0.0017786188511150578
1589987542.1469293,-3.83,-0.8003622565043681,8.89217353902621,0.3022222222222222,-0.3622222222222222,-0.6433333333333333,7.903210922485842e-05,0.0010513147278840267,0.0021026294557680535
1589987542.1569293,-3.83,-0.8083802641891763,8.940281585135057,0.3022222222222222,-0.3622222222222222,-0.6433333333333333,0.0018282900286012364,0.00017668576819583777,0.00035337153639167554
1589987542.1669292,-3.8287353463587923,-0.7812646536412079,8.976838365896981,0.3088888888888889,-0.3622222222222222,-0.6355555555555555,-0.0010218546264451703,-0.001974733096839055,-0.0009528784703938846
1589987542.1769292,-3.8105664136622392,-0.8005664136622391,8.926601518026565,0.3088888888888889,-0.3622222222222222,-0.6355555555555555,6.178614583969489e-05,0.0013997615116949304,0.0010290446366567612
1589987542.1869292,-3.820532303542969,-0.8094676964570309,8.87053230354297,0.3088888888888889,-0.3622222222222222,-0.6355555555555555,0.000974700164435904,0.006544984694978735,5.806530903027598e-05
1589987542.1969292,-3.8304768862721503,-0.8009537725443008,8.886676407810105,0.3088888888888889,-0.3622222222222222,-0.6355555555555555,-0.001090830782496456,0.006492964472437576,0.0009867903374141376
1589987542.2069292,-3.836485309496182,-0.8129706189923647,8.970794332946552,0.3088888888888889,-0.3622222222222222,-0.6355555555555555,-0.001090830782496456,0.005837547171733509,-0.0003240442639939978
1589987542.2169292,-3.84,-0.82,9.02,0.2903729408479917,-0.3583647330470353,-0.6455850274110415,0.0011814179026415487,0.00242448899896494,-0.002605663239255126
1589987542.2269292,-3.8392110105666535,-0.81,9.01579819019976,0.2822222222222222,-0.3566666666666667,-0.65,0.00209559616889702,-0.0020095307728011276,0.0019234653767052357
1589987542.2369292,-3.8312541498302126,-0.81,8.872574696943827,0.2822222222222222,-0.3566666666666667,-0.65,0.0012276373065623234,-0.00027361304813173473,-0.0006804112102988535
1589987542.2469292,-3.839287851364828,-0.8014242972703431,8.883560743175858,0.2822222222222222,-0.3566666666666667,-0.65,-0.001168514147792255,-0.0008577806866090588,0.00311712561689777
1589987542.2569292,-3.831541572784693,-0.8169168544306135,8.922292136076534,0.2822222222222222,-0.3566666666666667,-0.65,-0.0020135020602926957,0.001677183050892263,0.0014271497918968887
1589987542.2669291,-3.83,-0.813196573580932,8.923196573580931,0.2920493937164317,-0.3604463480105934,-0.65,-0.0014395228685560044,0.0006973841721190966,0.001090830782496456
1589987542.2769291,-3.8306497637735992,-0.81,8.927400944905603,0.2966666666666667,-0.3622222222222222,-0.65,-0.002181661564992912,3.5439116279648444e-05,0.0020753442161539665
1589987542.2869291,-3.8464394752197566,-0.81,8.864242099120974,0.2966666666666667,-0.3622222222222222,-0.65,-0.002181661564992912,0.0008966342808899003,-0.0005082412776767891
1589987542.2969291,-3.849602897144673,-0.8096028971446733,8.923176822842613,0.2966666666666667,-0.3622222222222222,-0.65,0.003272492347489368,-0.001090830782496456,0.0010475135806556888
1589987542.306929,-3.842587023066758,-0.8025870230667581,8.979303815465935,0.2966666666666667,-0.3622222222222222,-0.65,0.003272492347489368,-0.001090830782496456,0.0002822004396248128
1589987542.316929,-3.830231568289207,-0.82,9.009305295132378,0.3022222222222222,-0.3622222222222222,-0.65,0.002206921746804641,0.0010403104188729984,-0.0010403104188729984
1589987542.326929,-3.838096077401935,-0.82,8.985711767794195,0.3022222222222222,-0.3622222222222222,-0.65,0.0030648066097433806,-0.0006754593070044806,0.0006754593070044806
1589987542.336929,-3.84,-0.8196991073715738,8.890300892628426,0.3022222222222222,-0.3622222222222222,-0.65,0.0020503723884674955,0.002280128447386974,-0.0010251861942337478
1589987542.346929,-3.84,-0.8114343139766301,8.898565686023371,0.3022222222222222,-0.3622222222222222,-0.65,-0.0015558240300037138,0.004984775761240381,0.0007779120150018569
1589987542.356929,-3.84,-0.8038194914952038,8.924722034019185,0.3022222222222222,-0.3622222222222222,-0.65,-0.0028558504578441966,0.0020832094482258565,0.00041664188964517126
1589987542.366929,-3.84,-0.7921063968919491,8.955787206216103,0.30748462429425616,-0.357836887162194,-0.644737597927966,-0.003272492347489368,0.0008610585255071652,0.0008610585255071652
1589987542.376929,-3.8398320152167384,-0.82,8.968656121733908,0.3088888888888889,-0.3566666666666667,-0.6433333333333333,-0.0021450129704783647,0.001090830782496456,-0.0010358578907246354
1589987542.386929,-3.831434177595355,-0.82,8.901473420762839,0.3088888888888889,-0.3566666666666667,-0.6433333333333333,-0.00031288901371597216,0.001090830782496456,0.001712328044418954
1589987542.396929,-3.83,-0.82,8.919430513637774,0.3088888888888889,-0.3566666666666667,-0.6433333333333333,-0.0010701236740255195,0.0021609544565219753,-0.0010287094570836466
1589987542.406929,-3.822205118519218,-0.8122051185192181,8.927794881480782,0.3088888888888889,-0.3566666666666667,-0.6433333333333333,0.003160617550077794,-0.00036920743455163847,-0.001090830782496456
1589987542.416929,-3.8352945932289035,-0.8023527033855483,8.991178372915615,0.2935942956599854,-0.3651636629049464,-0.6433333333333333,0.005197513784978313,-0.0019250214374889453,0.001411741182481012
1589987542.426929,-3.84,-0.8,8.95109218919244,0.2888888888888889,-0.36777777777777776,-0.6433333333333333,0.003312205467203555,0.0031732095482039017,3.971311971418673e-05
1589987542.436929,-3.8192278315634316,-0.7861518877089545,8.87383538239925,0.2888888888888889,-0.36777777777777776,-0.6433333333333333,-0.0012592918024726266,0.0025171949891623687,0.0007552973583269991
1589987542.446929,-3.837660814139913,-0.7892202713799711,8.886101356899855,0.2888888888888889,-0.36777777777777776,-0.6433333333333333,-0.009307145854035477,0.012239417409236423,0.002096606366920807
1589987542.456929,-3.84,-0.8050127771514469,8.93503833145434,0.2888888888888889,-0.36777777777777776,-0.6433333333333333,-0.012273936959601751,0.010633509472823825,0.002181661564992912
1589987542.466929,-3.848234584565898,-0.8264691691317958,8.974703753697694,0.3053580580206847,-0.3586282393712245,-0.6488230563772653,-0.012191715557402304,0.008919223209912936,-0.0005130999326725914
1589987542.476929,-3.8599866086374286,-0.8599598259122866,9.019946434549714,0.3088888888888889,-0.3566666666666667,-0.65,-0.006552288550234821,0.007637276248526409,-0.0021802007939416947
1589987542.486929,-3.8308515967438947,-0.821135462325193,8.913122521394282,0.3088888888888889,-0.3566666666666667,-0.65,-0.00018578958850284065,0.0033963520731579286,-6.192986283428022e-05
1589987542.496929,-3.83,-0.810001473296501,8.939995580110496,0.3088888888888889,-0.3566666666666667,-0.65,0.0010906700707789612,-0.0021808580064054377,0.0
1589987542.506929,-3.816850719593641,-0.7902760793904618,8.95314928040636,0.3088888888888889,-0.3566666666666667,-0.65,0.0018080127742431383,-3.0115589752864862e-05,0.0
1589987542.516929,-3.824719800747198,-0.757920298879203,8.974719800747199,0.29989345509893456,-0.36075550020755504,-0.65,0.0013788209766300158,0.00028799019413355993,-0.000802840588362896
1589987542.526929,-3.8389150967609464,-0.8034905805656795,8.926509419434321,0.2966666666666667,-0.3622222222222222,-0.65,0.005953261770383935,-0.003889944790309984,-0.004008289375228944
1589987542.536929,-3.84,-0.8477817402279967,8.859549215635205,0.2966666666666667,-0.3622222222222222,-0.65,0.006544984694978735,-0.004363323129985824,-0.0018905140145668146
1589987542.546929,-3.8324321986465173,-0.86,8.877839006767415,0.2966666666666667,-0.3622222222222222,-0.65,0.002417389358879974,-0.004363323129985824,-0.001090830782496456
1589987542.5569289,-3.8429343158987876,-0.8535328420506061,8.954671579493938,0.2966666666666667,-0.3622222222222222,-0.65,0.0003853732858499053,-0.0029524081366927224,-0.001090830782496456
1589987542.5669289,-3.85,-0.8438603108703356,8.99,0.3082638572449215,-0.3663153483086651,-0.6411315601460404,0.0006697361897596716,-0.0001724529957138972,-0.001090830782496456
1589987542.5769289,-3.843396170402256,-0.8333961704022561,8.983396170402257,0.31555555555555553,-0.3688888888888889,-0.6355555555555555,0.001090830782496456,-0.0003499013390195697,-0.001090830782496456
1589987542.5869288,-3.84,-0.8247874521975281,8.927874521975282,0.31555555555555553,-0.3688888888888889,-0.6355555555555555,0.0005222300226793984,0.0011835722567717741,0.0006149714969547167
1589987542.5969288,-3.8334293912687025,-0.8002881738061078,8.893141217462595,0.31555555555555553,-0.3688888888888889,-0.6355555555555555,-0.0021502266791517555,0.003272492347489368,3.1434885841156394e-05
1589987542.6069288,-3.83,-0.7748012855332247,8.915198714466776,0.31555555555555553,-0.3688888888888889,-0.6355555555555555,-0.004377774053804882,0.003272492347489368,1.445092381905798e-05
1589987542.6169288,-3.81930340199028,-0.76,8.933565532669906,0.31555555555555553,-0.3688888888888889,-0.6383287476321496,-0.003898396795549897,0.005606128022887943,0.0007018915032633603
1589987542.6269288,-3.8220101071708634,-0.7893468095611513,8.954673404780577,0.31555555555555553,-0.3688888888888889,-0.6433333333333333,-0.002691450944364713,0.010617787123402233,-0.004001550404670642
1589987542.6369288,-3.7965564569620898,-0.816721771518955,8.893112913924181,0.31555555555555553,-0.3688888888888889,-0.6433333333333333,-0.003272492347489368,0.009996276669427127,-0.010926340845706886
1589987542.6469288,-3.8234609858922726,-0.7949042605807957,8.946921971784546,0.31555555555555553,-0.3688888888888889,-0.6433333333333333,-0.004184999183088631,0.005254942864471787,-0.012911645443060279
1589987542.6569288,-3.807438442696919,-0.774958961797946,8.990082076404109,0.31555555555555553,-0.3688888888888889,-0.6433333333333333,-0.0035429617564105382,0.006824407250711682,-0.013910330763532755
1589987542.6669288,-3.81148453140936,-0.7757422657046803,9.00574226570468,0.3047090536689373,-0.3650607117524354,-0.6350389495376841,-0.003272492347489368,0.007635815477475192,-0.019191872326005055
1589987542.6769288,-3.850211009888655,-0.8328692673051468,8.994894495055673,0.2966666666666667,-0.3622222222222222,-0.6288888888888889,-0.003272492347489368,0.009283570455317695,-0.01961193647674057
1589987542.6869287,-3.852792488680466,-0.85,8.88909484152652,0.2966666666666667,-0.3622222222222222,-0.6288888888888889,0.0006585952587804542,0.00903125952121414,-0.012254383132408037
1589987542.6969287,-3.8327143954524505,-0.8327143954524504,8.85,0.2966666666666667,-0.3622222222222222,-0.6288888888888889,0.0002960946115401347,0.0011843784461605389,0.0005531412015221688
1589987542.7069287,-3.8369414180277834,-0.781410073805516,8.940238434361184,0.2966666666666667,-0.3622222222222222,-0.6288888888888889,-0.0037859562294410023,0.002271573737664602,0.0044532353026575135
1589987542.7169287,-3.8519286384976525,-0.7421070422535211,8.98,0.3039563901930099,-0.36619843505477306,-0.6467818466353678,-0.004803547609156694,1.9460830861439335e-05,0.01456264215904048
1589987542.7269287,-3.8383493701889435,-0.7588675064147422,8.972783123396315,0.3088888888888889,-0.3688888888888889,-0.6588888888888889,-0.0012143666688743493,-0.007692335371937994,0.033321610711878565
1589987542.7369287,-3.83,-0.8008915233766647,8.923662714935004,0.3088888888888889,-0.3688888888888889,-0.6588888888888889,0.0011232474872491555,-0.011502348273341838,0.053904542208864134
1589987542.7469287,-3.801235465639512,-0.9614950142193743,8.941638287915332,0.3088888888888889,-0.3688888888888889,-0.6588888888888889,0.003526400401761375,-0.012193476832111829,0.07903200371250162
1589987542.7569287,-3.680450940755714,-1.0748703329359526,8.95928972511619,0.3088888888888889,-0.3688888888888889,-0.6588888888888889,0.014131610166712365,-0.009462065115926212,0.09381144729469522
1589987542.7669287,-3.530038426665515,-0.8925672466646518,8.87,0.3088888888888889,-0.366113245925862,-0.6403846024687093,0.02735992558638557,-0.012631614173202778,0.06247416456694946
1589987542.7769287,-3.2523744685632945,-0.7327338789728991,8.9019423894518,0.3088888888888889,-0.3622222222222222,-0.6144444444444445,0.014282849125660711,-0.005697457412730448,-0.020364721574134673
1589987542.7869287,-2.014744036250608,-0.9479215818447366,8.993569636370445,0.3088888888888889,-0.3622222222222222,-0.6144444444444445,-0.004854060132949159,0.02388091374122573,-0.0684102823618204
1589987542.7969286,-1.3811397190568337,-1.026507381925034,8.960735325736401,0.3088888888888889,-0.3622222222222222,-0.6144444444444445,0.004956857660245485,0.08229754583761476,-0.07509888746097985
1589987542.8069286,-1.3885061686192859,-0.8887802604182852,8.630639547530999,0.3088888888888889,-0.3622222222222222,-0.6144444444444445,0.030972319531767746,0.08671431828866573,-0.09843091006210118
1589987542.8169286,-1.6354121926890806,-0.82,8.876322243736432,0.2978931721723484,-0.36588746112773574,-0.6187205565008769,0.001652599354811858,0.024286170007251383,-0.15570090910466386
1589987542.8269286,-1.860353982300885,-0.7258407079646018,9.061681415929204,0.2888888888888889,-0.3688888888888889,-0.6222222222222222,-0.024654706358371227,0.0019017138420513412,-0.23384322898401902
1589987542.8369286,-1.9349564487354391,-0.8448693462063176,8.935652219540351,0.2888888888888889,-0.3688888888888889,-0.6222222222222222,0.005501546497638492,0.029774906761184612,-0.31629341986397264
1589987542.8469286,-2.0178401947409252,-0.9127699756573844,8.876619853944305,0.2888888888888889,-0.3688888888888889,-0.6222222222222222,0.02612869894217951,0.041938085574593637,-0.38146801541977804
1589987542.8569286,-2.073205087774624,-0.9232820351098497,8.972897298433722,0.2888888888888889,-0.3688888888888889,-0.6222222222222222,0.0193105142009884,0.033124906228547,-0.4032158004222249
1589987542.8669286,-2.1335805197348177,-0.937263419955803,9.05179025986741,0.30341572880049483,-0.37292412219766835,-0.637556108795584,0.011803851550257252,0.022023070685716725,-0.40846451428597585
1589987542.8769286,-2.15,-0.94,9.018960148758524,0.3088888888888889,-0.3744444444444445,-0.6433333333333333,0.019861814433620343,0.027948924507259436,-0.4109801519951687
1589987542.8869286,-2.153547941165628,-0.9470958823312566,8.92968500018432,0.3088888888888889,-0.3744444444444445,-0.6433333333333333,0.02463185740473344,0.03497681528877626,-0.415043178190228
1589987542.8969285,-2.1728983082357316,-0.9703186465885852,8.822579661647147,0.3088888888888889,-0.3744444444444445,-0.6433333333333333,0.019846833616736226,0.03568125943831315,-0.4230652230275815
1589987542.9069285,-2.223339198228397,-0.9899956013287021,8.853343596899695,0.3088888888888889,-0.3744444444444445,-0.6433333333333333,0.014544570373487872,0.03236163309446512,-0.4374255428841058
1589987542.9169285,-2.248786573435059,-0.9709100699237058,8.897876503511354,0.3088888888888889,-0.3744444444444445,-0.6433333333333333,0.015238539878716968,0.0337495721049233,-0.44783508546254214
1589987542.9269285,-2.2362340866734916,-1.0134414783316272,8.950324434994881,0.31555555555555553,-0.3566666666666667,-0.6588888888888889,0.018133325884362828,0.03378036388945656,-0.4751345300116368
1589987542.9369285,-2.198569984159617,-1.0085699841596172,8.901419904957702,0.31555555555555553,-0.3566666666666667,-0.6588888888888889,0.012777988330328038,0.03101068203624164,-0.504588886558828
1589987542.9469285,-2.2046736838582284,-1.0048912279527427,8.859782455905485,0.31555555555555553,-0.3566666666666667,-0.6588888888888889,0.013576058832494003,0.032677462715924324,-0.529811534980492
1589987542.9569285,-2.226883159957787,-1.0168831599577868,8.883766319915573,0.31555555555555553,-0.3566666666666667,-0.6588888888888889,0.01786413429000701,0.03715909386872685,-0.5559270991161491
1589987542.9669285,-2.243809523809524,-1.0414285714285714,8.92904761904762,0.31555555555555553,-0.3566666666666667,-0.6555026455026455,0.021972448618857183,0.041036015151057155,-0.5917497273428393
1589987542.9769285,-2.2687287196947943,-1.0637457439389588,8.982474463633753,0.31555555555555553,-0.3566666666666667,-0.65,0.022772485377332275,0.04036073895236887,-0.6333455167816608
1589987542.9869285,-2.294649256423618,-1.0860522307291458,8.902283641319597,0.31555555555555553,-0.3566666666666667,-0.65,0.023060487188377693,0.04619749475473146,-0.685050673360515
1589987542.9969285,-2.3184452672149556,-1.0829328396710267,8.834134320657947,0.31555555555555553,-0.3566666666666667,-0.65,0.025089107997418484,0.051889626239221644,-0.7329226844570085
1589987543.0069284,-2.351013698630137,-1.092027397260274,8.876520547945205,0.31555555555555553,-0.3566666666666667,-0.65,0.023286995773184615,0.0529605816345745,-0.7773021069870841
1589987543.0169284,-2.36,-1.1163039858975616,8.896303985897562,0.32816352735067844,-0.3566666666666667,-0.645797342734959,0.02525490658467091,0.05620134109011977,-0.8283419204175854
1589987543.0269284,-2.37030194963581,-1.114849025182095,8.915452924453716,0.33555555555555555,-0.3566666666666667,-0.6433333333333333,0.02446134861679396,0.05893779985055914,-0.8717694757278067
1589987543.0369284,-2.399088296285517,-1.1290882962855169,8.896595481500345,0.33555555555555555,-0.3566666666666667,-0.6433333333333333,0.02233716817927048,0.05947514050796372,-0.9189969362499516
1589987543.0469284,-2.4505816197511145,-1.1744652958008917,8.86,0.33555555555555555,-0.3566666666666667,-0.6433333333333333,0.026910571096799674,0.06557673669543213,-0.9720141428484872
1589987543.0569284,-2.4445892262895175,-1.1950821547420964,8.849835690515807,0.33555555555555555,-0.3566666666666667,-0.6433333333333333,0.03222431654444891,0.06870441591295534,-1.0121129801440514
1589987543.0669284,-2.393301622504961,-1.226698377495039,8.898736430489086,0.35632096027391935,-0.3453940183909835,-0.6468931169993386,0.03548905328017257,0.06588410379392232,-1.0574063114180796
1589987543.0769284,-2.38956092785058,-1.2369593814329467,8.936959381432946,0.3744444444444445,-0.33555555555555555,-0.65,0.035286160414596215,0.06791529320622504,-1.100500986155677
1589987543.0869284,-2.363548017220864,-1.2421506609263786,8.857096034441728,0.3744444444444445,-0.33555555555555555,-0.65,0.03755744803312074,0.07312674882131587,-1.1318661548473326
1589987543.0969284,-2.356742517497274,-1.2751137762459115,8.822556888122955,0.3744444444444445,-0.33555555555555555,-0.65,0.03744358282362119,0.07663706800194389,-1.1575223495991036
1589987543.1069283,-2.3906055900621115,-1.3232569875776399,8.855908385093167,0.3744444444444445,-0.33555555555555555,-0.65,0.036063475450515595,0.07796137113443033,-1.1808323677763526
1589987543.1169283,-2.413581545183567,-1.366418454816433,8.9,0.3854984499616348,-0.33163316650106867,-0.6621237479865959,0.03821969095639824,0.07845858920170026,-1.2004109377099728
1589987543.1269283,-2.40191543555782,-1.3819154355578196,8.909577177789098,0.4088888888888889,-0.3233333333333333,-0.6877777777777778,0.03578847421554724,0.08332102268340225,-1.2165558374522676
1589987543.1369283,-2.4030745734147883,-1.39,8.901522013903518,0.4088888888888889,-0.3233333333333333,-0.6877777777777778,0.037172925590207066,0.08470707760967015,-1.2368360813892465
1589987543.1469283,-2.3967123287671233,-1.4017465753424656,8.833493150684932,0.4088888888888889,-0.3233333333333333,-0.6877777777777778,0.040536317879688505,0.08344481913912101,-1.2501144910720856
1589987543.1569283,-2.4342719449225476,-1.4728158347676419,8.894464716006885,0.4088888888888889,-0.3233333333333333,-0.6877777777777778,0.03786140343144067,0.08351745931832419,-1.2729784951100869
1589987543.1669283,-2.467446829142155,-1.5284255607990174,8.896851121598035,0.41559811379030465,-0.3044255177020708,-0.682898341485839,0.043953520485590925,0.08846405644412382,-1.2919057171107982
1589987543.1769283,-2.4668972974757732,-1.5507589189903093,8.89993297343701,0.4211111111111111,-0.2888888888888889,-0.6788888888888889,0.04438560974011908,0.08793605582037227,-1.307830634457461
1589987543.1869283,-2.4294936566745258,-1.5610126866509488,8.819493656674526,0.4211111111111111,-0.2888888888888889,-0.6788888888888889,0.04336167685334926,0.0869396746646136,-1.3212170115575836
1589987543.1969283,-2.3980780890020617,-1.617882866496908,8.811921910997938,0.4211111111111111,-0.2888888888888889,-0.6788888888888889,0.04300428739652725,0.08900753275734966,-1.3440279901161878
1589987543.2069283,-2.4048898920510307,-1.6498531894013737,8.859706378802748,0.4211111111111111,-0.2888888888888889,-0.6788888888888889,0.0398193271991251,0.08890671241146561,-1.36346641263649
1589987543.2169282,-2.42,-1.6976470463373734,8.893088238415658,0.4326307137516833,-0.2796732067764311,-0.6842647034544893,0.041154798744241966,0.08986520584170858,-1.3801415612307684
1589987543.2269282,-2.42,-1.75,8.88,0.4544444444444444,-0.26222222222222225,-0.6944444444444444,0.04593686830718125,0.09352915399541646,-1.4006720153385424
1589987543.2369282,-2.4256336996337,-1.7950695970695971,8.834930402930404,0.4544444444444444,-0.26222222222222225,-0.6944444444444444,0.046152930535910484,0.0930586541832581,-1.4241638961810303
1589987543.2469282,-2.4256249886365704,-1.8606250795440082,8.80437501136343,0.4544444444444444,-0.26222222222222225,-0.6944444444444444,0.04615578120305498,0.09353874455730268,-1.4446690497972492
1589987543.2569282,-2.42,-1.9088478855121402,8.821797180682854,0.4544444444444444,-0.26222222222222225,-0.6944444444444444,0.048318272625732295,0.0988885726226822,-1.468343654464072
1589987543.2669282,-2.4298516021298715,-1.9201483978701281,8.88448060745455,0.46703260272150277,-0.2534652425512251,-0.7048433578037535,0.048012742126323345,0.10312397818711327,-1.5018473597469097
1589987543.2769282,-2.4154111153406927,-1.9493422154548914,8.841315569090217,0.48,-0.24444444444444444,-0.7155555555555555,0.049051508630837785,0.10411155571078176,-1.531829667091129
1589987543.2869282,-2.3940450660863104,-2.014270396517862,8.77213519825893,0.48,-0.24444444444444444,-0.7155555555555555,0.053475288079423304,0.10843349572756714,-1.5573880078300062
1589987543.2969282,-2.3958309823031545,-2.066676070787381,8.80667607078738,0.48,-0.24444444444444444,-0.7155555555555555,0.052175507853324324,0.10771877039869818,-1.5838924511674688
1589987543.3069282,-2.39,-2.1103333179233505,8.819833341038326,0.48,-0.24444444444444444,-0.7155555555555555,0.04803291377495894,0.10913761726731791,-1.6076603406285508
1589987543.3169281,-2.3697983162739993,-2.1580806734904003,8.844443704197202,0.48,-0.22289598180337689,-0.7272276394861338,0.05235987755982988,0.11739099242195068,-1.6304172883078651
1589987543.3269281,-2.3363691961446253,-2.191784823132247,8.888215176867753,0.48,-0.19111111111111112,-0.7444444444444445,0.050379581254505215,0.11721897124715562,-1.6450634957470822
1589987543.3369281,-2.3229430444163985,-2.235880796319668,8.839414566624598,0.48,-0.19111111111111112,-0.7444444444444445,0.04716232179339103,0.11363856132735206,-1.6570996803615143
1589987543.3469281,-2.27,-2.2902766604698326,8.787404427919554,0.48,-0.19111111111111112,-0.7444444444444445,0.04871371529294859,0.1240112182608834,-1.680030299922939
1589987543.356928,-2.2680927301796294,-2.3138145396407412,8.834278190538889,0.48,-0.19111111111111112,-0.7444444444444445,0.04882875788207873,0.12606969257626846,-1.6928682215000932
1589987543.366928,-2.2528635826513193,-2.3614543306052784,8.794317913256597,0.4895452755043984,-0.17647502200436685,-0.7511261372975234,0.056410832279387486,0.1326152615029276,-1.7176022230862873
1589987543.376928,-2.2433908864364542,-2.386678177287291,8.863218227127092,0.5133333333333333,-0.14,-0.7677777777777778,0.052371178085202134,0.13236041301255458,-1.738391777918123
1589987543.386928,-2.1952603471295062,-2.434045393858478,8.80716955941255,0.5133333333333333,-0.14,-0.7677777777777778,0.05224627969462999,0.1372932147742869,-1.7642578603789845
1589987543.396928,-2.1841205383802658,-2.510602691901328,8.75416969084478,0.5133333333333333,-0.14,-0.7677777777777778,0.05441005214915691,0.14212599575943854,-1.783129953561106
1589987543.406928,-2.19,-2.550458345774858,8.811194386383995,0.5133333333333333,-0.14,-0.7677777777777778,0.04723600206283026,0.13825522872959148,-1.8015418891572528
1589987543.416928,-2.1634960483496046,-2.5775725576143986,8.788153018529588,0.520905890947732,-0.12233069889973656,-0.7867091718137743,0.04540187391745045,0.14428611540894345,-1.817387402102528
1589987543.426928,-2.12,-2.6184275575134603,8.843144884973078,0.5333333333333333,-0.09333333333333334,-0.8177777777777778,0.04472406208235469,0.14835298641951802,-1.8282323914640604
1589987543.436928,-2.10388981761022,-2.645972454402555,8.71555927044088,0.5333333333333333,-0.09333333333333334,-0.8177777777777778,0.042527376724554124,0.14967099763419836,-1.8321864251081013
1589987543.446928,-2.08,-2.6897048607117386,8.686273147615651,0.5333333333333333,-0.09333333333333334,-0.8177777777777778,0.03836624830147136,0.15298096856960897,-1.840309018177531
1589987543.456928,-2.0750824417685068,-2.76,8.76524732530552,0.5333333333333333,-0.09333333333333334,-0.8177777777777778,0.036015401826153114,0.15543439350385993,-1.8432358112243292
1589987543.466928,-2.0625653192473554,-2.76,8.727695957742066,0.5333333333333333,-0.09333333333333334,-0.8177777777777778,0.03328458931528281,0.1567997997592951,-1.8425531080966113
1589987543.476928,-2.06118115942029,-2.7985163996948894,9.050659038901602,0.5544444444444444,-0.14222222222222222,-0.8311111111111111,0.048732282765963766,0.10400799011423108,-1.8428252485962868
1589987543.486928,-1.7514013732833957,-2.632142634207241,8.46443352059925,0.5544444444444444,-0.14222222222222222,-0.8311111111111111,0.07824719178994592,0.054406376883670775,-1.839827234954725
1589987543.496928,-1.2652059829496145,-2.220767777834499,7.813426923273266,0.5544444444444444,-0.14222222222222222,-0.8311111111111111,-0.06696693461266309,0.2198255587198166,-1.8104822189343281
1589987543.506928,-1.4793210475266731,-2.499117361784675,8.776944713870028,0.5544444444444444,-0.14222222222222222,-0.8311111111111111,-0.01869718523570954,0.11160789479406594,-1.8042538641760117
1589987543.516928,-1.8641476826394343,-2.8473579471065724,9.29619272060749,0.5553251287422536,-0.14545139798085596,-0.8504861656629135,0.04995827891640747,0.14559491832949817,-1.7552675516136493
1589987543.526928,-1.7961637309847878,-2.83133226581265,8.777158927141713,0.5577777777777778,-0.15444444444444444,-0.9044444444444444,0.10529757228995573,0.14918993048586413,-1.719858440559369
1589987543.536928,-1.822827279030191,-2.9880454650503183,8.883780700464316,0.5577777777777778,-0.15444444444444444,-0.9044444444444444,-0.0021904620990702405,0.12080901069373202,-1.721396176652975
1589987543.546928,-1.8735966350417932,-3.1011250571129088,9.01730695836805,0.5577777777777778,-0.15444444444444444,-0.9044444444444444,0.01646038349446939,0.09900775035298187,-1.7021007541842006
1589987543.556928,-1.7456891589382795,-2.96284457946914,8.531290374160537,0.5577777777777778,-0.15444444444444444,-0.9044444444444444,0.03148134324280156,0.12808784819368643,-1.6686512085635017
1589987543.566928,-1.7678306643412083,-3.0587036625971145,8.593716822578088,0.5224493067667318,-0.15868386096576995,-0.8276639007804379,0.029689068938822043,0.11146602550746701,-1.644912942786184
1589987543.576928,-1.86,-3.22,9.02,0.4744444444444445,-0.16444444444444445,-0.7233333333333334,0.01963495408493621,0.10581058590215622,-1.6329736813971945
1589987543.586928,-1.869281739406948,-3.2942539152555845,8.908619127116623,0.4744444444444445,-0.16444444444444445,-0.7233333333333334,0.03887208749933402,0.10581058590215622,-1.6025992602165666
1589987543.596928,-1.8099245700294218,-3.3141056019588095,8.738512923799933,0.4744444444444445,-0.16444444444444445,-0.7233333333333334,0.03949794808643127,0.09991680842332216,-1.5556951388228246
1589987543.6069279,-1.7696397539315891,-3.3692795078631783,8.998111879742442,0.4744444444444445,-0.16444444444444445,-0.7233333333333334,0.0443703913317284,0.09821406717475062,-1.529453169090788
1589987543.6169279,-1.753138046677161,-3.344853535007871,8.670850728902881,0.4742538346299212,-0.1571377348877178,-0.719965893276755,0.035405600367393694,0.09901609354342393,-1.5010440031382113
1589987543.6269279,-1.6496498315369528,-3.296186868263573,8.681634678243961,0.4711111111111111,-0.03666666666666667,-0.6644444444444444,0.045738497957140904,0.09727070306663466,-1.455287080056663
1589987543.6369278,-1.6777726000301725,-3.4016472501131467,9.15269105050539,0.4711111111111111,-0.03666666666666667,-0.6644444444444444,0.05187393426942598,0.10417306891795537,-1.4238429689562018
1589987543.6469278,-1.4806344773229614,-3.1334138066925963,8.018096568031115,0.4711111111111111,-0.03666666666666667,-0.6644444444444444,0.08632569744703109,0.15130271337141543,-1.3682527518460177
1589987543.6569278,-1.45188818258143,-3.2052795435464247,8.10433545225571,0.4711111111111111,-0.03666666666666667,-0.6644444444444444,-0.00696239853363495,-0.007051869721816012,-1.3894189584970928
1589987543.6669278,-1.5094959525094442,-3.3365353480841877,9.348250404749056,0.4836255921328776,-0.016591353360916234,-0.6581872039335611,-0.001119911754247846,0.04548687834137192,-1.336071794643202
1589987543.6769278,-1.4403187273234719,-3.3585358638012837,8.311404409712532,0.5244444444444445,0.048888888888888885,-0.6377777777777778,0.07394343963342603,0.10500441232915857,-1.2568315416770164
1589987543.6869278,-1.4734770934720591,-3.4770404430273536,8.92,0.5244444444444445,0.048888888888888885,-0.6377777777777778,0.019606726847704967,0.05931238155133381,-1.2302189667828645
1589987543.6969278,-1.4472693018626475,-3.40526553391156,8.90328060571591,0.5244444444444445,0.048888888888888885,-0.6377777777777778,0.02776585442772189,0.05146625868405094,-1.1968020150619094
1589987543.7069278,-1.5241001163210461,-3.6,8.721799767357908,0.5244444444444445,0.048888888888888885,-0.6377777777777778,0.042099566361104644,0.07001833254975537,-1.1320904472210116
1589987543.7169278,-1.4802601546201988,-3.6,8.79243496134495,0.5276910595710449,0.0651219645218909,-0.6356133676933775,0.03715521041626052,0.04923948442409798,-1.0947378079911694
1589987543.7269278,-1.4436359954342943,-3.5936359954342945,8.736359954342944,0.5377777777777778,0.11555555555555555,-0.6288888888888889,0.056574189967658714,0.06014426194869557,-1.0384204983446297
1589987543.7369277,-1.4120396963322053,-3.5650330802768377,8.555099240830513,0.5377777777777778,0.11555555555555555,-0.6288888888888889,0.04788530625253833,0.0537772358773899,-1.0007440372553267
1589987543.7469277,-1.31,-3.482925636007828,8.440430528375733,0.5377777777777778,0.11555555555555555,-0.6288888888888889,0.0489827850003203,0.052440996091600654,-0.9465273185708631
1589987543.7569277,-1.3206413026529749,-3.5095090548637873,8.804829706190274,0.5377777777777778,0.11555555555555555,-0.6288888888888889,0.03663136265407914,0.04453059774069259,-0.9054103003572356
1589987543.7669277,-1.3689655741765048,-3.6031032774704865,8.89517378023611,0.5373180329673354,0.12176211049652806,-0.6288888888888889,0.03058081465788236,0.043858908005953844,-0.8589355394551081
1589987543.7769277,-1.3603089655741767,-3.6290731032774706,8.687415173780236,0.5334706513663007,0.1737017621104965,-0.6288888888888889,0.04002370979332545,0.04574748703304247,-0.8079439057237153
1589987543.7869277,-1.295173768632534,-3.597818575826312,8.710115845755022,0.5333333333333333,0.17555555555555555,-0.6288888888888889,0.024562647823510305,0.03465599176449253,-0.7388546213737285
1589987543.7969277,-1.3366571310458868,-3.6783285655229436,8.726628524183548,0.5333333333333333,0.17555555555555555,-0.6288888888888889,0.029178943300629426,0.03972260068989414,-0.686663935220805
1589987543.8069277,-1.3089147581645308,-3.6644573790822657,8.615659032658124,0.5333333333333333,0.17555555555555555,-0.6288888888888889,0.02690927572674358,0.0344267096841605,-0.6458099188908599
1589987543.8169277,-1.2852055587724378,-3.632602779386219,8.886685002895195,0.5385935791031332,0.17999388792382423,-0.6298751849707264,0.028522982663916445,0.025411872635435675,-0.5622351555256444
1589987543.8269277,-1.2299592944369064,-3.629945725915875,8.793355947535053,0.5688888888888889,0.20555555555555555,-0.6355555555555555,0.027273729754494158,0.026181418875956323,-0.48617701401876195
1589987543.8369277,-1.2711020365967125,-3.7118897963403286,8.72976325855474,0.5688888888888889,0.20555555555555555,-0.6355555555555555,0.022495156828289627,0.022349118798378233,-0.42962392358905416
1589987543.8469276,-1.1988338674661427,-3.719116613253386,8.614134187945828,0.5688888888888889,0.20555555555555555,-0.6355555555555555,0.020918509958643913,0.016042531319795394,-0.3831128409345057
1589987543.8569276,-1.1731905329606973,-3.693585123223953,8.666020286512792,0.5688888888888889,0.20555555555555555,-0.6355555555555555,0.01924018961565939,0.012085224848587534,-0.2867052587380037
1589987543.8669276,-1.12,-3.6053910740618136,8.78,0.5701179358057387,0.20606765843757627,-0.6368870230488094,0.0072336108144655745,0.00545415391248228,-0.2321702453020927
1589987543.8769276,-1.1338065650644784,-3.5876131301289567,8.782301094177413,0.5822222222222222,0.2111111111111111,-0.65,0.0047785549647766795,0.004701122603838624,-0.1629090127726255
1589987543.8869276,-1.1777444276707218,-3.6792481425569075,8.77345913625196,0.5822222222222222,0.2111111111111111,-0.65,0.009735462118170647,0.0019356167921005401,-0.11278217736084283
1589987543.8969276,-1.1599398499732925,-3.650120300053415,8.589879699946586,0.5822222222222222,0.2111111111111111,-0.65,0.006829174753225449,-0.002175100214922855,-0.051076715620067506
1589987543.9069276,-1.1958760295109438,-3.6409255890948478,8.671545441540129,0.5822222222222222,0.2111111111111111,-0.65,0.00023619693324375044,-0.006949763148674514,-0.0006527016339320912
1589987543.9169276,-1.2177883325168792,-3.837282911972056,8.757235415646099,0.5939563469243347,0.21584162211667482,-0.6536246772640034,-0.002789981353242464,-0.013210597138519197,0.04422600795178503
1589987543.9269276,-1.1820549083086622,-3.631815722774808,8.712568635385828,0.7835420142512642,0.2922714461175836,-0.7121877891608035,0.005005842464822983,-0.01515955309303556,0.08905199490566135
1589987543.9369276,-1.2240266727286504,-3.6319911090904498,8.764115581824152,0.7944444444444444,0.2966666666666667,-0.7155555555555555,-0.007635815477475192,-0.022690250123708455,0.15527902210391165
1589987543.9469275,-1.1902618872053472,-3.6205237744106946,8.672172640993317,0.7944444444444444,0.2966666666666667,-0.7155555555555555,-0.008166947137466688,-0.022878878969912107,0.22101013690907859
1589987543.9569275,-1.1699392097264436,-3.573914893617021,8.704036474164134,0.7944444444444444,0.2966666666666667,-0.7155555555555555,-0.010684836716331548,-0.026396778698380804,0.2837532690855386
1589987543.9669275,-1.2116179058184964,-3.629029256508902,8.68485371745549,0.8194680544371874,0.2986081536488623,-0.7446059533632227,-0.014604366925252943,-0.027729633544610336,0.3392904372435997
1589987543.9769275,-1.2656334157192288,-3.6075112209589717,8.841266831438459,1.5677777777777775,0.3566666666666667,-1.6133333333333333,-0.026246585682889022,-0.041246732958960856,0.41828409441885456
1589987543.9869275,-1.2897929086164381,-3.6395858172328763,8.883165984342455,1.5677777777777775,0.3566666666666667,-1.6133333333333333,-0.02159071399394994,-0.04038332911796679,0.4736851387568405
1589987543.9969275,-1.2808447612336713,-3.620563174155781,8.563660632012576,1.5677777777777775,0.3566666666666667,-1.6133333333333333,-0.01103117336597099,-0.04163586804637497,0.5394689769595912
1589987544.0069275,-1.3128824105366224,-3.6438432140488297,8.69384321404883,1.5677777777777775,0.3566666666666667,-1.6133333333333333,-0.014852401336131747,-0.04852059145336735,0.6029108316385862
1589987544.0169275,-1.3327537032942738,-3.6703382710590318,8.720338271059031,1.5677777777777775,0.3566666666666667,-1.6133333333333333,-0.011962238959059079,-0.05213329442470818,0.6383153207577263
1589987544.0269275,-1.34,-3.546147608803574,8.801332119808043,0.75,-0.13777777777777778,-0.8244444444444444,-0.01308996938995747,-0.05879980458222664,0.7023340077010112
1589987544.0369275,-1.34,-3.5152997959071097,8.731924540790999,0.75,-0.13777777777777778,-0.8244444444444444,-0.01308996938995747,-0.05795856098522278,0.7359837515811655
1589987544.0469275,-1.3417330140676444,-3.535199042202933,8.671733014067645,0.75,-0.13777777777777778,-0.8244444444444444,-0.01854412330243975,-0.06364627040309163,0.7856152847594238
1589987544.0569274,-1.3536616728331414,-3.561220557611047,8.686102788055235,0.75,-0.13777777777777778,-0.8244444444444444,-0.0194761185721981,-0.06598241567536356,0.815997487494711
1589987544.0669274,-1.3791017165039121,-3.5697005721679704,8.728502860839853,0.75,-0.13777777777777778,-0.8244444444444444,-0.025951301212495344,-0.0696825200412477,0.8391231397814868
1589987544.0769274,-1.3981704688342014,-3.579085234417101,8.7209147655829,0.6177593657066442,0.11963719737341078,-0.7386394527273816,-0.02320680276940401,-0.06485794339558829,0.8657068812800326
1589987544.0869274,-1.4172793595330888,-3.61,8.7827571178989,0.6044444444444445,0.14555555555555555,-0.73,-0.024561064390570986,-0.07037595725542212,0.8835381902533278
1589987544.0969274,-1.371017371131104,-3.6120347422622077,8.574323827307191,0.6044444444444445,0.14555555555555555,-0.73,-0.018738334758170248,-0.06455322762302139,0.8957940283789966
1589987544.1069274,-1.4027821749764091,-3.684225739981127,8.732782174976409,0.6044444444444445,0.14555555555555555,-0.73,-0.02476272215060185,-0.07167989461602983,0.904298718689562
1589987544.1169274,-1.3623956708456102,-3.651916536676488,8.69239567084561,0.6044444444444445,0.14555555555555555,-0.73,-0.016832850608008598,-0.06991770093989802,0.904298718689562
1589987544.1269274,-1.3635030064022982,-3.658757516005745,8.789490980793106,0.5788888888888889,0.18444444444444444,-0.7388888888888889,-0.02375169247220039,-0.07193930626278991,0.8869254347664117
1589987544.1369274,-1.3739594498369747,-3.6969797249184877,8.729429037214706,0.5788888888888889,0.18444444444444444,-0.7388888888888889,-0.018276944777573523,-0.0668701386353359,0.8724154964844214
1589987544.1469274,-1.34252145560844,-3.68126072780422,8.67441254731477,0.5788888888888889,0.18444444444444444,-0.7388888888888889,-0.022563636258127514,-0.0685848152275575,0.8484100241933189
1589987544.1569273,-1.3510175744317972,-3.783052723295391,8.684070297727189,0.5788888888888889,0.18444444444444444,-0.7388888888888889,-0.01516063080358182,-0.060753523365695845,0.7955446166582556
1589987544.1669273,-1.3587931481962108,-3.8063794445886323,8.715172592784844,0.5788888888888889,0.18444444444444444,-0.7388888888888889,-0.014312447282202394,-0.05820897280155757,0.7480463394610078
1589987544.1769273,-1.378797937818928,-3.828797937818928,8.782787626913567,0.5988888888888889,0.12444444444444445,-0.7744444444444445,-0.009728186038335088,-0.051877212626820365,0.6535637258177176
1589987544.1869273,-1.3714430006838867,-3.8214430006838866,8.73865800410332,0.5988888888888889,0.12444444444444445,-0.7744444444444445,-0.002507493391128683,-0.04224962243054517,0.587775192809837
1589987544.1969273,-1.3236174962979839,-3.81,8.70517667160269,0.5988888888888889,0.12444444444444445,-0.7744444444444445,0.003272492347489368,-0.0375599417656624,0.4571645591730481
1589987544.2069273,-2.5575546587431814,-4.603430085591379,7.384658077963546,0.5988888888888889,0.12444444444444445,-0.7744444444444445,-0.041659054467054216,0.09911914281904463,0.3164574889342798
1589987544.2169273,-17.596390733331937,-14.476091828826375,-8.646416287886721,0.5984776420919359,0.12442279987618377,-0.7739119880652316,-0.6063148508754843,1.6419257780526522,-0.18470545177017259
1589987544.2269273,-5.50750109968371,-4.574799229174085,-1.0732892063425572,0.5057414893790337,0.11954194973339942,-0.653843074552737,-1.3020788998154031,-0.5210762308418342,-5.922362973813278
1589987544.2369273,-2.1655315243554,-1.7928372785675943,-0.39690107188003254,0.4933333333333334,0.11888888888888888,-0.6377777777777778,-1.01844974284499,-1.7001677166929994,-8.5910077450958
1589987544.2469273,-0.6475680964172539,-2.025252731649033,-0.0918557897106444,0.4933333333333334,0.11888888888888888,-0.6377777777777778,-1.092922984943786,-1.0639760847213666,-8.42621589023889
1589987544.2569273,-0.3371747309189649,-2.3754369090849607,1.0470634998527821,0.4933333333333334,0.11888888888888888,-0.6377777777777778,-1.0899487894062148,-0.8775601783380693,-8.092600858723944
1589987544.2669272,-0.5567213007491739,-4.7698666862956784,7.880450485818038,0.4933333333333334,0.11888888888888888,-0.6377777777777778,-1.0525287649433557,-0.7196476751048029,-7.891281127113762
1589987544.2769272,-0.47657510862818125,-1.419644630664184,-0.08842204634802397,0.4866666666666667,0.2966666666666667,-0.6666666666666666,0.4695553949445742,1.4853191663640375,-7.12501940561851
1589987544.2869272,-0.1751833227004916,-2.326911096933989,3.061450819979735,0.4866666666666667,0.2966666666666667,-0.6666666666666666,1.222518337289937,2.3547794026219115,-6.635765338106219
1589987544.2969272,-0.00991087176792882,-2.106547829023905,3.470696888955605,0.4866666666666667,0.2966666666666667,-0.6666666666666666,1.823465927209519,3.1154073521486962,-6.230554963189016
1589987544.3069272,4.991557831561094,1.7865231478461308,15.103525779024508,0.4866666666666667,0.2966666666666667,-0.6666666666666666,2.1776287621430774,3.489682408859607,-5.698712566411581
1589987544.3169272,2.088580969519322,0.8510030981578023,5.328094911229432,0.4866666666666667,0.2966666666666667,-0.6666666666666666,1.432851553394914,2.107007136406825,-5.141560883666931
1589987544.3269272,-0.9341669652454319,0.1488670727337872,-0.5998316015764962,0.3893832557028544,0.39478155977546875,-0.6400592380269915,0.5271800305105221,0.6404190528814854,-4.566871919496449
1589987544.3369272,4.525540588149959,-1.0616772014175284,26.125749072596523,0.3566666666666667,0.42777777777777776,-0.6311111111111111,-0.5328952409514586,-0.4461080584673766,-4.0652089539034
1589987544.3469272,0.5096936978011728,-0.6618309742399436,3.195437174890678,0.3566666666666667,0.42777777777777776,-0.6311111111111111,-0.9567334237189804,-0.22992213974031833,-3.660334448217198
1589987544.3569272,1.139471654294364,-2.459620121925932,11.281579231120142,0.3566666666666667,0.42777777777777776,-0.6311111111111111,-0.1443905649771896,0.2726753050115702,-3.0687608684217422
1589987544.3669271,1.1220773026997886,-1.4594449052378384,9.02901069962261,0.3566666666666667,0.42777777777777776,-0.6311111111111111,0.8479650196394133,0.48708482903007144,-2.5384293466237677
1589987544.3769271,0.3318441522681902,-0.6365920928845139,3.4039301530483463,0.3133510525738791,0.45791037888580394,-0.6386442613881177,0.5523195058408057,0.39528447655395055,-2.139517291054252
1589987544.3869271,0.6161035102150447,-1.7451635918011046,7.625068408064598,0.3055555555555556,0.4633333333333333,-0.64,-0.33792717692660484,-0.10433780228410248,-1.652228110986835
1589987544.396927,0.47528194194967177,-2.2028336886635667,8.892462522452954,0.3055555555555556,0.4633333333333333,-0.64,-0.28032248886286926,-0.04519698920533398,-1.3388586079201135
1589987544.406927,0.4780939978690659,-2.2467325677755414,7.824554279625903,0.3055555555555556,0.4633333333333333,-0.64,0.23550593649907176,0.15534207755003662,-0.83757698913331
1589987544.416927,0.36223392920563513,-2.04811530720966,7.493525512016101,0.3055555555555556,0.4633333333333333,-0.64,0.029681005826708073,0.04972138944184998,-0.5613382663888218
1589987544.426927,0.4007535719405553,-2.6677560089836097,9.603047737372771,0.2344444444444445,0.5277777777777778,-0.6322222222222222,-0.05427272781190962,-0.01151421488358447,-0.15444072604238612
1589987544.436927,0.21,-1.74,5.84,0.2344444444444445,0.5277777777777778,-0.6322222222222222,0.1538071403320003,0.04145156973486533,0.11890055529211367
1589987544.446927,0.38004880715317635,-2.4974901409550583,8.916337511225645,0.2344444444444445,0.5277777777777778,-0.6322222222222222,-0.023255766066147654,-0.03021674952152789,0.3473960202154379
1589987544.456927,0.38437462113558296,-2.6743746211355828,9.026118407759142,0.2344444444444445,0.5277777777777778,-0.6322222222222222,-0.03744245251869478,-0.04927826406819866,0.6892437112092519
1589987544.466927,0.39818535555625567,-2.7669885629666973,9.004556066668766,0.2344444444444445,0.5277777777777778,-0.6322222222222222,-0.03712194519595792,-0.07090824540688788,0.8927968276249083
1589987544.476927,0.3752059632839131,-2.7256178898517396,8.448501375826522,0.22671243628531404,0.5339633843050821,-0.6376346279336136,-0.03547446754015047,-0.0903984179163343,1.2083269082760442
1589987544.486927,0.3938680005503253,-3.2272240020440655,9.907724011871302,0.22333333333333333,0.5366666666666666,-0.64,-0.028648270648820272,-0.10753060772563075,1.5879891268914956
1589987544.496927,0.33616226734015997,-3.012888421549166,8.662928909766308,0.22333333333333333,0.5366666666666666,-0.64,-0.03134600736791355,-0.12371702804019041,1.8011103276998641
1589987544.506927,0.37398595695588177,-3.393116521462386,8.603613597485777,0.22333333333333333,0.5366666666666666,-0.64,-0.07792893895082799,-0.1607744275992774,2.0778270331350632
1589987544.516927,0.8829016986911722,-8.081815650236702,7.1602951824004455,0.22333333333333333,0.5366666666666666,-0.64,-0.052447058967397826,-0.1507636890343584,2.2707612672953204
1589987544.526927,5.922045416751353,-18.105845050904456,7.353500120101255,0.2195955153986232,0.5374142302536087,-0.6586890896735504,-0.29788587036508585,-0.3365931201930175,3.060208304659488
1589987544.536927,0.7647151270167605,-6.828484162107538,11.188297731470188,0.21777777777777774,0.5377777777777778,-0.6677777777777778,-0.4124304722646582,-0.554734188671378,5.45383411740359
1589987544.546927,-1.1078619733924613,-3.1481910569105693,8.376455469327421,0.21777777777777774,0.5377777777777778,-0.6677777777777778,0.2573378052444653,-0.22987382238048315,6.004415478712406
1589987544.556927,-0.740582270199542,-2.3961301929996726,4.365175371642497,0.21777777777777774,0.5377777777777778,-0.6677777777777778,0.21404072035709215,-0.1013517907944053,6.059485304626905
1589987544.566927,-0.7877045552345239,-3.7522899120919657,9.987847175262804,0.21777777777777774,0.5377777777777778,-0.6677777777777778,-0.456900735338428,-0.5610310515585892,5.9055080657759
1589987544.576927,0.02,-4.29,9.73,0.3244444444444444,0.52,-0.6822222222222222,-0.3567016658763411,-0.5934119456780721,5.857761302005968
1589987544.586927,0.02,-4.29,9.73,0.3244444444444444,0.52,-0.6822222222222222,-0.3567016658763411,-0.5934119456780721,5.857761302005968
1589987544.596927,-1.5430394859813084,0.8839364485981308,5.9838801401869155,0.3244444444444444,0.52,-0.6822222222222222,-0.5054717421499609,-0.6481010782856387,0.01881359418709711
1589987544.606927,-3.101202336448598,1.35432523364486,12.422326635514018,0.3244444444444444,0.52,-0.6822222222222222,0.22678550375005002,0.37705906597437644,-1.773880422417747
1589987544.616927,-1.0867318028921176,0.33977355480805915,3.734674203280507,0.3244444444444444,0.52,-0.6822222222222222,0.6690212867497721,0.7632650642110295,-1.6097638232475076
1589987544.626927,-1.6970422868501385,-1.6187325776757615,9.746620128256703,0.4388888888888889,0.3955555555555556,-0.6966666666666667,0.01226023691468437,-0.1509341038722303,-1.2653175798980631
1589987544.636927,-1.8568823487152468,-2.6690543355923277,11.986968078737517,0.4388888888888889,0.3955555555555556,-0.6966666666666667,-0.47338466790358524,-0.12641858643571413,-1.044271176042242
1589987544.6469269,-0.71,-2.29,7.38,0.4388888888888889,0.3955555555555556,-0.6966666666666667,0.0567232006898157,0.06654067773228381,-0.6784967467127956
1589987544.6569269,-0.7375443856753023,-2.4001775427012095,7.800051881548361,0.4388888888888889,0.3955555555555556,-0.6966666666666667,0.1370969563001768,0.1371493976142833,-0.4846983453345417
1589987544.6669269,-0.7641356503696018,-2.810459084424848,9.311683309557774,0.4388888888888889,0.3955555555555556,-0.6966666666666667,-0.025470778526685223,-0.004391757442951949,-0.27987342542006466
1589987544.6769269,-1.2704038506012951,-21.811279486586493,7.202117252543941,0.4170133107205263,0.43110337007914484,-0.6902862897008942,-0.06682934172924763,-0.06204062234417748,-0.07107873182219715
1589987544.6869268,-3.986532994446014,-11.015496564059118,8.25959333521604,0.4122222222222222,0.4388888888888889,-0.6888888888888889,-0.11834851666962468,0.008967136299753882,-0.4303887587745706
1589987544.6969268,-0.738611052222458,-1.9750681930605598,10.826020245919016,0.4122222222222222,0.4388888888888889,-0.6888888888888889,-0.013880457480326028,-0.01818207401421346,-0.4121763390079348
1589987544.7069268,0.15471356377602574,-0.4545700424499697,6.2109173236304835,0.4122222222222222,0.4388888888888889,-0.6888888888888889,0.42861989460745464,0.1565263894142211,0.05248018426590023
1589987544.7169268,0.7767135481573795,-4.328571301406445,7.996781496647083,0.4122222222222222,0.4388888888888889,-0.6888888888888889,0.1802486040280203,0.12295477409675261,0.19801815396816924
1589987544.7269268,0.38910058870557473,-7.330909949851007,9.585553455919761,0.4087556023935848,0.43344134344388724,-0.6987935169707101,-0.2274455120259373,-0.09025013333657758,0.1381068752738762
1589987544.7369268,-0.459762064793655,-5.696886230228078,9.28571134113008,0.4044444444444445,0.4266666666666667,-0.7111111111111111,-0.2001373636149121,-0.11032083905554058,-0.15979979326902727
1589987544.7469268,-0.557081546572935,-4.557758523725835,8.693997891036908,0.4044444444444445,0.4266666666666667,-0.7111111111111111,0.19298429912883724,0.1048325573749183,0.01581762147666388
1589987544.7569268,-0.13201317188625528,-4.72860426028196,8.872952354817686,0.4044444444444445,0.4266666666666667,-0.7111111111111111,0.07475792289209746,0.055926845201739975,0.028039548393309487
1589987544.7669268,0.06007448041046981,-4.680099307213959,9.030041378005818,0.4044444444444445,0.4266666666666667,-0.7111111111111111,-0.03325634658137837,-0.022873142766553674,-0.003265270523095284
1589987544.7769268,-0.0883106496422057,-4.5075204153220145,8.735095271502736,0.396669691158817,0.4266666666666667,-0.694265812325585,-0.016466478658982486,-0.021106221094873825,-0.003730221902440104
1589987544.7869267,-0.03869960900633679,-4.543040312794931,8.63304031279493,0.3911111111111111,0.4266666666666667,-0.6822222222222222,-0.0063072432955038095,-0.004125581730510896,-0.001802069513001089
1589987544.7969267,-0.01,-4.58,8.52,0.3911111111111111,0.4266666666666667,-0.6822222222222222,-0.00545415391248228,-0.001090830782496456,-0.002181661564992912
1589987544.8069267,-0.015819462695283983,-4.539263761133012,8.613111403124543,0.3911111111111111,0.4266666666666667,-0.6822222222222222,-0.00037571467599782984,-0.003630050400738681,-0.0015468566604323556
1589987544.8169267,-0.027491584559817196,-4.56244109191872,8.672508415440182,0.3911111111111111,0.4266666666666667,-0.6822222222222222,0.0049069025569941195,-0.0030025385982251525,-0.001090830782496456
1589987544.8269267,-0.037202124279424445,-4.5872021242794245,8.727616994235396,0.39591252729739407,0.4266666666666667,-0.6870236384085052,0.0070254136851545385,0.0009608579803516057,-0.001090830782496456
1589987544.8369267,-0.04,-4.540872293953385,8.651744587906771,0.3977777777777778,0.4266666666666667,-0.6888888888888889,0.002276814074566755,0.0012884946645081725,0.0015886699189577626
1589987544.8469267,-0.018019254658385095,-4.546485559006211,8.657475931677018,0.3977777777777778,0.4266666666666667,-0.6888888888888889,0.0028891263055601402,-0.00010803289954599985,-0.0002160657990919997
1589987544.8569267,-0.021853823405154203,-4.505365441487115,8.690926911702576,0.3977777777777778,0.4266666666666667,-0.6888888888888889,0.004363323129985824,0.0006970809639223233,-0.0009897204007137258
1589987544.8669267,-0.03047582712733488,-4.5171450372359905,8.738096691490659,0.3977777777777778,0.4266666666666667,-0.6888888888888889,0.005921712272083946,0.00010380937552874944,-0.001558389142098122
1589987544.8769267,-0.03498171522944438,-4.565018284770556,8.744043883449333,0.3957802157471852,0.42799837468706176,-0.6912193779245802,0.005347863216912848,-0.002835362210867867,-0.0019650910557394577
1589987544.8869267,-0.05581722009991184,-4.49454305024978,8.738005289450484,0.3911111111111111,0.4311111111111111,-0.6966666666666667,-0.0030942025792776344,-0.0028162218403470067,-0.0020033717967811787
1589987544.8969266,-0.05,-4.527665914668915,8.579336341324343,0.3911111111111111,0.4311111111111111,-0.6966666666666667,-0.006963095479820883,-0.002181661564992912,-0.002405901564211015
1589987544.9069266,-0.03231841667396445,-4.534106138891322,8.588938611086785,0.3911111111111111,0.4311111111111111,-0.6966666666666667,-0.0005636898398594528,-0.002181661564992912,-0.0008958205399718685
1589987544.9169266,-0.02,-4.569444548095632,8.620138862976093,0.3911111111111111,0.4311111111111111,-0.6966666666666667,0.004901164720790534,-0.002719503155797623,-0.0010756831816094213
1589987544.9269266,-0.029513789454024778,-4.5909724210919505,8.67183963145116,0.3974536374137943,0.43481091812100964,-0.6929668596567682,0.008048637511142374,-0.00223469890802533,-0.0006249714057968551
1589987544.9369266,-0.04585507144612576,-4.564144928553874,8.69901449987712,0.4044444444444445,0.4388888888888889,-0.6888888888888889,0.008353550958104552,-0.001090830782496456,0.0017295199992114578
1589987544.9469266,-0.057248653069078316,-4.51650808158553,8.597513469309217,0.4044444444444445,0.4388888888888889,-0.6888888888888889,0.004963573915101129,0.0004905799973811509,0.0006002507851153051
1589987544.9569266,-0.029261619851366674,-4.569161355334425,8.600738380148632,0.4044444444444445,0.4388888888888889,-0.6888888888888889,0.002686804566475463,-0.0005856877810139051,-0.0008382592817551805
1589987544.9669266,-0.04538471971942878,-4.539230560561142,8.673461799298572,0.4044444444444445,0.4388888888888889,-0.6888888888888889,0.004950704932492682,-0.003167613308121285,-0.00039856994062151317
1589987544.9769266,-0.03648125509372453,-4.551157803585982,8.727639058679706,0.3966048628090193,0.43431579960155753,-0.6934619781762202,0.006544984694978735,-0.003721948857249649,0.0006413742727361751
1589987544.9869266,-0.04028473953549403,-4.532668941083847,8.719715260464506,0.3911111111111111,0.4311111111111111,-0.6966666666666667,0.0043322628649547605,-0.003272492347489368,-0.0011218910475275189
1589987544.9969265,-0.03416189609972714,-4.573352415601091,8.614971376598364,0.3911111111111111,0.4311111111111111,-0.6966666666666667,-0.002774349597288817,-0.004136326911029109,-0.0013178270014531713
1589987545.0069265,-0.03,-4.5559571923950735,8.59,0.3911111111111111,0.4311111111111111,-0.6966666666666667,-0.002877925431663495,-0.005106021979146988,-0.00034813193333529133
1589987545.0169265,-0.021981630949067632,-4.544009184525466,8.62207347620373,0.3911111111111111,0.4311111111111111,-0.6966666666666667,0.00044234357085926436,-0.004142151344556192,0.0
1589987545.0269265,-0.011255299105040037,-4.54874470089496,8.67376589731512,0.3911111111111111,0.4311111111111111,-0.6993167425550845,0.0047741188014912015,-0.0017708658934875343,0.00013693189050179252
1589987545.0369265,-0.02582528585816695,-4.54,8.705825285858166,0.3911111111111111,0.4311111111111111,-0.7177777777777777,0.00827125559056817,0.001090830782496456,0.0017262708955894355
1589987545.0469265,-0.03745549457903895,-4.54,8.620534065051533,0.3911111111111111,0.4311111111111111,-0.7177777777777777,0.00547357306575119,0.0019040990810515702,-0.0010714116292275455
1589987545.0569265,-0.045867095934018234,-4.528265808131963,8.607601287802055,0.3911111111111111,0.4311111111111111,-0.7177777777777777,0.0030833213602484474,0.00026165891038684697,-0.0015416606801242237
1589987545.0669265,-0.04513442572819246,-4.549193445630845,8.654059019902652,0.3911111111111111,0.4311111111111111,-0.7177777777777777,0.002181661564992912,-0.001090830782496456,-0.001090830782496456
1589987545.0769265,-0.03558939593240919,-4.544715167459273,8.712053020337954,0.3940515138228383,0.4374819836531867,-0.7114069052357022,0.002181661564992912,0.0003525360234031853,-0.0015719530511296696
1589987545.0869265,-0.024431831434902615,-4.527840842825487,8.71772732573961,0.3977777777777778,0.4455555555555555,-0.7033333333333334,0.0033964474995803813,0.0009668756304054425,-0.0009668756304054425
1589987545.0969265,-0.025703215446091793,-4.5385935691078165,8.625858199200806,0.3977777777777778,0.4455555555555555,-0.7033333333333334,0.0012527016460827304,-0.0024884971871224747,0.0006221242967806187
1589987545.1069264,-0.03,-4.556667605733001,8.603334507166249,0.3977777777777778,0.4455555555555555,-0.7033333333333334,-0.001818076913222339,-0.0021815847378081742,-0.0010909076096811937
1589987545.1169264,-0.03568433211985438,-4.552947003640437,8.642737328479416,0.3977777777777778,0.4455555555555555,-0.7033333333333334,-0.002181661564992912,-0.0004707663370694065,-0.002181661564992912
1589987545.1269264,-0.04,-4.545658308236218,8.688291541181092,0.4015499832685901,0.4373824436587956,-0.6951602214365734,0.002138918195651277,-0.0012344513601840541,-0.0009472102048088578
1589987545.1369264,-0.04,-4.544711706894327,8.720576586211347,0.4044444444444445,0.4311111111111111,-0.6888888888888889,0.006607880493788804,-0.0010279349836863879,0.000576863290653262
1589987545.1469264,-0.04,-4.551587133262637,8.65468363379286,0.4044444444444445,0.4311111111111111,-0.6888888888888889,0.007003835395286541,0.0006319800821886502,-0.00017312938188084439
1589987545.1569264,-0.04,-4.536743303917015,8.61744252206224,0.4044444444444445,0.4311111111111111,-0.6888888888888889,0.004642300695992378,0.001090830782496456,0.0008118532164899019
1589987545.1669264,-0.04,-4.52,8.651641884179286,0.4044444444444445,0.4311111111111111,-0.6888888888888889,0.003272492347489368,0.00041632696952535774,0.0018444096585073628
1589987545.1769264,-0.04,-4.52,8.696326611368997,0.4044444444444445,0.4311111111111111,-0.6888888888888889,0.003272492347489368,-0.0009763437712173209,0.0011480742881360235
1589987545.1869264,-0.035084070332436115,-4.54,8.690336281329746,0.4044444444444445,0.4311111111111111,-0.68,0.0043449818286826185,-0.002717906305589537,-0.0022000028662961173
1589987545.1969264,-0.051398781630740395,-4.54,8.620069509528273,0.4044444444444445,0.4311111111111111,-0.68,0.0031199089414091466,-0.00249441069046499,-0.0018689124395208337
1589987545.2069263,-0.06,-4.53503228293341,8.619870868266359,0.4044444444444445,0.4311111111111111,-0.68,0.000555979956502241,-0.0010978738259991314,-0.0032654493039866927
1589987545.2169263,-0.05701594533029613,-4.544920273348519,8.645968109339409,0.4044444444444445,0.4311111111111111,-0.68,-0.0017418505205695118,-0.0006510197380730558,-0.0027357737848031846
1589987545.2269263,-0.04683996206838847,-4.570519886205165,8.669480113794835,0.4023377524900368,0.42970664980817264,-0.6852667298860192,-0.00223837235259188,-0.0025263682299587415,0.001090830782496456
1589987545.2369263,-0.03800864965053867,-4.55,8.693982700698923,0.3977777777777778,0.4266666666666667,-0.6966666666666667,0.0008688905039709964,-0.00283804709550387,0.00022194027852545954
1589987545.2469263,-0.03,-4.541436591276252,8.662901252019386,0.3977777777777778,0.4266666666666667,-0.6966666666666667,0.004830384621933973,-0.0001567077986001572,-0.0018713078716449199
1589987545.2569263,-0.035011216946783864,-4.55505608473392,8.635078518627488,0.3977777777777778,0.4266666666666667,-0.6966666666666667,0.006000792882814254,-2.4471581674923807e-06,-0.0005466389703319742
1589987545.2669263,-0.04540214349622128,-4.563793569511336,8.67,0.3977777777777778,0.4266666666666667,-0.6966666666666667,0.002420007602979897,-0.001680113224210576,-0.0005015483407823362
1589987545.2769263,-0.03917883211678832,-4.533768248175182,8.686231751824817,0.3941707218167072,0.43688665855636655,-0.7080890105433901,0.0018601849748958721,-0.0027718647164713776,-0.0011804063029569314
1589987545.2869263,-0.03,-4.529365909804332,8.67658522548917,0.3911111111111111,0.4455555555555555,-0.7177777777777777,0.004363323129985824,-0.003272492347489368,-0.002181661564992912
1589987545.2969263,-0.034516739619070154,-4.54903347923814,8.640966520761861,0.3911111111111111,0.4455555555555555,-0.7177777777777777,0.004363323129985824,-0.00228709262488876,-0.0007035619810920001
1589987545.3069263,-0.04620323458483595,-4.553796765415163,8.654812938339344,0.3911111111111111,0.4455555555555555,-0.7177777777777777,-0.0010500202589627155,-0.0017674987061150234,0.001090830782496456
1589987545.3169262,-0.05,-4.543402989445102,8.66670149472255,0.3911111111111111,0.4455555555555555,-0.7177777777777777,-0.0032838898021254,-0.002181661564992912,0.001450641891783264
1589987545.3269262,-0.05,-4.532237691498849,8.661118845749424,0.3911111111111111,0.4455555555555555,-0.7177777777777777,-0.001456972197797671,-0.002181661564992912,0.0020596144265591734
1589987545.3369262,-0.021974558303886928,-4.551019081272084,8.68299363957597,0.3911111111111111,0.4388888888888889,-0.6822222222222222,0.0061072647527162,-0.0014173862026134161,0.0
1589987545.3469262,-0.03315304334577589,-4.54123130443615,8.639459130037327,0.3911111111111111,0.4388888888888889,-0.6822222222222222,0.006410670216821113,-0.001569088934665873,0.0
1589987545.3569262,-0.03200613029305396,-4.537993869706946,8.628014304017126,0.3911111111111111,0.4388888888888889,-0.6822222222222222,0.00458104347899385,-0.0006542755657522409,0.0013096656502326453
1589987545.3669262,-0.048434164824755294,-4.524697505525734,8.67,0.3911111111111111,0.4388888888888889,-0.6822222222222222,0.0031016862265421017,-0.00017080612094726635,0.0027600739846475692
1589987545.3769262,-0.034365301026542124,-4.547182650513271,8.67281734948673,0.3929893441022637,0.4388888888888889,-0.6881699600275388,0.002181661564992912,-0.0004761804734615528,-0.0006146503090349031
1589987545.3869262,-0.022405724231289885,-4.538797137884355,8.681202862115645,0.3977777777777778,0.4388888888888889,-0.7033333333333334,0.0019192377604240487,0.001090830782496456,-0.0020504496627084803
1589987545.3969262,-0.04640328202391475,-4.533201641011957,8.657983589880425,0.3977777777777778,0.4388888888888889,-0.7033333333333334,-0.00034924485703462075,4.3096211392593814e-05,-0.0007415859254618352
1589987545.4069262,-0.05958491895701198,-4.540830162085976,8.593320648343903,0.3977777777777778,0.4388888888888889,-0.7033333333333334,-0.0008644391930354227,-0.0020911049292084987,-9.055663578441332e-05
1589987545.4169261,-0.04712611857368452,-4.554252237147368,8.67,0.3977777777777778,0.4388888888888889,-0.7033333333333334,0.00279586396745095,-0.00031349183250697476,-0.0024951533974998867
1589987545.4269261,-0.04214498866032706,-4.546434965980981,8.674289977320655,0.3977777777777778,0.4388888888888889,-0.7002350163795276,-0.0008568488166173969,-0.0017927766801336335,-0.0023365644839731317
1589987545.4369261,-0.05,-4.562074468085107,8.678111702127659,0.3977777777777778,0.4388888888888889,-0.6888888888888889,0.001296812127063606,-0.00349878171194342,-0.00020598134456715003
1589987545.446926,-0.05,-4.556590374157942,8.636933690447204,0.3977777777777778,0.4388888888888889,-0.6888888888888889,0.004350839797437167,-0.0018222124150103123,-0.0018222124150103123
1589987545.456926,-0.04526319712299924,-4.560526394245999,8.613684014385004,0.3977777777777778,0.4388888888888889,-0.6888888888888889,0.005511574617208694,-0.0026409458991515184,-0.0005741257436114353
1589987545.466926,-0.04330318815415039,-4.543393623691699,8.659819128924903,0.3977777777777778,0.4388888888888889,-0.6888888888888889,0.004363323129985824,-0.004363323129985824,-0.0010809657956774678
1589987545.476926,-0.05,-4.532885997597377,8.694228004805245,0.3997017761760294,0.4408128872871405,-0.695302216883061,0.003733696126499791,-0.0027892556212707415,-0.0016984248387742857
1589987545.486926,-0.05,-4.537527970917305,8.682472029082694,0.4044444444444445,0.4455555555555555,-0.7111111111111111,0.002181661564992912,0.0005515176987703996,0.002181661564992912
1589987545.496926,-0.04583572380913903,-4.534164276190861,8.65252151428225,0.4044444444444445,0.4455555555555555,-0.7111111111111111,0.0026359136305737357,-0.00154508284807728,0.0003646533026696163
1589987545.506926,-0.04,-4.54,8.621614238410595,0.4044444444444445,0.4455555555555555,-0.7111111111111111,0.003272492347489368,-0.0025184826592571322,-0.002181661564992912
1589987545.516926,-0.04,-4.54,8.675836220544708,0.4044444444444445,0.4455555555555555,-0.7111111111111111,0.003272492347489368,-0.0029541758963090928,-0.001863345113812637
1589987545.526926,-0.036119110176913646,-4.54,8.693880889823086,0.4018571845623869,0.4455555555555555,-0.7024869115042526,0.0024258135309894037,-0.002605000973242894,-0.0015141701907464382
1589987545.536926,-0.03502886729263833,-4.550057734585277,8.66982679624417,0.3977777777777778,0.4455555555555555,-0.6888888888888889,0.001639395106886406,-0.001626799374319518,-0.001084532916213012
1589987545.546926,-0.04,-4.555105620208482,8.60573934145938,0.3977777777777778,0.4455555555555555,-0.6888888888888889,0.002181661564992912,0.0,0.0
1589987545.556926,-0.025542414020075697,-4.554819195326641,8.608553562613132,0.3977777777777778,0.4455555555555555,-0.6888888888888889,0.002707354225909266,0.0,-0.000525692660916354
1589987545.566926,-0.015620555481014356,-4.554379444518985,8.658430833221521,0.3977777777777778,0.4455555555555555,-0.6888888888888889,0.0026593848541474046,0.0,-0.0017039382758384197
1589987545.576926,-0.029689722259492818,-4.540310277740507,8.67953458338924,0.3977777777777778,0.4455555555555555,-0.6888888888888889,0.0011246768335433236,0.0,-0.0032386462964425003
1589987545.586926,-0.04,-4.541158985338253,8.694420507330873,0.4044444444444445,0.4388888888888889,-0.7033333333333334,0.0015730333295732924,0.0013951449002062657,0.0009644050941536729
1589987545.596926,-0.04,-4.568500053265154,8.668000426121232,0.4044444444444445,0.4388888888888889,-0.7033333333333334,0.0,0.0016908051438503712,-0.0018544239508978847
