time,acc_x,acc_y,acc_z,mag_x,mag_y,mag_z,gyr_x,gyr_y,gyr_z
1589987564.3377266,-3.76,-0.76,8.94,0.26666666666666666,-0.3855555555555555,-0.6088888888888889,0.003272492347489368,0.003272492347489368,-0.001090830782496456
1589987564.3477266,-3.76,-0.7455578128228083,8.983326561531575,0.26666666666666666,-0.3855555555555555,-0.6088888888888889,0.0024847932305165554,0.00090939499657093,-0.00030313166552364335
1589987564.3577266,-3.7802638812534357,-0.7535092541689573,9.027018508337914,0.26666666666666666,-0.3855555555555555,-0.6088888888888889,0.002181661564992912,0.002210446544410081,0.0014736310296067203
1589987564.3677266,-3.780432924262539,-0.76,9.049567075737462,0.27304471715830714,-0.37811449664864166,-0.6227079982874433,0.0032252676362826277,-0.000901931937669494,-0.0009491566488762353
1589987564.3777266,-3.7596578503670144,-0.7596578503670147,9.008289251835073,0.2733333333333333,-0.37777777777777777,-0.6233333333333333,0.000978862576932375,0.0,-0.000978862576932375
1589987564.3877265,-3.7525146039477493,-0.7525146039477494,8.972573019738748,0.2733333333333333,-0.37777777777777777,-0.6233333333333333,-0.001358759347395274,0.0,0.001358759347395274
1589987564.3977265,-3.7667744722873717,-0.75,8.976774472287373,0.2733333333333333,-0.37777777777777777,-0.6233333333333333,0.001477960581246896,0.003659622146239808,-0.0005630550446869441
1589987564.4077265,-3.755150148631979,-0.7425750743159896,9.009699702736041,0.2733333333333333,-0.37777777777777777,-0.6233333333333333,0.002181661564992912,0.0027434556312123967,-0.001090830782496456
1589987564.4177265,-3.769537139226113,-0.7106942911608307,9.039537139226113,0.279845713075371,-0.38537555414348823,-0.6168209535912957,0.002181661564992912,5.0490278016624736e-05,-2.5245139008312368e-05
1589987564.4277265,-3.7618848363235755,-0.7424606547056972,9.031884836323576,0.28,-0.3855555555555555,-0.6166666666666667,0.002181661564992912,0.0008852270343240736,0.0
1589987564.4377265,-3.7598484514824526,-0.7695453544473584,8.930303097035095,0.28,-0.3855555555555555,-0.6166666666666667,0.0043798545087840425,0.0011734876764875489,-0.003222898211094712
1589987564.4477265,-3.7514516225901384,-0.744354867770415,8.947096754819723,0.28,-0.3855555555555555,-0.6166666666666667,0.005295806451893266,0.005753247392033669,-0.0004750423817670396
1589987564.4577265,-3.75,-0.74,8.98809795739073,0.28,-0.3855555555555555,-0.6166666666666667,0.004266770350423761,0.0041702175708616986,-0.0005936917810292594
1589987564.4677265,-3.760053021442495,-0.74,9.035079532163742,0.2827925059562487,-0.3794120424518085,-0.6127571583279185,0.0038207996098178986,0.002181661564992912,-0.0005425235201679255
1589987564.4777265,-3.758123461311522,-0.7162469226230442,9.061876538688479,0.2855555555555556,-0.37333333333333335,-0.6088888888888889,0.0024200290313505573,-0.0010571619327325319,-0.0006477646995450887
1589987564.4877264,-3.758495670995671,-0.725487012987013,8.968051948051947,0.2855555555555556,-0.37333333333333335,-0.6088888888888889,-0.002616104993519639,-0.0014190244594813202,-0.00016409683849243225
1589987564.4977264,-3.76,-0.7366519238501477,8.989911543100886,0.2855555555555556,-0.37333333333333335,-0.6088888888888889,-0.004723717007202062,0.00036039387721623897,-0.001451224659712695
1589987564.5077264,-3.7661697347049268,-0.7585092041147807,9.02850920411478,0.2855555555555556,-0.37333333333333335,-0.6088888888888889,-0.0034351129516909914,0.001763844436093552,-0.002181661564992912
1589987564.5177264,-3.7639824196761063,-0.77,9.033982419676105,0.2782007351596856,-0.37600781347728607,-0.6222612896086526,-0.002181661564992912,0.00349449393568255,-0.001525245379648093
1589987564.5277264,-3.7683566359119944,-0.7616433640880057,9.021643364088005,0.2733333333333333,-0.37777777777777777,-0.6311111111111111,0.0005530411422827136,0.0025401879918020734,-0.001090830782496456
1589987564.5377264,-3.789555555555556,-0.76,8.951555555555554,0.2733333333333333,-0.37777777777777777,-0.6311111111111111,0.002157420880937435,-0.002084698828771005,0.0010423494143855024
1589987564.5477264,-3.770686624682771,-0.6924031863896982,8.978970062975844,0.2733333333333333,-0.37777777777777777,-0.6311111111111111,0.0011282803494958762,-0.002181661564992912,-0.0010159316484976155
1589987564.5577264,-3.77,-0.7042942391553821,9.008588478310765,0.2733333333333333,-0.37777777777777777,-0.6311111111111111,-0.0020276884341149408,-0.0029612913691457613,0.0012480586299620916
1589987564.5677264,-3.77,-0.735963145705367,9.045963145705368,0.28391091121329776,-0.3739313858214271,-0.6243799251874974,-0.0042165389656845355,-0.0061046322020748695,-0.002538571525982925
1589987564.5777264,-3.77,-0.7574811059907834,9.032518894009216,0.2855555555555556,-0.37333333333333335,-0.6233333333333333,-0.005316769556327311,-0.005591538268637248,-0.0013655994948063926
1589987564.5877264,-3.7611046894432656,-0.7866859316702027,8.96773282610286,0.2855555555555556,-0.37333333333333335,-0.6233333333333333,-0.006424481769997417,-0.0073948096275125545,-0.00012050292498131895
1589987564.5977263,-3.7672345979812043,-0.768296206056387,8.988938391924817,0.2855555555555556,-0.37333333333333335,-0.6233333333333333,-0.006544984694978735,-0.003689954389032999,-0.0023675166530653154
1589987564.6077263,-3.7792435794542536,-0.7507564205457464,9.018487158908506,0.2855555555555556,-0.37333333333333335,-0.6233333333333333,-0.00452834849314841,-0.0016775025145353306,-0.0012558561456590422
1589987564.6177263,-3.7832160699417154,-0.74,9.043391965029143,0.2881937505782219,-0.37333333333333335,-0.6233333333333333,-0.0018116555782989121,-0.0007208247958024562,0.0014608367691904558
1589987564.6277263,-3.764381625441696,-0.7512367491166078,9.016289752650177,0.2933333333333333,-0.37333333333333335,-0.6233333333333333,-0.000477961190917175,-0.0012257391831585619,0.0015687919734136309
1589987564.6377263,-3.777520366598778,-0.768760183299389,8.963719450101834,0.2933333333333333,-0.37333333333333335,-0.6233333333333333,0.0,-0.0002704860443359339,-0.003687108019145989
1589987564.6477263,-3.773909401277107,-0.7760905987228931,8.972181197445787,0.2933333333333333,-0.37333333333333335,-0.6233333333333333,0.0,0.0,-0.0023701793587562084
1589987564.6577263,-3.7647487107503586,-0.7747487107503586,8.995753867748924,0.2933333333333333,-0.37333333333333335,-0.6233333333333333,-0.0005728267961301612,-0.002864133980650806,-0.0005180039863662948
1589987564.6677263,-3.7652532956310485,-0.7647467043689514,9.031013182524195,0.2892474367314066,-0.37333333333333335,-0.6198311362459675,-0.0005177851241062572,-0.0025889256205312854,-0.0005730456583901988
1589987564.6777263,-3.77,-0.746611454135394,9.023222908270787,0.2855555555555556,-0.37333333333333335,-0.6166666666666667,0.0007302318980988956,0.0014604637961977912,-0.00036059888439756035
1589987564.6877263,-3.77,-0.7149046943120754,8.968174490520127,0.2855555555555556,-0.37333333333333335,-0.6166666666666667,0.00017833971781157213,0.002181661564992912,0.0009124910646848838
1589987564.6977262,-3.786826111690528,-0.7352391675357921,8.976826111690528,0.2855555555555556,-0.37333333333333335,-0.6166666666666667,-0.0027531660872627322,0.00034621750681775726,-0.0007446132756786987
1589987564.7077262,-3.777888117655144,-0.746055941172428,9.028447529379424,0.2855555555555556,-0.37333333333333335,-0.6166666666666667,-0.0019512909379149372,0.0013212014095744307,-0.0004302300777092406
1589987564.7177262,-3.7631713720553854,-0.75,9.053171372055386,0.2855555555555556,-0.369539651141881,-0.6166666666666667,0.0003989447303436957,0.0036714370778330634,0.0
1589987564.7277262,-3.7532461362802265,-0.7635077274395465,9.063507727439546,0.2855555555555556,-0.36777777777777776,-0.6166666666666667,0.001090830782496456,0.0028898586407228827,0.0
1589987564.7377262,-3.7751777075404758,-0.7616074308198413,8.969289169838095,0.2855555555555556,-0.36777777777777776,-0.6166666666666667,0.001090830782496456,0.004012636126182538,0.0
1589987564.7477262,-3.7710040405023855,-0.7240161620095414,8.96799191899523,0.2855555555555556,-0.36777777777777776,-0.6166666666666667,-0.0008717831251214253,0.0024007092223679426,0.0009813069538089406
1589987564.7577262,-3.77,-0.7174108581695593,8.980356567321763,0.2855555555555556,-0.36777777777777776,-0.6166666666666667,-0.001090830782496456,0.0016167984432141334,0.001090830782496456
1589987564.7677262,-3.7707568879148403,-0.7115137758296806,9.009243112085159,0.2855555555555556,-0.36853466569261806,-0.6160779760662354,-0.0010082671188557176,8.256366364073833e-05,0.0010082671188557176
1589987564.7777262,-3.7726910497766433,-0.7336544751116784,9.007308950223356,0.2855555555555556,-0.37777777777777777,-0.6088888888888889,-0.0011959241837057807,0.0018881135716336433,0.0
1589987564.7877262,-3.752108196593522,-0.7478918034064778,8.992378688077327,0.2855555555555556,-0.37777777777777777,-0.6088888888888889,-0.003272492347489368,0.0019811990347099176,0.0
1589987564.7977262,-3.7306788783595395,-0.7646605608202305,8.987284486561842,0.2855555555555556,-0.37777777777777777,-0.6088888888888889,-0.003780880668129801,-0.0010167766412808655,0.0
1589987564.8077261,-3.7165793402218776,-0.7768413195562451,9.060785938003102,0.2855555555555556,-0.37777777777777777,-0.6088888888888889,-0.005109595326470534,-0.002181661564992912,-0.0014925443929694213
1589987564.8177261,-3.6980552260175905,-0.7939815913274698,9.112036817345059,0.2855555555555556,-0.37777777777777777,-0.6088888888888889,-0.004807687741648728,-0.0017473373266604102,-0.007403592798313336
1589987564.8277261,-3.675443991556882,-0.795443991556882,9.095443991556882,0.2855555555555556,-0.37777777777777777,-0.6088888888888889,-0.002678644990499613,-0.0020847976335098585,-0.015975006011514623
1589987564.837726,-3.663415967206715,-0.8031680655865704,9.030743704860432,0.2855555555555556,-0.37777777777777777,-0.6088888888888889,-0.003272492347489368,-0.00614531860504201,-0.030062470204478747
1589987564.847726,-3.676938744582184,-0.7930612554178159,9.0,0.2855555555555556,-0.37777777777777777,-0.6088888888888889,-0.007891818349262239,-0.009483545878184342,-0.04691683264449606
1589987564.857726,-3.3558140216061614,-0.8408527024931511,8.96821706094178,0.2855555555555556,-0.37777777777777777,-0.6088888888888889,-0.010113438591288236,-0.00773728854549322,-0.05394115837194857
1589987564.867726,-3.0719240745107284,-0.7392320993476381,8.688464198695277,0.2855555555555556,-0.37414533609298994,-0.627051097312828,0.0051393279568643455,0.05497095246869872,-0.06474701858073016
1589987564.877726,-2.3884706041519475,-0.8669730769808938,8.495451648302092,0.2855555555555556,-0.37333333333333335,-0.6311111111111111,-0.019404171461890718,0.08156466912682259,-0.12157923414462321
1589987564.887726,-1.7937569806229152,-1.0042955661332034,8.532955661332034,0.2855555555555556,-0.37333333333333335,-0.6311111111111111,-0.06848124529313965,0.18831285599583733,-0.18602730773175807
1589987564.897726,-2.2456377003982437,-1.0771346880424795,9.761275400796487,0.2855555555555556,-0.37333333333333335,-0.6311111111111111,-0.1597199934339363,0.4885086217715692,-0.21723004479745311
1589987564.907726,-2.435171494902594,-1.1558641364691633,9.302380942767739,0.2855555555555556,-0.37333333333333335,-0.6311111111111111,-0.11528697325066879,0.4029618978128472,-0.24743151570790461
1589987564.917726,-1.6289481637211747,-0.7488364759214243,8.889306550160962,0.2813298513019294,-0.37333333333333335,-0.620124280051683,0.025650433278536916,-0.06099396696048909,-0.32123139057170674
1589987564.927726,-1.4977994011976048,-0.666002994011976,9.08255988023952,0.28,-0.37333333333333335,-0.6166666666666667,0.031023358092616263,-0.14086577214145476,-0.34957044128478115
1589987564.937726,-2.010588799833995,-0.8639696002905092,9.41116800249008,0.28,-0.37333333333333335,-0.6166666666666667,-0.03256330633927207,0.049281116397144636,-0.3831540506294529
1589987564.947726,-1.9680683568297594,-0.7267805947162659,8.658953323065987,0.28,-0.37333333333333335,-0.6166666666666667,0.05376460811376147,0.04283866038809666,-0.36890052951334223
1589987564.957726,-2.0858497610802655,-0.7954643941885435,8.83893269621404,0.28,-0.37333333333333335,-0.6166666666666667,0.017166588315903973,0.038624243380619705,-0.3738111074982558
1589987564.967726,-2.101272835387004,-0.8628429850351822,8.92538865580919,0.28397611942489887,-0.36935721390843457,-0.6270045771714035,0.0006634857245325469,0.013484882493104991,-0.38086040919659353
1589987564.977726,-2.1458254414623052,-0.8875728878044746,8.963398329266779,0.2855555555555556,-0.36777777777777776,-0.6311111111111111,0.007974712390485597,0.03274619334437579,-0.3840465754822177
1589987564.987726,-2.189560646421595,-0.9047803232107974,8.966977091102823,0.2855555555555556,-0.36777777777777776,-0.6311111111111111,0.01076452970264723,0.03704605464174192,-0.388191980446421
1589987564.997726,-2.2378412602698425,-0.9147301575337303,8.957841260269843,0.2855555555555556,-0.36777777777777776,-0.6311111111111111,0.00798903843983328,0.02560508814180354,-0.3978000126488483
1589987565.007726,-2.2889178069084295,-0.9155410965457851,8.968787675820495,0.2855555555555556,-0.36777777777777776,-0.6311111111111111,0.0049819580977263755,0.02666632969431868,-0.408589347621415
1589987565.017726,-2.30669488372093,-0.9166948837209302,8.953432093023256,0.28815912144702843,-0.3651742118863049,-0.6285075452196383,0.01091292482967187,0.029461665136818933,-0.41780665771497183
1589987565.027726,-2.2768649211028262,-0.93,8.966450494191086,0.2933333333333333,-0.36,-0.6233333333333333,0.01308996938995747,0.03015607088999956,-0.43540263841977705
1589987565.037726,-2.23,-0.9434564554388343,8.925514514853722,0.2933333333333333,-0.36,-0.6233333333333333,0.01308996938995747,0.02617993877991494,-0.4548447698025356
1589987565.047726,-2.2562496393884026,-0.9862496393884027,8.933124819694202,0.2933333333333333,-0.36,-0.6233333333333333,0.016669208724245113,0.03620180891592034,-0.4833400758462063
1589987565.057726,-2.264716562822522,-1.0264171858873896,8.971700623064867,0.2933333333333333,-0.36,-0.6233333333333333,0.01854412330243975,0.039722568961691594,-0.5081020234555231
1589987565.067726,-2.248705843872656,-1.05,8.977411687745311,0.3104837185637447,-0.3629281145515336,-0.6233333333333333,0.01731212198583696,0.03817907738737596,-0.5352386250873645
1589987565.077726,-2.264552178093336,-1.0401279491161897,8.935063974558094,0.3388888888888889,-0.36777777777777776,-0.6233333333333333,0.01581006780447197,0.040332824785462296,-0.5730152414083617
1589987565.0877259,-2.312509243883538,-1.0487638658253073,8.873708402524079,0.3388888888888889,-0.36777777777777776,-0.6233333333333333,0.017727008566838728,0.04595376759084151,-0.6147012962596368
1589987565.0977259,-2.3076287691547206,-1.0847424616905585,8.926598615916955,0.3388888888888889,-0.36777777777777776,-0.6233333333333333,0.017869377331269736,0.045297570545164,-0.6537002164625756
1589987565.1077259,-2.3143439444494542,-1.076093425917576,8.99912525926594,0.3388888888888889,-0.36777777777777776,-0.6233333333333333,0.01588861090515489,0.04415479183812104,-0.6895416912008395
1589987565.1177258,-2.335060887834105,-1.0955479905069447,9.014939112165894,0.3450744184639061,-0.363841531684585,-0.631768146390175,0.016941086290555685,0.04638023375321575,-0.7354989043622405
1589987565.1277258,-2.34,-1.133570172353148,8.926412240590926,0.3511111111111111,-0.36,-0.64,0.022440495654269338,0.052204866783843756,-0.7840786533513683
1589987565.1377258,-2.3755759071720224,-1.13,8.862212046413989,0.3511111111111111,-0.36,-0.64,0.02399827721492203,0.05777548034636267,-0.8250064508040327
1589987565.1477258,-2.4351824500434405,-1.14005212858384,8.88015638575152,0.3511111111111111,-0.36,-0.64,0.023450018650478764,0.05889917590841855,-0.8667873131408208
1589987565.1577258,-2.461212686567164,-1.1382835820895523,8.918787313432835,0.3511111111111111,-0.36,-0.64,0.023865993631223766,0.058772578671110354,-0.9028985478344173
1589987565.1677258,-2.440620090337785,-1.1108267871170465,8.939379909662215,0.3511111111111111,-0.36,-0.64,0.02611229741707652,0.06101888245696311,-0.9328492649791207
1589987565.1777258,-2.3864788390309064,-1.14,8.977605804845467,0.3711111111111111,-0.3466666666666667,-0.6533333333333333,0.02181661564992912,0.06285335308223963,-0.9919338475188841
1589987565.1877258,-2.393066525956894,-1.1504002110646587,8.896133051913788,0.3711111111111111,-0.3466666666666667,-0.6533333333333333,0.02332926503310113,0.06767516476966282,-1.0294681527887763
1589987565.1977258,-2.371519456657261,-1.1827208150141084,8.87,0.3711111111111111,-0.3466666666666667,-0.6533333333333333,0.02617993877991494,0.06888808630671768,-1.0645120471493608
1589987565.2077258,-2.3704426221158252,-1.2139234961544338,8.89088524423165,0.3711111111111111,-0.3466666666666667,-0.6533333333333333,0.02712919991774166,0.06839091742504165,-1.0870402941531834
1589987565.2177258,-2.435655967078189,-1.2987871604938273,8.986868806584363,0.3756339460448102,-0.34040427983539095,-0.6491584087791495,0.03334189377426122,0.07370263272663008,-1.115589139826984
1589987565.2277257,-2.452370996069248,-1.3223709960692482,8.968247330712833,0.3855555555555555,-0.32666666666666666,-0.64,0.037729255276626676,0.07873100290074271,-1.137725345738541
1589987565.2377257,-2.428656597940298,-1.3270151030895532,8.90328298970149,0.3855555555555555,-0.32666666666666666,-0.64,0.03446695774388893,0.0765372140860021,-1.1527965609082529
1589987565.2477257,-2.431078167819392,-1.351078167819392,8.898773587367872,0.3855555555555555,-0.32666666666666666,-0.64,0.03102987236884451,0.07478071353331173,-1.1657129348938688
1589987565.2577257,-2.4531262214553586,-1.3906278500625033,8.925624592848214,0.3855555555555555,-0.32666666666666666,-0.64,0.03340695919417488,0.07622188975368016,-1.1768023720890295
1589987565.2677257,-2.488303489692043,-1.4446427917536342,8.930982093815226,0.39247020721699394,-0.31446434020530467,-0.6448809305845448,0.036688926405215753,0.07904626635590334,-1.1883432414046193
1589987565.2777257,-2.5024168947055325,-1.4817220701963116,8.944138964901844,0.4044444444444445,-0.2933333333333333,-0.6533333333333333,0.03471873632191093,0.08053362918676209,-1.2043134454014448
1589987565.2877257,-2.4561268512556342,-1.5125820991629104,8.877899227301995,0.4044444444444445,-0.2933333333333333,-0.6533333333333333,0.03196826058986837,0.08024647834474855,-1.2134263251236133
1589987565.2977257,-2.4246701260192736,-1.519340252038547,8.845989621942179,0.4044444444444445,-0.2933333333333333,-0.6533333333333333,0.03228745909140177,0.08246567508623874,-1.2238345102700527
1589987565.3077257,-2.4282290053265836,-1.5429160213063353,8.909374031959503,0.4044444444444445,-0.2933333333333333,-0.6533333333333333,0.035162222105324874,0.08444279286820536,-1.2349453488157847
1589987565.3177257,-2.44,-1.6002080128736067,8.9774479967816,0.4132346777522725,-0.2887964387228414,-0.6607057870753826,0.037645007338412015,0.08452804030119106,-1.244705994882162
1589987565.3277256,-2.433772675905549,-1.63,8.9616969012074,0.4388888888888889,-0.27555555555555555,-0.6822222222222222,0.040175635745180245,0.08358243515121153,-1.2571725825968478
1589987565.3377256,-2.4084516432661385,-1.635419248568515,8.924580751431485,0.4388888888888889,-0.27555555555555555,-0.6822222222222222,0.043126532743583704,0.08609118205784094,-1.2689810151703262
1589987565.3477256,-2.3870612355606613,-1.714693822196694,8.874693822196694,0.4388888888888889,-0.27555555555555555,-0.6822222222222222,0.03644710766229216,0.08572593997731091,-1.2928214514604888
1589987565.3577256,-2.3803692003318653,-1.7481539983406726,8.908153998340673,0.4388888888888889,-0.27555555555555555,-0.6822222222222222,0.034987132057267945,0.08718591558233513,-1.308151195313243
1589987565.3677256,-2.4085791938451244,-1.8214208061548756,8.913806935384958,0.4481947309410096,-0.26328876375957827,-0.6847601791455278,0.0399454667218801,0.09246033019067984,-1.3450381108948435
1589987565.3777256,-2.3691336542021473,-1.8660829322473158,8.899133654202148,0.4633333333333333,-0.2433333333333333,-0.6888888888888889,0.03926990816987242,0.09608761252614653,-1.3794243829075
1589987565.3877256,-2.365539029421344,-1.9158983823689066,8.833382911735967,0.4633333333333333,-0.2433333333333333,-0.6888888888888889,0.0403999382780671,0.09930480053287571,-1.409376345816797
1589987565.3977256,-2.375241503976862,-1.944758496023138,8.818550976138829,0.4633333333333333,-0.2433333333333333,-0.6888888888888889,0.04197064112890793,0.10139457477775915,-1.4412352865497347
1589987565.4077256,-2.3498792515990194,-1.9781690477613725,8.845975850319803,0.4633333333333333,-0.2433333333333333,-0.6888888888888889,0.042981367151814893,0.10341602682357309,-1.4748954191861168
1589987565.4177256,-2.3120965448834516,-2.0476620929079186,8.891372458257564,0.46640689921199097,-0.23279539317793574,-0.7064521224812181,0.04363323129985824,0.10558188833258075,-1.5106426625614489
1589987565.4277256,-2.3,-2.1028920303812186,8.922729221935532,0.4711111111111111,-0.21666666666666667,-0.7333333333333333,0.044101998752815334,0.10971402140239529,-1.5473112161489835
1589987565.4377255,-2.2932424562414,-2.12,8.8363485968449,0.4711111111111111,-0.21666666666666667,-0.7333333333333333,0.04693546310613891,0.11565780240341562,-1.5829739021551055
1589987565.4477255,-2.274951896809749,-2.1502886191415067,8.805144309570753,0.4711111111111111,-0.21666666666666667,-0.7333333333333333,0.04851573360076121,0.1227446992511824,-1.6271472711476493
1589987565.4577255,-2.27,-2.1959333874591698,8.863816815512717,0.4711111111111111,-0.21666666666666667,-0.7333333333333333,0.04538037712710352,0.1258800557248401,-1.6588773236125798
1589987565.4677255,-2.2617198027937553,-2.228280197206245,8.91343960558751,0.4695010727654524,-0.20562640372500685,-0.7344833607230895,0.04517567678224034,0.12766540751930303,-1.6871052402427125
1589987565.4777255,-2.23,-2.2654572934112167,8.855457293411217,0.4633333333333333,-0.16333333333333333,-0.7388888888888889,0.04683131135182173,0.1322137615686488,-1.7170927712457311
1589987565.4877255,-2.23,-2.333988807646746,8.923988807646746,0.4633333333333333,-0.16333333333333333,-0.7388888888888889,0.045896857785581606,0.13501712226736917,-1.7460608317991746
1589987565.4977255,-2.216382538706612,-2.445956346766531,8.782338885473143,0.4633333333333333,-0.16333333333333333,-0.7388888888888889,0.04546677938026876,0.13730520760830556,-1.7918165626829334
1589987565.5077255,-2.2120087193237405,-2.4584104631884887,8.81200871932374,0.4633333333333333,-0.16333333333333333,-0.7388888888888889,0.04511657093791863,0.1459522075673519,-1.822075159971276
1589987565.5177255,-2.1749084659999522,-2.437820369000167,8.790183068000095,0.4769107573334606,-0.15513030633325642,-0.7538806278890294,0.04553719276398218,0.14944381720201447,-1.8477294327949831
1589987565.5277255,-2.16,-2.5344824108678887,8.816822684938009,0.5166666666666667,-0.13111111111111112,-0.7977777777777778,0.04056496639198201,0.14979040850954553,-1.8769623786570773
1589987565.5377254,-2.1504089727576545,-2.6140149545960907,8.765241872869055,0.5166666666666667,-0.13111111111111112,-0.7977777777777778,0.03581896779308224,0.15402204390174845,-1.897822501507207
1589987565.5477254,-2.1316941906567832,-2.5862120324082056,8.675647302189278,0.5166666666666667,-0.13111111111111112,-0.7977777777777778,0.04453925455037098,0.16150455832013672,-1.9100011120500386
1589987565.5577254,-2.137524010926073,-2.6996325667459686,8.786054277909948,0.5166666666666667,-0.13111111111111112,-0.7977777777777778,0.03899981965997595,0.1632342866133689,-1.931350742788921
1589987565.5677254,-2.111180615062363,-2.72,9.052986765685995,0.5249035725242523,-0.14248588586682465,-0.8052302164108315,0.03343067980901957,0.16510052260533542,-1.9425777268656632
1589987565.5777254,-2.15,-2.72,9.48,0.54,-0.16333333333333333,-0.8188888888888889,0.03272492347489368,0.16580627893946132,-1.9482237775386704
1589987565.5877254,-1.66,-2.4704213747645953,8.564958804143126,0.54,-0.16333333333333333,-0.8188888888888889,0.06046766737304625,0.1066592666310053,-1.9632196193551081
1589987565.5977254,-1.6314083796062595,-2.4654928968053653,9.117041898031298,0.54,-0.16333333333333333,-0.8188888888888889,0.06669415078749766,0.1369532658954653,-1.941494404918822
1589987565.6077254,-1.5711873236379423,-2.4525752116344695,9.086839157803343,0.54,-0.16333333333333333,-0.8188888888888889,-0.07254746872884395,0.26354874225698327,-1.9343348284672597
1589987565.6177254,-1.5428841912166147,-2.4957683824332295,9.0050551418401,0.5467297795054341,-0.16109007349818863,-0.8317075165182872,-0.08263945433659413,0.19598018155861485,-1.942916605040178
1589987565.6277254,-1.5684486497141732,-2.5745702739996057,8.144570273999605,0.5633333333333334,-0.15555555555555556,-0.8633333333333333,0.07308261621474818,0.09571490006264101,-1.9305257845593378
1589987565.6377254,-1.677806304842379,-2.823969667424981,8.705878669699924,0.5633333333333334,-0.15555555555555556,-0.8633333333333333,0.04592053718502793,0.15346423352183367,-1.9137802549518539
1589987565.6477253,-1.6357377386650198,-2.7957433997220935,9.008609438526067,0.5633333333333334,-0.15555555555555556,-0.8633333333333333,0.020722079714242156,0.11531727918609927,-1.9148766690211947
1589987565.6577253,-1.5483895443530766,-2.6958258848766534,8.496992412505461,0.5633333333333334,-0.15555555555555556,-0.8633333333333333,0.0456230777272545,0.14841755313250096,-1.8956559431629978
1589987565.6677253,-1.7006609836952844,-2.923877049365176,8.360177705613062,0.5318206556465132,-0.162369107487841,-0.8224520217396206,0.03778019095348154,0.1787807274725845,-1.8809190533216298
1589987565.6777253,-1.7927471006244808,-3.137471006244809,9.02978189313071,0.44,-0.18222222222222226,-0.7033333333333334,0.015032203212214594,0.09334373266564806,-1.8819351784613876
1589987565.6877253,-1.7905670261941449,-3.2131443246019518,8.874536209553158,0.44,-0.18222222222222226,-0.7033333333333334,0.023323497248595004,0.11700563599444574,-1.8502289633786726
1589987565.6977253,-1.7521024936186924,-3.2035939524838013,8.692102493618693,0.44,-0.18222222222222226,-0.7033333333333334,0.06978378425936115,0.14381227745523736,-1.8161852331704744
1589987565.7077253,-1.56768446366653,-3.078794787666381,8.490555161999925,0.44,-0.18222222222222226,-0.7033333333333334,0.02311940216200241,0.11341612198969186,-1.7908413509597851
1589987565.7177253,-1.6271105964099595,-3.214962362478286,8.579409380428489,0.4419095412725986,-0.1488052499517468,-0.6925921636749662,0.041459780968317816,0.11477977936564764,-1.7615944421970315
1589987565.7277253,-1.6087391711542964,-3.242111917583704,8.97349098571763,0.4488888888888889,-0.02666666666666667,-0.6533333333333333,0.042702283465112366,0.11553522356521963,-1.7239252416193063
1589987565.7377253,-1.494315871774824,-3.163346364347146,8.571227521501172,0.4488888888888889,-0.02666666666666667,-0.6533333333333333,0.04782853749149238,0.1240954343352614,-1.6871834510346122
1589987565.7477252,-1.3382017326174254,-3.056522131480395,8.05549519469386,0.4488888888888889,-0.02666666666666667,-0.6533333333333333,0.10195608416951951,0.1728212515937442,-1.634443888783557
1589987565.7577252,-1.4034324541535763,-3.2412391320230873,8.933767078249435,0.4488888888888889,-0.02666666666666667,-0.6533333333333333,0.072872070953814,0.1244479562284522,-1.6170559362350623
1589987565.7677252,-1.3207473194974921,-3.061494638994984,9.24522341355667,0.4512771821105538,-0.022221787615234766,-0.6511440645468072,-0.08278798757543002,-0.030558371203791124,-1.6371407593960694
1589987565.7777252,-1.4884305145315975,-3.4047084564052073,9.153128031214674,0.4888888888888889,0.04777777777777778,-0.6166666666666667,0.10799224746714917,0.15817046346198613,-1.4966198335851375
1589987565.7877252,-1.4433967017380442,-3.5133967017380443,8.802731333488579,0.4888888888888889,0.04777777777777778,-0.6166666666666667,0.08314161798214342,0.13187921777495107,-1.488336290423469
1589987565.7977252,-1.4217866539105477,-3.5027377820298176,8.880719923463285,0.4888888888888889,0.04777777777777778,-0.6166666666666667,0.04048971145100893,0.08361679309335865,-1.4425620935229815
1589987565.8077252,-1.3938497790868924,-3.5253755522827688,8.71617378497791,0.4888888888888889,0.04777777777777778,-0.6166666666666667,0.05538400107230607,0.08869787677822066,-1.3529733241323378
1589987565.8177252,-1.38,-3.5937922215637963,8.741376664691389,0.49483381675659377,0.07030592548697528,-0.614476430083828,0.044385480291898254,0.06950599011735044,-1.3098311117168284
1589987565.8277252,-1.3653795449712949,-3.6580693174569423,8.857450563470126,0.51,0.12777777777777774,-0.6088888888888889,0.05187836263223842,0.06991847247723296,-1.2542601033540497
1589987565.8377252,-1.3484064677901102,-3.646900696928353,8.652032338950551,0.51,0.12777777777777774,-0.6088888888888889,0.055255995275812944,0.07089442758426401,-1.2125604425585135
1589987565.8477252,-1.3870721634278549,-3.770630922969136,8.845360817139275,0.51,0.12777777777777774,-0.6088888888888889,0.048507558311286406,0.0658330998608691,-1.1703827115302228
1589987565.8577251,-1.213630675437189,-3.5827177923953153,8.657862987325524,0.51,0.12777777777777774,-0.6088888888888889,0.049121336948551704,0.06478901315631605,-1.104221767279626
1589987565.8677251,-1.2686876303545644,-3.674479383924274,8.810798973207122,0.51,0.12777777777777774,-0.6088888888888889,0.040446318328695,0.06211977665789861,-1.0701890019248035
1589987565.8777251,-1.1313767137303048,-3.407571925516677,8.598279107837119,0.5066666666666667,0.16666666666666666,-0.6166666666666667,0.030806070210148636,0.05570745799310435,-1.0024775961914678
1589987565.887725,-1.165706977695928,-3.596388377327604,8.55536627788009,0.5066666666666667,0.16666666666666666,-0.6166666666666667,0.037359559233511475,0.05757988342835088,-0.9481772585693186
1589987565.897725,-1.2076062741532165,-3.7343623550807004,8.856487838145034,0.5066666666666667,0.16666666666666666,-0.6166666666666667,0.02551859627095426,0.05328233505264343,-0.8678132930967872
1589987565.907725,-1.1965196520882908,-3.769558956264872,8.737818782309018,0.5066666666666667,0.16666666666666666,-0.6166666666666667,0.034005577789184616,0.045245422269467706,-0.815366718509391
1589987565.917725,-1.177843372461657,-3.719640562076943,8.682156627538342,0.5078647930768572,0.1680644808118889,-0.6166666666666667,0.034710542064452926,0.04238556613701484,-0.7689432647099638
1589987565.927725,-1.1239366806614688,-3.7106561134435783,8.736063319338532,0.537812955188073,0.20300400327497403,-0.6166666666666667,0.029810285497936684,0.03846536088380186,-0.7121002885383755
1589987565.937725,-1.1123425575298573,-3.7123425575298574,8.783635498592096,0.54,0.20555555555555555,-0.6166666666666667,0.0272707695624114,0.03488368596083272,-0.6301567060971436
1589987565.947725,-1.088109772141241,-3.703231595011314,8.603231595011314,0.54,0.20555555555555555,-0.6166666666666667,0.026549098005418006,0.03153099675568388,-0.5746084752475303
1589987565.957725,-1.0590662213186175,-3.8065704742541806,8.737809841915274,0.54,0.20555555555555555,-0.6166666666666667,0.0187830324881751,0.02935057167443521,-0.4991949162647116
1589987565.967725,-1.0008114238251924,-3.679594288087404,8.781622847650384,0.5416679267517845,0.20735871961153882,-0.6169371412750642,0.014092287563836828,0.02281893382380848,-0.44126849391323614
1589987565.977725,-1.0226473726327021,-3.6647052547345957,8.809410509469192,0.5811111111111111,0.25,-0.6233333333333333,0.011421571495362999,0.020437001311383655,-0.3609667880489803
1589987565.987725,-1.0269929275283662,-3.67405657977307,8.763461101406014,0.5811111111111111,0.25,-0.6233333333333333,0.009161435599016938,0.018322871198033875,-0.3060655159331594
1589987565.997725,-1.0127655568935399,-3.7878755448516817,8.685210562914468,0.5811111111111111,0.25,-0.6233333333333333,0.006057504830525977,0.012115009661051954,-0.262610485174286
1589987566.007725,-1.0192127616689222,-3.8129148550203,8.772361714993233,0.5811111111111111,0.25,-0.6233333333333333,0.0062873615535685035,0.0016664152821724487,-0.18155134973962953
1589987566.017725,-1.013174148406231,-3.75856733565608,8.790477554781306,0.5811111111111111,0.25,-0.6233333333333333,0.004311229984408054,-0.0022858478561484526,-0.14334613940252747
1589987566.027725,-1.033879020643303,-3.737959673547768,8.8,0.7411889902384382,0.3269435109617539,-0.7002768442950872,0.0006676952701310519,-0.005231588822438595,-0.07029967118248043
1589987566.037725,-1.0418491603053435,-3.7390754198473286,8.748905038167939,0.7822222222222223,0.3466666666666667,-0.72,-0.003070780249205443,-0.008341807821468929,0.025219208303874398
1589987566.047725,-1.0589251908396946,-3.7305374045801525,8.646448854961832,0.7822222222222223,0.3466666666666667,-0.72,-0.0012080742742334792,-0.014861278733870801,0.09693338834029498
1589987566.057725,-1.0675205219953694,-3.7525615659861082,8.670082087981477,0.7822222222222223,0.3466666666666667,-0.72,-0.010114809364786122,-0.017732716022847563,0.16871692129469337
1589987566.067725,-1.0795647439281943,-3.8269532074973602,8.81390641499472,0.7822222222222223,0.3466666666666667,-0.72,-0.014133321100314511,-0.023760881854224956,0.2827103374482994
1589987566.077725,-1.1277208919866084,-3.9015813379799127,8.764325626015623,1.3796170922768023,0.3714108328819451,-1.5126970391108847,-0.01938634196717202,-0.029203819009640128,0.35889849062350154
1589987566.087725,-1.1363497161507612,-3.9517317407683894,8.789032308466867,1.5333333333333334,0.37777777777777777,-1.7166666666666666,-0.016677301093690717,-0.036312255178626913,0.47896173227335403
1589987566.097725,-1.2164478047256124,-3.9735766740160763,8.650681064564852,1.5333333333333334,0.37777777777777777,-1.7166666666666666,-0.020648822031716866,-0.04028377611665307,0.5488605007826144
1589987566.107725,-1.1704511898558276,-3.7222559492791385,8.710902379711657,1.5333333333333334,0.37777777777777777,-1.7166666666666666,-0.015271630954950384,-0.049431905460781404,0.661166947151423
1589987566.117725,-1.179558146604134,-3.7677907330206706,8.729116293208268,1.5333333333333334,0.37777777777777777,-1.7166666666666666,-0.015271630954950384,-0.05638580958992292,0.7297125735672467
1589987566.127725,-1.1979883092766102,-3.759824639149152,8.867812948425762,0.7088888888888889,-0.09,-0.7833333333333333,-0.01963495408493621,-0.062183730902769664,0.807278542052094
1589987566.1377249,-1.1941407951380096,-3.6431055963535073,8.731718409723982,0.7088888888888889,-0.09,-0.7833333333333333,-0.019860799424963837,-0.06699236841233906,0.8558166078278434
1589987566.1477249,-1.2315553811765825,-3.666889237646835,8.664666143529747,0.7088888888888889,-0.09,-0.7833333333333333,-0.022495278716301813,-0.07090400086226964,0.9052918639076202
1589987566.1577249,-1.2427027405705318,-3.65,8.701711875805637,0.7088888888888889,-0.09,-0.7833333333333333,-0.026671310881821307,-0.071395372964176,0.9437357392252895
1589987566.1677248,-1.2603327635487307,-3.65,8.778108642044499,0.7088888888888889,-0.09,-0.7833333333333333,-0.029876539508611147,-0.07460060159096583,0.9661723396128183
1589987566.1777248,-1.290698546818662,-3.6982966092435445,8.875196124849765,0.6184285731628849,0.0916872442971434,-0.7281372084835682,-0.031634092692397225,-0.07635815477475191,1.0040643055250935
1589987566.1877248,-1.2800388117629498,-3.6900582176444243,8.750291088222122,0.5777777777777777,0.17333333333333334,-0.7033333333333334,-0.02619052304635206,-0.08071301049158805,1.0438700206636353
1589987566.1977248,-1.271268140116764,-3.6376088407005835,8.680145120934112,0.5777777777777777,0.17333333333333334,-0.7033333333333334,-0.03379992401917876,-0.08072147790473774,1.062975021947268
1589987566.2077248,-1.296414997053624,-3.682829994107248,8.76685498919662,0.5777777777777777,0.17333333333333334,-0.7033333333333334,-0.031064679452467086,-0.08456338349215725,1.0868721552298446
1589987566.2177248,-1.2911063135674534,-3.6455315678372675,8.788893686432546,0.5777777777777777,0.17333333333333334,-0.7033333333333334,-0.030543261909900768,-0.08508480103472357,1.1072026641888464
1589987566.2277248,-1.2971099895248073,-3.6897699266736503,8.811329968574421,0.559607804547715,0.19229330539948578,-0.7286132960882032,-0.03209442099727817,-0.08663596012210097,1.1148039626047166
1589987566.2377248,-1.281810597261529,-3.7027158958922937,8.755473506846178,0.5522222222222222,0.2,-0.7388888888888889,-0.030642014671279742,-0.08196043782930267,1.1232594476872129
1589987566.2477248,-1.3092561631958646,-3.743884244793797,8.68685959201034,0.5522222222222222,0.2,-0.7388888888888889,-0.03213893807949021,-0.08420582294161837,1.1187686774625814
1589987566.2577248,-1.3010152850608057,-3.7315229275912083,8.716954144817583,0.5522222222222222,0.2,-0.7388888888888889,-0.02651219003911558,-0.08094297874420484,1.1056207099774444
1589987566.2677248,-1.3367629272270165,-3.757572195420262,8.738381463613509,0.5522222222222222,0.2,-0.7388888888888889,-0.028185045413610263,-0.07971892458789008,1.0799477497477183
1589987566.2777247,-1.3615070667209987,-3.8569858665580026,8.800957599674009,0.5644444444444444,0.13444444444444445,-0.7477777777777778,-0.02350509078375966,-0.0747741375610931,1.0344500587368517
1589987566.2877247,-1.3689256728873402,-3.83838850933101,8.746777018662021,0.5644444444444444,0.13444444444444445,-0.7477777777777778,-0.020315616687696672,-0.07158466346503008,0.9836275354501647
1589987566.2977247,-1.349233886382751,-3.8079570303540025,8.68974462879425,0.5644444444444444,0.13444444444444445,-0.7477777777777778,-0.01311782606717697,-0.0643033028128519,0.9196026266926679
1589987566.3077247,-1.3011304381068889,-3.679681168285037,8.67371014603563,0.5644444444444444,0.13444444444444445,-0.7477777777777778,-0.014866916804628184,-0.06080512133794948,0.8531371786695218
1589987566.3177247,0.9905682715074979,-8.644632991318073,-5.625958958168903,0.5644444444444444,0.13444444444444445,-0.7477777777777778,-1.0411966904594232,2.2282900609275806,-0.8183193847558538
1589987566.3277247,-1.1522762109135498,-4.6458415082771305,-0.7789921827099944,0.5142377716465699,0.11827619388241706,-0.6473644321820288,-1.1999950376843145,-1.455562945956662,-6.8327337833622925
1589987566.3377247,-1.086348015010863,-2.2634129962472844,-0.07309895318980841,0.4988888888888889,0.11333333333333333,-0.6166666666666667,-1.1110830050372194,-0.8758284230790468,-9.306231069061992
1589987566.3477247,0.23203895579627265,-2.607240967503196,0.3477756845858844,0.4988888888888889,0.11333333333333333,-0.6166666666666667,-1.1108333222622193,-1.0564963093220918,-9.025283993358762
1589987566.3577247,-0.5440039023077441,-2.5155268115454485,1.19436789342663,0.4988888888888889,0.11333333333333333,-0.6166666666666667,-1.1369988394415984,-0.8802638553786248,-8.788255190674972
1589987566.3677247,-1.2308432143695704,-3.4228025945057525,4.770321671753933,0.4988888888888889,0.11333333333333333,-0.6166666666666667,-0.7101354496315571,-0.11022052354315737,-8.30654933934635
1589987566.3777246,-0.11456700273753088,-1.1278760766508646,-1.066371770047406,0.44,0.3111111111111111,-0.6466666666666666,0.7953331940810294,1.9975438665201286,-7.484885050998856
1589987566.3877246,-0.14134106144806613,-2.3534415057085076,2.8470264804700562,0.44,0.3111111111111111,-0.6466666666666666,1.2660173620008668,2.505747388735645,-7.056429377408171
1589987566.3977246,0.5599240457954492,-0.6036180952532599,6.4936050381363355,0.44,0.3111111111111111,-0.6466666666666666,1.7825485525355147,3.1657999396868313,-6.599638042478378
1589987566.4077246,2.342675003871767,2.3861189406845287,7.926341567291312,0.44,0.3111111111111111,-0.6466666666666666,1.7743834969432695,3.374274233627255,-5.805167023375872
1589987566.4177246,-0.23801939743231282,-0.28401496742005516,0.03568869486677695,0.44,0.3111111111111111,-0.6466666666666666,0.3347580474123555,1.612957366996759,-5.231425296006212
1589987566.4277246,-0.9870965044859633,0.2403009936649838,5.295981284368267,0.2966666666666667,0.4444444444444444,-0.6088888888888889,0.18531551229492305,0.2936088370559001,-4.681178318196055
1589987566.4377246,2.7692547512621797,-1.9716975914075312,20.489983760491366,0.2966666666666667,0.4444444444444444,-0.6088888888888889,0.13161341511114058,-0.7995598809591784,-4.30673492824338
1589987566.4477246,-0.7449212806154579,-1.09,1.8809282930233349,0.2966666666666667,0.4444444444444444,-0.6088888888888889,-0.12070821560980674,-0.8441381561588086,-3.636697654752659
1589987566.4577246,-0.3522834578659813,-1.09,4.243894099024731,0.2966666666666667,0.4444444444444444,-0.6088888888888889,0.2608694161710715,-0.02179942317797723,-3.2247495584014665
1589987566.4677246,0.9437894218639427,-1.1926873019291713,8.565597366234885,0.2966666666666667,0.4444444444444444,-0.6088888888888889,0.2456746862925633,1.0468233238428293,-2.634168588355221
1589987566.4777246,-0.4288444929530679,-1.0041754852180516,7.288678878185356,0.22666666666666666,0.4888888888888889,-0.6111111111111112,-0.38661298823360496,0.6170712697318976,-2.1514388798891613
1589987566.4877245,0.9151273142523932,-2.930439039797852,11.881431313474902,0.22666666666666666,0.4888888888888889,-0.6111111111111112,0.03740236600898437,-0.35207404990989444,-1.828904732085334
1589987566.4977245,0.7568283491099337,-2.064582899199716,8.422444079895364,0.22666666666666666,0.4888888888888889,-0.6111111111111112,0.15978082268739094,0.17726581795303584,-1.376686146024062
1589987566.5077245,0.49648030326542375,-2.3528253785275663,9.854358332040169,0.22666666666666666,0.4888888888888889,-0.6111111111111112,-0.17492835105581156,0.20972246510389186,-1.0328485402696812
1589987566.5177245,0.5338040870533802,-2.2723918258932394,9.189134607145917,0.22666666666666666,0.4888888888888889,-0.6111111111111112,-0.04851194416871657,0.006019757757934868,-0.7643514194941924
1589987566.5277245,0.39023185189511184,-1.8519505927699587,7.381711148747299,0.16333333333333333,0.5255555555555556,-0.59,0.132239868353314,0.10921558587258508,-0.36971659008369145
1589987566.5377245,0.5535326753489458,-2.521483968930678,9.6434275535829,0.16333333333333333,0.5255555555555556,-0.59,-0.03787768625077659,-0.02794725920087017,-0.12478293816680708
1589987566.5477245,0.5616633188114679,-2.4466331881146792,8.726432316802754,0.16333333333333333,0.5255555555555556,-0.59,0.005558020877137068,0.003827767986204142,0.21094800004653882
1589987566.5577245,0.5366629867523084,-2.4844530309112804,8.431082898434363,0.16333333333333333,0.5255555555555556,-0.59,-0.01854894029907061,-0.033701241110211166,0.4762458376046547
1589987566.5677245,0.5627450113999894,-2.6091500379999646,8.805685148199863,0.16333333333333333,0.5255555555555556,-0.59,-0.05346489826183566,-0.06486516828261424,0.7104191492643535
1589987566.5777245,0.5399784416384354,-2.6499784416384355,8.691047890360332,0.15638589467200495,0.5443136399411422,-0.607368596653321,-0.011835446800016788,-0.0657160876011974,1.042372296337036
1589987566.5877244,2.7937512062093557,-6.2010299979022445,7.727577302286553,0.15222222222222226,0.5555555555555556,-0.6177777777777778,-0.03499415813417259,-0.09799729017401936,1.3604105145589467
1589987566.5977244,16.676499128167798,-19.676899832405073,7.595525553994346,0.15222222222222226,0.5555555555555556,-0.6177777777777778,-0.4850300564322045,-0.5483556354970112,2.491014220449482
1589987566.6077244,3.135962993685567,-7.3008356046114,13.552793418090097,0.15222222222222226,0.5555555555555556,-0.6177777777777778,-0.26118866586048706,-0.2013627532266672,3.3097005520560745
1589987566.6177244,-1.4099938442597724,-1.2621391197291476,5.550532471529701,0.15222222222222226,0.5555555555555556,-0.6177777777777778,0.5811992741750531,0.06437412462688225,3.727908323669575
1589987566.6277244,-1.2991835883171072,-1.5120057950857673,5.554927445526194,0.1658843300880853,0.5573771699376707,-0.6241534281151805,0.14300010226326887,-0.15040806711067745,3.7206606043371764
1589987566.6377244,0.29477533039647574,-2.570784140969163,9.144114537444935,0.1688888888888889,0.5577777777777778,-0.6255555555555555,-0.7042701467957977,-0.5408829172656259,3.6487751467248133
1589987566.6477244,-0.5921251101321585,-3.1990052863436125,9.96634515418502,0.1688888888888889,0.5577777777777778,-0.6255555555555555,-0.10867862991128074,-0.2768474224707978,3.7727307416094082
1589987566.6577244,-0.6221884088813223,-2.331488023456527,6.052213000401977,0.1688888888888889,0.5577777777777778,-0.6255555555555555,0.2001927132721094,-0.10085022179128922,3.8829565491309936
1589987566.6677244,-0.42606802825552825,-2.879090525184275,8.02243012899263,0.1688888888888889,0.5577777777777778,-0.6255555555555555,-0.15202310769359687,-0.24783115892015192,3.8999434650470888
1589987566.6777244,-0.1,-3.16,9.1,0.2288888888888889,0.52,-0.6555555555555556,-0.27379852640661045,-0.4374231437810788,3.934626632464716
1589987566.6877244,-0.1,-3.16,9.1,0.2288888888888889,0.52,-0.6555555555555556,-0.27379852640661045,-0.4374231437810788,3.934626632464716
1589987566.6977243,-0.19806844325153375,-3.3757505751533743,8.972511023773007,0.2288888888888889,0.52,-0.6555555555555556,-0.13365986594234383,-0.28444735411397865,4.059788642192344
1589987566.7077243,-0.17082068378493404,-3.4286321936917767,9.154802336028752,0.2288888888888889,0.52,-0.6555555555555556,-0.16803433962909864,-0.3472157143192423,4.082412641698543
1589987566.7177243,7.437763044505601,-11.247515080755011,6.393540711088873,0.2288888888888889,0.52,-0.6555555555555556,-0.12517314310834543,-0.3033050548324323,4.113280686218765
1589987566.7277243,8.480028218109386,-14.709724043489086,7.358555896754918,0.2820874484742856,0.49613522560655104,-0.6525724587563744,-0.25563409804165843,-0.36352544660374564,3.0581995953899206
1589987566.7377243,0.23020538325159423,-3.673707490041675,5.98559001634777,0.3477777777777778,0.4666666666666667,-0.6488888888888888,-0.3366324239541424,-0.13376364272957453,-1.3168797492445854
1589987566.7477243,-7.733721375350331,-7.630926925968966,2.58646455670244,0.3477777777777778,0.4666666666666667,-0.6488888888888888,0.7158054859435445,0.6286491578072736,-2.610414956620728
1589987566.7577243,-4.790857292460014,-3.8050899657273423,5.354602532368622,0.3477777777777778,0.4666666666666667,-0.6488888888888888,0.6868820410323573,0.5452346419168366,-1.782751736877338
1589987566.7677243,-1.6616337369874654,-0.9644338219672828,9.176910983641385,0.3477777777777778,0.4666666666666667,-0.6488888888888888,-0.04607977911604999,0.03938230522309327,-0.2686627921871705
1589987566.7777243,-0.4213622145172232,-1.5797763247154593,9.650273045903369,0.38038499870187514,0.450363056204618,-0.6617959138380107,-0.3314668205184059,-0.2555918190100778,0.473455400904742
1589987566.7877243,-0.7475072857199889,-3.4543674398179567,7.964791009621143,0.4011111111111111,0.44,-0.67,0.007822592323901312,-0.03509397155659716,0.7878726408904825
1589987566.7977242,-1.2063483237939494,-5.387290269828291,8.06634832379395,0.4011111111111111,0.44,-0.67,0.01488346287928198,-0.023599941133595034,0.9881201896177214
1589987566.8077242,5.863788974966388,-9.612241500736284,8.435179588962162,0.4011111111111111,0.44,-0.67,-0.12476152713839724,-0.1822633040215205,1.451095405233021
1589987566.8177242,-1.0219525771861315,-3.65774752421843,9.78088200392673,0.4011111111111111,0.44,-0.67,-0.07117413734248484,-0.08469388215195878,0.4993035788996345
1589987566.8277242,-2.6431448563346733,-3.1194836980794998,7.128764627065654,0.3584908606686187,0.4524742196417051,-0.6959879575868857,0.2235386239619305,0.2205472759125887,-0.5713812238343594
1589987566.8377242,-0.9748689392472079,-2.8861327393634193,8.011489121311898,0.3555555555555556,0.4533333333333333,-0.6977777777777778,0.07337513154881697,0.0729041213949441,-0.1428006408343327
1589987566.8477242,1.6129278825392255,-5.694632935079891,9.167711961997984,0.3555555555555556,0.4533333333333333,-0.6977777777777778,-0.11694029453370204,-0.11352169335605392,0.2775265391370021
1589987566.8577242,0.6057283385759222,-4.536726336860166,8.685131255361739,0.3555555555555556,0.4533333333333333,-0.6977777777777778,-0.03748059632127185,-0.0408767390325535,0.10716980410394347
1589987566.8677242,-0.2033876930337432,-4.093111087805774,8.520949634251854,0.3555555555555556,0.4533333333333333,-0.6977777777777778,0.054050620942773256,0.024990924361008575,-0.03235538349060809
1589987566.8777242,-0.006650045330915691,-4.57393183878678,8.721674977334542,0.3661462082291639,0.445857578504904,-0.685941165966098,0.006073472122754012,0.0002275973070048412,-0.01222673591446586
1589987566.8877242,-0.01240127538352978,-4.562337244857956,8.640651020568173,0.3744444444444445,0.44,-0.6766666666666666,-0.02767473872813219,-0.012998000121883,0.004526307725640432
1589987566.8977242,-0.04263370877453295,-4.475267417549066,8.595561475686248,0.3744444444444445,0.44,-0.6766666666666666,-0.005938321807512238,-0.002772286069065317,-0.0008939559478056543
1589987566.9077241,-0.006089392776044304,-4.497821214447912,8.681731821671868,0.3744444444444445,0.44,-0.6766666666666666,0.0015052228073306022,-0.002181661564992912,-0.001090830782496456
1589987566.9177241,-0.014438455894802188,-4.495786161747277,8.74466307353688,0.3744444444444445,0.44,-0.6766666666666666,0.00545415391248228,-0.001115332766323624,-0.000557666383161812
1589987566.9277241,-0.030706219647767832,-4.501822011585045,8.73676554911942,0.3894177572341519,0.4369020732159226,-0.6725360976212301,0.002412771404289598,0.0015206912540963408,-0.0025344854234939014
1589987566.937724,-0.025107282528273968,-4.534678152415178,8.674249022302083,0.4066666666666667,0.43333333333333335,-0.6677777777777778,-0.004433539380544998,0.0016011380484650974,-0.003225681513783252
1589987566.947724,-0.03,-4.531119434040782,8.64,0.4066666666666667,0.43333333333333335,-0.6677777777777778,-0.002177576056444236,0.001819413140343652,-0.0016973018292776732
1589987566.957724,-0.04435995442684406,-4.518460068359734,8.64,0.4066666666666667,0.43333333333333335,-0.6677777777777778,0.007664159678409626,-0.0006435777335225702,0.00016798048361425138
1589987566.967724,-0.04423772131891783,-4.498475442637836,8.732196458897315,0.4066666666666667,0.43333333333333335,-0.6677777777777778,0.0073032086574091,-0.0015530944687281608,-0.00016630341003304639
1589987566.977724,-0.034088983050847455,-4.51364406779661,8.758622881355933,0.3876200564971752,0.42939265536723165,-0.6723752354048964,0.0002958185172871738,-0.0036699984800940087,-0.001090830782496456
1589987566.987724,-0.035530903328050714,-4.502345483359747,8.741061806656102,0.3744444444444445,0.4266666666666667,-0.6755555555555556,-0.005685804189589293,-0.003644170030907336,-0.001090830782496456
1589987566.997724,-0.0223955910607746,-4.515208817878451,8.638505410051573,0.3744444444444445,0.4266666666666667,-0.6755555555555556,-0.008916044222712716,-0.002181661564992912,-0.0017309451551152176
1589987567.007724,-0.022648600281222037,-4.489405598875112,8.673837402531,0.3744444444444445,0.4266666666666667,-0.6755555555555556,-0.0008491133900053911,-0.0014917874378803956,-0.0001120391836553626
1589987567.017724,-0.026580095574485766,-4.497618948680657,8.733160191148972,0.3744444444444445,0.4266666666666667,-0.6755555555555556,0.00510943053409518,-0.0007177770804417778,0.00034472337838709944
1589987567.027724,-0.02077041346353626,-4.561525451901101,8.721540826927074,0.3744444444444445,0.4266666666666667,-0.6755555555555556,0.0063769065507237235,-8.403907212750595e-05,-0.0009227526382414441
1589987567.037724,-0.032374447317927754,-4.476118920497205,8.715753316092433,0.3744444444444445,0.43333333333333335,-0.6677777777777778,5.478269217175824e-05,0.0014046254972493886,-0.00025901202258117443
1589987567.047724,-0.03608228654651374,-4.548246859639541,8.660205716366285,0.3744444444444445,0.43333333333333335,-0.6677777777777778,-0.003058814225886203,-0.0008771526608932907,-0.0008771526608932907
1589987567.057724,-0.023825688250139674,-4.515302753000559,8.627651376500278,0.3744444444444445,0.43333333333333335,-0.6677777777777778,-0.0009297080127467047,0.0,-0.00041731785074873573
1589987567.067724,-0.039641082274986195,-4.501435670900055,8.681778023191606,0.3744444444444445,0.43333333333333335,-0.6677777777777778,0.00284362900285244,-0.0003505596440711968,-0.001090830782496456
1589987567.077724,-0.044867818054382405,-4.465396545836853,8.77,0.3765461363813358,0.43081130300906373,-0.6757642071379648,0.004894319707717056,-0.0015034970293118757,-0.0002654982888656165
1589987567.087724,-0.022629225541048112,-4.532112323376856,8.767370774458952,0.38,0.4266666666666667,-0.6888888888888889,-0.0006863785893082689,-0.002181661564992912,0.0005172227516362198
1589987567.097724,-0.035530414949589195,-4.521060829899178,8.677043775756161,0.38,0.4266666666666667,-0.6888888888888889,-0.01113974500676784,-0.0009751121915948155,-0.001090830782496456
1589987567.107724,-0.020910004379975783,-4.523636668126659,8.629089995620024,0.38,0.4266666666666667,-0.6888888888888889,-0.007536914760612155,-0.0020823954860044935,-0.0017849626111646204
1589987567.117724,-0.015462790286802381,-4.49814883885279,8.689165112581222,0.38,0.4266666666666667,-0.6888888888888889,-0.0013838332284024845,-0.0014847984065393647,0.0013937263169070948
1589987567.127724,-0.0257424293251197,-4.508712146625599,8.764454575950717,0.38,0.4266666666666667,-0.681232316455396,0.004849241986987005,0.0006264018674150915,0.003110519395155641
1589987567.137724,-0.03,-4.520087674241485,8.745394534086682,0.38,0.4266666666666667,-0.6755555555555556,0.004392014458418974,0.001090830782496456,1.9127552288767096e-05
1589987567.147724,-0.024713618340988498,-4.536431908295057,8.647136183409884,0.38,0.4266666666666667,-0.6755555555555556,-0.001215788354173316,0.000514175998329013,-0.0004516972124905827
1589987567.157724,-0.026618469633658333,-4.526907651831708,8.626473878534634,0.38,0.4266666666666667,-0.6755555555555556,-0.003994455388430623,0.00144392608188251,-0.0010750583403273093
1589987567.167724,-0.024758870269845017,-4.52048225946031,8.671446778380929,0.38,0.4266666666666667,-0.6755555555555556,-0.0020764488721016637,0.001609943000521872,-0.001609943000521872
1589987567.177724,-0.02,-4.49801637998358,8.74264482668856,0.38236915703825336,0.4266666666666667,-0.6696326629599222,0.0011629572416526927,0.00031552595472799424,-0.001478483196380687
1589987567.1877239,-0.013190880206696693,-4.467236479173214,8.789358960930135,0.38666666666666666,0.4266666666666667,-0.6588888888888889,0.0017869728530411377,-0.0014622106561085137,-0.001067521944156739
1589987567.1977239,-0.009974256354786371,-4.5349613845321795,8.660180205516495,0.38666666666666666,0.4266666666666667,-0.6588888888888889,-0.004898909835005609,-0.0027256728582085053,2.808196065269466e-06
1589987567.2077239,-0.02,-4.540038034248513,8.606603276252477,0.38666666666666666,0.4266666666666667,-0.6588888888888889,-0.00836441896344177,-0.0029102650509594897,-0.0007286034859665774
1589987567.2177238,-0.02,-4.521379469434833,8.648276816608996,0.38666666666666666,0.4266666666666667,-0.6588888888888889,-0.006732954843658056,-0.002031184792690056,0.000150476772302856
1589987567.2277238,-0.029310995752713544,-4.520689004247287,8.723277489381783,0.3933912747102931,0.4297703319175712,-0.6728553825179592,0.0014483494131919672,-0.0005829947433587713,0.0005829947433587713
1589987567.2377238,-0.03012927284027346,-4.514935363579863,8.769741454319453,0.4011111111111111,0.43333333333333335,-0.6888888888888889,0.003824958478413148,0.001615093954718028,-0.000538364651572676
1589987567.2477238,-0.02,-4.524693762575453,8.705512273641851,0.4011111111111111,0.43333333333333335,-0.6888888888888889,0.0022484722068826348,0.001736462136579268,-0.001090830782496456
1589987567.2577238,-0.026180530381194056,-4.536180530381194,8.659444243049553,0.4011111111111111,0.43333333333333335,-0.6888888888888889,-0.0016059343342879563,-0.0013483825583922061,-0.001090830782496456
1589987567.2677238,-0.01924023389139668,-4.518480467782793,8.6953798830543,0.4011111111111111,0.43333333333333335,-0.6888888888888889,-0.0026856381433030376,-0.0010079531566202515,-0.0005039765783101258
1589987567.2777238,-0.025713904931141715,-4.515713904931141,8.726189841551902,0.3900531780114188,0.44089928755943864,-0.6778309557891966,0.00010383326328871918,0.0,-0.0005713737070704078
1589987567.2877238,-0.03153900256800301,-4.504617007704009,8.75,0.38,0.4477777777777778,-0.6677777777777778,0.0026431373874652012,0.0004614758224722891,-0.001552306604968745
1589987567.2977238,-0.02,-4.478110408560311,8.717558365758755,0.38,0.4477777777777778,-0.6677777777777778,0.0017979784614543157,-8.878032633158578e-05,-0.0018867587877859015
1589987567.3077238,-0.02561784306363807,-4.516853529190914,8.635617843063638,0.38,0.4477777777777778,-0.6677777777777778,-0.004020096408508093,-0.002046869118479247,-0.00047801916799139563
1589987567.3177238,-0.025149872847792555,-4.5348501271522075,8.673950890065452,0.38,0.4477777777777778,-0.6677777777777778,-0.004396020313152329,-3.26971831665049e-05,0.0
1589987567.3277237,-0.015236423932568743,-4.525709271797706,8.719527152134862,0.3773535688514271,0.43507490826462775,-0.6778342161423548,-0.00015473910201891164,0.0005712052415847133,0.0005196255409117427
1589987567.3377237,-0.015536427986709685,-4.498927144026581,8.74660928396013,0.3744444444444445,0.4211111111111111,-0.6888888888888889,0.0038764229547871482,0.0,0.00048690017519867573
1589987567.3477237,-0.02,-4.495418846955314,8.705811530446862,0.3744444444444445,0.4211111111111111,-0.6888888888888889,0.003772218623536483,-0.0023644180257973656,-0.0005911045064493414
1589987567.3577237,-0.02,-4.515515744263673,8.68068765901823,0.3744444444444445,0.4211111111111111,-0.6888888888888889,-0.00011251794374201891,-0.0032349863662420285,-0.0005266624006245582
1589987567.3677237,-0.02437608069164265,-4.53,8.7,0.3744444444444445,0.4211111111111111,-0.6888888888888889,-0.0037498487000025863,-0.0012269488599664746,0.0
1589987567.3777237,-0.03465698452130709,-4.5206860309573855,8.718627938085229,0.37703165806739286,0.42680298108159753,-0.6857842325413508,-0.0038553249230406945,-0.0015239946208353888,0.0
1589987567.3877237,-0.034844412578100996,-4.51,8.724533237734304,0.38,0.43333333333333335,-0.6822222222222222,-0.0010229429628257763,-0.003272492347489368,-0.0005623873461658979
1589987567.3977237,-0.0251874260160463,-4.500374852032093,8.685937130080232,0.38,0.43333333333333335,-0.6822222222222222,0.0005658603980226256,-0.0027475219630155377,-0.0005658603980226256
1589987567.4077237,-0.024973925110230756,-4.499947850220462,8.669947850220462,0.38,0.43333333333333335,-0.6822222222222222,-0.0010851421240143575,-0.002181661564992912,0.0
1589987567.4177237,-0.018178233438485805,-4.5139405888538375,8.687881177707675,0.38,0.43333333333333335,-0.6822222222222222,-0.0039010678141645073,-0.0017518100027000129,-0.0008597031245857979
1589987567.4277236,-0.012121028131957092,-4.528080685421305,8.704040342710652,0.3858360505820534,0.4283951366869804,-0.6822222222222222,-0.0052227856347943045,-0.001531563802557933,-0.002181661564992912
1589987567.4377236,-0.022047502047502048,-4.532047502047502,8.725904995904996,0.3944444444444444,0.4211111111111111,-0.6822222222222222,-0.0024050093910568874,-0.0026154030432091525,-0.0017479200867766718
1589987567.4477236,-0.012087996444588097,-4.52,8.733296028443295,0.3944444444444444,0.4211111111111111,-0.6822222222222222,4.799461525347012e-05,-0.002361432029289427,-0.001090830782496456
1589987567.4577236,-0.016618116369466248,-4.52,8.67,0.3944444444444444,0.4211111111111111,-0.6822222222222222,0.0032566042998836975,0.001090830782496456,-0.0014597370591971645
1589987567.4677236,-0.01027436211564348,-4.52,8.67,0.3944444444444444,0.4211111111111111,-0.6822222222222222,0.001180615574884884,0.001090830782496456,-0.002151733300863436
1589987567.4777236,-0.03,-4.523757677275265,8.713757677275266,0.386929089893914,0.4211111111111111,-0.6734543085799367,-0.003140325803769808,-0.0006809317782417855,-0.0006809317782417855
1589987567.4877236,-0.03,-4.53,8.724937862271307,0.3744444444444445,0.4211111111111111,-0.6588888888888889,-0.004929073045397899,-0.0016159116495808364,0.0
1589987567.4977236,-0.026289219197707735,-4.518867657593123,8.700313753581662,0.3744444444444445,0.4211111111111111,-0.6588888888888889,-0.0012485753843707197,-0.0028677089548656384,-0.0004047833926237297
1589987567.5077236,-0.02,-4.507696819309722,8.665393638619445,0.3744444444444445,0.4211111111111111,-0.6588888888888889,0.0013420688219570654,-0.002181661564992912,-0.001090830782496456
1589987567.5177236,-0.02,-4.525786162326554,8.701572324653108,0.3744444444444445,0.4211111111111111,-0.6588888888888889,-0.002469805936487937,-0.0012623447956652582,-0.0006311723978326291
1589987567.5277236,-0.026794459048350417,-4.5301916885725255,8.693397229524175,0.3744444444444445,0.4252632805295475,-0.6588888888888889,-0.003992742875968213,-0.00037058025401761046,0.0
1589987567.5377235,-0.03550011486331266,-4.536500344589938,8.691000229726624,0.3744444444444445,0.43333333333333335,-0.6588888888888889,-0.003272492347489368,-0.0015816921049761385,0.0004908613224796825
1589987567.5477235,-0.03,-4.510251550188189,8.655628875470471,0.3744444444444445,0.43333333333333335,-0.6588888888888889,-0.0011457105202202769,-0.0016499661081756391,-0.0005042555879553627
1589987567.5577235,-0.019334229369916345,-4.505332885315042,8.672663082520335,0.3744444444444445,0.43333333333333335,-0.6588888888888889,0.002836013420847737,-0.001090830782496456,-0.00043647892664163096
1589987567.5677235,-0.013863656500859457,-4.51,8.721590969502579,0.3744444444444445,0.43333333333333335,-0.6588888888888889,0.00394186358557282,0.0001735478507425563,0.000247911693670448
1589987567.5777235,-0.017690388987117958,-4.514619222025764,8.735380777974235,0.38060340714546326,0.43333333333333335,-0.665817721927535,0.0020127949532670933,0.0019297220861484571,-0.0008388913036520011
1589987567.5877235,-0.018957823960880194,-4.527014058679707,8.725971882640588,0.4011111111111111,0.43333333333333335,-0.6888888888888889,-0.002181661564992912,0.001090830782496456,0.0
1589987567.5977235,-0.04,-4.51955704838879,8.738006717749554,0.4011111111111111,0.43333333333333335,-0.6888888888888889,-0.0021333430397264585,0.0010425122572300023,-4.83185252664537e-05
1589987567.6077235,-0.03264285839451873,-4.5,8.669619044281283,0.4011111111111111,0.43333333333333335,-0.6888888888888889,0.0,-0.001625857218126081,-0.001646635129363287
1589987567.6177235,-0.010593512888359295,-4.5,8.728417298964375,0.4011111111111111,0.43333333333333335,-0.6888888888888889,0.0,-0.003229330872260655,-4.316147522871348e-05
1589987567.6277235,-0.0356369797301435,-4.497818489865072,8.732181510134929,0.40232306118607125,0.4318789932433812,-0.6874345487989367,-0.005216188071731506,-0.002558594825237049,0.00037693326024413655
1589987567.6377234,-0.021307454754380926,-4.496537273771905,8.730847816719333,0.4066666666666667,0.4266666666666667,-0.6822222222222222,-0.003935459562145807,0.0,-0.002466903943552923
1589987567.6477234,-0.03,-4.536782760121898,8.653913800609491,0.4066666666666667,0.4266666666666667,-0.6822222222222222,-3.799149438385549e-05,-0.0007018928587417335,-0.0033104838418732234
1589987567.6577234,-0.033336387962318095,-4.521659030094205,8.633345551849272,0.4066666666666667,0.4266666666666667,-0.6822222222222222,0.002363633299575272,-0.002363633299575272,-0.0014547742516611765
1589987567.6677234,-0.04634198351198523,-4.48731603297603,8.70731603297603,0.4066666666666667,0.4266666666666667,-0.6822222222222222,0.0016763815522869304,-0.0016763815522869304,-0.003272492347489368
1589987567.6777234,-0.03450914294800445,-4.502745428525998,8.73372714262999,0.39934552393067263,0.4266666666666667,-0.6758162223282274,-0.0016897903719569048,0.0013903105772266804,-0.002374052963298695
1589987567.6877234,-0.02,-4.514591403268773,8.742451580387357,0.38,0.4266666666666667,-0.6588888888888889,-0.0022708035434026953,0.0016808171629495755,-0.0005008444020433364
1589987567.6977234,-0.024409579423325986,-4.524409579423326,8.670313785190066,0.38,0.4266666666666667,-0.6588888888888889,-0.0015718412797791517,0.001090830782496456,-0.0001288097879310645
1589987567.7077234,-0.025948453126460415,-4.53,8.640257734367697,0.38,0.4266666666666667,-0.6588888888888889,-0.0017397063603544866,-0.0006769900360572452,0.00020692037321960537
1589987567.7177234,-0.022623822256175197,-4.524752355487649,8.690990578049401,0.38,0.4266666666666667,-0.6588888888888889,-0.0013770453909799766,-0.0029862777390058473,-0.001090830782496456
1589987567.7277234,-0.029299242424242422,-4.5114015151515146,8.74439393939394,0.38,0.4266666666666667,-0.6588888888888889,-0.0021052207715225165,-0.0022581023584633073,-0.001090830782496456
1589987567.7377234,-0.04,-4.514122589614943,8.742061294807472,0.38,0.43333333333333335,-0.6755555555555556,-0.002856218713329897,0.00022485238277899505,-0.00022485238277899505
1589987567.7477233,-0.043168735093180255,-4.52683126490682,8.715143913975018,0.38,0.43333333333333335,-0.6755555555555556,-0.0040715323999951595,0.001090830782496456,-0.000745175404374676
1589987567.7577233,-0.044973621694998925,-4.517486810847499,8.652565945762502,0.38,0.43333333333333335,-0.6755555555555556,0.0005540476713738053,0.0005425379645397022,-0.0005482928179567538
1589987567.7677233,-0.02324156916724019,-4.50662078458362,8.706896077081899,0.38,0.43333333333333335,-0.6755555555555556,0.003611077814045391,-0.001090830782496456,-0.0018130463453055342
1589987567.7777233,-0.011814504119924551,-4.501814504119925,8.74,0.3826209503954466,0.4345430027466164,-0.674144274573392,0.0,-0.0006949673927003877,-0.00128876247739449
1589987567.7877233,-0.025297942776069993,-4.51529794277607,8.732053085835895,0.3944444444444444,0.44,-0.6677777777777778,-0.0005779159064041876,0.0005129148760922683,-0.002181661564992912
1589987567.7977233,-0.03411438223938224,-4.527057191119691,8.689400337837839,0.3944444444444444,0.44,-0.6677777777777778,-0.0025026722163573973,-0.00044880947976748485,-0.0015396402622639407
1589987567.8077233,-0.02037963630841654,-4.519620363691583,8.64113890892525,0.3944444444444444,0.44,-0.6677777777777778,-0.003272492347489368,0.0010494188853590483,-4.1411897137407685e-05
1589987567.8177233,-0.027062840563300543,-4.5070628405633,8.693497275493595,0.3944444444444444,0.44,-0.6677777777777778,-0.002311309169493853,0.0,-0.0020520139604919708
1589987567.8277233,-0.02064471879286694,-4.501289437585734,8.749355281207134,0.39487425697302236,0.4391403749428441,-0.6682792257277854,-0.00028131164212528634,7.032791053132158e-05,-0.0040820114878605375
1589987567.8377233,-0.036529017568371756,-4.52,8.743264508784186,0.4011111111111111,0.4266666666666667,-0.6755555555555556,-0.004363323129985824,0.001090830782496456,-0.000712205334304007
1589987567.8477232,-0.04613322640225528,-4.523866773597745,8.703598716827063,0.4011111111111111,0.4266666666666667,-0.6755555555555556,-0.002254325295303566,-0.0005963674852493505,-0.0026034611319293638
1589987567.8577232,-0.02955983751692532,-4.53,8.650880324966149,0.4011111111111111,0.4266666666666667,-0.6755555555555556,0.0007112157621363727,-0.0021336472864091184,-0.0021336472864091184
1589987567.8677232,-0.012204685266886225,-4.523385944199341,8.698818741067544,0.4011111111111111,0.4266666666666667,-0.6755555555555556,0.00024049385548359072,0.0,0.00024049385548359072
1589987567.8777232,-0.02285790102162664,-4.500952633673876,8.732857901021626,0.39973508469329083,0.42613742573673585,-0.6755555555555556,0.0009869145689058423,0.0002078324271812274,0.0007790821417246149
1589987567.8877232,-0.04881456165277832,-4.51,8.756443684958334,0.38666666666666666,0.4211111111111111,-0.6755555555555556,-4.310375466337134e-05,0.0020954540556661692,-0.0021385578103295406
1589987567.8977232,-0.02,-4.513805830916897,8.639553352664823,0.38666666666666666,0.4211111111111111,-0.6755555555555556,-0.0015059825342092596,-0.00041515175171280365,-0.0006756790307836523
1589987567.9077232,-0.023476884409966408,-4.52,8.614338190869764,0.38666666666666666,0.4211111111111111,-0.6755555555555556,-0.0025609308191502506,-0.0007115615283391173,0.0011378077624720157
