time,acc_x,acc_y,acc_z,mag_x,mag_y,mag_z,gyr_x,gyr_y,gyr_z
1589988148.6023011,-3.92,-1.04,9.03,0.3511111111111111,-0.3411111111111111,-0.6266666666666667,-0.007635815477475192,0.003272492347489368,0.003272492347489368
1589988148.612301,-3.96,-1.0428639246515514,9.046431962325777,0.3711111111111111,-0.36,-0.6411111111111111,-0.012075945423409836,0.0025708740978080047,0.0040509174131195536
1589988148.622301,-3.931267021253117,-1.0643664893734415,8.970984308446072,0.3711111111111111,-0.36,-0.6411111111111111,-0.009341166940468756,-0.002519761088494495,0.0024889219052414667
1589988148.632301,-3.933720465499001,-1.0562795345009992,8.933139767250498,0.3711111111111111,-0.36,-0.6411111111111111,-0.008726646259971648,-0.004363323129985824,0.00517500278829105
1589988148.642301,-3.9456746992734923,-1.05,8.947024097820478,0.3711111111111111,-0.36,-0.6411111111111111,-0.009964673589758805,-0.004982336794879402,0.0034499163705108446
1589988148.652301,-3.941286884714326,-1.041286884714326,8.973069672928512,0.36239799582543697,-0.3517709466746411,-0.6319139338651217,-0.014710121570986062,-0.004028473757724217,0.002991737655507206
1589988148.662301,-3.935960257423507,-1.03,8.984039742576494,0.3511111111111111,-0.3411111111111111,-0.62,-0.022235606992601915,-0.0002311718842436315,0.00740464359323156
1589988148.672301,-3.922935333357635,-1.0413764444282434,8.974311777785879,0.3511111111111111,-0.3411111111111111,-0.62,-0.025859743581575254,-0.0007706355841567663,0.009347135048856056
1589988148.682301,-3.9369553937321267,-1.0607821574928507,8.975391078746426,0.3511111111111111,-0.3411111111111111,-0.62,-0.02315424130918721,-0.00041743517075397267,0.008053250648229164
1589988148.692301,-3.9548700450406535,-1.080259909918693,9.000519819837386,0.3511111111111111,-0.3411111111111111,-0.62,-0.015717815137203404,-0.000587943052246174,0.005985393416731192
1589988148.702301,-3.9443647656691136,-1.1069057029926597,9.031270468661772,0.3623815797728841,-0.34799861973775015,-0.6149909028169898,-0.007696177655162742,-0.0009522441500505483,0.006068862619953461
1589988148.712301,-3.9228170862665555,-1.1085447241777036,9.057182913733444,0.3711111111111111,-0.3533333333333333,-0.6111111111111112,-0.0018641696321961472,-0.0006247883744474192,0.006544984694978735
1589988148.722301,-3.9157464258629893,-1.082760722411033,9.00104288964413,0.3711111111111111,-0.3533333333333333,-0.6111111111111112,0.0006268378220682245,-0.002344506426632905,0.0077986603391151845
1589988148.732301,-3.9258277699249757,-1.0408611503751224,8.984966619549853,0.3711111111111111,-0.3533333333333333,-0.6111111111111112,0.002362252947990531,-0.001365359099248255,0.00554809084623646
1589988148.742301,-3.933394034302759,-1.0301821029082774,8.999817897091722,0.3711111111111111,-0.3533333333333333,-0.6111111111111112,0.003272492347489368,0.00037023170942985606,0.0025320289286296558
1589988148.752301,-3.939649515287099,-1.0489485458612975,8.981051454138703,0.3711111111111111,-0.3533333333333333,-0.6111111111111112,0.003272492347489368,0.0010525988311337912,0.0011672946852217853
1589988148.762301,-3.94,-1.0759437261381501,8.9894372613815,0.3588888888888889,-0.3477777777777778,-0.5966666666666667,0.002593439773689158,0.003303184977867288,0.0
1589988148.772301,-3.94,-1.07,8.901479782396882,0.3588888888888889,-0.3477777777777778,-0.5966666666666667,0.0,0.00447093594264685,0.0
1589988148.782301,-3.936836602334814,-1.066836602334814,8.895307181321488,0.3588888888888889,-0.3477777777777778,-0.5966666666666667,-0.0013802926201849734,0.002181661564992912,0.0006901463100924867
1589988148.792301,-3.9322127067552946,-1.06,8.952212706755294,0.3588888888888889,-0.3477777777777778,-0.5966666666666667,-0.003639216537591902,0.002181661564992912,0.0016989238367302972
1589988148.802301,-3.9323423217550273,-1.0561711608775137,9.00211723034735,0.35591090290473293,-0.3507557637619338,-0.5966666666666667,-0.001090830782496456,9.335377697553037e-05,0.0
1589988148.812301,-3.925168321627513,-1.05,9.064831678372487,0.3511111111111111,-0.3555555555555556,-0.5966666666666667,-0.001090830782496456,-0.0021449394824627575,0.0
1589988148.822301,-3.939756590877389,-1.0597565908773887,8.996582159296974,0.3511111111111111,-0.3555555555555556,-0.5966666666666667,0.0005055876666955083,-0.001090830782496456,0.0005321394830639881
1589988148.832301,-3.9454306176609593,-1.0791387646780821,8.948277529356163,0.3511111111111111,-0.3555555555555556,-0.5966666666666667,0.002680103856235067,-9.394620001214609e-05,-0.00040449609123000886
1589988148.842301,-3.94,-1.0746971156570522,8.980201922895299,0.3511111111111111,-0.3555555555555556,-0.5966666666666667,0.0021596351940046665,0.0005344022057541052,-0.0010688044115082103
1589988148.852301,-3.9351685732395643,-1.0503371464791285,9.009325707041743,0.354868887480339,-0.3555555555555556,-0.6036453942095185,0.001090830782496456,0.0005270269033660551,-0.0005270269033660551
1589988148.8623009,-3.9396412547343886,-1.0496412547343887,9.015538117898418,0.3588888888888889,-0.3555555555555556,-0.6111111111111112,0.001616679654804498,0.002668377399420582,-0.000564981910188414
1589988148.8723009,-3.945341099691989,-1.06,8.944093196303864,0.3588888888888889,-0.3555555555555556,-0.6111111111111112,0.002181661564992912,0.0038551159431297246,-0.0005082071868560995
1589988148.8823009,-3.934029912754466,-1.06,8.927760697964272,0.3588888888888889,-0.3555555555555556,-0.6111111111111112,-0.0004232804116542123,0.003272492347489368,0.0008628756999888877
1589988148.8923008,-3.942932120719439,-1.0567669698201403,8.9761651508993,0.3588888888888889,-0.3555555555555556,-0.6111111111111112,-0.002534330449086021,0.0008038101588376044,0.0011236549127135846
1589988148.9023008,-3.9642424550350577,-1.0514393862412357,9.002803068793822,0.3588888888888889,-0.3555555555555556,-0.6111111111111112,-0.003115479665505197,-0.003264234356096625,-0.0006197927365439422
1589988148.9123008,-3.9373860045146727,-1.0473860045146728,9.02,0.3511111111111111,-0.36,-0.6111111111111112,-0.006259842020908556,-0.005739296586552459,-0.0016611161306368154
1589988148.9223008,-3.9345373931826364,-1.0536121795479092,8.983700854538908,0.3511111111111111,-0.36,-0.6111111111111112,-0.0029793898345276183,-0.005060126248205939,-0.003272492347489368
1589988148.9323008,-3.936248712667353,-1.07,8.947502574665293,0.3511111111111111,-0.36,-0.6111111111111112,0.0,-0.0016356844689133264,-0.002454088408201347
1589988148.9423008,-3.9260512357078308,-1.07,8.991590114337354,0.3511111111111111,-0.36,-0.6111111111111112,0.000861486728544213,0.0006600874182243494,-0.000229344053952243
1589988148.9523008,-3.9244888092024417,-1.0655111907975585,9.037755595398778,0.3528567591342828,-0.3572568388207301,-0.6078691933537922,0.0019368350022540772,0.0004896531254776694,0.0008460042197576212
1589988148.9623008,-3.944092258958622,-1.0513640863195408,9.027271827360918,0.3588888888888889,-0.3477777777777778,-0.5966666666666667,0.0012396295172301835,0.0017352653607917291,0.0
1589988148.9723008,-3.960173112278932,-1.0501731122789322,8.983794966077152,0.3588888888888889,-0.3477777777777778,-0.5966666666666667,0.0018243458442503326,-0.001090830782496456,0.0
1589988148.9823008,-3.94,-1.0302539564172675,8.930761869251802,0.3588888888888889,-0.3477777777777778,-0.5966666666666667,0.0010631284347596788,-0.001090830782496456,2.770234773677718e-05
1589988148.9923007,-3.9365938638507205,-1.0468122722985593,8.97021840844784,0.3588888888888889,-0.3477777777777778,-0.5966666666666667,-0.001857759080504108,-0.0018339344146980994,0.0014623825985972776
1589988149.0023007,-3.932240592930445,-1.0644811858608894,8.99448118586089,0.3588888888888889,-0.3477777777777778,-0.6033884454580007,-0.004720921590610374,-0.003028081573532066,0.0012040184691637051
1589988149.0123007,-3.9448548387096776,-1.0848548387096775,8.990580645161291,0.3588888888888889,-0.3477777777777778,-0.6266666666666667,-0.0016520808141357616,-6.333856156431027e-05,-0.0005929193124214606
1589988149.0223007,-3.9402751512859306,-1.0851375756429653,8.940825453857792,0.3588888888888889,-0.3477777777777778,-0.6266666666666667,-3.0014349253637378e-05,0.002181661564992912,0.001090830782496456
1589988149.0323007,-3.93,-1.0644108458363868,8.917794577081807,0.3588888888888889,-0.3477777777777778,-0.6266666666666667,0.0015159590133652584,0.002606789795861714,0.0006657025516276536
1589988149.0423007,-3.9316812237767946,-1.0416812237767947,8.945131013991151,0.3588888888888889,-0.3477777777777778,-0.6266666666666667,0.001448089305795909,0.004189457671485621,0.0003667861295985014
1589988149.0523007,-3.9385287251236676,-1.0485287251236675,9.006758526113007,0.3588888888888889,-0.3477777777777778,-0.6266666666666667,-0.0015396967951460104,0.00792419029766302,0.0018606791800694611
1589988149.0623007,-3.9541123255298722,-1.0519625581567094,9.042149767373164,0.3511111111111111,-0.36,-0.6055555555555555,-0.00633090281000094,0.011142811067549833,0.0017534977950373204
1589988149.0723007,-3.93501491350169,-1.06,8.979910518989858,0.3511111111111111,-0.36,-0.6055555555555555,-0.007095280518242508,0.005994688871714964,0.0
1589988149.0823007,-3.9451013891478652,-1.06,8.95,0.3511111111111111,-0.36,-0.6055555555555555,-0.009839596723168548,0.006032748824781177,0.0005564752315984508
1589988149.0923007,-3.9582592307540505,-1.055870384622975,8.974777692262151,0.3511111111111111,-0.36,-0.6055555555555555,-0.01225972129690351,0.00853675779210116,0.0019917730971224243
1589988149.1023006,-3.985008152591909,-1.0424959237040456,9.028760190739886,0.34652528670802785,-0.35749864123468184,-0.6076400211933207,-0.016636503397802663,0.008589625429793737,0.006956047185512472
1589988149.1123006,-4.051069157317235,-1.013572337073106,9.055893084268277,0.3388888888888889,-0.3533333333333333,-0.6111111111111112,-0.02162177488768926,0.006096989684850438,0.01801791450136874
1589988149.1223006,-4.089393137347575,-1.0003034313262122,8.998482843368938,0.3388888888888889,-0.3533333333333333,-0.6111111111111112,-0.020659586421231443,0.002082363895691079,0.037826981394185236
1589988149.1323006,-3.985345499102884,-1.0430908931775416,8.923090893177541,0.3388888888888889,-0.3533333333333333,-0.6111111111111112,-0.017369992020382825,-0.005370853412921809,0.08686184653422963
1589988149.1423006,-3.91,-1.0616327416554119,8.969523602804038,0.3388888888888889,-0.3533333333333333,-0.6111111111111112,-0.02128230219265285,-0.007761953090629004,0.12505956801091392
1589988149.1523006,-3.91,-1.041401697858383,9.016729371663772,0.3388888888888889,-0.3533333333333333,-0.6111111111111112,-0.02790289579340273,-0.010704439135406729,0.14786383485794127
1589988149.1623006,-3.9189354844861453,-1.0884596754200278,9.14372580429849,0.3588888888888889,-0.3533333333333333,-0.5966666666666667,-0.030830484684161854,-0.0068902677837877095,0.18918128668674833
1589988149.1723006,-3.8611067312510436,-1.2257701686988476,9.257034574912309,0.3588888888888889,-0.3533333333333333,-0.5966666666666667,-0.026805066626039105,-0.0105461308699877,0.24078915245274007
1589988149.1823006,-3.7513791101110545,-0.7529309719097046,8.695345140451478,0.3588888888888889,-0.3533333333333333,-0.5966666666666667,0.0039119312238370015,-0.016127383230280404,0.3261584039664404
1589988149.1923006,-3.3205883146977433,-0.5071875632747642,9.006415442417152,0.3588888888888889,-0.3533333333333333,-0.5966666666666667,-0.02741313293097452,-0.028979203608700196,0.3394528995266452
1589988149.2023005,-2.739017645988721,-0.39634501936121,9.087235894903714,0.35617488326966223,-0.35139475789102853,-0.594728091224362,-0.04710507191685864,-0.028463769167905262,0.40131049037115846
1589988149.2123005,-2.2309619484118524,-0.7639927520784481,9.096969196333404,0.3511111111111111,-0.3477777777777778,-0.5911111111111111,-0.0187064631532243,-0.022905469868441095,0.5273186690170999
1589988149.2223005,-1.88071350189237,-1.1446599332631626,8.976800438940273,0.3511111111111111,-0.3477777777777778,-0.5911111111111111,0.005226743799964432,-0.010387822288676529,0.6095968570129214
1589988149.2323005,-1.8190633588353264,-1.4488521627175717,8.74151699720221,0.3511111111111111,-0.3477777777777778,-0.5911111111111111,0.048521835270884286,0.0027385959175606767,0.6306570554185761
1589988149.2423005,-1.966963426792367,-1.228280482045721,8.492780508281882,0.3511111111111111,-0.3477777777777778,-0.5911111111111111,0.07046633680196694,0.01668438970682159,0.6201918385264389
1589988149.2523005,-2.111765096217651,-1.1645587259455872,8.787060384870603,0.3488942957556096,-0.35100223647668904,-0.5975600285089336,0.03703444097238741,0.0035984627936633835,0.5785678644127
1589988149.2623005,-2.2056083396377555,-1.0741250945663299,9.11412509456633,0.3388888888888889,-0.3655555555555556,-0.6266666666666667,-0.0459476119854664,-0.05339888769080594,0.4950690433315728
1589988149.2723005,-2.2160830190492207,-0.9658754714261693,8.977730188090034,0.3388888888888889,-0.3655555555555556,-0.6266666666666667,-0.023671439377114772,-0.04530837675767451,0.4412459909034793
1589988149.2823005,-2.2500443746318477,-0.9400443746318476,8.960266247791086,0.3388888888888889,-0.3655555555555556,-0.6266666666666667,0.0043488015656714205,-0.022532541621571107,0.3889645551544939
1589988149.2923005,-2.2847629507596556,-0.9663269788969954,9.115852880416307,0.3388888888888889,-0.3655555555555556,-0.6266666666666667,-0.004252160567307319,-0.0179134034093465,0.32928881247387287
1589988149.3023005,-2.306194067370538,-0.9787313557901793,9.154216524216524,0.33701078152058545,-0.36774668081857625,-0.6182151835093012,-0.005853046616924589,-0.013181557494872962,0.25194937047190097
1589988149.3123004,-2.2123962047885892,-0.9449308031923925,8.889723212769571,0.3322222222222222,-0.37333333333333335,-0.5966666666666667,0.013135258594630658,0.006037310307624828,0.1846618234090045
1589988149.3223004,-2.1757478728841586,-0.9259279636811882,8.809639818405941,0.3322222222222222,-0.37333333333333335,-0.5966666666666667,0.017799258483821565,0.01240403914685253,0.1168487662474505
1589988149.3323004,-2.1409926476830865,-0.9283685667227005,8.777233457286945,0.3322222222222222,-0.37333333333333335,-0.5966666666666667,-0.007620275310961098,-0.001988159634632081,0.026187958913527102
1589988149.3423004,-2.1979678399809828,-0.9782218599833596,8.90542763995721,0.3322222222222222,-0.37333333333333335,-0.5966666666666667,-0.022380970040296135,-0.02218700505372213,-0.03596233468367305
1589988149.3523004,-2.3330742844414747,-0.9715542933511527,9.043108586702305,0.3322222222222222,-0.37435809481382487,-0.5988869832077316,-0.00889993515942069,0.004361452231884649,-0.12862390429245257
1589988149.3623004,-2.3569055363200784,-0.8769055363200784,8.866241038016298,0.3322222222222222,-0.38,-0.6111111111111112,0.025878627916411392,0.01877294864547524,-0.2060696583927594
1589988149.3723004,-2.409752508738302,-0.9330033449844026,9.043003344984403,0.3322222222222222,-0.38,-0.6111111111111112,0.01867910884576931,0.028851197112847594,-0.311194687642675
1589988149.3823004,-2.4399112134166394,-0.9566962621944536,9.063392524388908,0.3322222222222222,-0.38,-0.6111111111111112,0.00817638831181329,0.020346032750233414,-0.39002144665068894
1589988149.3923004,-2.4833591098426413,-0.935572739895094,9.034427260104906,0.3322222222222222,-0.38,-0.6111111111111112,0.014771821108604428,0.033315944411044185,-0.4835285406012347
1589988149.4023004,-2.461057536466775,-0.9221150729335494,9.051057536466775,0.3322222222222222,-0.38,-0.6119336394741581,0.02795784267885821,0.04702108298050465,-0.5543354080379169
1589988149.4123003,-2.505319270109575,-0.9694947262910905,9.019361459780852,0.3322222222222222,-0.38,-0.6266666666666667,0.019344832906139336,0.049432623202663846,-0.6628829094406536
1589988149.4223003,-2.56596636765698,-0.9840336323430199,8.88613452937208,0.3322222222222222,-0.38,-0.6266666666666667,0.017013291487439353,0.05343236474479954,-0.7438181884798953
1589988149.4323003,-2.58,-0.9834716687724755,8.838083001263485,0.3322222222222222,-0.38,-0.6266666666666667,0.019131935741984248,0.06196824247911828,-0.8176768311691944
1589988149.4423003,-2.5884468559248135,-1.0147207150469917,8.872670283887219,0.3322222222222222,-0.38,-0.6266666666666667,0.02072578486743266,0.06401348777511218,-0.8795751938407391
1589988149.4523003,-2.6745737293729372,-0.9752995379537953,8.982649768976898,0.33575524752475244,-0.3780862779611295,-0.6238696883021636,0.021448397259058696,0.06195365868975278,-0.9463522542114887
1589988149.4623003,-2.7719103084330254,-1.01,9.005730925299076,0.3588888888888889,-0.3655555555555556,-0.6055555555555555,0.028263762022721912,0.06950694943330656,-1.0107109437632849
1589988149.4723003,-2.7757056126873993,-1.0153679841407508,9.020337628546647,0.3588888888888889,-0.3655555555555556,-0.6055555555555555,0.03697113535806582,0.07709765181680735,-1.0601033727806881
1589988149.4823003,-2.7442534229927897,-1.0791404034675525,8.963393826460342,0.3588888888888889,-0.3655555555555556,-0.6055555555555555,0.03576542758580739,0.0746404696829103,-1.1132002813494393
1589988149.4923003,-2.7578459045612895,-1.140306570525804,9.038152475087095,0.3588888888888889,-0.3655555555555556,-0.6055555555555555,0.03502407272053561,0.07612317941345388,-1.142854475960311
1589988149.5023003,-2.778005682902521,-1.17,9.028670455268347,0.359701388447121,-0.3639305564390914,-0.606958963883411,0.03817907738737596,0.08217488576723234,-1.182526884557154
1589988149.5123003,-2.7513238194194107,-1.17,9.010882546279607,0.3705717772735733,-0.34218977878618667,-0.6257350900381924,0.03817907738737596,0.08702578543752314,-1.2126024625129568
1589988149.5223002,-2.74,-1.2098666577993549,9.015733382103548,0.3711111111111111,-0.3411111111111111,-0.6266666666666667,0.03218678077249893,0.08480118430581923,-1.2513647066083906
1589988149.5323002,-2.74,-1.2377607820968974,8.862315698467063,0.3711111111111111,-0.3411111111111111,-0.6266666666666667,0.030665392300771834,0.08708326701340988,-1.2703820625049793
1589988149.5423002,-2.7183919108900185,-1.2716080891099817,8.866432356439926,0.3711111111111111,-0.3411111111111111,-0.6266666666666667,0.035997415822383035,0.09018812432677278,-1.2903377989297153
1589988149.5523002,-2.7108321617821995,-1.2791678382178004,8.896671352871202,0.3711111111111111,-0.3411111111111111,-0.6266666666666667,0.035997415822383035,0.08853884291982103,-1.3051813315922813
1589988149.5623002,-2.742890359425282,-1.346445179712641,8.966445179712641,0.41,-0.3211111111111111,-0.6344444444444445,0.03845812597262773,0.08723022188161061,-1.3248629078393068
1589988149.5723002,-2.767196916771459,-1.374015416142704,8.957575334171674,0.41,-0.3211111111111111,-0.6344444444444445,0.043939000247017426,0.08944812416470939,-1.33635867462942
1589988149.5823002,-2.770202893192217,-1.420202893192217,8.91275361649027,0.41,-0.3211111111111111,-0.6344444444444445,0.04555878432969923,0.09000460566293908,-1.3461073178145893
1589988149.5923002,-2.7980354179315925,-1.4617874924104433,8.957858328273629,0.41,-0.3211111111111111,-0.6344444444444445,0.047567949110852235,0.09205839104869414,-1.3500005859266038
1589988149.6023002,-2.789037490600494,-1.5119250187990116,8.992406273498764,0.4116576550769267,-0.3195069287786014,-0.6351395901218654,0.04586738960892231,0.09381144729469522,-1.3526826670396765
1589988149.6123002,-2.771014931786443,-1.5479701364271137,9.037462670533891,0.4426965063677922,-0.28946933075518316,-0.6481558825986798,0.04685036770560829,0.09381144729469522,-1.3536656451363627
1589988149.6223001,-2.731670036841085,-1.641189994736988,8.989770089471206,0.4444444444444444,-0.2877777777777778,-0.6488888888888888,0.04145156973486533,0.08996735732075546,-1.3559026626430948
1589988149.6323001,-2.668413259876041,-1.6531734802479183,8.851107180867714,0.4444444444444444,-0.2877777777777778,-0.6488888888888888,0.04075922374645056,0.09381144729469522,-1.3559026626430948
1589988149.6423001,-2.6618485882426595,-1.6663028235146808,8.897059882301384,0.4444444444444444,-0.2877777777777778,-0.6488888888888888,0.0378948453885811,0.09381144729469522,-1.3559026626430948
1589988149.6523001,-2.6782861997815273,-1.67,8.900856900109236,0.4444444444444444,-0.2877777777777778,-0.6488888888888888,0.038085604085707984,0.09181673233303826,-1.3638815224897225
1589988149.6623,-2.63,-1.7679404872530402,8.915125853500868,0.4711111111111111,-0.2533333333333333,-0.6766666666666666,0.04690572364734761,0.09381144729469522,-1.3897184169004848
1589988149.6723,-2.63,-1.821226090283091,8.921417368018362,0.4711111111111111,-0.2533333333333333,-0.6766666666666666,0.04677197794505606,0.09367770159240367,-1.3927945680531906
1589988149.6823,-2.6313604542626012,-1.8327209085252023,8.8613604542626,0.4711111111111111,-0.2533333333333333,-0.6766666666666666,0.04640850301998068,0.09375943428367543,-1.4171819655184215
1589988149.6923,-2.644870085856304,-1.8694803434252147,8.894350429281518,0.4711111111111111,-0.2533333333333333,-0.6766666666666666,0.049646972038291305,0.10106475726506815,-1.4409378020414259
1589988149.7023,-2.6685613420695886,-1.9642453682783552,9.012806710347943,0.4711111111111111,-0.2533333333333333,-0.6766666666666666,0.04706265688294513,0.10451051080552974,-1.4831482829120803
1589988149.7123,-2.6528167160827385,-1.9953874629379462,8.981020895103423,0.49,-0.2222222222222222,-0.6911111111111111,0.047800660749435044,0.11048116509300242,-1.5165929128699047
1589988149.7223,-2.623382515482728,-2.0174631133879544,8.94422814435341,0.49,-0.2222222222222222,-0.6911111111111111,0.04699796744761837,0.10727039188573571,-1.535857552113505
1589988149.7323,-2.5719450666037957,-2.087780266415183,8.849725333018979,0.49,-0.2222222222222222,-0.6911111111111111,0.03987646820771702,0.11035612136490139,-1.56455584372587
1589988149.7423,-2.5708990210226608,-2.123033659659113,8.882415850852217,0.49,-0.2222222222222222,-0.6911111111111111,0.046574802713369785,0.11562806294462433,-1.5870300450576433
1589988149.7523,-2.52182183392488,-2.13939272202504,8.8415181949374,0.49,-0.2222222222222222,-0.6911111111111111,0.04479030583321654,0.11562806294462433,-1.6039827654190992
1589988149.7623,-2.4709640602234098,-2.1890359397765904,8.908650315687227,0.5019865630564999,-0.17863472019858617,-0.7063667368193838,0.03937507082665996,0.11027907168892959,-1.6292174408284825
1589988149.7723,-2.489486195955865,-2.22897239191173,9.017174077757257,0.5022222222222222,-0.17777777777777778,-0.7066666666666667,0.0509607864802009,0.12505320869983289,-1.6530829456703622
1589988149.7823,-2.51,-2.288994470417922,8.770793364501507,0.5022222222222222,-0.17777777777777778,-0.7066666666666667,0.0599091503953067,0.13169618132594746,-1.6780670576676286
1589988149.7923,-2.5084654120257754,-2.380767293987112,8.884603763922675,0.5022222222222222,-0.17777777777777778,-0.7066666666666667,0.04841504838002727,0.12888542991465507,-1.7058864532203433
1589988149.8023,-2.4905662953953827,-2.3897168523023087,8.938301113813852,0.5022222222222222,-0.17777777777777778,-0.7066666666666667,0.053296275230008995,0.13083792065464778,-1.729316342100256
1589988149.8123,-2.4456692961786706,-2.4486614076426596,8.92566929617867,0.5222222222222223,-0.13111111111111112,-0.7144444444444444,0.05312431961336833,0.13635384781205698,-1.7576891325099862
1589988149.8223,-2.4290845766228637,-2.4836616935085467,8.900845766228633,0.5222222222222223,-0.13111111111111112,-0.7144444444444444,0.047896697229964307,0.13655356221181647,-1.7770783987189684
1589988149.8323,-2.416472476437645,-2.5211758411874516,8.81,0.5222222222222223,-0.13111111111111112,-0.7144444444444444,0.04652093051856778,0.13917683125834962,-1.801025170505492
1589988149.8423,-2.388187238890999,-2.5354382833270033,8.812417014812002,0.5222222222222223,-0.13111111111111112,-0.7144444444444444,0.04350140359192418,0.14398966328953214,-1.8106769759711259
1589988149.8523,-2.3642926319787314,-2.6071221040638055,8.844276490695025,0.5222222222222223,-0.13111111111111112,-0.7144444444444444,0.041763738741553924,0.14398966328953214,-1.823709462348903
1589988149.8623,-2.3483597629344866,-2.6694532543114953,8.886719525868974,0.5244444444444445,-0.10444444444444444,-0.7644444444444445,0.04587453356757294,0.14944381720201447,-1.8358085662388137
1589988149.8723,-2.3259650808905974,-2.661988360296866,8.841930161781194,0.5244444444444445,-0.10444444444444444,-0.7644444444444445,0.04668882718549611,0.14944381720201447,-1.8349942726208905
1589988149.8823,-2.290950041148279,-2.7291772764680253,8.761772764680254,0.5244444444444445,-0.10444444444444444,-0.7644444444444445,0.03944939860070485,0.152357328687839,-1.839230444504441
1589988149.8923,-2.1908234019501625,-2.721646803900325,8.690585048754063,0.5244444444444445,-0.10444444444444444,-0.7644444444444445,0.03974500456701605,0.14799370954207605,-1.840590806948963
1589988149.9023,-2.1993973711645785,-2.7387947423291568,8.904934279114455,0.5244444444444445,-0.10444444444444444,-0.7644444444444445,0.021974780427219072,0.1442526097231714,-1.8443319067678676
1589988149.9122999,-2.184451134415248,-2.7944210295466325,8.935548865584751,0.5615889566746858,-0.12085713589501619,-0.8015889566746858,0.030054434534443758,0.15586249013845535,-1.8344181444738583
1589988149.9222999,-2.0930498621283173,-2.7388724379577427,9.62806821574723,0.5722222222222222,-0.12555555555555556,-0.8122222222222222,0.07247170729692759,0.11477211607581153,-1.8208576879653444
1589988149.9322999,-1.7983873403937685,-2.6062743031771958,8.486250944025853,0.5722222222222222,-0.12555555555555556,-0.8122222222222222,0.1713104941624212,-0.00013801824748588265,-1.8088041773719916
1589988149.9422998,-1.8705066677475577,-2.6668355559158528,9.17208888978963,0.5722222222222222,-0.12555555555555556,-0.8122222222222222,-0.018122333336503024,0.28084093099957,-1.762609950863449
1589988149.9522998,-1.821827196826717,-2.6526102811810244,9.137961357602125,0.5726862722099598,-0.12555555555555556,-0.8124107425297405,-0.11512094405009053,0.2293341477215667,-1.761834082484938
1589988149.9622998,-1.96,-2.85,9.74,0.6077777777777778,-0.12555555555555556,-0.8266666666666667,-0.15926129424448254,0.0839939702522271,-1.772600021556741
1589988149.9722998,-1.9749409943896306,-2.8724114915844456,9.500944089765913,0.6077777777777778,-0.12555555555555556,-0.8266666666666667,-0.11016327823301875,0.11557153241727644,-1.747134245617185
1589988149.9822998,-2.051088290210723,-3.0217453543167068,8.617084111318574,0.6077777777777778,-0.12555555555555556,-0.8266666666666667,0.083873025468216,0.21698798748263115,-1.6394716266212468
1589988149.9922998,-2.089845687934476,-3.240570995939156,9.294043223897035,0.6077777777777778,-0.12555555555555556,-0.8266666666666667,-0.00540870075288951,0.06018759636720121,-1.6518797331785455
1589988150.0022998,-2.009013972055888,-3.165512974051896,9.167021956087824,0.6077777777777778,-0.12555555555555556,-0.8266666666666667,-0.022413633215918202,0.07908196577056642,-1.637394049969299
1589988150.0122998,-1.9666898982940961,-3.113310101705904,8.762194983589286,0.534932218575397,-0.16866823345084214,-0.7790940565753159,0.03368275414293931,0.11753987881379727,-1.5892036045159672
1589988150.0222998,-2.016667587840505,-3.21000197394394,8.813337544413738,0.4988888888888889,-0.19,-0.7555555555555555,0.04472363143459216,0.12144564050390831,-1.5507973892210671
1589988150.0322998,-1.9423689849990258,-3.2795262030001946,9.007867913500876,0.4988888888888889,-0.19,-0.7555555555555555,0.016775927619080405,0.09222414293455056,-1.5115241990504502
1589988150.0422997,-1.9241010058272592,-3.303848491259111,8.874858549531703,0.4988888888888889,-0.19,-0.7555555555555555,0.035439885217239946,0.10116849746959886,-1.4717786311852874
1589988150.0522997,-1.841838534769246,-3.2162062417230954,8.574251018215437,0.4988888888888889,-0.19,-0.7555555555555555,0.032687255047282926,0.09425022178650272,-1.4318719222476946
1589988150.0622997,-1.7884547052396562,-3.22943161845043,8.563090589520687,0.4910025651988029,-0.0892303084044569,-0.6863311587203564,0.028822732981525396,0.08990925680132694,-1.390844121518743
1589988150.0722997,-1.771477994306985,-3.3020691920297787,8.681528355594482,0.4888888888888889,-0.06222222222222223,-0.6677777777777778,0.03156960302494068,0.09445085040499585,-1.3296204957977302
1589988150.0822997,-1.8097443617254216,-3.35564210641559,8.980006021458289,0.4888888888888889,-0.06222222222222223,-0.6677777777777778,0.029899917764366676,0.08276305358097782,-1.298731318477111
1589988150.0922997,-1.7362537453521534,-3.3723047904407784,8.813926392549005,0.4888888888888889,-0.06222222222222223,-0.6677777777777778,0.07082374696765473,0.12131398049633924,-1.2225010988644638
1589988150.1022997,-1.501563120464965,-2.971059528536876,7.867593227681311,0.4888888888888889,-0.06222222222222223,-0.6677777777777778,0.13854192811346908,0.2063746226673011,-1.1671703898794692
1589988150.1122997,-1.47,-3.19,7.81,0.52,0.031111111111111114,-0.6177777777777778,0.008726646259971648,-0.01308996938995747,-1.1857330605736476
1589988150.1222997,-1.4784922428076517,-3.2055691118140284,7.855999648541447,0.52,0.031111111111111114,-0.6177777777777778,0.01559714949467864,-0.004598336178521862,-1.177550214024446
1589988150.1322997,-1.582443539024337,-3.4002845501741477,8.444887078048675,0.52,0.031111111111111114,-0.6177777777777778,0.10157142120782026,0.1051350980620127,-1.0652770600604737
1589988150.1422997,-1.5230698903311035,-3.326907253244983,8.343791650066054,0.52,0.031111111111111114,-0.6177777777777778,0.06419656612184457,0.08864134078637406,-1.025129780731264
1589988150.1522996,-1.6286112101323156,-3.56437522279771,9.161736878525446,0.52,0.031111111111111114,-0.6177777777777778,-0.016392838203280788,0.023402299189844017,-1.0164952016964297
1589988150.1622996,-1.630615581839731,-3.6255402365575793,9.286142998814794,0.5344444444444445,0.09777777777777777,-0.5966666666666667,0.04034430116175147,0.059643507436725474,-0.9505658222982198
1589988150.1722996,-1.6367395811735435,-3.7028270785817954,8.776520837652912,0.5344444444444445,0.09777777777777777,-0.5966666666666667,0.05359342329645349,0.06791648607769661,-0.9061485849491593
1589988150.1822996,-1.593257308729007,-3.607166079203815,8.863485382541986,0.5344444444444445,0.09777777777777777,-0.5966666666666667,0.011853438174103309,0.028073773006362338,-0.8871758644390002
1589988150.1922996,-1.611283279795285,-3.6612832797952852,8.881978548483694,0.5344444444444445,0.09777777777777777,-0.5966666666666667,0.05960680209355886,0.06287929444104823,-0.8264277615142139
1589988150.2022996,-1.4514308270267327,-3.501430827026733,8.813470354440028,0.5344444444444445,0.09777777777777777,-0.5966666666666667,0.05628543111951128,0.05955792346700066,-0.794874737260762
1589988150.2122996,-1.5316500994035787,-3.6074155069582505,8.911650099403579,0.5525756571681025,0.1369030262867241,-0.6033465871438038,0.03127409684767672,0.03735715916358638,-0.7671229526537154
1589988150.2222996,-1.422778061602861,-3.554630102671435,8.763704082137147,0.5555555555555556,0.14333333333333334,-0.6044444444444445,0.027822863436095017,0.029284075843400304,-0.7196249628445237
1589988150.2322996,-1.4849885462845465,-3.6583142438075775,8.846651395046063,0.5555555555555556,0.14333333333333334,-0.6044444444444445,0.015758665803240465,0.025514014083133252,-0.6879564440582806
1589988150.2422996,-1.5296929841780849,-3.788618428801382,8.771688587020533,0.5555555555555556,0.14333333333333334,-0.6044444444444445,0.02809367849750108,0.03473913388525736,-0.6236681423476966
1589988150.2522995,-1.5226915838536628,-3.7753831677073255,8.82115891302436,0.5555555555555556,0.14333333333333334,-0.6044444444444445,0.017997681450073525,0.02852878879691162,-0.5798142521653953
1589988150.2622995,-1.4903996772670025,-3.7706661287783376,8.917468710642318,0.5511111111111111,0.17,-0.6044444444444445,0.026078210051202515,0.02391108116173995,-0.49874307052708633
1589988150.2722995,-1.5151613664987407,-3.811935610831234,8.76064467884131,0.5511111111111111,0.17,-0.6044444444444445,0.019775687055064644,0.018508918593621776,-0.44562180527392425
1589988150.2822995,-1.5110166107650536,-3.909833892349465,8.676099664590321,0.5511111111111111,0.17,-0.6044444444444445,0.020503994804165135,0.021373035523394063,-0.36762591540656014
1589988150.2922995,-1.4838560358424577,-3.8067094886506503,8.704858618876724,0.5511111111111111,0.17,-0.6044444444444445,0.017873920779479555,0.015162266111371864,-0.2934306628382579
1589988150.3022995,-1.4149000238986695,-3.8550999761013305,8.912533258981917,0.5511111111111111,0.17,-0.6044444444444445,0.018242326496289013,0.01102466426707105,-0.22286038727045815
1589988150.3122995,-1.417558619334556,-3.815696554886036,8.861393109772072,0.5878559368905191,0.19347586091462177,-0.623837546939132,0.01954618297888094,0.00781335768958573,-0.11945725908155648
1589988150.3222995,-1.4008984847751367,-3.81,8.90730454567459,0.5911111111111111,0.1955555555555556,-0.6255555555555555,0.007133041605172884,-0.006949749082248685,-0.04151139987847614
1589988150.3322995,-1.3168185276554538,-3.6436370553109074,8.52181979572545,0.5911111111111111,0.1955555555555556,-0.6255555555555555,0.009569548380539023,-0.005619439687101668,0.02634494790457683
1589988150.3422995,-1.4036994843770658,-3.715181349433696,8.839243532678154,0.5911111111111111,0.1955555555555556,-0.6255555555555555,-0.011553763710610352,-0.011958444576462678,0.08273923362367179
1589988150.3522995,-1.434957422862118,-3.767393557155295,8.765383194240938,0.5911111111111111,0.1955555555555556,-0.6255555555555555,-0.0005872153986172558,-0.011458367661476012,0.13405143067022024
1589988150.3622994,-1.445841557230554,-3.797524671691662,8.854355816302743,0.6216170210928933,0.2137292891617237,-0.6378877319311697,-0.0045576874927385136,-0.01791767331424797,0.17447880324321072
1589988150.3722994,-1.4836661093078916,-3.789800334415265,8.815335562768434,0.6433333333333333,0.22666666666666666,-0.6466666666666666,-0.005766943854573162,-0.021438485298028033,0.22465971289141984
1589988150.3822994,-1.4515221799026017,-3.7012235423417277,8.713641634926951,0.6433333333333333,0.22666666666666666,-0.6466666666666666,-0.0092216159209282,-0.025352880980107306,0.2604741977910652
1589988150.3922994,-1.466652205882353,-3.735529044117647,8.713326102941178,0.6433333333333333,0.22666666666666666,-0.6466666666666666,-0.010545486277565831,-0.027513439307443974,0.30263600168038235
1589988150.4022994,-1.5006568698921843,-3.7462287534052106,8.788856232973949,0.6433333333333333,0.22666666666666666,-0.6466666666666666,-0.010568582027415402,-0.030275189502200588,0.33792655246959263
1589988150.4122994,-1.51,-3.714196386751422,8.880208430913349,0.9061479127169993,0.30981164268986283,-0.7584823240771718,-0.017476028805573782,-0.031634092692397225,0.3792423026669175
1589988150.4222994,-1.518858912400882,-3.7542945620044104,8.863423262797353,0.9488888888888888,0.3233333333333333,-0.7766666666666666,-0.01564505099854322,-0.030667735257765047,0.41586223078161433
1589988150.4322994,-1.4751449240298073,-3.643376802477499,8.7433768024775,0.9488888888888888,0.3233333333333333,-0.7766666666666666,-0.016250216907340444,-0.03641477762424114,0.4493274298328374
1589988150.4422994,-1.4771211291023485,-3.63,8.722878870897652,0.9488888888888888,0.3233333333333333,-0.7766666666666666,-0.018692845786738778,-0.03631145192178218,0.4767754099120459
1589988150.4522994,-1.5456005895357405,-3.767761238025055,8.733120117907148,0.9488888888888888,0.3233333333333333,-0.7766666666666666,-0.023928502629866254,-0.039575372943158084,0.5115562288388447
1589988150.4622993,-1.6486567347565657,-3.9000746429119952,8.877313469513131,1.3942040990460587,-0.09432846976910869,-1.4718161060768957,-0.018690650810099314,-0.04145156973486533,0.551838275271377
1589988150.4722993,-1.66,-3.893561456819483,8.776710926146123,1.4677777777777778,-0.16333333333333333,-1.586666666666667,-0.017453292519943295,-0.04503790351900636,0.585910952792356
1589988150.4822993,-1.676139581446346,-3.9222791628926923,8.77420937216952,1.4677777777777778,-0.16333333333333333,-1.586666666666667,-0.01481245968120086,-0.049336003316507726,0.6204899985088282
1589988150.4922993,-1.6456474409398867,-3.8870593011748586,8.73705930117486,1.4677777777777778,-0.16333333333333333,-1.586666666666667,-0.012307158728438978,-0.05017821599483697,0.6553323215956864
1589988150.5022993,-1.647154741769264,-3.8728452582307358,8.80154741769264,1.4677777777777778,-0.16333333333333333,-1.586666666666667,-0.01356006112000629,-0.052519599763654876,0.6786836935608992
1589988150.5122993,-1.620459090420385,-3.87,8.837385227394904,0.903218172478467,-0.1149190648556308,-0.9777956969979333,-0.014180800172453925,-0.05586751835575547,0.6998278189330359
1589988150.5222993,-1.5591649790916025,-3.8530549930305344,8.856945006969465,0.7033333333333334,-0.09777777777777777,-0.7622222222222222,-0.011408179890667378,-0.055798993929220185,0.7148429598592612
1589988150.5322993,-1.55,-3.838192334084894,8.759634839721596,0.7033333333333334,-0.09777777777777777,-0.7622222222222222,-0.013484340914891,-0.058208402997245695,0.7186078489176163
1589988150.5422993,-1.6030899937067338,-3.8897262429200756,8.749726242920074,0.7033333333333334,-0.09777777777777777,-0.7622222222222222,-0.018167240923842802,-0.055652278083966444,0.7090897790643144
1589988150.5522993,-1.6165708138108548,-3.9267145930945726,8.793429186189146,0.7033333333333334,-0.09777777777777777,-0.7622222222222222,-0.02256474802073537,-0.05345070834232633,0.6852746426114693
1589988150.5622993,-1.61,-3.89994982836018,8.860100343279642,0.6382246281137224,0.06582871226124459,-0.7405193204823519,-0.019900820684419764,-0.052631217036225884,0.6418964502915836
1589988150.5722992,-1.5979857832666178,-3.9320497585668384,8.825936024699779,0.6166666666666667,0.12,-0.7333333333333333,-0.017888849430421874,-0.05104932981579413,0.5951154031939861
1589988150.5822992,-1.6121262495787938,-3.96,8.716245834737354,0.6166666666666667,0.12,-0.7333333333333333,-0.012626093691593822,-0.041328351476196276,0.5184961429162986
1589988150.5922992,-1.6119975717591002,-3.9680024282409,8.730012141204499,0.6166666666666667,0.12,-0.7333333333333333,-0.015272955354910803,-0.037306147881386705,0.4288932083982476
1589988150.6022992,-1.54380026302156,-3.943520105208624,8.759859921093533,0.6166666666666667,0.12,-0.7333333333333333,-0.01058544486630672,-0.03058910262484687,0.3534730362897627
1589988150.6122992,-1.525077560710621,-3.909896585719172,8.78507756071062,0.6121992412709271,0.13731127340849086,-0.7333333333333333,-0.005442873164394575,-0.023981356092790472,0.2757320115136739
1589988150.6222992,-1.5538168980181337,-3.938359143063468,8.827633796036267,0.6077777777777778,0.15444444444444444,-0.7333333333333333,-0.0010117076959701948,-0.01695781044823404,0.15563852469314576
1589988150.6322992,-1.5354479609886695,-4.017288091026438,8.733607830950902,0.6077777777777778,0.15444444444444444,-0.7333333333333333,0.0008927373308871053,-0.00634425764607933,0.03666835732605031
1589988150.6422992,-1.5617827233609403,-4.07767408504141,8.75767408504141,0.6077777777777778,0.15444444444444444,-0.7333333333333333,0.0071580060563909385,0.001703852143908659,-0.06922063996426361
1589988150.6522992,-1.4917459221711604,-3.9791400564091437,8.75043648054279,0.6077777777777778,0.15444444444444444,-0.7333333333333333,0.011572044825024039,0.008963289477594151,-0.16987824626864306
1589988150.6622992,-1.5192559759379451,-3.9661706506252967,8.832341301250594,0.594097584999912,0.12964909503456282,-0.723073188749934,0.01308996938995747,0.017035575302457313,-0.30059822008258047
1589988150.6722991,-1.4994319086185104,-3.8015003979214455,8.827545526894808,0.59,0.12222222222222222,-0.72,0.015745144761920953,0.027394707875651368,-0.42814589888354915
1589988150.6822991,-1.458608486196035,-3.689369093941078,8.812152121549008,0.59,0.12222222222222222,-0.72,0.02235495691158917,0.0397252799973626,-0.5483399374789732
1589988150.6922991,-1.3516147196745703,-3.57161471967457,8.871490800203395,0.59,0.12222222222222222,-0.72,0.03540120702429622,0.04925000628758189,-0.6466392041169875
1589988150.702299,-1.2036325804322245,-3.411294377636828,8.755772465057545,0.59,0.12222222222222222,-0.72,0.060038959350234795,0.07094726717519935,-0.7609000068637499
1589988150.712299,-4.895406808661278,-9.176188369028656,5.36449190709383,0.5531332996811786,0.1072255983637186,-0.6668869571677997,0.05556764560754165,0.07751812921591036,-0.8744895208716367
1589988150.722299,2.0062617303504267,-3.652035240546427,-4.326340922589586,0.5244444444444445,0.09555555555555556,-0.6255555555555555,-1.1309166433217293,1.316766910894146,-3.992913278089556
1589988150.732299,2.6654408768204534,-2.6982778885957575,-1.71293889282114,0.5244444444444445,0.09555555555555556,-0.6255555555555555,-1.3487495005386785,-1.2839203249098714,-10.148479761762083
1589988150.742299,-0.4182935954808893,-4.206713373927078,4.0394720367789105,0.5244444444444445,0.09555555555555556,-0.6255555555555555,-1.4333225988588387,-1.625530887990542,-11.565353860359304
1589988150.752299,-1.1781297421069994,-4.553549570178332,4.0081689402906875,0.5244444444444445,0.09555555555555556,-0.6255555555555555,-1.014495869764651,-0.4658854384778066,-11.15398028309536
1589988150.762299,-1.172907112774918,-4.319071127749181,3.4622276165964747,0.5154134820360838,0.1788410977659925,-0.6285658763583424,-0.4731091002761557,0.5556978666021477,-10.655274515656522
1589988150.772299,-1.1000361624416881,-3.830144649766752,3.255420388384624,0.5044444444444445,0.28,-0.6322222222222222,0.17480171776992912,1.5447481018971196,-10.011924996194875
1589988150.782299,-0.8689424749565113,-3.467703797012777,3.5373720832583526,0.5044444444444445,0.28,-0.6322222222222222,0.8390336540641565,2.4845635037881686,-9.30893213735183
1589988150.792299,-1.426499672798662,-3.9290976514215084,22.4598574856395,0.5044444444444445,0.28,-0.6322222222222222,1.7719806441423214,3.3328898545849968,-8.358281437396858
1589988150.802299,-0.567057476454651,-1.8307281318539546,12.561485453489873,0.5044444444444445,0.28,-0.6322222222222222,2.5652591900740997,1.7870093740696378,-7.470927401230421
1589988150.812299,-0.005735546651402412,-0.3646365197481397,-0.5979564968517459,0.3997316033835782,0.4121999618393437,-0.6237143038860269,1.8386349334425323,0.10219592110543502,-6.438110751994387
1589988150.822299,-0.31292872007134853,-0.22430629559331333,-0.4864643600356743,0.32666666666666666,0.5044444444444445,-0.6177777777777778,0.40248178506443766,0.24931478970580573,-5.640568209769835
1589988150.832299,0.5666438959894227,0.011081974438078457,6.84160423093874,0.32666666666666666,0.5044444444444445,-0.6177777777777778,-0.7099904592427912,0.7313268016658743,-4.996519630970243
1589988150.842299,0.25638213216292705,-1.9696566717256658,13.575316050699373,0.32666666666666666,0.5044444444444445,-0.6177777777777778,-1.6407577807752887,0.49217261147746977,-4.350699758216765
1589988150.852299,-0.52836928918951,-2.5269113563545744,13.933394327756023,0.32666666666666666,0.5044444444444445,-0.6177777777777778,-1.0699862191401162,0.1907349013543309,-3.711510638740804
1589988150.862299,0.2980461735784524,-2.2676514179848937,12.756330340601396,0.2565993697844916,0.5230560701787722,-0.6117563694519659,0.1391921531315412,0.2312351394056179,-3.156728105584295
1589988150.872299,0.6321549789345198,-1.0224203646099934,6.126265306926015,0.18444444444444444,0.5422222222222223,-0.6055555555555555,0.9470968075027145,0.44449964916485524,-2.59106865056576
1589988150.882299,0.22,-0.33,2.74,0.18444444444444444,0.5422222222222223,-0.6055555555555555,1.0701049976290231,0.4930555136883981,-2.4565509221820188
1589988150.892299,7.397985803794418,-10.469782675371336,9.196684923103886,0.18444444444444444,0.5422222222222223,-0.6055555555555555,-0.12733641530660011,-0.010084078896070395,-2.019422149289491
1589988150.902299,12.771291210984273,-13.775708868843298,9.625426279236848,0.18444444444444444,0.5422222222222223,-0.6055555555555555,-0.820298391716083,-0.1418985196935985,-1.3347943424816966
1589988150.912299,-2.12258477363794,0.7502218766820166,8.686153340111238,0.13717241791758866,0.5594120500501698,-0.6125389231106593,-0.229635047358404,0.08034362419430059,-0.2849631510872911
1589988150.922299,-0.3465667915106117,-0.06645443196004991,5.341735330836454,0.08666666666666667,0.5777777777777777,-0.62,0.77418208059515,0.19866193868791257,0.19819800649494074
1589988150.932299,0.20201065625059256,-0.3593625210944462,3.9973194410208763,0.08666666666666667,0.5777777777777777,-0.62,0.7317365653784437,0.03620557526786061,0.41542242367723514
1589988150.942299,1.1522026661112268,-1.544132472401583,11.143488856488231,0.08666666666666667,0.5777777777777777,-0.62,-0.31110784744418496,-0.18264788675379934,0.6082838022606412
1589988150.9522989,6.6859692368369155,-6.840745415105502,10.479895484125418,0.08666666666666667,0.5777777777777777,-0.62,-0.5637912973012273,-0.0318765234342378,0.8274346214970559
1589988150.9622989,7.392498370425551,-7.3706983890492594,7.717099357482074,0.07413332505612978,0.5903111193883146,-0.62,0.0006657328381117211,-0.12560928141752215,0.9620473348509581
1589988150.9722989,0.42802921466427346,-2.4853387937453464,8.887122771670096,0.06888888888888889,0.5955555555555555,-0.62,0.11426465585736058,-0.10275412401251181,0.9420824290441685
1589988150.9822989,-0.8094319880418537,-1.732820129546587,8.335122072745392,0.06888888888888889,0.5955555555555555,-0.62,0.019382764008663983,0.07878004912791792,0.9656097134177696
1589988150.9922988,2.861098305866083,-4.536454073988706,8.556502708309324,0.06888888888888889,0.5955555555555555,-0.62,-0.07310962374420894,-0.07117861314315996,1.0247244004909457
1589988151.0022988,3.0482875112309076,-4.884580413297394,9.034909254267745,0.06888888888888889,0.5955555555555555,-0.62,-0.0828061113947377,-0.13624603883984263,1.0616892332416554
1589988151.0122988,1.3727706130347643,-3.881589328910084,9.301600525260904,0.06888888888888889,0.5955555555555555,-0.62,-0.05434703062949893,-0.10462483798957732,1.0888834659728834
1589988151.0222988,1.0376797385620915,-3.2779084967320262,8.537186571598337,0.11666666666666667,0.59,-0.6133333333333333,-0.026938918486571713,-0.06935266189738237,1.145965375790016
1589988151.0322988,1.688891853263459,-3.7372939494997617,8.483144354454502,0.11666666666666667,0.59,-0.6133333333333333,-0.04747925430554822,-0.09984474452495457,1.218792560922182
1589988151.0422988,1.4867113370020295,-3.785133736768013,8.87812823372397,0.11666666666666667,0.59,-0.6133333333333333,-0.03800116449616345,-0.08036856382303204,1.278459500487285
1589988151.0522988,1.2182762753983336,-3.547815816401111,8.915120011694198,0.11666666666666667,0.59,-0.6133333333333333,-0.02443014479149174,-0.0881748451171446,1.341356965940504
1589988151.0622988,1.4115979381443298,-3.755979381443299,8.943484536082474,0.1335189003436426,0.5850847651775487,-0.6400160366552119,-0.048012298379282156,-0.10356819767504495,1.4403903181669877
1589988151.0722988,1.3284489928393208,-3.730924397022131,8.68653548897499,0.14333333333333334,0.5822222222222222,-0.6555555555555556,-0.07369406440638379,-0.11534363308320865,1.5369192787210975
1589988151.0822988,1.2344067649358548,-3.7627543366829803,8.703093452260289,0.14333333333333334,0.5822222222222222,-0.6555555555555556,-0.06397074472575535,-0.12684143441867432,1.6688602166761077
1589988151.0922987,1.2331826203507203,-3.827043449123199,8.574069250530549,0.14333333333333334,0.5822222222222222,-0.6555555555555556,-0.04519453387767825,-0.13337920478109735,1.8133383660894866
1589988151.1022987,0.959269452510205,-3.658405504355511,8.648272103690612,0.14333333333333334,0.5822222222222222,-0.6555555555555556,-0.0477102474993037,-0.13390401162974538,1.948404871147935
1589988151.1122987,0.7334951755602823,-3.520485526680847,8.648350442368754,0.16862987282112413,0.5836677387643817,-0.632427290881004,-0.05416027461568426,-0.15114881406273514,2.114484998050202
1589988151.1222987,0.7845093181781383,-3.6983049173426594,8.837323553698937,0.18222222222222226,0.5844444444444444,-0.62,-0.06805527598882437,-0.1625240547585956,2.2528875818009477
1589988151.1322987,0.7202683048187699,-3.795040379683852,9.061555096260573,0.18222222222222226,0.5844444444444444,-0.62,-0.07865972547616806,-0.17128089088705759,2.415043656490333
1589988151.1422987,0.42854729729729735,-3.6211351351351353,8.789682432432432,0.18222222222222226,0.5844444444444444,-0.62,-0.07046693150144505,-0.18216874067690814,2.615269749226557
1589988151.1522987,0.2923330181858629,-3.5569990545575885,8.708170290862576,0.18222222222222226,0.5844444444444444,-0.62,-0.06444983278935848,-0.1888594444942692,2.782566700979133
1589988151.1622987,0.2678096863051433,-3.6215859474571395,8.955649385355425,0.19305805661765044,0.582186978945397,-0.6344477791939043,-0.07128132704689054,-0.20627081791017038,2.96291710082756
1589988151.1722987,0.23293291527859428,-3.812667711803514,9.058798745835782,0.2088888888888889,0.5788888888888889,-0.6555555555555556,-0.09408798490439335,-0.22482771309055083,3.1392382718068386
1589988151.1822987,0.09399854807620095,-3.6257864170025287,8.715259719127843,0.2088888888888889,0.5788888888888889,-0.6555555555555556,-0.10605173358884674,-0.24270418291307233,3.343902892297749
1589988151.1922987,-0.007000613999181338,-3.5024007367990175,8.58320098239869,0.2088888888888889,0.5788888888888889,-0.6555555555555556,-0.10336704457705927,-0.2506511909697247,3.504099655699711
1589988151.2022986,-0.0885436039787185,-3.6786106870229007,8.624503354152209,0.2088888888888889,0.5788888888888889,-0.6555555555555556,-0.09790023332281747,-0.2615321683222437,3.652152683172839
1589988151.2122986,-0.21207797581158497,-3.7732033736473585,8.884603437301083,0.25518042294363114,0.559600749699413,-0.6381962302850273,-0.09805829247193515,-0.2755756570907107,3.8383502964400504
1589988151.2222986,-0.2964569382346396,-3.6519288272067003,8.808679722430153,0.2888888888888889,0.5455555555555556,-0.6255555555555555,-0.0990895155325019,-0.28495380437636686,3.996426502988141
1589988151.2322986,-0.33,-3.795472027972028,8.683756009615385,0.2888888888888889,0.5455555555555556,-0.6255555555555555,-0.12156785824951066,-0.29223138544599725,4.121288733026823
1589988151.2422986,7.87132068878492,-17.105723243579043,8.36400768767836,0.2888888888888889,0.5455555555555556,-0.6255555555555555,-0.13516168672546539,-0.300147349026684,4.229917835198009
1589988151.2522986,8.693121919464335,-17.757824095601226,6.6734257881521435,0.2888888888888889,0.5455555555555556,-0.6255555555555555,-0.2396800115735334,-0.37306161686684597,3.601858395521171
1589988151.2622986,-2.9576551724137934,-1.2773142351900972,9.647955791335102,0.34830612044405146,0.5086543275370862,-0.6505733372629925,-0.3629442657199243,-0.17274882371272915,0.13845746337623677
1589988151.2722986,-4.098775464010865,-2.8627003168854688,12.614155726573111,0.3944444444444444,0.48,-0.67,0.127833614982182,0.2317274694754383,-1.6367236899812951
1589988151.2822986,-4.386856154029756,-3.383915983769592,11.15581669186093,0.3944444444444444,0.48,-0.67,0.7604491302574528,0.45963190828061495,-1.4667238754695922
1589988151.2922986,-1.1063468466603172,-2.4453919416953083,8.598346929479481,0.3944444444444444,0.48,-0.67,0.31535326635586236,0.13279488195334177,-0.30236059497019063
1589988151.3022985,-0.9784251946760921,-4.330155464737394,10.876941238195172,0.3944444444444444,0.48,-0.67,-0.3365689792059415,-0.1339466643475625,0.09364032536186917
1589988151.3122985,-0.6957871440104674,-3.8782781659753347,8.795114835333091,0.39760285688656277,0.46736635023152656,-0.67,-0.27111385765692686,-0.10155370084161865,0.5422387690819791
1589988151.3222985,0.8460734573721856,-4.483763252915066,7.689321542742807,0.4011111111111111,0.4533333333333333,-0.67,0.14184846790636965,-0.041833978916291543,0.9704762795490541
1589988151.3322985,2.517803947744827,-9.309207113569181,8.681558596357394,0.4011111111111111,0.4533333333333333,-0.67,0.05700482788001396,-0.08511985490844354,1.1253429854526356
1589988151.3422985,0.5723904325408191,-7.274262389000286,9.735657643464146,0.4011111111111111,0.4533333333333333,-0.67,-0.1557588243960143,-0.10576775155103413,0.505936310833636
1589988151.3522985,-0.9132635791404394,-2.618280461878361,9.131228479719871,0.4011111111111111,0.4533333333333333,-0.67,-0.004883978949719231,0.052202862315678,-0.1901489620215153
1589988151.3622985,0.5300144035616078,-4.456358845096242,8.756102527170356,0.4011111111111111,0.4533333333333333,-0.67,0.127301323533195,0.07079844580815611,-0.07481882213851201
1589988151.3722985,0.3467138596142373,-5.591327898190495,9.123948299860807,0.4011111111111111,0.4533333333333333,-0.67,-0.04353280285438282,-0.06257984925332213,0.14525354334589533
1589988151.3822985,-0.20198921679909193,-5.009706015891033,8.909853007945516,0.4011111111111111,0.4533333333333333,-0.67,-0.038697500598081136,-0.016679929402182464,0.049772559428304164
1589988151.3922985,-0.06836847248215439,-4.595604928865996,8.738368472482154,0.4011111111111111,0.4533333333333333,-0.67,0.01575955004839151,0.009972450567240864,-0.019611955565813365
1589988151.4022985,-0.09152124189133451,-4.536641793843039,8.72695751621733,0.4011111111111111,0.4533333333333333,-0.67,-0.00341213373979665,0.0005322652132673284,-0.010323441899773633
1589988151.4122984,-0.16229386178709365,-4.638868911470246,8.585412276425814,0.4011111111111111,0.4533333333333333,-0.67,-0.004269922099132374,-0.0028988882240755685,-2.9981587744943097e-05
1589988151.4222984,-0.12,-4.454836486846613,8.779651463813911,0.4211111111111111,0.4511111111111111,-0.6611111111111111,0.0024454510015641797,-0.0019178721284216443,0.0012785814189477628
1589988151.4322984,-0.12032918287937742,-4.549451361867704,8.740329182879378,0.4211111111111111,0.4511111111111111,-0.6611111111111111,0.007563998913896048,0.0032485534929629868,-0.0021696921377297213
1589988151.4422984,-0.1441608805498136,-4.526276037525839,8.723287044398509,0.4211111111111111,0.4511111111111111,-0.6611111111111111,0.001409305344443311,0.001409305344443311,-0.000772356220549601
1589988151.4522984,-0.129486325868046,-4.58743162934023,8.616677763715401,0.4211111111111111,0.4511111111111111,-0.6611111111111111,0.0020695952539313985,0.002181661564992912,0.0
1589988151.4622984,-0.12308646569904479,-4.544629698548567,8.743086465699045,0.4180246454120663,0.45008228921142945,-0.6588819969951343,0.0,0.0020133209753110375,0.0003366811793637492
1589988151.4722984,-0.14084692673798968,-4.564071512834072,8.764658097058943,0.4011111111111111,0.4444444444444444,-0.6466666666666666,9.238537563184402e-05,0.001137023470312378,0.00213546887717699
1589988151.4822984,-0.13929680468046804,-4.504531503150315,8.77890594059406,0.4011111111111111,0.4444444444444444,-0.6466666666666666,0.0008266405999579917,0.0008266405999579917,-0.00026419018253846425
1589988151.4922984,-0.12217018671564127,-4.573489439853076,8.68245383124171,0.4011111111111111,0.4444444444444444,-0.6466666666666666,-0.00286091268891658,-0.001975871735706518,-0.002624182041597943
1589988151.5022984,-0.1301063152308509,-4.536489474615248,8.73,0.4011111111111111,0.4444444444444444,-0.6466666666666666,-0.00545415391248228,-0.0014737696977386665,-0.0025530032875890874
1589988151.5122983,-0.11144434157111317,-4.562778292144435,8.735777366284452,0.40287641747580494,0.4454073388251865,-0.650036796999264,-0.004981494238619418,0.002024108340371958,-0.00124838400711741
1589988151.5222983,-0.12826029828726862,-4.515869850856365,8.761739701712731,0.4133333333333333,0.4511111111111111,-0.67,-0.00037954403612183913,0.0006403014002786878,-0.0012806028005573756
1589988151.5322983,-0.13588127968007999,-4.50176255936016,8.7294063984004,0.4133333333333333,0.4511111111111111,-0.67,0.005326640401616599,0.0,0.0004492826909462409
1589988151.5422983,-0.13351918041246966,-4.500557541237409,8.710557541237408,0.4133333333333333,0.4511111111111111,-0.67,0.006362529751695676,0.001151649096924143,0.001090830782496456
1589988151.5522983,-0.14,-4.523960441582337,8.73528058877645,0.4133333333333333,0.4511111111111111,-0.67,0.0,0.0026964694687837878,0.001234836502172851
1589988151.5622983,-0.14,-4.544631521881982,8.762842029175976,0.4133333333333333,0.4511111111111111,-0.67,0.0,-0.0003100172909907455,0.001986458192116484
1589988151.5722983,-0.11159713347866396,-4.53,8.804410032824677,0.4011111111111111,0.43666666666666665,-0.6755555555555556,-0.0008295004281541117,-0.0010037206643823413,0.0011779409006105706
1589988151.5822983,-0.13170710175255035,-4.526585796494899,8.731464491237249,0.4011111111111111,0.43666666666666665,-0.6755555555555556,0.0019954456509393547,0.0003724318281071146,0.0018092297368857973
1589988151.5922983,-0.1347936129123424,-4.512603193543828,8.700412774175314,0.4011111111111111,0.43666666666666665,-0.6755555555555556,0.0008068664174560069,0.0018976971999524628,0.0
1589988151.6022983,-0.1216228352514484,-4.519188582374276,8.726754329497103,0.4011111111111111,0.43666666666666665,-0.6755555555555556,8.85119323600146e-05,0.0011793427148564706,0.0
1589988151.6122983,-0.12,-4.50473233030091,8.76,0.40163692558898995,0.43740280693569705,-0.6734522976440401,-0.0029627620535789853,0.0003097302939103828,0.0003097302939103828
1589988151.6222982,-0.12,-4.5454980172614885,8.76,0.4061664463623876,0.4437441360184537,-0.6553342145504497,-0.00029465408120618077,0.0029778382662831874,0.0029778382662831874
1589988151.6322982,-0.13789860362163564,-4.532101396378365,8.753188828973084,0.4066666666666667,0.4444444444444444,-0.6533333333333333,0.005224927126907636,0.0015492843536457424,0.0017232079938436255
1589988151.6422982,-0.1275704286458032,-4.527852143229016,8.70457742812518,0.4066666666666667,0.4444444444444444,-0.6533333333333333,0.003833272885699931,0.002742442103203475,0.0
1589988151.6522982,-0.12583065261601034,-4.498745978924015,8.761661305232021,0.4066666666666667,0.4444444444444444,-0.6533333333333333,0.0015456360294341539,0.0007728180147170769,0.0003180127677793791
1589988151.6622982,-0.13894093567251464,-4.521059064327485,8.785763742690058,0.40737270955165694,0.4430323586744639,-0.6570988953866147,-0.00011552599690649601,-0.00011552599690649601,0.0009753047855899599
1589988151.6722982,-0.1278167323023725,-4.534366535395256,8.743450196907117,0.4133333333333333,0.4311111111111111,-0.6888888888888889,-0.001090830782496456,-0.0013289883435966812,0.0004763151222004504
1589988151.6822982,-0.12125083189138826,-4.549166112072408,8.71791528018102,0.4133333333333333,0.4311111111111111,-0.6888888888888889,-0.0009089046583825122,-0.002181661564992912,0.00209069850293594
1589988151.6922982,-0.14365897194683647,-4.514147429867092,8.68902308415949,0.4133333333333333,0.4311111111111111,-0.6888888888888889,0.001543245199223283,-0.001835812135339695,0.0010375482889596512
1589988151.7022982,-0.13,-4.492342884051147,8.732468576810229,0.4133333333333333,0.4311111111111111,-0.6888888888888889,-0.002181661564992912,-0.0013601107398519582,0.0027339324327783636
1589988151.7122982,-0.13,-4.530162399348593,8.74024359902289,0.4133333333333333,0.43115622204127585,-0.688663334238065,-0.0021905190754180504,-0.002155089033717496,0.0010731157616461788
1589988151.7222981,-0.13,-4.549135981181579,8.76870397177237,0.4133333333333333,0.4364266614393277,-0.662311137247806,-0.0032253674312999123,0.0009494560339280882,-0.0009965809501175438
1589988151.7322981,-0.12049052211506485,-4.5595094778849345,8.77,0.4133333333333333,0.43666666666666665,-0.6611111111111111,-0.0022351692272537128,-0.0009838154579748547,-5.3507662260800616e-05
1589988151.7422981,-0.14,-4.526764745732093,8.725882034143256,0.4133333333333333,0.43666666666666665,-0.6611111111111111,0.0028874845539201416,0.0014437422769600708,-0.0006737266898216186
1589988151.752298,-0.13764878967397703,-4.517648789673976,8.78,0.4133333333333333,0.43666666666666665,-0.6611111111111111,0.004106845870010883,0.002181661564992912,-0.003593891350061002
1589988151.762298,-0.13088279286825416,-4.510882792868254,8.780882792868253,0.41401995000864206,0.43666666666666665,-0.6611111111111111,0.0029835990569113758,0.0020853638014669143,-0.001090830782496456
1589988151.772298,-0.13731946230274694,-4.522680537697253,8.779277849210986,0.4211111111111111,0.43666666666666665,-0.6611111111111111,-0.0005848026067611625,0.0007984294791158747,-0.0013832320858770371
1589988151.782298,-0.1263839771490751,-4.5263839771490755,8.733727897170837,0.4211111111111111,0.43666666666666665,-0.6611111111111111,-0.0011955443059930382,-0.00019722345179997472,-0.0017872146613929626
1589988151.792298,-0.11212153155603917,-4.512121531556039,8.669546892002176,0.4211111111111111,0.43666666666666665,-0.6611111111111111,0.0026939343656480846,-0.0009751191861281992,-0.0002314231927365135
1589988151.802298,-0.14512769445253013,-4.526751796301687,8.71974461109494,0.4211111111111111,0.43666666666666665,-0.6611111111111111,0.0018273375067990208,0.001090830782496456,0.002918168289295477
1589988151.812298,-0.12585035160020222,-4.513900234400134,8.758299296799596,0.4211111111111111,0.43666666666666665,-0.6611111111111111,0.000425449574261866,0.001090830782496456,0.001516280356758322
1589988151.822298,-0.14880488177630286,-4.54,8.778804881776303,0.4066666666666667,0.4511111111111111,-0.6755555555555556,-0.002181661564992912,0.001090830782496456,-0.0009604636077833236
1589988151.832298,-0.13049036089339128,-4.54,8.76049036089339,0.4066666666666667,0.4511111111111111,-0.6755555555555556,-0.002181661564992912,0.001090830782496456,0.0010373407067920907
1589988151.842298,-0.12557497204026202,-4.536283351973158,8.644866592107366,0.4066666666666667,0.4511111111111111,-0.6755555555555556,0.004971458241293312,0.0026643572361818796,-0.0008881190787272931
1589988151.852298,-0.1488699099099099,-4.5205650450450445,8.71084756756757,0.4066666666666667,0.4511111111111111,-0.6755555555555556,0.007512541771748746,3.081842643161158e-05,0.0
1589988151.862298,-0.11065184668077402,-4.539348153319226,8.741955540042323,0.40648559814422947,0.45132839333803576,-0.6748312814658066,0.003165834183760903,0.0010552780612536343,0.0
1589988151.872298,-0.1289519841183272,-4.521048015881672,8.796855952354981,0.401402226633798,0.45742843915055353,-0.6544977954240809,0.00017148119764107995,5.7160399213693246e-05,0.0
1589988151.882298,-0.13,-4.536828676488981,8.748900367711434,0.4011111111111111,0.4577777777777778,-0.6533333333333333,-0.003844416533924711,0.0009178619171427518,0.001090830782496456
1589988151.892298,-0.13,-4.524087005733127,8.698174011466254,0.4011111111111111,0.4577777777777778,-0.6533333333333333,-0.000867919199399754,-0.000445823166193404,0.00153665394868986
1589988151.902298,-0.1281595785440613,-4.538159578544061,8.737361685823755,0.4011111111111111,0.4577777777777778,-0.6533333333333333,0.00020075883769048758,-0.0017801438896119367,0.002670215834417905
1589988151.912298,-0.12012452107279693,-4.530124521072797,8.769501915708812,0.4011111111111111,0.4577777777777778,-0.6533333333333333,0.001077247640568818,-2.7166283855276e-05,4.074942578291335e-05
1589988151.922298,-0.14830955703188453,-4.53,8.759857342191307,0.4066666666666667,0.4444444444444444,-0.64,0.002181661564992912,-0.00018439872256750177,0.0019972628424254103
1589988151.932298,-0.13923136251622492,-4.530384318741888,8.708462725032451,0.4066666666666667,0.4444444444444444,-0.64,0.0020978162222046633,-0.001006985439708207,0.001090830782496456
1589988151.942298,-0.12345115596606407,-4.538274422016968,8.676902311932128,0.4066666666666667,0.4444444444444444,-0.64,0.0003764627162978983,0.0007143680661985577,0.001090830782496456
1589988151.952298,-0.14897458258002766,-4.529316388386685,8.712050834839946,0.4066666666666667,0.4444444444444444,-0.64,0.00221894679454671,-0.0020698058763315183,0.002144376335439114
1589988151.962298,-0.12221099649048175,-4.511473997660321,8.765578007019036,0.4066666666666667,0.4444444444444444,-0.64,0.0031920982464290638,0.0008496484793155423,0.0011712248835567605
1589988151.972298,-0.12858229311559513,-4.518582293115594,8.794329172462382,0.42777777777777776,0.4444444444444444,-0.6755555555555556,0.000936182951489859,0.0,0.0
1589988151.982298,-0.12100547356251241,-4.511005473562512,8.76402189425005,0.42777777777777776,0.4444444444444444,-0.6755555555555556,0.00010968015129749235,0.0,0.0
1589988151.992298,-0.11474611447843211,-4.522373057239216,8.689492228956864,0.42777777777777776,0.4444444444444444,-0.6755555555555556,-0.001922801176476619,-0.002495911181940489,0.001663940787960326
1589988152.0022979,-0.13,-4.528308499771038,8.730149001373771,0.42777777777777776,0.4444444444444444,-0.6755555555555556,-0.0005372886269910157,-0.0001845140518351468,0.0003690281036702936
1589988152.0122979,-0.13,-4.520921307548698,8.774472154707809,0.42777777777777776,0.4444444444444444,-0.6755555555555556,0.001880164374712929,-0.000990331719069795,0.00198066343813959
1589988152.0222979,-0.13,-4.5253596507876255,8.78,0.41646295944834566,0.4480175449695282,-0.660072119946859,0.0015970143587355592,-0.0005061835762391032,0.0015970143587355592
1589988152.0322978,-0.12808078899637243,-4.528080788996372,8.755050256952842,0.4066666666666667,0.4511111111111111,-0.6466666666666666,0.0006721238943238818,-0.0004187068881725741,0.001090830782496456
1589988152.0422978,-0.12015624999999999,-4.520156249999999,8.65203125,0.4066666666666667,0.4511111111111111,-0.6466666666666666,-0.0010567423205434417,-0.0021475731030398976,0.001090830782496456
1589988152.0522978,-0.1286079891926375,-4.555823967577912,8.722784021614725,0.4066666666666667,0.4511111111111111,-0.6466666666666666,0.0015463652539680888,-0.002209578580722225,-0.0012426756063203335
1589988152.0622978,-0.12073831547741899,-4.532214946432257,8.738523369045163,0.4066666666666667,0.4511111111111111,-0.6466666666666666,0.004121709954997163,0.0037995590550122813,-0.0021011238399966914
1589988152.0722978,-0.13765101467621346,-4.512348985323786,8.797651014676214,0.4011111111111111,0.4444444444444444,-0.64,0.003850854030222071,0.003978971305163009,-0.0009627135075555177
1589988152.0822978,-0.12105898176351912,-4.528941018236481,8.781058981763518,0.4011111111111111,0.4444444444444444,-0.64,0.00023103398114980925,0.0012641062683588127,-5.775849528745231e-05
1589988152.0922978,-0.1318615573592813,-4.523723114718562,8.67186155735928,0.4011111111111111,0.4444444444444444,-0.64,-0.003272492347489368,0.0001275556600356532,0.0004816375612304013
1589988152.1022978,-0.1412001707589943,-4.538799829241006,8.693201878348937,0.4011111111111111,0.4444444444444444,-0.64,-0.0030106557058567473,0.004668643987584416,-0.002181661564992912
1589988152.1122978,-0.1473744332567862,-4.532625566743214,8.761118765824648,0.4011111111111111,0.4444444444444444,-0.64,-0.0016636405874957726,0.0006275986325014939,-0.002181661564992912
1589988152.1222978,-0.14136352237308783,-4.53,8.772727044746174,0.4116668059884482,0.4444444444444444,-0.6639902156303117,0.0007933563470590964,0.002677543476614649,-0.002181661564992912
1589988152.1322978,-0.14,-4.522628109717202,8.792115670848395,0.4133333333333333,0.4444444444444444,-0.6677777777777778,0.0026991277516290155,0.0024683438629230885,0.0018390808578384863
1589988152.1422977,-0.13080296479308215,-4.528394070413836,8.674817788758492,0.4133333333333333,0.4444444444444444,-0.6677777777777778,0.0020940716936374212,0.00017517974271098117,0.0030097227334228965
1589988152.1522977,-0.13876096007367472,-4.511239039926325,8.730619519963163,0.4133333333333333,0.4444444444444444,-0.6677777777777778,0.0012259890717342319,0.0019113449865173604,0.0
1589988152.1622977,-0.12266648759617045,-4.52733351240383,8.738666756201916,0.4133333333333333,0.4444444444444444,-0.6677777777777778,0.0029816236723845977,-0.0015999242147833712,0.0
1589988152.1722977,-0.12,-4.53,8.755448184527094,0.4133333333333333,0.4495938392868091,-0.662628382935413,0.0024299245866973808,0.0003460417173830497,0.0
1589988152.1822977,-0.12103164513468939,-4.51,8.723810129191865,0.4133333333333333,0.4511111111111111,-0.6611111111111111,0.0009782957555432672,-0.0004501401078127555,-0.00011253502695318887
1589988152.1922977,-0.12823735568993952,-4.51,8.680575865860362,0.4133333333333333,0.4511111111111111,-0.6611111111111111,0.00019227466720061917,-0.003594224461183347,-0.0008985561152958368
1589988152.2022977,-0.12105836013167659,-4.53,8.722116720263354,0.4133333333333333,0.4511111111111111,-0.6611111111111111,0.0008599324203764899,0.002412559927112878,0.0008599324203764899
1589988152.2122977,-0.12903944589271782,-4.53,8.738078891785436,0.4133333333333333,0.4511111111111111,-0.6611111111111111,-0.0008812703848010966,0.0041537627322904645,-0.0008812703848010966
1589988152.2222977,-0.1316266718169089,-4.530813335908455,8.78837332818309,0.4066666666666667,0.4444444444444444,-0.6611111111111111,-0.001090830782496456,-8.872118454518276e-05,0.0009133884134060904
1589988152.2322977,-0.14910894264247754,-4.538217885284955,8.76287154113982,0.4066666666666667,0.4444444444444444,-0.6611111111111111,-0.0011880300619519996,-0.0008964322235853687,-0.001090830782496456
1589988152.2422976,-0.13898847690735064,-4.52,8.69101152309265,0.4066666666666667,0.4444444444444444,-0.6611111111111111,-0.002126491538659514,0.001201170835163252,-0.0009253207034962619
1589988152.2522976,-0.12021321285618039,-4.52042642571236,8.711066064280903,0.4066666666666667,0.4444444444444444,-0.6611111111111111,-0.0010675728678218991,0.003272492347489368,0.002181661564992912
1589988152.2622976,-0.12852435302976262,-4.537048706059525,8.752621765148813,0.4066666666666667,0.4444444444444444,-0.6611111111111111,-0.00016096811392325738,0.003272492347489368,0.002181661564992912
1589988152.2722976,-0.12258389766741912,-4.532583897667419,8.76741610233258,0.41161073488838723,0.4444444444444444,-0.6677032020734053,0.0008089712710523003,0.003272492347489368,0.0013726902939406116
