time,acc_x,acc_y,acc_z,mag_x,mag_y,mag_z,gyr_x,gyr_y,gyr_z
1589988158.5833325,-3.94,-0.79,8.91,0.3422222222222222,-0.37666666666666665,-0.6222222222222222,0.007635815477475192,-0.001090830782496456,0.001090830782496456
1589988158.5933325,-3.931642875031305,-0.7767142499373905,8.926571500125219,0.3400317221804825,-0.3753888749756518,-0.6222222222222222,0.004737314450105445,-0.0030932824818951593,0.0030932824818951593
1589988158.6033325,-3.94,-0.7521750064151912,8.952175006415192,0.3288888888888889,-0.3688888888888889,-0.6222222222222222,0.00023725639498177985,-0.002181661564992912,0.001754874371235574
1589988158.6133325,-3.94,-0.7362503344240703,8.910002675392562,0.3288888888888889,-0.3688888888888889,-0.6222222222222222,-0.0019088809093547397,-0.002181661564992912,-0.0001362444077909694
1589988158.6233325,-3.9375370863041397,-0.7398516547834415,8.872314568479302,0.3288888888888889,-0.3688888888888889,-0.6222222222222222,-0.0035411545548970297,-0.0013756749427699265,-0.0016443371501775883
1589988158.6333325,-3.931638973947091,-0.773277947894182,8.919833843682547,0.3288888888888889,-0.3688888888888889,-0.6222222222222222,-0.0036481858367071874,0.0005544778125374786,0.00017878432331965908
1589988158.6433325,-3.943526671706131,-0.79,8.968236664146936,0.327909257859408,-0.37280741300681236,-0.6181077718984026,0.00019235010284035614,-0.0025663617706736244,0.0005137804739753875
1589988158.6533325,-3.9580264434740418,-0.7893421478246806,8.96065785217532,0.3233333333333333,-0.3911111111111111,-0.5988888888888889,0.0012343518631305927,-0.0040762809687175505,-0.0023969431859441168
1589988158.6633325,-3.9331563426771443,-0.7768436573228558,8.935280230551413,0.3233333333333333,-0.3911111111111111,-0.5988888888888889,0.003272492347489368,0.0,-0.00338833246108055
1589988158.6733325,-3.94,-0.7674669332513073,8.86337742233159,0.3233333333333333,-0.3911111111111111,-0.5988888888888889,0.00345670215972885,-0.00013815735917961113,0.0010447783294365855
1589988158.6833324,-3.943245370017529,-0.7164907400350583,8.943245370017529,0.3233333333333333,-0.3911111111111111,-0.5988888888888889,0.006219755671190447,-0.003272492347489368,0.00035401495157118615
1589988158.6933324,-3.952011214721646,-0.736033644164937,8.956033644164936,0.3233333333333333,-0.3911111111111111,-0.6035817232393954,0.003053102854631256,-0.003053102854631256,0.000871441289638344
1589988158.7033324,-3.948773278977115,-0.7674844806819234,8.961288798295191,0.3233333333333333,-0.3911111111111111,-0.6222222222222222,0.0005488011812244747,-0.0017734464690508027,0.0004082150959421093
1589988158.7133324,-3.9336780504632367,-0.7873561009264736,8.893219495367632,0.3233333333333333,-0.3911111111111111,-0.6222222222222222,-0.001780448498505513,-0.00349810918142085,-0.0009152345499405387
1589988158.7233324,-3.94,-0.7960580902819799,8.8497095485901,0.3233333333333333,-0.3911111111111111,-0.6222222222222222,-0.0015208264287202798,-0.004625845953908424,-0.004363323129985824
1589988158.7333324,-3.94,-0.7851501075268817,8.889699784946236,0.3233333333333333,-0.3911111111111111,-0.6222222222222222,-0.0024461821650666763,-0.0007935618002212928,-0.00409880252991206
1589988158.7433324,-3.94,-0.7731234408602151,8.91375311827957,0.3233333333333333,-0.3911111111111111,-0.6222222222222222,-0.0031021350756078787,-0.0027614205318448994,-0.0034428496193708575
1589988158.7533324,-3.9329638238274036,-0.7244457357411049,8.958518088086299,0.3233333333333333,-0.38333333333333336,-0.6077777777777778,-0.000444224729530859,-0.0003233030264827985,-0.004848277669710022
1589988158.7633324,-3.9527583785904556,-0.75,8.919657835504987,0.3233333333333333,-0.38333333333333336,-0.6077777777777778,0.004175169630363859,-0.0018807691373680816,-0.007334923049850362
1589988158.7733324,-3.9573527939307582,-0.7526472060692417,8.851912427311587,0.3233333333333333,-0.38333333333333336,-0.6077777777777778,0.006111836614787687,-0.0009464480890994398,-0.006111836614787687
1589988158.7833323,-3.9412003697000038,-0.7687996302999962,8.924598336349982,0.3233333333333333,-0.38333333333333336,-0.6077777777777778,0.0034689023803604036,-6.547001095701175e-05,-0.0034689023803604036
1589988158.7933323,-3.9292619316699993,-0.7863096583499957,8.960738068330002,0.3233333333333333,-0.38284128777999943,-0.6072037246322215,0.002262172330387982,-0.004363323129985824,-0.003353003112884438
1589988158.8033323,-3.9201462661914284,-0.7407313309571416,8.969853733808572,0.3233333333333333,-0.3767641774609522,-0.6001137625933332,0.003256537181084515,-0.004363323129985824,-0.004347367963580971
1589988158.8133323,-3.932327898846669,-0.7476721011533309,8.969737314993303,0.3233333333333333,-0.37666666666666665,-0.6,7.509329430261161e-05,-0.0013447651545449172,-0.0033475856417919795
1589988158.8233323,-3.9391797627993594,-0.7408202372006404,8.880663083608324,0.3233333333333333,-0.37666666666666665,-0.6,-0.002914596352526471,-0.0020921875662521876,-0.00035789599496289723
1589988158.8333323,-3.94,-0.7520239566829744,8.924047913365948,0.3233333333333333,-0.37666666666666665,-0.6,0.0,0.0006492719320508791,-0.001740102714547335
1589988158.8433323,-3.94,-0.759326392395146,8.93865278479029,0.3233333333333333,-0.37666666666666665,-0.6,0.0,-0.0009438724003567624,-0.00014695838213969357
1589988158.8533323,-3.947146432461243,-0.7628535675387574,8.920025027228697,0.33555555555555555,-0.3911111111111111,-0.6077777777777778,0.0028042134272347656,-0.0017133826447383099,-0.002961216416368441
1589988158.8633323,-3.94,-0.7670586988768807,8.855293494384403,0.33555555555555555,-0.3911111111111111,-0.6077777777777778,0.004684169310554817,-0.002630799986351381,-0.002502507745561906
1589988158.8733323,-3.94,-0.7522440459086223,8.827755954091378,0.33555555555555555,-0.3911111111111111,-0.6077777777777778,0.0051721394634654735,-0.0016548596805300692,-0.0035545067965061746
1589988158.8833323,-3.94,-0.7309751356467943,8.849024864353206,0.33555555555555555,-0.3911111111111111,-0.6077777777777778,0.004398780062673586,-0.0032015784821138446,-0.004327866197298062
1589988158.8933322,-3.933297941821714,-0.73,8.910318523604575,0.33555555555555555,-0.3911111111111111,-0.6077777777777778,0.0029011608565944966,-0.0018103300740980404,-0.0036322419932901602
1589988158.9033322,-3.9390392037375586,-0.7390392037375584,8.958078407475117,0.32952941973051664,-0.37102399169431466,-0.5997429300110593,0.002181661564992912,-0.002076854951115028,-0.001300444010252224
1589988158.9133322,-3.946756928026518,-0.7732430719734822,8.96756928026518,0.3288888888888889,-0.3688888888888889,-0.5988888888888889,-0.003980020895194544,0.0017983593302016326,-0.001090830782496456
1589988158.9233322,-3.9434826479880485,-0.78,8.910447943964146,0.3288888888888889,-0.3688888888888889,-0.5988888888888889,-0.00545415391248228,0.0017529004955043955,-0.0007109328195002128
1589988158.9333322,-3.9442956004092644,-0.7714434006138964,8.932852199795368,0.3288888888888889,-0.3688888888888889,-0.5988888888888889,-0.0042096469786353325,-0.0007797040490347192,0.0003111267334617368
1589988158.9433322,-3.9306426993372163,-0.7512853986744327,8.94321349668608,0.3288888888888889,-0.3688888888888889,-0.5994601771886368,-0.001020723160403894,-0.0002804304883702478,0.001090830782496456
1589988158.9533322,-3.9383008636272345,-0.7666017272544687,8.981504318136173,0.3288888888888889,-0.3688888888888889,-0.6062674343353195,-0.0001853470259072106,-0.0036219350263569814,0.001090830782496456
1589988158.9633322,-3.94,-0.7485579396632367,8.879905577642658,0.3288888888888889,-0.3688888888888889,-0.6077777777777778,0.0023389659455487766,-0.002181661564992912,-0.0009335264019405913
1589988158.9733322,-3.94,-0.74,8.82781107411518,0.3288888888888889,-0.3688888888888889,-0.6077777777777778,0.0029884736778493567,-0.0018976428953529007,-0.00028401866964001117
1589988158.9833322,-3.94,-0.7410318725099602,8.8551593625498,0.3288888888888889,-0.3688888888888889,-0.6077777777777778,0.0019565419054976274,-0.001090830782496456,-0.0008657111230011714
1589988158.9933321,-3.94,-0.748297245799411,8.891486228997055,0.3288888888888889,-0.3688888888888889,-0.6077777777777778,0.00037148333940551425,-0.001090830782496456,0.0007193474430909417
1589988159.0033321,-3.94,-0.7613753771876886,8.97137537718769,0.3022222222222222,-0.37666666666666665,-0.6077777777777778,-0.0024817223197677366,0.003122461970101956,0.0018816008102180873
1589988159.0133321,-3.94,-0.7698129149064574,8.979812914906457,0.3022222222222222,-0.37666666666666665,-0.6077777777777778,-0.004322507494189336,0.002202069382891156,4.0815635796487976e-05
1589988159.023332,-3.94,-0.78,8.909349008082293,0.3022222222222222,-0.37666666666666665,-0.6077777777777778,-0.004128806534130965,0.003507008943344227,0.001947144969138053
1589988159.033332,-3.94,-0.78,8.970984570168994,0.3022222222222222,-0.37666666666666665,-0.6077777777777778,-0.003381762440568244,0.004254053036906948,0.0012001008755753318
1589988159.043332,-3.949680077967754,-0.7596800779677536,9.00095976609674,0.3030753476415461,-0.3768799480214976,-0.6074934026380031,0.0020420692446836133,0.002146763484915587,0.0022514577251475615
1589988159.053332,-3.9407936608826457,-0.7507936608826458,9.027619017352063,0.32677245986850006,-0.38280422607823616,-0.5995943652290185,-0.0018353616763315656,0.0011774057546617926,0.004190173185655151
1589988159.063332,-3.93,-0.75,8.956711625541807,0.3288888888888889,-0.38333333333333336,-0.5988888888888889,-0.00029512682114518976,0.003272492347489368,0.0026822387051989886
1589988159.073332,-3.93,-0.75,8.845364469862018,0.3288888888888889,-0.38333333333333336,-0.5988888888888889,-0.0016760036682229272,0.0029799059046261324,0.001090830782496456
1589988159.083332,-3.93,-0.7555700419275171,8.871140083855034,0.3288888888888889,-0.38333333333333336,-0.5988888888888889,-0.00367755722711147,0.002181661564992912,0.001293363222307507
1589988159.093332,-3.93,-0.7796599850669117,8.919319970133824,0.3288888888888889,-0.38333333333333336,-0.5988888888888889,-0.0054294273287808685,0.002181661564992912,0.0021692982731422064
1589988159.103332,-3.7117327749202023,-0.76,8.938164962286782,0.3233333333333333,-0.38333333333333336,-0.6133333333333333,-0.004653467662634718,0.0044532961001728264,-0.0016013724996951247
1589988159.113332,-3.2220776977925207,-0.7609141117931707,8.92603884889626,0.3233333333333333,-0.38333333333333336,-0.6133333333333333,-0.001290259039023175,-0.00039885651305343795,-0.008926074516498368
1589988159.123332,-3.035610177316485,-0.782429594925021,8.832805088658244,0.3233333333333333,-0.38333333333333336,-0.6133333333333333,-0.005984209299124283,-0.009786757033255654,-0.013620024776599475
1589988159.133332,-2.706551092925595,-0.7509705322852733,8.819514733857364,0.3233333333333333,-0.38333333333333336,-0.6133333333333333,-0.02040817891977783,-0.03118415093321955,-0.03868763059917189
1589988159.143332,-2.6214043562573583,-0.5213581272941339,8.898595643742642,0.3233333333333333,-0.38333333333333336,-0.6133333333333333,-0.04566674415895215,-0.0526780270946168,-0.05797562763851204
1589988159.153332,-1.4257252862841605,-1.045248179093814,9.475725286284161,0.33555555555555555,-0.37666666666666665,-0.5844444444444444,-0.09679769587680526,-0.10245792711515699,-0.060616024972956206
1589988159.163332,-1.6255053882945998,-1.2283799392700498,9.675505388294601,0.33555555555555555,-0.37666666666666665,-0.5844444444444444,-0.08680940781415541,-0.061596748677044004,-0.006134453722138909
1589988159.173332,-1.7418678424782135,-0.8856688438815641,8.399298497894975,0.33555555555555555,-0.37666666666666665,-0.5844444444444444,0.1034945714198784,0.10140099804555436,0.0652576631242324
1589988159.183332,-1.9526038219650375,-0.8638685701415478,8.748102877735235,0.33555555555555555,-0.37666666666666665,-0.5844444444444444,0.11379941560694394,0.07920594902725939,0.0478186960384292
1589988159.193332,-2.0020446743366116,-0.89,9.143680413805901,0.3361462392527989,-0.37666666666666665,-0.5856258118389311,-0.04948885607952068,-0.012092478623155706,-0.023600930615174296
1589988159.203332,-2.051335844601242,-0.8886641553987575,9.221984932392544,0.35,-0.37666666666666665,-0.6133333333333333,-0.05781197694605835,-0.06404731080355783,-0.06594164533872497
1589988159.213332,-2.1442490792524893,-0.8131664620561088,8.768998772336653,0.35,-0.37666666666666665,-0.6133333333333333,0.01345313325979965,0.021134679014247593,-0.10060150064316892
1589988159.223332,-2.21882763549732,-0.8346894580107206,8.889930196545562,0.35,-0.37666666666666665,-0.6133333333333333,0.04506281084351827,0.03337196349449098,-0.1380612611114209
1589988159.233332,-2.214745588320941,-0.8709491176641883,9.044745588320941,0.35,-0.37666666666666665,-0.6133333333333333,0.005509657930671078,0.019953027474175336,-0.19716285154091454
1589988159.243332,-2.255458251635573,-0.8790916503271146,9.085458251635572,0.35,-0.37666666666666665,-0.6133333333333333,-0.003372467345531839,0.003965201977010082,-0.24157347792192913
1589988159.253332,-2.274928680067415,-0.8461608500842684,8.851232170016853,0.33555555555555555,-0.38333333333333336,-0.6077777777777778,0.02181661564992912,0.04145156973486533,-0.34797501961636945
1589988159.263332,-2.3094113536399887,-0.8892641920499856,8.859852838409996,0.33555555555555555,-0.38333333333333336,-0.6077777777777778,0.02181661564992912,0.04145156973486533,-0.34797501961636945
1589988159.2733319,-2.2898921376016026,-0.9,8.73172579837436,0.33555555555555555,-0.38333333333333336,-0.6077777777777778,0.011952074757682672,0.03592682004771552,-0.40755054173051947
1589988159.2833319,-2.2818134365730574,-0.9,8.86098501483108,0.33555555555555555,-0.38333333333333336,-0.6077777777777778,0.0084270764518736,0.030639322589001924,-0.4577817675882987
1589988159.2933319,-2.28,-0.8941344489324871,8.89,0.33555555555555555,-0.38333333333333336,-0.6077777777777778,0.013394306772148491,0.03393125768992799,-0.5394387967417053
1589988159.3033319,-2.330753069473042,-0.8972504384961488,8.948003507969192,0.3307219298914563,-0.38333333333333336,-0.6077777777777778,0.01349879177084505,0.036297346455059845,-0.6396662321365437
1589988159.3133318,-2.359021064387938,-0.927063193163814,9.006084257551752,0.3288888888888889,-0.38333333333333336,-0.6077777777777778,0.015935320497559132,0.040917643185005695,-0.713968339089233
1589988159.3233318,-2.3790065830880978,-0.9404967084559511,8.922483542279755,0.3288888888888889,-0.38333333333333336,-0.6077777777777778,0.025143290484786262,0.054649904099558354,-0.7875040993696508
1589988159.3333318,-2.3647371017401806,-0.9476314491299096,8.958157245649549,0.3288888888888889,-0.38333333333333336,-0.6077777777777778,0.02592156996001461,0.056206463050015046,-0.8334225884081232
1589988159.3433318,-2.418680289612255,-0.9919144925801819,9.020297391096218,0.3288888888888889,-0.38333333333333336,-0.6077777777777778,0.025265506405131307,0.06220979493851752,-0.9017034265196935
1589988159.3533318,-2.4743961117861484,-1.0,9.022600648035642,0.33875469150803295,-0.3693567796228793,-0.6184657306151838,0.03154626071201638,0.0689181940100676,-0.9579417472585472
1589988159.3633318,-2.409184569629111,-1.0540771518544436,8.832661126662002,0.3422222222222222,-0.3644444444444445,-0.6222222222222222,0.028183701034998263,0.07399859389984942,-1.0426281037964624
1589988159.3733318,-2.401846745976207,-1.0907662701189644,8.766620713785864,0.3422222222222222,-0.3644444444444445,-0.6222222222222222,0.026582836251574583,0.07239772911642572,-1.089853614907461
1589988159.3833318,-2.3950808895886637,-1.1338106671914976,8.833175555992915,0.3422222222222222,-0.3644444444444445,-0.6222222222222222,0.03007595008855457,0.08413253002137161,-1.1650602178181937
1589988159.3933318,-2.461119858295611,-1.1833398937217083,8.874449911434757,0.3422222222222222,-0.3644444444444445,-0.6222222222222222,0.03818015082841365,0.08593346351911808,-1.2082826217641087
1589988159.4033318,-2.5177890996849235,-1.2014739335433844,8.977789099684923,0.38222222222222224,-0.3566666666666667,-0.6355555555555555,0.04052152016041666,0.09122783270958283,-1.2750785636216375
1589988159.4133317,-2.4901200803803363,-1.2206004019016812,8.949039356957309,0.38222222222222224,-0.3566666666666667,-0.6355555555555555,0.04251620304231285,0.08622802676731789,-1.3292344350068086
1589988159.4233317,-2.500710728638826,-1.2714214572776517,8.871776821597063,0.38222222222222224,-0.3566666666666667,-0.6355555555555555,0.04051579588781547,0.09065524764879078,-1.380632028067018
1589988159.4333317,-2.5190328499038968,-1.308065699807793,8.917582124759742,0.38222222222222224,-0.3566666666666667,-0.6355555555555555,0.044513062663129876,0.09365319773027661,-1.427599912676962
1589988159.4433317,-2.542030970568256,-1.293476772073808,8.942030970568256,0.38222222222222224,-0.3566666666666667,-0.6355555555555555,0.043522459039148344,0.09501305033790156,-1.459518430411409
1589988159.4533317,-2.56,-1.296722619099794,8.96418065477495,0.3901190145749027,-0.34876987431398615,-0.6327684523722565,0.04254240051736178,0.09781726362748996,-1.5026834892570995
1589988159.4633317,-2.5343780353365313,-1.4224878586538747,8.876052796233948,0.4011111111111111,-0.3377777777777778,-0.6288888888888889,0.04161075959193018,0.10594627754226357,-1.5656787531518639
1589988159.4733317,-2.565681090322425,-1.4578405451612126,8.744036456452118,0.4011111111111111,-0.3377777777777778,-0.6288888888888889,0.04534377290253912,0.11371277222808181,-1.6127552908379676
1589988159.4833317,-2.5891289767988153,-1.4918816279980254,8.800139581595657,0.4011111111111111,-0.3377777777777778,-0.6288888888888889,0.04859708976215891,0.11731942905943561,-1.642046273293687
1589988159.4933317,-2.6,-1.51,8.784219019005503,0.4011111111111111,-0.3377777777777778,-0.6288888888888889,0.05017821599483697,0.11357638931678202,-1.6794595771489462
1589988159.5033317,-2.606559317313813,-1.5755931731381287,8.884627028962443,0.43609413678477965,-0.32465914315015204,-0.6332617670980975,0.04445413180438175,0.10625616614799019,-1.714739750420252
1589988159.5133317,-2.5809168862840735,-1.6487774849545687,8.940305628761358,0.4544444444444444,-0.31777777777777777,-0.6355555555555555,0.05308398015533041,0.11526133475762841,-1.7500832884589104
1589988159.5233316,-2.5900685554389646,-1.670205666316894,8.820308499475342,0.4544444444444444,-0.31777777777777777,-0.6355555555555555,0.06215118076820241,0.1221842649970726,-1.7748302916707688
1589988159.5333316,-2.609629240993354,-1.728887722980063,8.908331584470094,0.4544444444444444,-0.31777777777777777,-0.6355555555555555,0.05468309149289072,0.12538487468649193,-1.7886996003249185
1589988159.5433316,-2.5856923440453685,-1.78671786389414,8.901897448015124,0.4544444444444444,-0.31777777777777777,-0.6355555555555555,0.053657687812634615,0.12279398605052792,-1.7995686990404456
1589988159.5533316,-2.550162853600811,-1.7613028288064916,8.900651414403246,0.4888888888888889,-0.28444444444444444,-0.65,0.050213745138998074,0.1244080029208376,-1.8163398402890825
1589988159.5633316,-2.5580412487321085,-1.8243299898568692,8.932164994928435,0.4888888888888889,-0.28444444444444444,-0.65,0.05193254432417591,0.1269862016986044,-1.8214962378446158
1589988159.5733316,-2.56,-1.8577409367259627,8.74484969601441,0.4888888888888889,-0.28444444444444444,-0.65,0.059133203521680555,0.1353681455084861,-1.8285839455188782
1589988159.5833316,-2.5751483685450696,-1.9281676584528136,8.727574184272536,0.4888888888888889,-0.28444444444444444,-0.65,0.05503840102323614,0.1289179097909536,-1.8293232222465563
1589988159.5933316,-2.56617679352953,-1.9730386774507833,8.789900561372036,0.4888888888888889,-0.28444444444444444,-0.65,0.04993232654514134,0.12151011105932462,-1.8343494819568207
1589988159.6033316,-2.5552539729689587,-2.018388905391356,8.865253972968958,0.4953104114065053,-0.26897441292473223,-0.6575890720662739,0.04782081127058176,0.11792054112260217,-1.8396584105270266
1589988159.6133316,-2.5606638767357808,-2.079336123264219,8.851991630207342,0.5133333333333333,-0.2255555555555556,-0.6788888888888889,0.05599674100377422,0.1258823288014647,-1.8380498685065283
1589988159.6233315,-2.54358409457281,-2.1541590542718967,8.794336378291241,0.5133333333333333,-0.2255555555555556,-0.6788888888888889,0.058204995541052164,0.12902693497959827,-1.840849335361554
1589988159.6333315,-2.528705291417684,-2.2069420628734737,8.808236771455789,0.5133333333333333,-0.2255555555555556,-0.6788888888888889,0.05904609305240386,0.13104092469716996,-1.8448773147966975
1589988159.6433315,-2.4896910152869918,-2.25637078165561,8.866370781655611,0.5133333333333333,-0.2255555555555556,-0.6788888888888889,0.05999569303730508,0.1346354825629643,-1.8514051910580631
1589988159.6533315,-2.4138805970149253,-2.354825870646766,8.89,0.5133333333333333,-0.18398562741846325,-0.6788888888888889,0.05591457488587555,0.13329300919848483,-1.8656354051604065
1589988159.6633315,-2.418255990042527,-2.3434880199149464,8.931279950212634,0.5133333333333333,-0.1811111111111111,-0.6788888888888889,0.05383119229164477,0.1357831218880793,-1.877218534545483
1589988159.6733315,-2.2651745838901713,-2.34,8.777025877779128,0.5133333333333333,-0.1811111111111111,-0.6788888888888889,0.06322845375211403,0.13990939159743432,-1.8937236133829032
1589988159.6833315,-2.2687010936971475,-2.4464280076671554,8.798051640545722,0.5133333333333333,-0.1811111111111111,-0.6788888888888889,0.043286266181195195,0.12699685903767627,-1.9222845373540136
1589988159.6933315,-2.262161305200046,-2.497032168799723,8.862709558399631,0.5133333333333333,-0.1811111111111111,-0.6788888888888889,0.040832262600884864,0.12568130181135045,-1.933395497040113
1589988159.7033315,-2.2503005024172906,-2.5003005024172906,8.802404019338328,0.5391986602205581,-0.12399184756848991,-0.6993656060079417,0.05199930054413502,0.14978071422442168,-1.9446890473615845
1589988159.7133315,-2.202837842280004,-2.560637059925709,8.759575293382861,0.54,-0.12222222222222222,-0.7,0.054564703277398076,0.14832982226694272,-1.9523007042497413
1589988159.7233315,-2.188810064999801,-2.607620129999601,8.7311899350002,0.54,-0.12222222222222222,-0.7,0.05563236990731925,0.14726215563702155,-1.955859593016145
1589988159.7333314,-2.174095121453358,-2.6418097570932844,8.745904878546643,0.54,-0.12222222222222222,-0.7,0.05823479957390097,0.15073206185913052,-1.9567270695716725
1589988159.7433314,-2.162578604651163,-2.716792558139535,8.787106976744187,0.54,-0.12222222222222222,-0.7,0.05485711900701479,0.15162547876700738,-1.9545217778499655
1589988159.7533314,-2.08,-2.75,8.81,0.5666666666666667,-0.06888888888888889,-0.7444444444444445,0.05017821599483697,0.1461713248545251,-1.9482237775386704
1589988159.7633314,-2.084759819207456,-2.8023580112820152,8.829039276829825,0.5666666666666667,-0.06888888888888889,-0.7444444444444445,0.04810135307059264,0.14980583497195268,-1.9425124044969981
1589988159.7733314,-2.073959860522249,-2.8386131473629987,8.753759163133495,0.5666666666666667,-0.06888888888888889,-0.7444444444444445,0.04406518507506442,0.15205743254221357,-1.93039227963192
1589988159.7833314,-2.045447377239843,-2.8272763113800785,8.695467089830275,0.5666666666666667,-0.06888888888888889,-0.7444444444444445,0.04016123318643612,0.15172523164997376,-1.9205539964443936
1589988159.7933314,-1.9914629005059021,-2.8603836424957843,8.731846543001687,0.5666666666666667,-0.06888888888888889,-0.7444444444444445,0.0373315221040113,0.15291773614424814,-1.9060005324020224
1589988159.8033314,-1.9681193971677278,-2.9262387943354558,8.774358191503183,0.5908258628903036,-0.06284908983297967,-0.7957827364196729,0.034328609122163296,0.15360199838609104,-1.8771895345705008
1589988159.8133314,-1.8910082333663747,-2.8668065866931,8.724705763356463,0.5933333333333334,-0.06222222222222223,-0.8011111111111111,0.03209242124523544,0.15553047334415498,-1.8535964524594741
1589988159.8233314,-1.8545674605115166,-2.950311506675143,8.640553572301824,0.5933333333333334,-0.06222222222222223,-0.8011111111111111,0.027425520410864733,0.1568305163532997,-1.8276661985976406
1589988159.8333313,-1.8759841798003547,-3.0254723146506204,8.704448584351152,0.5933333333333334,-0.06222222222222223,-0.8011111111111111,0.024054113041103733,0.15353658978147097,-1.8025549751197805
1589988159.8433313,-1.8854478853234156,-3.0545521146765844,8.740895770646832,0.5933333333333334,-0.06222222222222223,-0.8011111111111111,0.024893681158294427,0.1521220374484746,-1.7768416565161933
1589988159.8533313,-1.874626370395262,-3.108362666442643,8.724626370395262,0.6028864526306456,-0.06938706169520636,-0.797528691374619,0.021409048975828814,0.14861310513889603,-1.7367308552139313
1589988159.8633313,-1.3901683553274216,-2.658320660397234,8.28755913504817,0.6111111111111112,-0.07555555555555556,-0.7944444444444444,-0.02370141229012664,0.11083234369361905,-1.7044884605838688
1589988159.8733313,-1.67202666008393,-2.9976009450929224,9.483636491871495,0.6111111111111112,-0.07555555555555556,-0.7944444444444444,-0.079086443466002,0.0991882040377173,-1.6577962461604232
1589988159.8833313,-1.7436324286810094,-3.0561042115644517,8.982955217883624,0.6111111111111112,-0.07555555555555556,-0.7944444444444444,0.09613264531000419,0.14797726998369415,-1.5742892006691414
1589988159.8933313,-1.6831826625386996,-3.1125498452012383,8.588915170278637,0.6111111111111112,-0.07555555555555556,-0.7944444444444444,0.09721997265741356,0.17525685859428108,-1.5123471143517735
1589988159.9033313,-1.6797288835743014,-3.2202711164256983,8.946496358299816,0.5885876484158906,-0.11534700631711177,-0.8267280743075938,-0.026359660829480283,0.063587809832141,-1.4998627517183478
1589988159.9133313,-1.733052491251458,-3.293052491251458,9.26717247125479,0.5777777777777777,-0.13444444444444445,-0.8422222222222222,-0.016654537541698676,0.08842273232267264,-1.4339521595439617
1589988159.9233313,-1.6442072680135884,-3.2303325585553373,8.541075004469873,0.5777777777777777,-0.13444444444444445,-0.8422222222222222,0.056396712091585935,0.12083249891268696,-1.366010351772878
1589988159.9333313,-1.6479848816391485,-3.3458941714740402,8.717758106226377,0.5777777777777777,-0.13444444444444445,-0.8422222222222222,0.01847544457901422,0.08904147668382649,-1.3197184146536678
1589988159.9433312,-1.6361529747112995,-3.35307648735565,8.978475917263559,0.5777777777777777,-0.13444444444444445,-0.8422222222222222,0.008558540960681062,0.07828765839080896,-1.2815562104711529
1589988159.9533312,-1.6008797773009338,-3.3572800556747664,8.883438496781302,0.5195373323796453,-0.08024847442118219,-0.7063278496265796,0.032751303828445905,0.08559102546907586,-1.2196008163912775
1589988159.9633312,-1.5837022782655785,-3.385190886937686,8.72812961745252,0.4977777777777778,-0.06,-0.6555555555555556,0.031550802553355406,0.08120442569170461,-1.1691207284190754
1589988159.9733312,-1.58,-3.4431300838640517,8.816578598902831,0.4977777777777778,-0.06,-0.6555555555555556,0.010974821058250017,0.06224386783558344,-1.1136658003511675
1589988159.9833312,-1.58,-3.466492676693208,8.746639142829057,0.4977777777777778,-0.06,-0.6555555555555556,0.018202494788428766,0.06380561228756376,-1.0598959238090384
1589988159.9933312,-1.5539876969566155,-3.428380315130585,8.622772933304555,0.4977777777777778,-0.06,-0.6555555555555556,0.02111660507374949,0.06763150851478028,-1.008393382800275
1589988160.0033312,-1.4485934005436465,-3.2950256339675876,8.644622716168325,0.5188831924516472,0.013115186548761884,-0.6359576705012483,0.03817348492319153,0.07725159784485981,-0.9362564611716391
1589988160.0133312,-1.3853597278654446,-3.2253597278654444,8.070153264669754,0.5288888888888889,0.04777777777777778,-0.6266666666666667,0.08764214624670155,0.11137851275404317,-0.864810087764284
1589988160.0233312,-1.4266094468753505,-3.4040895321440594,8.733231235274319,0.5288888888888889,0.04777777777777778,-0.6266666666666667,-0.053490851110940596,-0.01486567496868979,-0.8413341741856576
1589988160.0333312,-1.44,-3.439139006443812,8.89854254832859,0.5288888888888889,0.04777777777777778,-0.6266666666666667,-0.06428660187319357,-0.02479999770819025,-0.8082620518759832
1589988160.0433311,-1.44,-3.434403264059171,8.645062909514813,0.5288888888888889,0.04777777777777778,-0.6266666666666667,0.012474636818876839,0.03166079671404535,-0.7389864860750751
1589988160.0533311,-1.44,-3.4967930761902832,8.597417151427935,0.5370923332274853,0.08879499947076006,-0.6228804615873145,0.048035312894317304,0.05514639669047851,-0.6610555040292116
1589988160.0633311,-1.44,-3.555219893742621,8.945468565525383,0.5433333333333333,0.12,-0.62,0.001585133603874165,0.019916515926522143,-0.603792546403712
1589988160.073331,-1.425427538316144,-3.567286230841928,8.76226815137445,0.5433333333333333,0.12,-0.62,0.01362115382531785,0.022923649552278984,-0.5494016724855253
1589988160.083331,-1.4274641521197007,-3.5625358478802993,8.729713216957606,0.5433333333333333,0.12,-0.62,0.017468934108470363,0.0180378118825092,-0.4959624689127005
1589988160.093331,-1.411148363664766,-3.5662838787784112,8.768851636335233,0.5433333333333333,0.12,-0.62,0.02321711014241412,0.013900701273956926,-0.45102118914258377
1589988160.103331,-1.3861370443200725,-3.5630685221600364,8.745342610800181,0.5618172742399031,0.14387509033765272,-0.6038265517067514,0.030295197320821178,0.013846076329559913,-0.3971880706468841
1589988160.113331,-1.3871247731499114,-3.538625680550265,8.737124773149912,0.57,0.15444444444444444,-0.5966666666666667,0.023084978635146754,0.015735184546499466,-0.34370835670964384
1589988160.123331,-1.3681675,-3.5518325,8.7036125,0.57,0.15444444444444444,-0.5966666666666667,0.02281036249278339,0.008423940717828881,-0.29261672094315244
1589988160.133331,-1.3305414443258627,-3.4937182497331913,8.667906083244397,0.57,0.15444444444444444,-0.5966666666666667,0.023194919731491168,0.009470941329636606,-0.2422982360812729
1589988160.143331,-1.3328074718214296,-3.504153258190479,8.702691572738098,0.57,0.15444444444444444,-0.5966666666666667,0.020578982347630358,0.00857984374016934,-0.20998105882893495
1589988160.153331,-1.3497738366417182,-3.5493215099251545,8.760226163358281,0.5695728025454676,0.15532396861554038,-0.5973451567415121,0.01723125716216538,0.0052074479593957074,-0.18321555485770283
1589988160.163331,-1.366743795484232,-3.5567727187908194,8.786714872177646,0.5511111111111111,0.19333333333333333,-0.6266666666666667,0.008000477419412568,-0.004724830028607527,-0.11630375109213265
1589988160.173331,-1.4065767212763678,-3.6188139343969734,8.788679016311525,0.5511111111111111,0.19333333333333333,-0.6266666666666667,0.008238562072179394,-0.003516534441385495,-0.06949554158551591
1589988160.183331,-1.37083214132456,-3.6016642826491205,8.708885710198826,0.5511111111111111,0.19333333333333333,-0.6266666666666667,0.006151116921739331,-0.0071203975426616575,-0.010456005474691124
1589988160.193331,-1.3810982078853047,-3.6310982078853047,8.762225448028673,0.5511111111111111,0.19333333333333333,-0.6266666666666667,0.005939671355386975,-0.011756379886008668,0.03771256151294056
1589988160.203331,-1.369913862612834,-3.619913862612834,8.766017227477432,0.5643870195196672,0.19244827277276294,-0.6204712427426738,0.005898003130556414,-0.015687291778991197,0.10657613463082675
1589988160.213331,-1.4,-3.6546015330332158,8.713984669667843,0.5844444444444444,0.19111111111111112,-0.6111111111111112,0.003272492347489368,-0.020899648880703177,0.17561247472915992
1589988160.223331,-1.3755277867997744,-3.6746833279201354,8.664894442640046,0.5844444444444444,0.19111111111111112,-0.6111111111111112,-0.0004648137389577454,-0.021213627649901975,0.24261045127838582
1589988160.233331,-1.3409427735693393,-3.6311280282007052,8.679057226430661,0.5844444444444444,0.19111111111111112,-0.6111111111111112,-0.004857318199716087,-0.026962247633303613,0.30343823059042624
1589988160.243331,-1.3354132198693847,-3.592479319216307,8.67917356026123,0.5844444444444444,0.19111111111111112,-0.6111111111111112,-0.006044644599076888,-0.02995277122330616,0.37349683317888505
1589988160.253331,-1.363932408735852,-3.62,8.747780328391519,0.6249965814690827,0.20307731547903715,-0.6250716828736915,-0.00980826071352305,-0.03336836234965748,0.4344966637229265
1589988160.263331,-1.38,-3.5909767073834136,8.705674298996094,0.6522222222222223,0.2111111111111111,-0.6344444444444445,-0.012790626132350387,-0.03758039087216179,0.4955416433279872
1589988160.273331,-1.4187971154249297,-3.599398557712465,8.676466185904156,0.6522222222222223,0.2111111111111111,-0.6344444444444445,-0.015206023778836543,-0.043821889091053494,0.5408389191156081
1589988160.283331,-1.416338426711941,-3.6395769666100737,8.697746179966044,0.6522222222222223,0.2111111111111111,-0.6344444444444445,-0.018298269675315126,-0.04755099295997037,0.5819347637353539
1589988160.293331,-1.4172636597892965,-3.621156765474083,8.744527319578593,0.6522222222222223,0.2111111111111111,-0.6344444444444445,-0.020576540660771758,-0.05129210744526848,0.6162854512435119
1589988160.303331,-1.4438001118032262,-3.547199329180642,8.77859966459032,0.7197797653906902,0.22040027329677545,-0.6585118191982112,-0.02140208775674038,-0.05770500937326294,0.6533207869113403
1589988160.313331,-1.4710284986467124,-3.4749525022554795,8.76,0.83,0.23555555555555555,-0.6977777777777778,-0.02607810938192039,-0.056498817093097765,0.7023120899324574
1589988160.3233309,-1.4862772184020956,-3.4348911263916175,8.697227815979044,0.83,0.23555555555555555,-0.6977777777777778,-0.030415815263345587,-0.057280492349406444,0.7346302192432054
1589988160.3333309,-1.4782974897149754,-3.396594979429951,8.700958785997585,0.83,0.23555555555555555,-0.6977777777777778,-0.027166182234412084,-0.06018140809994724,0.7676438195322901
1589988160.3433309,-1.459886178206652,-3.349658534619956,8.724943089103327,0.83,0.23555555555555555,-0.6977777777777778,-0.022343406993791906,-0.0638446408550184,0.7992259966683035
1589988160.3533309,-1.4773980796474107,-3.3702298126869197,8.72,1.1856676635710164,0.20511324483621035,-1.0575044161113736,-0.028197452032603963,-0.062057677433181024,0.8313828707820364
1589988160.3633308,-1.5936571911061075,-3.495730650154799,8.72,1.6088888888888888,0.1688888888888889,-1.4855555555555555,-0.04034738372044131,-0.060634165228489884,0.8621419006038741
1589988160.3733308,-1.6632587251594748,-3.5311608498936833,8.689062974627893,1.6088888888888888,0.1688888888888889,-1.4855555555555555,-0.03579298859840786,-0.0637502862361483,0.8863922925268489
1589988160.3833308,-1.6771890726096332,-3.5228109273903665,8.686542056074767,1.6088888888888888,0.1688888888888889,-1.4855555555555555,-0.028190643399843708,-0.06589213922967808,0.9138393709540132
1589988160.3933308,-1.67,-3.495393144744993,8.789887672930002,1.6088888888888888,0.1688888888888889,-1.4855555555555555,-0.02515037291024918,-0.07089174787970348,0.9472211193335291
1589988160.4033308,-1.6452186257808064,-3.425306076093129,8.8,1.1969673796454035,-0.0310141964792732,-1.1419204997160703,-0.023960119817873885,-0.07361676879461772,0.9713037273443668
1589988160.4133308,-1.6300091070911122,-3.3649772322722193,8.8,0.7777777777777778,-0.2344444444444445,-0.7922222222222223,-0.02454021560280675,-0.0730836755681977,0.9893914671605449
1589988160.4233308,-1.6344377811094453,-3.3455622188905547,8.738815592203897,0.7777777777777778,-0.2344444444444445,-0.7922222222222223,-0.02315276070135281,-0.07393772065466983,1.0047843495275377
1589988160.4333308,-1.462843367039443,-3.1642704078216033,8.69,0.7777777777777778,-0.2344444444444445,-0.7922222222222223,-0.024413776142856124,-0.0750074910656272,1.0101093045917182
1589988160.4433308,-1.4724027021793853,-3.1731077214345644,8.540129730427486,0.7777777777777778,-0.2344444444444445,-0.7922222222222223,-0.017575726723000114,-0.06658620626476038,1.0060222270059496
1589988160.4533308,-1.6005034383770003,-3.371510315131001,8.693246213500718,0.7143499932160786,-0.104683785951808,-0.7573611497913647,-0.02958687165722933,-0.07330532885875136,0.9844104119279944
1589988160.4633307,-1.6107223264540338,-3.470481550969356,8.840417448405253,0.6322222222222222,0.06333333333333334,-0.7122222222222222,-0.036923666913649185,-0.08042557555832883,0.9503762568647702
1589988160.4733307,-1.5979727259946577,-3.4799545433244297,8.705854538638174,0.6322222222222222,0.06333333333333334,-0.7122222222222222,-0.019418771350076205,-0.06915966332109495,0.9104510063476065
1589988160.4833307,-1.5753396296640925,-3.396018888992277,8.735339629664093,0.6322222222222222,0.06333333333333334,-0.7122222222222222,-0.023585269821791103,-0.06557162272268213,0.8508795771447937
1589988160.4933307,-1.5308781977854142,-3.3343413516609393,8.705219549446353,0.6322222222222222,0.06333333333333334,-0.7122222222222222,-0.018405843111607822,-0.0622252528611705,0.785414407154805
1589988160.5033307,-1.5197416659041694,-3.3889666636166775,8.768191661329185,0.6316810185608794,0.08173425781898652,-0.7165518515129642,-0.01829050439692932,-0.054710618395163085,0.6977776390907343
1589988160.5133307,-1.5357895343210672,-3.435789534321067,8.758946519505058,0.6311111111111111,0.10111111111111112,-0.7211111111111111,-0.01825695673892395,-0.04231269240147812,0.5843401717083729
1589988160.5233307,-1.5515640165456144,-3.4438546721818715,8.7,0.6311111111111111,0.10111111111111112,-0.7211111111111111,-0.011749266839448196,-0.037758597880134144,0.49135622223492376
1589988160.5333307,-1.57,-3.443573174457684,8.703213412771158,0.6311111111111111,0.10111111111111112,-0.7211111111111111,-0.012914704911575153,-0.03551086629943864,0.39457479072527163
1589988160.5433307,-1.57,-3.403809855989087,8.72,0.6311111111111111,0.10111111111111112,-0.7211111111111111,-0.007947698826346893,-0.022544089817778258,0.24554291634747183
1589988160.5533307,-1.57,-3.390806089072843,8.72,0.6311111111111111,0.10111111111111112,-0.7211111111111111,0.0005632467180420476,-0.012614653349324491,0.1632704427517121
1589988160.5633307,-1.556070110701107,-3.4657195571955723,8.80249077490775,0.6166666666666667,0.07555555555555556,-0.75,0.006235043845339521,0.0003522055109536522,-0.01898890854770122
1589988160.5733306,-1.5605436835304642,-3.474184474704304,8.70728158234768,0.6166666666666667,0.07555555555555556,-0.75,0.014755868900250487,0.011086227844254557,-0.16454490081367223
1589988160.5833306,-1.5750049142732336,-3.4449852571802992,8.720058971278803,0.6166666666666667,0.07555555555555556,-0.75,0.018001388231449922,0.020186266180752914,-0.30114112855194697
1589988160.5933306,-1.5755607019830558,-3.4255607019830556,8.784439298016943,0.6166666666666667,0.07555555555555556,-0.75,0.02411555091812357,0.029085452537650013,-0.4414660271171468
1589988160.6033306,-9.687842724651235,-7.232712960798067,2.321753565583352,0.5885285636349467,0.0689118367841772,-0.7042755825734549,-0.28932035726748295,1.032579007457853,-0.7932011188732391
1589988160.6133306,-17.38030493465686,-10.089523316432192,-6.692741198314647,0.5366666666666666,0.05666666666666665,-0.62,-0.7640693562428411,1.3056397695747322,-2.4127719403719805
1589988160.6233306,-0.413632448230114,-0.763918360283797,-0.07959180141898517,0.5366666666666666,0.05666666666666665,-0.62,-0.42079573992891156,-1.3962364711271844,-5.095804915733996
1589988160.6333306,0.2136931818181818,-0.7493645009881423,0.024160696640316198,0.5366666666666666,0.05666666666666665,-0.62,-0.2635075835329056,-0.445243346848209,-5.250627672495778
1589988160.6433306,-0.23362014491532562,-0.603102620271295,-0.0613792231864521,0.5366666666666666,0.05666666666666665,-0.62,-0.19747791518014815,-0.549571673427395,-5.04432079628288
1589988160.6533306,-0.16491184714143636,-0.4,-0.12987794219583496,0.5327830518804269,0.13489376450378227,-0.6305412401340794,-0.19196994451370628,-0.47020280440231704,-4.809635652083573
1589988160.6633306,-0.18367487369407676,-0.30155910659991314,-0.0752339802939899,0.5288888888888889,0.21333333333333332,-0.6411111111111111,-0.2519915864154978,-0.40073092588151965,-4.556201079364009
1589988160.6733305,3.145356265356266,-1.5912396694214876,5.1333348224257325,0.5288888888888889,0.21333333333333332,-0.6411111111111111,0.03703366851792861,-0.0012221593042220369,-4.353826542856367
1589988160.6833305,2.755318610634648,0.0031363636363632708,17.76551972555746,0.5288888888888889,0.21333333333333332,-0.6411111111111111,1.3632153686167066,1.616711976499606,-4.1937194782438825
1589988160.6933305,-1.106368185067256,2.437500812268503,20.029699135746313,0.5288888888888889,0.21333333333333332,-0.6411111111111111,1.929963189432149,3.068842838602096,-3.9402616463902955
1589988160.7033305,-0.17969198778348194,-0.4515485086750277,-0.38443238676977387,0.5288888888888889,0.21333333333333332,-0.6411111111111111,0.021246355487138935,2.6838290847144344,-3.4890968807342904
1589988160.7133305,0.5295568865757568,-0.5290204402058558,7.052633966214055,0.4577777777777778,0.2933333333333333,-0.6433333333333333,-0.3929509436253896,-0.14670711424215374,-2.7513297278647713
1589988160.7233305,1.0719280732636645,0.3078883219323069,6.261257380957686,0.4577777777777778,0.2933333333333333,-0.6433333333333333,0.704465538920649,0.22234470511093798,-2.49560642677043
1589988160.7333305,0.045211936894126614,0.29725242349363246,0.4246721155673827,0.4577777777777778,0.2933333333333333,-0.6433333333333333,1.17842816429953,0.4016793082755544,-2.331127049523718
1589988160.7433305,1.5130186469117042,-0.9379678348687752,7.378708645961947,0.4577777777777778,0.2933333333333333,-0.6433333333333333,0.2594001264380217,-0.133569737676429,-2.20236265792982
1589988160.7533305,1.5861010489846983,-2.850114137234145,12.916280242517562,0.4645930773425721,0.3073046974411617,-0.6324288540296624,-0.7237546450664573,-0.1253387139449147,-1.9654830909305314
1589988160.7633305,0.5286382206082615,-2.049589196550159,8.104182932364957,0.48,0.3388888888888889,-0.6077777777777778,-0.34470624094607877,0.48606488772957596,-1.7766996736056195
1589988160.7733305,0.46523401968874134,-1.6901894033889198,5.504119475734489,0.48,0.3388888888888889,-0.6077777777777778,0.4062266937969323,0.31369937105083995,-1.6238491229431666
1589988160.7833304,0.343117591275486,-2.520462304409673,8.355163288288288,0.48,0.3388888888888889,-0.6077777777777778,0.06738566427281475,0.08759519239544925,-1.5267511568789478
1589988160.7933304,0.05564961331293357,-3.042658394986691,10.088427891769538,0.48,0.3388888888888889,-0.6077777777777778,-0.2131996334161399,0.04684641873988432,-1.3791033642983543
1589988160.8033304,0.11153930301609626,-2.8881700265666512,8.626146272855133,0.4576551891788647,0.35029900505287287,-0.6077777777777778,0.07374026317812774,0.10187173044655956,-1.2100102249834694
1589988160.8133304,0.011615797967616649,-3.2367684040647666,9.743447071133417,0.42777777777777776,0.3655555555555556,-0.6077777777777778,0.08800085382757272,0.09674611039156412,-1.0415201316721696
1589988160.8233304,-0.005376293783989241,-3.1282808022922635,9.553231389977194,0.42777777777777776,0.3655555555555556,-0.6077777777777778,-0.014966854071799218,0.04857121640981661,-0.8959479086362723
1589988160.8333304,-0.05229482014731472,-3.0001005935496172,8.69296512598031,0.42777777777777776,0.3655555555555556,-0.6077777777777778,0.04015061276816936,0.05593202269122165,-0.6701172337975911
1589988160.8433304,-0.11524634461224367,-3.2154881856666764,9.413430810340168,0.42777777777777776,0.3655555555555556,-0.6077777777777778,0.02010821947126536,0.03270700878915118,-0.4951730000674451
1589988160.8533304,-0.15302488966283365,-2.9069634010868586,8.406002942324436,0.42777777777777776,0.3655555555555556,-0.6077777777777778,-0.032777947014595896,0.029959675465210334,-0.3598668338633585
1589988160.8633304,-0.11534814075368105,-3.0565734963813327,8.732979785375592,0.4011111111111111,0.4211111111111111,-0.6433333333333333,-0.0007717757096025596,0.0007900152060905204,-0.0368331658853389
1589988160.8733304,-0.17717093044155535,-3.3156581391168896,9.149606973818226,0.4011111111111111,0.4211111111111111,-0.6433333333333333,-0.0018569807593226476,-0.009993215103347199,0.19712216091470705
1589988160.8833303,-0.18997700172487064,-3.1998390120740945,8.666291028172887,0.4011111111111111,0.4211111111111111,-0.6433333333333333,0.0003443767205496516,-0.032375529309052936,0.38740297731291107
1589988160.8933303,-0.18254662458498996,-3.0945032176087226,8.393323154486207,0.4011111111111111,0.4211111111111111,-0.6433333333333333,-0.01704677395313353,-0.045750530405884726,0.5883306424396578
1589988160.9033303,-0.21175587264003987,-3.2068733254408373,8.615352358402392,0.40013562631108895,0.4248179533511953,-0.6407970728532757,-0.021225627198698097,-0.049720378363152996,0.7611029306283655
1589988160.9133303,-0.2217922574478254,-3.3629735542456585,9.046374860602198,0.3955555555555556,0.44222222222222224,-0.6288888888888889,-0.0324472195414176,-0.05967132858684632,0.9338266581768508
1589988160.9233303,-0.2430598175492601,-3.2389570807881616,8.519332884421143,0.3955555555555556,0.44222222222222224,-0.6288888888888889,-0.016207703082350707,-0.07853981633974483,1.1404736479216073
1589988160.9333303,-0.2497843618232248,-3.346549789171597,8.781590111105766,0.3955555555555556,0.44222222222222224,-0.6288888888888889,-0.011072965157740026,-0.07853981633974483,1.2519708142845822
1589988160.9433303,-0.2785469424313981,-3.294914298509893,8.590198680889179,0.3955555555555556,0.44222222222222224,-0.6288888888888889,-0.03570059278131086,-0.1001979279972169,1.4349613364061726
1589988160.9533303,-0.30334004024144867,-3.378913480885312,8.87118712273642,0.40110887547507273,0.4403711155823832,-0.6347507265817125,-0.055147312356148795,-0.10714284804496375,1.5572081308704788
1589988160.9633303,0.0011734051714620275,-5.090188133459933,8.715794378077595,0.4155555555555556,0.4355555555555555,-0.65,-0.08470405684369917,-0.12413000100202327,1.6148836473899524
1589988160.9733303,-5.405950668862733,-10.914944361868798,7.261098501586791,0.4155555555555556,0.4355555555555555,-0.65,-0.32276494434401093,-0.18309397271569935,-0.16520753365377328
1589988160.9833302,-12.69498711473044,-15.12307700237089,4.177844036697248,0.4155555555555556,0.4355555555555555,-0.65,-0.5650306112024222,-0.034631937664745094,-3.7175497887378652
1589988160.9933302,-2.051827736974735,-5.409166253849965,8.705952098903701,0.4155555555555556,0.4355555555555555,-0.65,-0.013979921342620327,0.46817877338020364,-3.67020367316954
1589988161.0033302,2.3536011945532755,1.271777308967369,15.179806570043015,0.42339777954342744,0.4316344435616196,-0.6533982970614112,0.6234843741912373,0.10881678870001292,-0.3052024026679391
1589988161.0133302,0.39564287456965486,0.3418569221177046,4.772375233809536,0.4488888888888889,0.4188888888888889,-0.6644444444444444,0.9216603422722682,0.12018607906905182,0.491561487435183
1589988161.0233302,0.5439928190951385,-1.4557430382307328,8.7490152383521,0.4488888888888889,0.4188888888888889,-0.6644444444444444,0.09684043158385075,-0.23852786528464187,0.6545962367972892
1589988161.0333302,0.6838187421907538,-3.2375733444398165,14.85683215326947,0.4488888888888889,0.4188888888888889,-0.6644444444444444,-0.5896060229939126,-0.10553590189920022,0.8031261399203475
1589988161.0433302,0.2855261974177426,-2.6855538525614326,10.59440316534777,0.4488888888888889,0.4188888888888889,-0.6644444444444444,-0.60332612093951,0.03547621587499447,0.9441382576945422
1589988161.0533302,-0.19300631735414342,-2.004490895577852,5.975442214790041,0.4488888888888889,0.4188888888888889,-0.6644444444444444,0.1685485569935633,-0.04418128154806904,1.1525748044690662
1589988161.0633302,8.445752432208653,-15.71528784010672,7.015184801858368,0.4198392582881647,0.4427510854537695,-0.6841566937806502,0.1636047471387284,0.060771485246333704,1.3317604014851026
1589988161.0733302,-1.0940727658071352,-5.543768986223949,9.461112681031437,0.4177777777777778,0.4444444444444444,-0.6855555555555556,-0.31513694155306415,-0.2157802772321707,-0.011860424696581884
1589988161.0833302,-2.8931114699500426,-5.649594792350003,7.302266236059948,0.4177777777777778,0.4444444444444444,-0.6855555555555556,-0.14044069723713193,0.010478294701239399,-1.2147248734446088
1589988161.0933301,-2.5942050442298603,-5.225395198865555,7.216006482544398,0.4177777777777778,0.4444444444444444,-0.6855555555555556,0.43598949940808074,0.3054767414326369,-0.8811564810410375
1589988161.1033301,-0.49124890269430743,-2.1736305624957795,9.566785738402322,0.4177777777777778,0.4444444444444444,-0.6855555555555556,0.03435177799999445,0.10156835979468543,-0.09487340336136074
1589988161.1133301,2.7906719707558327,-5.90511289108698,9.137195104469054,0.4511111111111111,0.4188888888888889,-0.6788888888888889,-0.18506388133719373,-0.20852485509819932,0.6600908195475498
1589988161.12333,-1.5712528282912932,-3.5082250900863152,8.826295985921394,0.4511111111111111,0.4188888888888889,-0.6788888888888889,-0.07852546450593506,-0.10979710483492001,0.24611630713733432
1589988161.13333,-0.9655984822352536,-4.893363228699552,8.392245601931702,0.4511111111111111,0.4188888888888889,-0.6788888888888889,0.0841158844203985,0.12032740259367514,-0.3067872209675786
1589988161.14333,0.9565909426895975,-4.624670083279949,8.950300596264723,0.4511111111111111,0.4188888888888889,-0.6788888888888889,-0.006068347600985943,0.03314931163967019,-0.030973778035511268
1589988161.15333,-0.2744518225200528,-4.266059295359935,8.382629708599858,0.44994320912444574,0.4188888888888889,-0.6779156372333345,-0.02816241767872431,-0.059979522736336,0.1100062252262024
1589988161.16333,-0.06415523324186594,-4.5325970207761666,8.942859662877304,0.4444444444444444,0.4188888888888889,-0.6733333333333333,0.007593482177801672,0.01126258195405053,-0.02809263422880034
1589988161.17333,-0.11891081214054257,-4.555898071017763,8.617949035508882,0.4444444444444444,0.4188888888888889,-0.6733333333333333,-0.013418608465599566,-0.002181661564992912,-0.001957936044920984
1589988161.18333,-0.07078257278546356,-4.4994130704109025,8.590782572785464,0.4444444444444444,0.4188888888888889,-0.6733333333333333,-0.013860679740981059,-0.002203002927091103,0.001112172144594647
1589988161.19333,-0.10559108635097493,-4.47881782729805,8.643226740947076,0.4444444444444444,0.4188888888888889,-0.6733333333333333,0.001989286415963899,-0.0029839296239458487,0.002374036714021925
1589988161.20333,-0.061780647402860614,-4.568021502885711,8.777427953751422,0.443762962105078,0.41939450481809626,-0.673025567115555,-8.632822221389907e-05,2.158205555347477e-05,0.004363323129985824
1589988161.21333,-0.13464473912791708,-4.487061400968981,8.672179821259675,0.41587670477820454,0.4400843086412604,-0.6604317734840637,-0.0036188790752066493,0.0009047197688016623,0.004363323129985824
1589988161.22333,-0.10132631650196292,-4.532042100988223,8.61,0.41,0.4444444444444444,-0.6577777777777778,-0.0034952510093813273,0.0008014734089616237,0.004363323129985824
1589988161.23333,-0.10842375118451333,-4.48945749289292,8.61,0.41,0.4444444444444444,-0.6577777777777778,0.0011500091277090538,-0.0007469466367351699,0.004363323129985824
1589988161.24333,-0.10337193944935488,-4.5508923431203225,8.654495919265807,0.41,0.4444444444444444,-0.6577777777777778,0.0072553601207434705,-0.002059054386723897,0.0009682236042274411
1589988161.25333,-0.12467794371634665,-4.430158318940703,8.682903924955129,0.41,0.4444444444444444,-0.6577777777777778,-0.0020411380018307158,-0.001284346209842715,0.00019351542734625908
1589988161.26333,-0.11903769560375257,-4.5,8.72230156483002,0.4311111111111111,0.4244444444444445,-0.6577777777777778,-0.006293922918528969,-0.0003149133772675085,0.0014057441597639644
1589988161.27333,-0.11112048624874946,-4.5,8.658963889989996,0.4311111111111111,0.4244444444444445,-0.6577777777777778,-0.013202991459254014,-0.0029058140800394014,0.0039966448625358576
1589988161.28333,-0.08317863732896982,-4.555696132019636,8.542714549315878,0.4311111111111111,0.4244444444444445,-0.6577777777777778,-0.005851513606012218,-0.0007440952380131972,0.006595608844025416
1589988161.29333,-0.09778122062458658,-4.4899845071893605,8.601124882498345,0.4311111111111111,0.4244444444444445,-0.6577777777777778,-0.0026657241334467584,0.0008487994982695327,0.0018169246351772252
1589988161.30333,-0.09074372853127927,-4.4985125429374415,8.702562714687208,0.4311111111111111,0.4244444444444445,-0.6577777777777778,0.0069056616993089116,0.001090830782496456,0.001090830782496456
1589988161.31333,-0.10737574464301591,-4.491312127678492,8.727375744643016,0.43593770684528216,0.43506295505962084,-0.6761188415676279,5.421662731533005e-05,0.002038530638766439,0.002038530638766439
1589988161.32333,-0.08177797283788067,-4.51,8.68155243459391,0.43666666666666665,0.43666666666666665,-0.6788888888888889,0.0017937680645923482,-0.0005089905318956105,0.0045572698801861055
1589988161.33333,-0.09190615291881114,-4.515718458756433,8.570967682106923,0.43666666666666665,0.43666666666666665,-0.6788888888888889,0.0010396451399923333,0.0017658035089959786,0.005246224884483813
1589988161.34333,-0.10288723718791065,-4.532781907030223,8.668661711563733,0.43666666666666665,0.43666666666666665,-0.6788888888888889,0.005139205192388136,-0.00015747436004707175,0.004205848769938752
1589988161.35333,-0.12,-4.489904548105987,8.719952274052995,0.436640152251663,0.4366348493686623,-0.6789313119528947,0.0032568740678538153,-0.0010804185960727542,0.003262080161065666
1589988161.36333,-0.12,-4.4750766266593605,8.71253831332968,0.4325212851831557,0.4316922088864535,-0.6855214992625065,0.0008306610946908831,0.0005370567193692007,0.0016446048456237113
1589988161.3733299,-0.09000761145342515,-4.519987314244291,8.660012685755708,0.4311111111111111,0.43,-0.6877777777777778,-0.007633878155679529,-0.002180831284223343,0.002181384804736389
1589988161.3833299,-0.10740221857025473,-4.506494453574363,8.6,0.4311111111111111,0.43,-0.6877777777777778,-0.008018211272530697,-0.00014168699748819003,0.003555866342465748
1589988161.3933299,-0.09017009038619556,-4.549574774034511,8.6,0.4311111111111111,0.43,-0.6877777777777778,-0.0033188773047565755,-0.0010815537910430144,0.005435599929575397
1589988161.4033298,-0.09,-4.522259443572358,8.697091947496745,0.4311111111111111,0.43,-0.6877777777777778,0.0020230519056095133,-0.001090830782496456,0.0062106602343535485
1589988161.4133298,-0.09942883408609457,-4.528857668172189,8.711713497741718,0.4363493522700525,0.43,-0.6793965919234715,0.0002492181443203064,-6.23045360800766e-05,0.003459405955729598
1589988161.4233298,-0.10812995404651536,-4.489350229767424,8.742519816186062,0.43666666666666665,0.43,-0.6788888888888889,0.000886840413422058,0.0,0.005933013587755541
1589988161.4333298,-0.08245975509080902,-4.513850612272977,8.643689632636214,0.43666666666666665,0.43,-0.6788888888888889,0.0014933072680649835,0.0020475027364700695,0.0031383335189665257
1589988161.4433298,-0.09688703907539901,-4.477782402311502,8.665330558613098,0.43666666666666665,0.43,-0.6788888888888889,0.0038539660897963157,0.0012606164625596254,0.0023514472450560813
1589988161.4533298,-0.1,-4.497136453635464,8.679045484545155,0.43666666666666665,0.43,-0.6788888888888889,0.002389904533095717,-0.000882587814393651,0.002181661564992912
1589988161.4633298,-0.10805730082935411,-4.483885398341292,8.736401105805479,0.4268188545419006,0.42552372176147,-0.6905272123090671,0.003060576741842281,-0.0019697459593458247,0.002181661564992912
1589988161.4733298,-0.1,-4.507492740931926,8.662478222795778,0.4244444444444445,0.4244444444444445,-0.6933333333333334,-0.006955234000650998,-0.0013643303196112977,0.0029989928103745264
1589988161.4833298,-0.09790910996959849,-4.494181780060803,8.61,0.4244444444444445,0.4244444444444445,-0.6933333333333334,-0.009817477042468105,-0.0030444116266916763,0.0015469922240918393
1589988161.4933298,-0.08254700294792008,-4.531273501473961,8.6163675073698,0.4244444444444445,0.4244444444444445,-0.6933333333333334,-0.00884505481592295,-0.0009519133215614339,0.005315236451547258
1589988161.5033298,-0.09628529315427449,-4.538142646577137,8.650713232885685,0.4244444444444445,0.4244444444444445,-0.6933333333333334,-0.00359990236633661,-0.0002026058287633853,0.004565928958749209
1589988161.5133297,-0.11049310447465026,-4.528027582101399,8.691479313423951,0.43666666666666665,0.4444444444444444,-0.6711111111111111,0.002289240272979962,0.002181661564992912,0.003326281701482893
1589988161.5233297,-0.11818259514353224,-4.492726107284701,8.707278166004727,0.43666666666666665,0.4444444444444444,-0.6711111111111111,0.0038677028395624306,0.0018842893907388759,0.004065950955731788
1589988161.5333297,-0.09876739223218096,-4.52,8.582465215535638,0.43666666666666665,0.4444444444444444,-0.6711111111111111,-0.001090830782496456,-0.0009563741329083311,0.0009563741329083311
1589988161.5433297,-0.09023794025179009,-4.519643089622314,8.60095176100716,0.43666666666666665,0.4444444444444444,-0.6711111111111111,-0.0011038084100488356,-1.2977627552379482e-05,3.8932882657138445e-05
1589988161.5533297,-0.10185601706300293,-4.5022159744054955,8.647424068252011,0.43666666666666665,0.4444444444444444,-0.6711111111111111,-0.0017374762010027964,-0.0006466454185063405,0.0019399362555190217
1589988161.5633297,-0.10506395371718683,-4.494936046282813,8.689872092565626,0.43392441873177046,0.4345723518788181,-0.6749502582199658,0.0010489731724789802,-0.0005523916595844739,0.002734053224577386
1589988161.5733297,-0.09069806129630814,-4.5,8.727905816111075,0.4311111111111111,0.4244444444444445,-0.6788888888888889,-0.0017247815149435295,-0.0020293682149764513,0.002181661564992912
1589988161.5833297,-0.09915751168843134,-4.5,8.610952348050393,0.4311111111111111,0.4244444444444445,-0.6788888888888889,-0.003180591129074111,-0.002181661564992912,0.00417952069315531
1589988161.5933297,-0.09,-4.528942426219999,8.633172721340005,0.4311111111111111,0.4244444444444445,-0.6788888888888889,-0.006429621291580064,0.0,0.0013215575892937994
1589988161.6033297,-0.09,-4.521339097962439,8.655982706112683,0.4311111111111111,0.4244444444444445,-0.6788888888888889,-0.005600226840302983,0.0,0.00298034649184796
1589988161.6133296,-0.10308914603890078,-4.5330891460389005,8.686178292077802,0.4442002571500119,0.43244336702377273,-0.6927052097077285,-0.0018846430585261489,0.0007139021707912262,0.0018446880059069155
1589988161.6233296,-0.10168520402792885,-4.515055612083787,8.691685204027928,0.4511111111111111,0.43666666666666665,-0.7,0.0036280141586051036,0.001090830782496456,-0.0007231762968060958
1589988161.6333296,-0.09017226323727871,-4.51,8.601550369135508,0.4511111111111111,0.43666666666666665,-0.7,0.0032912833516809794,0.0021628705608013003,0.004269368109027767
1589988161.6433296,-0.10949697251979507,-4.470754541220307,8.651257568700514,0.4511111111111111,0.43666666666666665,-0.7,0.002126789779007995,0.002126789779007995,0.002126789779007995
1589988161.6533296,-0.09502613465817937,-4.492460798012731,8.687434663354551,0.4511111111111111,0.43666666666666665,-0.7,0.0005482662402114362,0.0005482662402114362,0.0005482662402114362
1589988161.6633296,-0.09965812870448773,-4.490341871295512,8.728974386113464,0.43179485370213566,0.41949666008091074,-0.6720987392981466,-0.0010535384092167823,-0.0010535384092167823,0.0063212304553006944
1589988161.6733296,-0.10026300059772864,-4.499736999402272,8.707895995218172,0.4311111111111111,0.4188888888888889,-0.6711111111111111,-2.8688914781735842e-05,-8.606674434520754e-05,0.002152972650211176
1589988161.6833296,-0.10941059561517918,-4.4917682131544625,8.630589404384821,0.4311111111111111,0.4188888888888889,-0.6711111111111111,-0.0012194188717566431,-0.0032081983028592743,0.0012194188717566431
1589988161.6933296,-0.10072728401962612,-4.517818147941122,8.639272715980374,0.4311111111111111,0.4188888888888889,-0.6711111111111111,-0.003113823588244185,-0.002260995944615504,0.003113823588244185
1589988161.7033296,-0.10822278329339267,-4.511777216706607,8.67289113317357,0.4311111111111111,0.4188888888888889,-0.6711111111111111,-0.0041694588609123995,-0.00038772853814684864,0.0041694588609123995
1589988161.7133296,-0.11686245307654643,-4.516862453076546,8.693724906153092,0.43492358504252576,0.43108880546941586,-0.6764485746150917,-0.002117590612185516,0.0,0.002117590612185516
1589988161.7233295,-0.10203253407284657,-4.52,8.691016267036423,0.43666666666666665,0.43666666666666665,-0.6788888888888889,0.0028290622008625838,0.0019599464916795198,0.001090830782496456
1589988161.7333295,-0.0902829906168896,-4.5005659812337795,8.592829906168896,0.43666666666666665,0.43666666666666665,-0.6788888888888889,0.0043324536423797405,0.003241622859883285,0.004270714667167574
1589988161.7433295,-0.09677586464542481,-4.493224135354575,8.650982781808823,0.43666666666666665,0.43666666666666665,-0.6788888888888889,0.004363323129985824,0.00031596365418584205,0.0021459266100081788
1589988161.7533295,-0.1,-4.497520114846593,8.695040229693186,0.43666666666666665,0.43666666666666665,-0.6788888888888889,0.0010820540249569226,-0.00027051350623923066,0.0035517826112681323
1589988161.7633295,-0.09060253757351339,-4.490602537573514,8.7,0.43666666666666665,0.43666666666666665,-0.6924630012827029,-0.0010251041292165426,0.0,0.0033382190007692812
1589988161.7733295,-0.0980761881530268,-4.481923811846974,8.683847623693946,0.43666666666666665,0.43666666666666665,-0.6933333333333334,-0.001090830782496456,0.0017619509285109645,0.00415346781174485
1589988161.7833295,-0.08203595132743363,-4.488982024336283,8.6261078539823,0.43666666666666665,0.43666666666666665,-0.6933333333333334,-0.0020706176460114556,0.0012018747014779121,0.0024037494029558243
1589988161.7933295,-0.09707515173152446,-4.4814624241342385,8.628537575865764,0.43666666666666665,0.43666666666666665,-0.6933333333333334,-0.004044271677447366,-0.0017030843861852247,0.0031129666212201387
1589988161.8033295,-0.1,-4.501496517372641,8.672993034745282,0.43666666666666665,0.43666666666666665,-0.6933333333333334,-0.005144958558870716,-0.0014000261361080193,0.002490856918604475
1589988161.8133295,-0.10989132895630518,-4.539836993434458,8.699945664478152,0.4244444444444445,0.43,-0.6711111111111111,-0.0076061800475681115,-0.002187588650974328,0.0043514689580229915
1589988161.8233294,-0.09528238797652426,-4.517923581964786,8.692641193988262,0.4244444444444445,0.43,-0.6711111111111111,-0.0036222094174633707,-0.002984382776995276,0.0027578807059810955
1589988161.8333294,-0.09006063844616885,-4.5,8.620303192230844,0.4244444444444445,0.43,-0.6711111111111111,0.002181661564992912,-0.001064372269022958,0.0021750469366245374
1589988161.8433294,-0.0998053064448678,-4.5,8.669026532224338,0.4244444444444445,0.43,-0.6711111111111111,0.002181661564992912,0.0031875412582526193,0.0011120685548056432
1589988161.8533294,-0.10832219792678976,-4.491677802073211,8.686644395853579,0.4244444444444445,0.43,-0.6711111111111111,-0.0005417713379782269,0.003272492347489368,0.001998641750153502
1589988161.8633294,-0.10050392190056995,-4.49949607809943,8.70899215619886,0.4360507621215256,0.43633071873295337,-0.67849694963289,-0.0021266922128813305,-0.0008709533740501301,0.0032175229953777867
1589988161.8733294,-0.10022797082976367,-4.510227970829764,8.67817623336189,0.43666666666666665,0.43666666666666665,-0.6788888888888889,-0.0010410952627729617,2.4867759861747154e-05,0.003272492347489368
1589988161.8833294,-0.10899220594688343,-4.5189922059468834,8.608062352424932,0.43666666666666665,0.43666666666666665,-0.6788888888888889,0.00087096422738517,0.000980897504940813,0.003272492347489368
1589988161.8933294,-0.10004371965775287,-4.5100437196577525,8.63982512136899,0.43666666666666665,0.43666666666666665,-0.6788888888888889,0.001090830782496456,4.769074847703293e-06,0.002186430639840615
1589988161.9033294,-0.1,-4.517610893524,8.693276254668003,0.43666666666666665,0.43666666666666665,-0.6788888888888889,-0.0022300479928165553,0.0,0.002181661564992912
1589988161.9133294,-0.09,-4.510078717341962,8.69996064132902,0.4244444444444445,0.4244444444444445,-0.6733333333333333,-0.0032681989825029643,-0.0021730748350201044,0.001090830782496456
1589988161.9233294,-0.09,-4.529852206227842,8.688522062278416,0.4244444444444445,0.4244444444444445,-0.6733333333333333,-0.0021494179657665846,3.224359922632726e-05,0.0011391961813359468
1589988161.9333293,-0.09,-4.520894237751484,8.598942377514843,0.4244444444444445,0.4244444444444445,-0.6733333333333333,-0.00019509241323790788,0.001986569151755004,0.004070684510128962
1589988161.9433293,-0.10996183339752792,-4.500019083301236,8.69,0.4244444444444445,0.4244444444444445,-0.6733333333333333,2.0816652419922567e-06,-0.0021774982345089274,0.006536658034010766
1589988161.9533293,-0.09527539479673658,-4.507362302601631,8.69,0.4244444444444445,0.4244444444444445,-0.6733333333333333,0.0008031026307913612,-0.0005754563034101896,0.0033325741718132915
1589988161.9633293,-0.09,-4.500343824100022,8.699656175899978,0.4308818950444301,0.4298089866110991,-0.6851353260999736,-0.0020691453913726163,0.0,7.501078241353059e-05
1589988161.9733293,-0.08305145375943036,-4.49305145375943,8.720845638721709,0.4311111111111111,0.43,-0.6855555555555556,-0.002181661564992912,0.0007579688132813384,0.0015159376265626767
1589988161.9833293,-0.08872531156621237,-4.52490124626485,8.62529626120545,0.4311111111111111,0.43,-0.6855555555555556,-0.0012298777206632295,-0.0017645207504925914,0.0012298777206632295
1589988161.9933293,-0.09679768724803735,-4.5232023127519625,8.630393061744112,0.4311111111111111,0.43,-0.6855555555555556,-0.001090830782496456,-0.0006986362650043608,0.0018323434324907315
1589988162.0033293,-0.1,-4.501352599045409,8.658647400954592,0.4311111111111111,0.43,-0.6855555555555556,-0.001090830782496456,0.0,0.0015036229324988314
1589988162.0133293,-0.1,-4.516489004755353,8.689866753566514,0.4399407793628954,0.4263209715617566,-0.6811407214296634,-0.001090830782496456,-0.0021671266338625372,0.0025355818717381472
1589988162.0233293,-0.09142585434689245,-4.53,8.691425854346893,0.4444444444444444,0.4244444444444445,-0.6788888888888889,-0.002026124983698246,-0.00046660974388399844,-0.001403978658519582
1589988162.0333292,-0.08310501016823812,-4.53,8.61415511185062,0.4444444444444444,0.4244444444444445,-0.6788888888888889,-0.0014295348496443203,0.0007521267153485917,-0.0014295348496443203
1589988162.0433292,-0.09856283447130468,-4.511437165528696,8.598562834471304,0.4444444444444444,0.4244444444444445,-0.6788888888888889,0.001946505905256363,7.838521991218312e-05,0.001946505905256363
1589988162.0533292,-0.09242887159975012,-4.51,8.683282412402749,0.4444444444444444,0.4244444444444445,-0.6788888888888889,0.003007543556715483,-0.0008258819917225709,0.002181661564992912
1589988162.0633292,-0.09866944609886838,-4.492661107802263,8.718669446098868,0.4145830189927867,0.4244444444444445,-0.6740725299450732,0.003272492347489368,0.0036376185534232625,-0.0006554080365589192
1589988162.0733292,-0.09067461304932066,-4.499325386950679,8.72,0.41,0.4244444444444445,-0.6733333333333333,0.0022552504330401895,0.0033460812155366457,-0.001090830782496456
1589988162.0833292,-0.099288758405152,-4.5,8.608534899138176,0.41,0.4244444444444445,-0.6733333333333333,0.00015516884509041368,-0.0017937394522668784,0.0029621546573085408
1589988162.0933292,-0.1,-4.516019994651636,8.672089975932364,0.41,0.4244444444444445,-0.6733333333333333,-0.0017475103301433567,0.00043960393022212307,0.0015249820173460112
1589988162.1033292,-0.08610113279062756,-4.5130505663953135,8.696949433604686,0.41,0.4244444444444445,-0.6733333333333333,-0.0014235959553022082,0.0018488963921871597,-0.0004253004368849516
1589988162.1133292,-0.11485647959343728,-4.4925717602032815,8.70871411989836,0.4458247151376994,0.4244444444444445,-0.6859203954087413,0.0017608582857521142,0.0012310985422433886,-0.001090830782496456
1589988162.1233292,-0.08329655941614335,-4.5083517202919285,8.673296559416144,0.4511111111111111,0.4244444444444445,-0.6877777777777778,-0.0018220627162471412,8.989971218644269e-05,0.0009110313581235706
1589988162.1333292,-0.08882094470889784,-4.51,8.59061149761992,0.4511111111111111,0.4244444444444445,-0.6877777777777778,-0.0002572299611599113,0.0028866474057495013,0.001090830782496456
1589988162.1433291,-0.0992353841905766,-4.500764615809423,8.598470768381153,0.4511111111111111,0.4244444444444445,-0.6877777777777778,0.0,-0.0007572041978154602,-0.0019314416264821657
1589988162.1533291,-0.1,-4.5,8.682281060499225,0.4511111111111111,0.4244444444444445,-0.6877777777777778,0.0007479559467417263,-0.0003428748357547297,-0.0014337056182511857
1589988162.1633291,-0.1,-4.510924990371763,8.725462495185882,0.4329027938248391,0.43536943481620766,-0.6786736191346417,0.0022825623620961275,-0.0005958657897998357,-0.001090830782496456
1589988162.173329,-0.09182740359513687,-4.503654807190274,8.713654807190274,0.4177777777777778,0.4444444444444444,-0.6711111111111111,0.003272492347489368,-0.001090830782496456,-0.00019933880936199872
1589988162.183329,-0.09,-4.49166824111561,8.651677687809267,0.4177777777777778,0.4444444444444444,-0.6711111111111111,0.0005459306284599339,-0.0038173925015258904,0.0
1589988162.193329,-0.09,-4.515734303957862,8.665734303957862,0.4177777777777778,0.4444444444444444,-0.6711111111111111,0.0,-0.0015561460376501651,0.0
