time,acc_x,acc_y,acc_z,mag_x,mag_y,mag_z,gyr_x,gyr_y,gyr_z
1589988243.5915918,-3.93,-0.74,8.92,0.2966666666666667,-0.3533333333333333,-0.6311111111111111,0.001090830782496456,0.0,0.002181661564992912
1589988243.6015918,-3.91,-0.74,9.010396599438549,0.2966666666666667,-0.3533333333333333,-0.6311111111111111,0.0010475684949074512,-0.00122061764526347,-0.0011340930700854607
1589988243.6115918,-3.91,-0.74,9.018747287315588,0.2966666666666667,-0.3533333333333333,-0.6311111111111111,0.00013664975577812137,-0.00395337386265146,-0.0020450118092147905
1589988243.6215918,-3.918761030974226,-0.7312389690257743,9.048761030974227,0.3111111111111111,-0.3655555555555556,-0.6377777777777778,0.00013515055518743122,-0.006612559972572451,-0.0022492368425866276
1589988243.6315918,-3.9019279420745003,-0.75,9.021324260664747,0.3111111111111111,-0.3655555555555556,-0.6377777777777778,0.0019713557088193827,-0.007425509621301662,-0.002957033563229074
1589988243.6415918,-3.92,-0.7493635412514946,8.940509166998805,0.3111111111111111,-0.3655555555555556,-0.6377777777777778,1.3885375893176789e-05,-0.005440268536589103,0.0
1589988243.6515918,-3.9190990639625585,-0.7009009360374414,8.980900936037441,0.3111111111111111,-0.3655555555555556,-0.6377777777777778,0.0010416923443613776,-0.0041667693774455105,-9.827687627015653e-05
1589988243.6615918,-3.902740639625585,-0.717259360374415,8.997259360374414,0.3111111111111111,-0.3655555555555556,-0.6377777777777778,0.00014947870336588526,-0.0005979148134635411,-0.0018827041582611414
1589988243.6715918,-3.918123118447005,-0.7290615592235026,9.027184677670506,0.30406323171505356,-0.3655555555555556,-0.6236820189856627,0.0019769255476822516,0.0009884627738411258,-0.002181661564992912
1589988243.6815917,-3.92,-0.73,8.97099907635468,0.3033333333333333,-0.3655555555555556,-0.6222222222222222,0.0031010904751077447,-0.001667455947848042,-0.0012622326548780793
1589988243.6915917,-3.913797921827936,-0.73,8.916585452795552,0.3033333333333333,-0.3655555555555556,-0.6222222222222222,0.0025959505689356816,-0.0035347451221002845,0.0009387945531646031
1589988243.7015917,-3.901702589673476,-0.7217025896734759,8.939784461959144,0.3033333333333333,-0.3655555555555556,-0.6222222222222222,0.002181661564992912,-0.0016480019502329037,0.0003714474451576319
1589988243.7115917,-3.9,-0.7260512548944091,8.986307529366455,0.3033333333333333,-0.3655555555555556,-0.6222222222222222,0.002181661564992912,-0.001750920293651839,0.0006600895111553831
1589988243.7215917,-3.9127747687999705,-0.7172252312000295,9.041936921999927,0.3083012989777663,-0.37052352119998855,-0.6278998972444313,0.0007881504603645961,-9.139490805043808e-05,-0.00030268032213185986
1589988243.7315917,-3.910198243259729,-0.7296035134805416,9.020792973038917,0.3111111111111111,-0.37333333333333335,-0.6311111111111111,0.004276823189931817,-0.006393609799884223,-0.001090830782496456
1589988243.7415917,-3.8995494420543158,-0.7190988841086313,8.900450557945685,0.3111111111111111,-0.37333333333333335,-0.6311111111111111,0.007439222486894862,-0.009620884051887775,-0.0021325133173478294
1589988243.7515917,-3.8925006722237163,-0.705001344447432,8.907499327776284,0.3111111111111111,-0.37333333333333335,-0.6311111111111111,0.004363616442914702,-0.006545278007907614,-0.0013636118063527895
1589988243.7615917,-3.90439253330497,-0.7143925333049698,8.996355199829818,0.3111111111111111,-0.37333333333333335,-0.6311111111111111,0.0017025105107727147,-0.002314190239048973,-0.001090830782496456
1589988243.7715917,-3.903198674349088,-0.72,9.023198674349088,0.3058211911604018,-0.3635091962820161,-0.6152413512589833,0.00034892124431670855,0.0018768073702225337,0.0011348978320427862
1589988243.7815917,-3.9094544948510994,-0.7010910102978012,9.048363484553299,0.3033333333333333,-0.3588888888888889,-0.6077777777777778,0.001031325401653343,0.004303817749142711,-0.0009123146399671166
1589988243.7915916,-3.918138480145132,-0.716276960290264,8.96861519854868,0.3033333333333333,-0.3588888888888889,-0.6077777777777778,-0.0006847101505127924,0.0034755526634812,-0.0002030603159918318
1589988243.8015916,-3.93,-0.7113346680013346,8.991334668001334,0.3033333333333333,-0.3588888888888889,-0.6077777777777778,-0.001939012074948099,0.007296106191412454,0.0009452410884695682
1589988243.8115916,-3.93,-0.7346596596596596,9.01465965965966,0.3033333333333333,-0.3588888888888889,-0.6077777777777778,0.0023015910754475614,0.0013592617808585302,-0.001599120801767828
1589988243.8215916,-3.890658130835437,-0.7104935981265776,9.02,0.29131220664416124,-0.36544586708298277,-0.6307272014571063,0.003272492347489368,-0.006437298288848037,-0.0011087785168515723
1589988243.8315916,-3.89,-0.7179474037815529,9.012052596218448,0.2911111111111111,-0.3655555555555556,-0.6311111111111111,0.005006346884658704,-0.006544984694978735,-0.00022390351391178814
1589988243.8415916,-3.8803617447567227,-0.710361744756723,8.891808723783615,0.2911111111111111,-0.3655555555555556,-0.6311111111111111,0.0032330321158853567,-0.006623905158186758,-0.0021027411017848895
1589988243.8515916,-3.8880714298843815,-0.7180714298843813,8.930357149421907,0.2911111111111111,-0.3655555555555556,-0.6311111111111111,0.0023920359298248662,-0.008305897530307738,-0.0004207487296639088
1589988243.8615916,-3.895132845905278,-0.7251328459052779,8.975929921336945,0.2911111111111111,-0.3655555555555556,-0.6311111111111111,-0.0006178715926511164,-0.005367206470798814,-0.0005599066315288056
1589988243.8715916,-3.9087235037967396,-0.7256382481016302,9.03617051139022,0.29644214120911855,-0.3655555555555556,-0.6272339983125602,-0.003272492347489368,0.001624685024090342,-0.001090830782496456
1589988243.8815916,-3.908988349677311,-0.7255058251613444,9.058988349677312,0.3033333333333333,-0.3655555555555556,-0.6222222222222222,-0.0020713076336817708,0.00474320762426734,0.0007109462882149396
1589988243.8915915,-3.908392023585292,-0.7551760707558759,8.96607976414708,0.3033333333333333,-0.3655555555555556,-0.6222222222222222,-0.00017540301706918285,0.0023570645820620946,0.0003508060341383657
1589988243.9015915,-3.9032807805153946,-0.7331231220615787,8.956719219484606,0.3033333333333333,-0.3655555555555556,-0.6222222222222222,-0.002198859434447238,0.004380520999440149,0.0
1589988243.9115915,-3.906435905199703,-0.72,8.97930771559911,0.3033333333333333,-0.3655555555555556,-0.6222222222222222,-0.003272492347489368,0.006156202262988752,-0.0007020483505064724
1589988243.9215915,-3.8978872062663186,-0.7078872062663185,8.996056396866841,0.308043864229765,-0.3743036843632144,-0.6188575572961996,-0.0045937931741623595,0.007866285521651728,0.00023047004417653567
1589988243.9315915,-3.8995534567747816,-0.738213827099126,8.94267925935131,0.3111111111111111,-0.38,-0.6166666666666667,-0.009622635804154667,0.014979369097480228,0.0021329512554145525
1589988243.9415915,-3.922661651077674,-0.732446116307442,8.909784465229768,0.3111111111111111,-0.38,-0.6166666666666667,-0.013937481472088207,0.016095631840874404,-0.001114341978703171
1589988243.9515915,-3.9107805596465393,-0.7396097201767304,8.938438880706922,0.3111111111111111,-0.38,-0.6166666666666667,-0.014223373096954891,0.014265946021455858,0.0009631120089935571
1589988243.9615915,-3.925428009307429,-0.74,8.978570023268572,0.3111111111111111,-0.38,-0.6166666666666667,-0.012497865425935397,0.014180800172453925,0.001090830782496456
1589988243.9715915,-3.9390806520284656,-0.7490806520284654,9.044483912170794,0.3111111111111111,-0.36688350262555,-0.6096039373111936,-0.011008593131682119,0.009228072793559444,-0.0008902601690613371
1589988243.9815915,-3.922839127846734,-0.7328391278467338,9.05,0.3111111111111111,-0.3655555555555556,-0.6088888888888889,-0.009972327445001112,0.0077906658800081996,-0.00015485040253300736
1589988243.9915915,-3.92,-0.7394042857521257,8.946552856726617,0.3111111111111111,-0.3655555555555556,-0.6088888888888889,-0.012895022358211555,0.008661663916056342,-0.0010258484385811506
1589988244.0015914,-3.92,-0.7335898843743944,8.959230346876817,0.3111111111111111,-0.3655555555555556,-0.6088888888888889,-0.010293028812448634,0.012222821981857694,-0.001090830782496456
1589988244.0115914,-3.923483477646227,-0.743933910584909,8.973483477646228,0.3111111111111111,-0.3655555555555556,-0.6088888888888889,-0.010246600118628841,0.015700754031111118,-0.0014708192471607543
1589988244.0215914,-3.918269527631985,-0.7563144489039827,8.983910157456005,0.3111111111111111,-0.3670761723440019,-0.6075855030702206,-0.01330323539582838,0.01854412330243975,-0.002181661564992912
1589988244.0315914,-3.811853510645628,-0.6781950664921106,9.007268311169296,0.3111111111111111,-0.37333333333333335,-0.6022222222222222,-0.011802250904384498,0.012994175010277755,-0.0013888118089697694
1589988244.0415914,-3.711555935656218,-0.6896110160859454,8.983851978552073,0.3111111111111111,-0.37333333333333335,-0.6022222222222222,-0.01090830782496456,0.011621384492383974,0.008892242561375361
1589988244.0515914,-3.6030638774104684,-0.7257446625344353,8.995744662534435,0.3111111111111111,-0.37333333333333335,-0.6022222222222222,-0.009223323602311847,0.010314154384808302,0.0242907055083702
1589988244.0615914,-3.4655448963929394,-0.7686137759017652,9.06963673573804,0.3111111111111111,-0.37333333333333335,-0.6022222222222222,-0.00492855151319037,0.006696198286758031,0.04802889006988544
1589988244.0715914,-3.2470176197836165,-0.7791163317877383,9.118564039155073,0.3233333333333333,-0.37333333333333335,-0.6233333333333333,-0.0010667324703102386,0.004351273973892715,0.08867057144063376
1589988244.0815914,-3.013640803709428,-0.7099676455435342,9.006197424008244,0.3233333333333333,-0.37333333333333335,-0.6233333333333333,0.0008190054177989361,0.003408405029838128,0.11318516398605302
1589988244.0915914,-2.9187751571560843,-0.5513110959504898,8.885043126553287,0.3233333333333333,-0.37333333333333335,-0.6233333333333333,-0.0008173390240078704,0.006134747057245857,0.14343327101818135
1589988244.1015913,-2.8481037640638434,-0.4543490449669196,8.91126415729077,0.3233333333333333,-0.37333333333333335,-0.6233333333333333,-0.015344698228236878,0.008795595344306172,0.16151602308276197
1589988244.1115913,-2.2443530623758248,-0.7604363609605338,8.793825455615787,0.3233333333333333,-0.37333333333333335,-0.6233333333333333,-0.027218193279264755,0.005766293820466378,0.16866313770812116
1589988244.1215913,-1.6143319415448851,-0.8872995824634655,8.443520876826723,0.30495546276965896,-0.37333333333333335,-0.6172073764787752,0.06267597130339946,0.04737621558819055,0.09690904234762146
1589988244.1315913,-1.7057549880676008,-0.8542766693183109,8.5357549880676,0.3033333333333333,-0.37333333333333335,-0.6166666666666667,0.07090400086226964,0.05126904677733343,0.09053895494720583
1589988244.1415913,-1.8905535815804435,-0.8612741614553724,8.841107163160887,0.3033333333333333,-0.37333333333333335,-0.6166666666666667,-0.0018097310579990311,-0.007520779030543358,0.05263498830791685
1589988244.1515913,-2.0805546071532666,-0.8348613482116833,9.073526876795604,0.3033333333333333,-0.37333333333333335,-0.6166666666666667,-0.005569473034635692,-0.009402505337247683,0.025589149697043533
1589988244.1615913,-2.161585955786736,-0.7840234070221066,9.07963276983095,0.3033333333333333,-0.37333333333333335,-0.6166666666666667,0.018797241436157134,0.009418650016711662,-0.00046617767016857853
1589988244.1715913,-2.2207269027269025,-0.7784544837878171,9.161453805453805,0.32024230090896755,-0.37333333333333335,-0.6166666666666667,0.008320178232946174,0.002023075990915689,-0.03823836199074973
1589988244.1815913,-2.246345516448333,-0.7963455164483326,9.2045182746725,0.3233333333333333,-0.37333333333333335,-0.6166666666666667,0.0018881154129536072,0.0026745288746465048,-0.08018512592002713
1589988244.1915913,-2.2758312977099235,-0.7913895674300255,9.00334961832061,0.3233333333333333,-0.37333333333333335,-0.6166666666666667,0.015179618129403926,0.01736127969439684,-0.12029187803520322
1589988244.2015913,-2.2457542476297756,-0.7968491504740449,8.880961043837416,0.3233333333333333,-0.37333333333333335,-0.6166666666666667,0.012970534017320293,0.023370586170455374,-0.1553305966712458
1589988244.2115912,-2.23,-0.7942677481089948,8.799874236762964,0.3233333333333333,-0.37333333333333335,-0.6166666666666667,0.002779515964512978,0.020712066226406096,-0.1972168969577446
1589988244.2215912,-2.238255735372577,-0.798255735372577,8.827790147608038,0.30682186258817945,-0.36140838223961114,-0.6047417155729444,-0.0005708092645238436,0.017453292519943295,-0.2559897196608085
1589988244.2315912,-2.264302742662176,-0.8081009142207253,8.85620182844145,0.3033333333333333,-0.3588888888888889,-0.6022222222222222,0.005302035958998236,0.02275532847894153,-0.30197897373696303
1589988244.2415912,-2.300176696078209,-0.8175441740195523,8.829823303921792,0.3033333333333333,-0.3588888888888889,-0.6022222222222222,0.00901380986969002,0.022352393765114508,-0.3503879758068705
1589988244.2515912,-2.345858942839582,-0.8259764904732636,8.885741395205901,0.3033333333333333,-0.3588888888888889,-0.6022222222222222,0.011773278976327952,0.02442435156174225,-0.3951914154910307
1589988244.2615912,-2.3657736980896593,-0.851131509551704,9.010299736296474,0.3033333333333333,-0.3588888888888889,-0.6022222222222222,0.017700149609880794,0.02940706493386127,-0.4383652059472858
1589988244.2715912,-2.3354437294569697,-0.8861390676357576,9.126139067635759,0.31970418036202025,-0.3677564310294277,-0.606314933979394,0.025337614005504456,0.031806749071516496,-0.5027891622461227
1589988244.2815912,-2.325497962990232,-0.89,9.140995925980464,0.33,-0.37333333333333335,-0.6088888888888889,0.02438073459868349,0.03534113972651798,-0.5582747510971158
1589988244.2915912,-2.3184050632911393,-0.8957974683544304,9.022455696202531,0.33,-0.37333333333333335,-0.6088888888888889,0.02543706920905027,0.0443291537231218,-0.6224556604616548
1589988244.3015912,-2.31,-0.9,8.935285023668042,0.33,-0.37333333333333335,-0.6088888888888889,0.02208220970942002,0.04972607438084119,-0.6836347146053338
1589988244.3115911,-2.33041315494784,-0.9,8.923669476041727,0.33,-0.37333333333333335,-0.6088888888888889,0.015671908697145406,0.05616785229002763,-0.7429963036999448
1589988244.3215911,-2.3642925019142793,-0.9085850038285591,8.878537490428602,0.33620028054284823,-0.36999472073333817,-0.6084119442317467,0.014494687356563797,0.06467290335140077,-0.8128699312692804
1589988244.3315911,-2.3937746093894288,-0.9342647656336571,8.830980312488457,0.34444444444444444,-0.3655555555555556,-0.6077777777777778,0.017399824767999558,0.06394727015590201,-0.8840436273249226
1589988244.3415911,-2.443990833621584,-0.95,8.851983958837772,0.34444444444444444,-0.3655555555555556,-0.6077777777777778,0.02116111728365725,0.061086523819801536,-0.9605703386405757
1589988244.351591,-2.4806263617756454,-0.9654697713317341,8.910939542663469,0.34444444444444444,-0.3655555555555556,-0.6077777777777778,0.029094910780265697,0.06671149140874709,-1.0232016507285442
1589988244.361591,-2.504911796590125,-1.0340297624913768,8.994029762491376,0.34444444444444444,-0.3655555555555556,-0.6077777777777778,0.03919293617418231,0.07360221332012698,-1.0896984556380707
1589988244.371591,-2.503521285336092,-1.0835212853360923,9.069436143991723,0.35236287347810946,-0.3576371265218905,-0.6178557783660786,0.045046667577138585,0.07809419654681617,-1.1680789487056806
1589988244.381591,-2.511697800716404,-1.1033956014328083,9.08,0.3566666666666667,-0.3533333333333333,-0.6233333333333333,0.04836695708664369,0.08537279162127451,-1.2299209925400663
1589988244.391591,-2.536389067524116,-1.1254630225080386,9.019906752411575,0.3566666666666667,-0.3533333333333333,-0.6233333333333333,0.049582292683113025,0.09063997078815729,-1.2912006135159062
1589988244.401591,-2.5548149930694595,-1.1588899584167565,8.965185006930541,0.3566666666666667,-0.3533333333333333,-0.6233333333333333,0.04436027682043443,0.09215501999546964,-1.3503688342352176
1589988244.411591,-2.5659156206278206,-1.1870421896860897,8.95112656905827,0.3566666666666667,-0.3533333333333333,-0.6233333333333333,0.03765667290027305,0.09530179294355774,-1.400919020171099
1589988244.421591,-2.577725406831843,-1.1890983726726285,8.918627034159215,0.361215853002981,-0.348784146997019,-0.6251024613530111,0.03381575425739013,0.1014472627721704,-1.4565675849684139
1589988244.431591,-2.549812492743527,-1.2321125043538836,8.867887495646116,0.37666666666666665,-0.3333333333333333,-0.6311111111111111,0.03381575425739013,0.10012599351193653,-1.5249759880083402
1589988244.441591,-2.531512205213074,-1.292211419114605,8.838487794786927,0.37666666666666665,-0.3333333333333333,-0.6311111111111111,0.03716451900961343,0.1006863439888485,-1.5793083722948031
1589988244.451591,-2.5589839871598667,-1.3779679743197342,8.851443955059535,0.37666666666666665,-0.3333333333333333,-0.6311111111111111,0.048422406363483356,0.10716975755554375,-1.6323379165040104
1589988244.461591,-2.577191206248192,-1.4179780156204802,8.90797801562048,0.37666666666666665,-0.3333333333333333,-0.6311111111111111,0.05877012556284275,0.11291944523072511,-1.6742296147174958
1589988244.471591,-2.59844459606405,-1.496445278352274,8.978000682288224,0.39027184921430247,-0.33051846797865003,-0.6428397167556247,0.0648195974339116,0.11965204957610004,-1.7252340887732713
1589988244.481591,-2.6003494230456687,-1.56,9.010698846091337,0.4088888888888889,-0.32666666666666666,-0.6588888888888889,0.06544984694978735,0.12322576228066659,-1.77244028833148
1589988244.491591,-2.59,-1.6150246687341414,8.916633775021145,0.4088888888888889,-0.32666666666666666,-0.6588888888888889,0.06544984694978735,0.12835621603472075,-1.818668683014964
1589988244.501591,-2.596564502790986,-1.6696935083729583,8.896258011163944,0.4088888888888889,-0.32666666666666666,-0.6588888888888889,0.059005161405214925,0.12875146538471724,-1.860556118337329
1589988244.511591,-2.611421224685058,-1.7142636740551747,8.921421224685059,0.4088888888888889,-0.32666666666666666,-0.6588888888888889,0.055009438734305756,0.12949599507112583,-1.89522694421137
1589988244.521591,-2.62,-1.7770011171834899,8.899165735680425,0.44177877082976874,-0.2978880199683968,-0.6677965652478772,0.052523441244297336,0.13560858895413413,-1.9299711111520288
1589988244.531591,-2.6261979232888324,-1.8185937698664971,8.886197923288833,0.4622222222222222,-0.28,-0.6733333333333333,0.04856469257292942,0.13177462386603989,-1.959933183723419
1589988244.541591,-2.5667945645590287,-1.8679232612645826,8.84575619519132,0.4622222222222222,-0.28,-0.6733333333333333,0.0503530453773528,0.12831666589808638,-1.9883678326211218
1589988244.551591,-2.550297276377534,-1.9238287939625562,8.82,0.4622222222222222,-0.28,-0.6733333333333333,0.060478205313428936,0.1353603004966174,-2.013162589449142
1589988244.561591,-2.53895713654441,-1.9768250110472823,8.86208572691118,0.4622222222222222,-0.28,-0.6733333333333333,0.06837600172890565,0.13853550937704992,-2.0345649861892037
1589988244.571591,-2.508710022064801,-2.021289977935199,8.9075266519568,0.4793662627904876,-0.26536484341733446,-0.6812781326210661,0.07486843792003098,0.14099860047013413,-2.0552891672072815
1589988244.581591,-2.481277046685035,-2.0690765110498837,8.905461744475058,0.5077777777777778,-0.2411111111111111,-0.6944444444444444,0.07804476945720072,0.14825224940210976,-2.074875849806451
1589988244.591591,-2.463642879954579,-2.1527500798410277,8.86453568006813,0.5077777777777778,-0.2411111111111111,-0.6944444444444444,0.07358042837104985,0.15479667221957485,-2.0958911287553796
1589988244.6015909,-2.48,-2.2390638651325907,8.869063865132592,0.5077777777777778,-0.2411111111111111,-0.6944444444444444,0.06836770016267318,0.14754159167731715,-2.133154428198098
1589988244.6115909,-2.434103353312814,-2.3058966466871857,8.918685404179492,0.5077777777777778,-0.2411111111111111,-0.6944444444444444,0.06278576710580282,0.14867459860551244,-2.1608445977694495
1589988244.6215909,-2.381962008922147,-2.388101309540941,8.891898690459058,0.5164627364448922,-0.20570320269902947,-0.7084739930605523,0.05737217358102262,0.1492228882563697,-2.1899877951987765
1589988244.6315908,-2.37,-2.4063247322297956,8.866837633885101,0.5222222222222223,-0.18222222222222226,-0.7177777777777777,0.05414062960305717,0.15059059687591111,-2.2199432728811237
1589988244.6415908,-2.3392340389356456,-2.436919153277225,8.783855309019808,0.5222222222222223,-0.18222222222222226,-0.7177777777777777,0.05613554493289315,0.15565273365285762,-2.2413202624454516
1589988244.6515908,-2.2862431864838717,-2.4825045423440857,8.735626135586022,0.5222222222222223,-0.18222222222222226,-0.7177777777777777,0.0608826124141776,0.15939789583873226,-2.262181113463527
1589988244.6615908,-2.269614310358991,-2.5384572414359647,8.821721638051425,0.5222222222222223,-0.18222222222222226,-0.7177777777777777,0.06484132323860377,0.1655959178730101,-2.2800662092091644
1589988244.6715908,-2.264556860321384,-2.58,8.868818294190358,0.5222222222222223,-0.14561626150254087,-0.725213363548963,0.0715944333742317,0.17182196125660448,-2.295862850938156
1589988244.6815908,-2.25,-2.6313133387108603,8.874899171372002,0.5222222222222223,-0.1111111111111111,-0.7322222222222222,0.07355944630382824,0.1786483576940183,-2.307641521674135
1589988244.6915908,-2.2010446957458267,-2.7150747172859453,8.832686456650512,0.5222222222222223,-0.1111111111111111,-0.7322222222222222,0.07065978282359278,0.1761610209816283,-2.31705484143336
1589988244.7015908,-2.165506207952743,-2.7769627522835423,8.816962752283542,0.5222222222222223,-0.1111111111111111,-0.7322222222222222,0.06785238340165889,0.1733316569734972,-2.321778101821987
1589988244.7115908,-2.153263918767748,-2.836944324929008,8.843263918767748,0.5222222222222223,-0.1111111111111111,-0.7322222222222222,0.062143280807095656,0.17306334024712552,-2.322746132173032
1589988244.7215908,-2.1285142996623407,-2.9129714006753185,8.82617143322078,0.5324317336334748,-0.09834922184704536,-0.7483872819567056,0.05521473805775763,0.171422497618132,-2.3230519348678897
1589988244.7315907,-2.1009188385379978,-2.9522702903655005,8.82,0.5488888888888889,-0.07777777777777778,-0.7744444444444445,0.05330328781687625,0.17468034572488303,-2.320149883580651
1589988244.7415907,-2.06507355318461,-2.956058842547688,8.805220659553832,0.5488888888888889,-0.07777777777777778,-0.7744444444444445,0.04897990681564934,0.1783588563459629,-2.31105656133881
1589988244.7515907,-2.02,-2.9367536899581945,8.693455165941472,0.5488888888888889,-0.07777777777777778,-0.7744444444444445,0.04836206324438007,0.17563514730415256,-2.28961394283228
1589988244.7615907,-2.012375216249119,-2.9709530979688603,8.74190619593772,0.5488888888888889,-0.07777777777777778,-0.7744444444444445,0.04908738521234052,0.17977914539128173,-2.2714711094162414
1589988244.7715907,-1.9310178934259683,-3.024910532870158,8.764491053287015,0.5633600605914953,-0.07777777777777778,-0.7704523970782082,0.04712779354381703,0.18074480504970755,-2.2281621862470216
1589988244.7815907,-1.945582744650964,-3.0953496467905786,8.785349646790579,0.5811111111111111,-0.07777777777777778,-0.7655555555555555,0.04360780426771397,0.18602478896386215,-2.1905140806137515
1589988244.7915907,-1.941094714247384,-3.1292701905017437,8.767883015830426,0.5811111111111111,-0.07777777777777778,-0.7655555555555555,0.04184171661789934,0.18657186874019677,-2.158220556844229
1589988244.8015907,-1.8741654794520548,-3.17,8.717503561643834,0.5811111111111111,-0.07777777777777778,-0.7655555555555555,0.03829228470255669,0.18228194799208888,-2.121391998714763
1589988244.8115907,-1.8362505302708927,-3.1962462881037514,8.812501060541786,0.5811111111111111,-0.07777777777777778,-0.7655555555555555,0.02577093508006005,0.1673065761704629,-2.0690359475048914
1589988244.8215907,-1.837513061294178,-3.266295714529623,8.803756530647089,0.591545918464136,-0.06525600895414793,-0.7818338550262743,0.0234500122913241,0.156387177694118,-2.0192320750098176
1589988244.8315907,-1.8111218836565097,-3.3266620498614956,8.77667590027701,0.6088888888888889,-0.04444444444444445,-0.8088888888888889,0.02254333255627371,0.14132453101761563,-1.9588979042399688
1589988244.8415906,-1.7750358221838585,-3.3548925334484245,8.705322399654726,0.6088888888888889,-0.04444444444444445,-0.8088888888888889,0.024539785012085355,0.13311261621724685,-1.904809371507567
1589988244.8515906,-1.7154460162720808,-3.306353685650761,8.68727699186396,0.6088888888888889,-0.04444444444444445,-0.8088888888888889,0.02806456623532973,0.12425484497771491,-1.8447886116561176
1589988244.8615906,-1.6619230691324514,-3.253846138264903,8.73987178188742,0.6088888888888889,-0.04444444444444445,-0.8088888888888889,0.034235302858699516,0.12150176545841598,-1.7823755614154464
1589988244.8715906,-1.6593974377023792,-3.2831324792341263,8.77,0.5833264504825817,-0.06313936208487807,-0.7867602108655185,0.03555712131957898,0.12319814907183788,-1.719241150016883
1589988244.8815906,-1.5972295991979069,-3.27,8.797324480962512,0.5344444444444445,-0.09888888888888887,-0.7444444444444445,0.029052942662418448,0.11790700912712547,-1.64391717386995
1589988244.8915906,-1.5747944337484465,-3.32273877123291,8.772466795018644,0.5344444444444445,-0.09888888888888887,-0.7444444444444445,0.03093171070462302,0.11358094417665367,-1.5695267968063964
1589988244.9015906,-1.5645184728323005,-3.38928891630062,8.70071108369938,0.5344444444444445,-0.09888888888888887,-0.7444444444444445,0.03524433956777823,0.10612085469744238,-1.509649941510889
1589988244.9115906,-1.5329709970515675,-3.40821740176906,8.68178259823094,0.5344444444444445,-0.09888888888888887,-0.7444444444444445,0.03593259872161191,0.09786174485143802,-1.462848319050198
1589988244.9215906,-1.5264736535362886,-3.49,8.831105968665364,0.5258244864220386,-0.06362542425177414,-0.706046449617364,0.016304982670194035,0.07206367937593877,-1.3570793941526438
1589988244.9315906,-1.4937285818446955,-3.4794914327378783,8.927457163689391,0.51,0.0011111111111111113,-0.6355555555555555,0.011352116484558453,0.06561627519713506,-1.2664726328278582
1589988244.9415905,-1.4797239171981855,-3.499171751594557,8.768174952220868,0.51,0.0011111111111111113,-0.6355555555555555,0.02440817077773858,0.06978305411789948,-1.1900294956248427
1589988244.9515905,-1.4945178143988216,-3.593249401583502,8.952693564721047,0.51,0.0011111111111111113,-0.6355555555555555,0.02748116272106819,0.06843991535434948,-1.1179129263069592
1589988244.9615905,-1.2559347275031685,-3.3290264575411914,9.047221166032953,0.51,0.0011111111111111113,-0.6355555555555555,0.05562770380606332,0.10499341331739157,-1.0371064159563979
1589988244.9715905,-0.9999681491998925,-2.962406078514141,8.60040101308569,0.5091838179174608,0.03906357794918369,-0.6143348214095364,0.10937262414636181,0.1327550145926868,-0.9492484482475849
1589988244.9815905,-1.31,-3.38,8.67,0.5077777777777778,0.10444444444444444,-0.5777777777777777,0.10799224746714917,0.05890486225480863,-0.9195703496445125
1589988244.9915905,-1.319479368149581,-3.38,9.883359123146356,0.5077777777777778,0.10444444444444444,-0.5777777777777777,-0.1732662674049287,-0.07448612457790477,-0.9154341950140407
1589988245.0015905,-1.29,-3.3053804419743282,8.605940187905254,0.5077777777777778,0.10444444444444444,-0.5777777777777777,0.0490927260538057,0.05228221883798483,-0.7694844766901432
1589988245.0115905,-1.2921447274458462,-3.3928683646750772,8.456565103546774,0.5077777777777778,0.10444444444444444,-0.5777777777777777,0.0774261354956298,0.07275849109045093,-0.6876827311432591
1589988245.0215905,-1.3,-3.4590616103202847,9.03,0.5150393436140768,0.11745474990114671,-0.5877624308026888,-0.014088482309300033,0.007932858210351173,-0.6320205619483065
1589988245.0315905,-1.2968855281369207,-3.494427640684603,8.911650069202985,0.5344444444444445,0.15222222222222226,-0.6144444444444445,0.011068049374924716,0.015181633640957159,-0.5470094557840106
1589988245.0415905,-1.307968476357268,-3.4914448336252186,8.654492119089317,0.5344444444444445,0.15222222222222226,-0.6144444444444445,0.033990554636721876,0.01965214756487048,-0.4506286915639278
1589988245.0515904,-1.3223002529385508,-3.518450379407826,8.690798988245797,0.5344444444444445,0.15222222222222226,-0.6144444444444445,0.023660202446295322,0.0063759473106653804,-0.3752141403166195
1589988245.0615904,-1.3133215780499148,-3.5166078902495737,8.756607890249574,0.5344444444444445,0.15222222222222226,-0.6144444444444445,0.02325823366824776,0.005450307004979289,-0.29389967495245856
1589988245.0715904,-1.3133679262018805,-3.54778930873396,8.78778930873396,0.5344444444444445,0.16376694327820818,-0.6129706502670845,0.02740832480123073,0.005947772418960556,-0.2184978694257289
1589988245.0815904,-1.2869167819727219,-3.515334255781775,8.733751729590828,0.5344444444444445,0.20444444444444448,-0.6077777777777778,0.018044096304098322,-0.0006726538266605938,-0.13395492570220474
1589988245.0915904,-1.2871969559702845,-3.488787823881138,8.673181735821707,0.5344444444444445,0.20444444444444448,-0.6077777777777778,0.018872617732682388,-0.003751793787524502,-0.06706958934198856
1589988245.1015904,-1.304921381337252,-3.599895175116336,8.802146216017633,0.5344444444444445,0.20444444444444448,-0.6077777777777778,0.007921387121709936,-0.009537622708726972,0.005260059236145347
1589988245.1115904,-1.2729437011266278,-3.558491001609468,8.642529303701776,0.5344444444444445,0.20444444444444448,-0.6077777777777778,0.01244775342927846,-0.007471209287962225,0.05986008179714071
1589988245.1215904,-1.3206751637918421,-3.6266788054169172,8.79936125245891,0.5344444444444445,0.20444444444444448,-0.6077777777777778,0.0020343636755192317,-0.014909344826361672,0.09556313238145807
1589988245.1315904,-1.307378823835376,-3.681068235753064,8.791360001300347,0.5488888888888889,0.22333333333333333,-0.6222222222222222,0.005136401263785569,-0.02084231131167321,0.15789531778917346
1589988245.1415904,-1.3346490686258574,-3.721973602938786,8.907258541659894,0.5488888888888889,0.22333333333333333,-0.6222222222222222,-6.936266735681727e-05,-0.025304394681223825,0.1891299013760278
1589988245.1515903,-1.2712997072076748,-3.54,8.602095022530474,0.5488888888888889,0.22333333333333333,-0.6222222222222222,0.006883557440498069,-0.02741254562544783,0.25195862496137833
1589988245.1615903,-1.2799604858773599,-3.5401580564905606,8.75,0.5488888888888889,0.22333333333333333,-0.6222222222222222,-0.005442659720130495,-0.02837596808534758,0.2956884175327822
1589988245.1715903,-1.2483317695227534,-3.6283036209323156,8.743327078091014,0.5514839140757168,0.2251869227524962,-0.6244465295252176,0.0034544680631772976,-0.03890595673849656,0.36162012775807084
1589988245.1815903,-1.2420424563524517,-3.478169825409807,8.726339650819614,0.5644444444444444,0.2344444444444445,-0.6355555555555555,0.001912551442710068,-0.03753384145711146,0.41888340350599823
1589988245.1915903,-1.26,-3.5582744262132553,8.790013879938531,0.5644444444444444,0.2344444444444445,-0.6355555555555555,-0.016024554556570404,-0.04145156973486533,0.4831223727861293
1589988245.2015903,-1.26,-3.579066078421653,8.58902790859069,0.5644444444444444,0.2344444444444445,-0.6355555555555555,-0.006952484857418296,-0.04145156973486533,0.5239466864323137
1589988245.2115903,-1.319958854755154,-3.6223868505766728,8.827325132709403,0.5644444444444444,0.2344444444444445,-0.6355555555555555,-0.016353485237520525,-0.04472855033231785,0.5825574968526653
1589988245.2215903,-1.3069390990766936,-3.5569390990766934,8.740230360307146,0.5851477877604032,0.2375028928888475,-0.6402608608546371,-0.011665246112529563,-0.04915141009863247,0.6284717089019526
1589988245.2315903,-1.37,-3.589863735465116,8.841028570130815,0.6622222222222223,0.2488888888888889,-0.6577777777777778,-0.019776881990843778,-0.053861627905127676,0.6686116625390267
1589988245.2415903,-1.3781218255153869,-3.523756348969226,8.754585449656409,0.6622222222222223,0.2488888888888889,-0.6577777777777778,-0.022702569378154038,-0.05631344658127264,0.7038091865876284
1589988245.2515903,-1.3927273184976336,-3.4712727821971603,8.739272731849763,0.6622222222222223,0.2488888888888889,-0.6577777777777778,-0.025009775348877748,-0.061324521765423745,0.7335539343230106
1589988245.2615902,-1.3135347111817701,-3.371278925984808,8.736767355590885,0.6622222222222223,0.2488888888888889,-0.6577777777777778,-0.024490413201231152,-0.0643590161672909,0.7721280267611325
1589988245.2715902,-1.42,-3.4559285240033484,8.786946393002511,0.6800914779853032,0.25177285105318364,-0.6639980883282174,-0.028306084203066066,-0.0643590161672909,0.8071427308723722
1589988245.2815902,-1.4272187360642161,-3.3843312416385296,8.745881219341276,1.0133333333333334,0.3055555555555556,-0.78,-0.028215699903559106,-0.06467399294767347,0.8530991996052837
1589988245.2915902,-1.4606192266038096,-3.404371535962286,8.81936229852838,1.0133333333333334,0.3055555555555556,-0.78,-0.032587813891287544,-0.06613136427691628,0.8837039975193828
1589988245.3015902,-1.43313676476158,-3.430784191190395,8.717841911903951,1.0133333333333334,0.3055555555555556,-0.78,-0.030885429865838945,-0.06696838767720653,0.9369805303240764
1589988245.3115902,-1.4649081543763967,-3.438727038594099,8.797270385940992,1.0133333333333334,0.3055555555555556,-0.78,-0.03435115084529195,-0.07130053890152277,0.9586412864456578
1589988245.3215902,-1.4800912803266875,-3.4334550404355832,8.785886580190567,1.0376271563420254,0.24584881362265462,-0.8269057659629363,-0.03235799416772196,-0.07317739475405548,0.9954897570633369
1589988245.3315902,-1.5808431419649291,-3.567790855953239,8.844658499479541,1.2801779343600146,-0.35026636773694186,-1.2952153450592074,-0.02869455309876136,-0.07409325502129563,1.0128911021408997
1589988245.3415902,-1.6021059061773026,-3.514211812354605,8.765788187645395,1.3022222222222222,-0.4044444444444445,-1.3377777777777775,-0.0270410508340863,-0.07595648017723076,1.0303192218515627
1589988245.3515902,-1.6091255376479057,-3.528251075295811,8.75174892470419,1.3022222222222222,-0.4044444444444445,-1.3377777777777775,-0.026275327825094837,-0.07825364920420513,1.03950789795946
1589988245.3615901,-1.57204469953623,-3.40773180278262,8.74840229582607,1.3022222222222222,-0.4044444444444445,-1.3377777777777775,-0.025733854540899763,-0.08178792887219272,1.0463297625336088
1589988245.3715901,-1.5789425385652733,-3.3663447686083607,8.810482847087458,1.3022222222222222,-0.4044444444444445,-1.3377777777777775,-0.02422897951178261,-0.07802574129939982,1.0470822000481674
1589988245.3815901,-1.571843444227006,-3.351060665362035,8.82631311154599,0.67,-0.03555555555555556,-0.7422222222222222,-0.02706968099154806,-0.07922846998051461,1.0399336001463455
1589988245.39159,-1.581432976157768,-3.399283511921116,8.799252678816742,0.67,-0.03555555555555556,-0.7422222222222222,-0.02617993877991494,-0.07744898555724837,1.0305972559136922
1589988245.40159,-1.5946351901383882,-3.3980472147924177,8.69218885916967,0.67,-0.03555555555555556,-0.7422222222222222,-0.02705775374080795,-0.07744898555724837,1.0043110423433133
1589988245.41159,-1.5843317673963657,-3.421443922465455,8.784331767396365,0.67,-0.03555555555555556,-0.7422222222222222,-0.028664893590975935,-0.07650394051353432,0.9751558324778186
1589988245.42159,-1.6016666896276193,-3.427222229875873,8.80166668962762,0.67,-0.03555555555555556,-0.7422222222222222,-0.02551331579397035,-0.07272204715712761,0.9575069968145873
1589988245.43159,-1.618674526047475,-3.4386745260474747,8.836023578142425,0.6131336625776646,0.09552617138406527,-0.7113794629423115,-0.024944521218537324,-0.07279648886950023,0.9064418006092284
1589988245.44159,-1.627944580637383,-3.43,8.817667483824298,0.6044444444444445,0.11555555555555555,-0.7066666666666667,-0.02072578486743266,-0.06349239685596264,0.8163848725918542
1589988245.45159,-1.6185684110314462,-3.4278526165471694,8.767852616547168,0.6044444444444445,0.11555555555555555,-0.7066666666666667,-0.020647703801693618,-0.06350012444416142,0.7481399298339898
1589988245.46159,-1.6063356676371077,-3.4,8.750559446061846,0.6044444444444445,0.11555555555555555,-0.7066666666666667,-0.01894383995631386,-0.052129506183622436,0.6400796589579743
1589988245.47159,-1.6285933176865686,-3.3982416471082106,8.785428282481346,0.6046007424792702,0.11547740653814269,-0.7077607529104466,-0.016247377809795516,-0.05073198844829392,0.5578649994455298
1589988245.48159,-1.5965800370179557,-3.3582250462724446,8.681385120308356,0.6081577736646716,0.11369889094544197,-0.7326599712082568,-0.013628297409643884,-0.0385096132475863,0.4688162658403743
1589988245.49159,-1.6576238383345248,-3.4371284849964256,8.818811919167263,0.6088888888888889,0.11333333333333333,-0.7377777777777778,0.001900932355541834,-0.020099317475772795,0.3141921882764291
1589988245.50159,-1.642997576412742,-3.481007270761774,8.811498788206372,0.6088888888888889,0.11333333333333333,-0.7377777777777778,-0.01325610554473763,-0.02967218351805457,0.21367709483247058
1589988245.51159,-1.6324607734435372,-3.369843093774149,8.731073480495919,0.6088888888888889,0.11333333333333333,-0.7377777777777778,0.00625944013877036,-0.008341118960939958,0.05874184053923747
1589988245.52159,-1.6465531028458151,-3.426212411383261,8.794488962806168,0.6088888888888889,0.11333333333333333,-0.7377777777777778,0.010871144151495777,0.00011367172905663893,-0.029649153037999698
1589988245.53159,-1.6948530416951468,-3.5017156527682842,8.857990430622008,0.57,0.03333333333333333,-0.73,0.012747733348148944,0.01041098442651949,-0.20481373158271804
1589988245.54159,-6.601796598791676,-6.831733049899306,5.840400984560305,0.57,0.03333333333333333,-0.73,0.017499229945153818,0.019965083562073476,-0.3508200400575294
1589988245.55159,-15.190004422821762,-13.431501302275297,-1.875826821956853,0.57,0.03333333333333333,-0.73,-0.19673148440065638,0.6401272068078407,-0.6730490255338089
1589988245.56159,3.8871567840540453,-2.6874805190461855,0.2240644125614527,0.57,0.03333333333333333,-0.73,-0.8934610388835571,1.9618349569011877,-2.12131577805894
1589988245.57159,2.800041804621919,-0.07139092338048858,-1.206719173271797,0.57,0.03333333333333333,-0.73,-0.5598905234749001,-1.6814283329520778,-4.885513650011868
1589988245.58159,1.4376356218088986,-0.4481213530269876,-0.15161355762217377,0.5283941162168734,0.11481152240862308,-0.6459214431882648,-0.4431967247327371,-0.8566797729188576,-5.638386136416623
1589988245.59159,-0.4901186834699621,-0.96025531220686,0.06,0.5166666666666667,0.13777777777777778,-0.6222222222222222,-0.3124420265901234,-0.7212321413952729,-5.506465163342601
1589988245.60159,-0.07956686651168482,-0.7977452179942086,0.06,0.5166666666666667,0.13777777777777778,-0.6222222222222222,-0.19954838132033026,-0.5253010215055496,-5.281610878135822
1589988245.61159,-0.10186902633039403,-0.6225238946784238,-0.04383363137448357,0.5166666666666667,0.13777777777777778,-0.6222222222222222,-0.17527700672597765,-0.39030466205486114,-4.975099266035263
1589988245.62159,-0.19681145353069646,-0.5402280999757341,-0.047484833778209154,0.5151233519372321,0.1457515705465232,-0.6238298417320499,-0.13250219075888886,-0.25441239079669165,-4.744658618990402
1589988245.63159,-1.4031555019484134,0.7176809241046577,-0.1866338838374466,0.49,0.27555555555555555,-0.65,0.8384570916359478,0.8254570464573701,-4.54373640026726
1589988245.6415899,1.1964190001092379,6.218708079962131,21.740317153989004,0.49,0.27555555555555555,-0.65,2.581946454669742,3.3226669291027977,-4.3062689424078116
1589988245.6515899,0.04334158686232392,1.026041583221061,4.100523613589193,0.49,0.27555555555555555,-0.65,0.1629484238325678,2.946989204616721,-3.594896931961893
1589988245.6615899,-0.24775874543853027,-1.1567270668176672,8.363087013967535,0.49,0.27555555555555555,-0.65,-0.6493949716301547,-0.5631135785045273,-2.6818505279438503
1589988245.6715899,2.450537309676607,-1.6317327293318233,17.348610796526994,0.49,0.27555555555555555,-0.65,-0.031212282827717375,0.09249111241400654,-2.504096017892393
1589988245.6815898,-0.5751156752567332,0.8319472970354582,-1.4918833559387716,0.4533333333333333,0.3233333333333333,-0.6255555555555555,1.5239471631780463,0.4825842145295621,-2.158010637382321
1589988245.6915898,0.6601751598527418,0.05989052509203652,1.758881999612478,0.4533333333333333,0.3233333333333333,-0.6255555555555555,0.8049885838559803,-0.04577498803018043,-1.8973770710189584
1589988245.7015898,0.4842956471231379,-2.6214845565122316,11.214599050157169,0.4533333333333333,0.3233333333333333,-0.6255555555555555,-0.8600418600127692,-0.1463898040825897,-1.4329085773946058
1589988245.7115898,0.40547697143638106,-2.1772338390050567,8.728228098947657,0.4533333333333333,0.3233333333333333,-0.6255555555555555,-0.8623867101311706,0.3507184210185151,-1.2390676342734204
1589988245.7215898,0.5134919086677012,-2.3568180004433605,8.795600088672135,0.4527823838025567,0.3250206162713367,-0.6257621616295967,0.3791515485741979,0.19838456535239402,-1.1316671730004033
1589988245.7315898,0.31823520283750834,-2.56137264464642,7.763528929283972,0.4362527155841276,0.37564272519027564,-0.6319607872115077,0.4308781832676737,0.3576214603891723,-1.015028683005311
1589988245.7415898,0.12177962396152164,-2.9619064276344558,10.775273283777874,0.4355555555555555,0.37777777777777777,-0.6322222222222222,-0.1831393749761562,-0.045752409772368836,-1.013857813170485
1589988245.7515898,0.09,-2.6001433609145597,8.604802821121535,0.4355555555555555,0.37777777777777777,-0.6322222222222222,-0.1104001105337467,0.0340151545140564,-0.9350184766027153
1589988245.7615898,0.09121539994712115,-2.3355233988895443,7.027400597937725,0.4355555555555555,0.37777777777777777,-0.6322222222222222,0.14120027881732283,0.07106677467201104,-0.8148755752131133
1589988245.7715898,0.09974577477679025,-2.5146612703125952,7.36008521629482,0.4355555555555555,0.37777777777777777,-0.6322222222222222,0.022093777051741814,0.06455313785670586,-0.7078658275330991
1589988245.7815897,0.0,-3.141237562334652,9.748941774167115,0.4033333333333333,0.4311111111111111,-0.6322222222222222,0.0124345464226644,0.0394250041673931,-0.5772143612269736
1589988245.7915897,-0.009578621592667539,-2.880460421378407,8.819656707534818,0.4033333333333333,0.4311111111111111,-0.6322222222222222,0.02129822107594521,0.030798200269423866,-0.4609447327483278
1589988245.8015897,-0.051648022785437134,-3.1178225873028977,9.242602782134895,0.4033333333333333,0.4311111111111111,-0.6322222222222222,-0.04321594102177742,0.02259671320242442,-0.31551854875954083
1589988245.8115897,-0.06424767006840369,-2.619931374936356,7.416260376773737,0.4033333333333333,0.4311111111111111,-0.6322222222222222,0.014073873497119227,-0.0005918396309345326,-0.19108856972881244
1589988245.8215897,-0.18495229451220863,-3.186314612711133,9.867492750094083,0.4033333333333333,0.4311111111111111,-0.6322222222222222,0.011035373806358231,0.013587825592616789,-0.07258708178913349
1589988245.8315897,-0.16285871865291973,-2.9385871865291975,8.621983026428346,0.39830717012091105,0.4471948333908624,-0.6372483854346445,0.0049869987910061515,-0.014438860158345045,0.04882090248640175
1589988245.8415897,-0.17110864998173184,-3.2367626507124587,9.248137102667155,0.3977777777777778,0.4488888888888889,-0.6377777777777778,-0.002181661564992912,-0.019997758943062372,0.2221328478574993
1589988245.8515897,-0.18102114649681528,-2.90735949044586,8.023522547770702,0.3977777777777778,0.4488888888888889,-0.6377777777777778,-0.003462644301982126,-0.023297310743683162,0.34811342311437793
1589988245.8615897,-0.19526929936305734,-3.1495780891719747,9.049389554140127,0.3977777777777778,0.4488888888888889,-0.6377777777777778,-0.02133631660322584,-0.028737124052757336,0.4413673655556494
1589988245.8715897,-0.15830679484508467,-3.088243102473288,8.497765409684812,0.3977777777777778,0.4488888888888889,-0.6377777777777778,-0.0018018398642153273,-0.043277726758998804,0.589668726359083
1589988245.8815897,-0.2089828138935088,-3.3544054764142985,9.20711331260395,0.38,0.4633333333333333,-0.6522222222222223,-0.00556511170413111,-0.040832309566876404,0.7426623492508522
1589988245.8915896,-0.1714864439460119,-3.147729508519262,8.35883701255263,0.38,0.4633333333333333,-0.6522222222222223,-0.010855210682637874,-0.05922915401736168,0.8642651259540427
1589988245.9015896,-0.21274780624090034,-3.3622885924526815,9.159307441073468,0.38,0.4633333333333333,-0.6522222222222223,-0.03966107571879974,-0.06823098684116226,0.9641854702982291
1589988245.9115896,-4.178854842897948,-20.114406647623994,3.861130689616797,0.38,0.4633333333333333,-0.6522222222222223,-0.10880592945603657,-0.05808474623786104,0.9633253823560749
1589988245.9215896,-1.0747896650220725,-0.6731563230329769,3.8689103015914235,0.38,0.4633333333333333,-0.6522222222222223,-0.6247693346982983,0.07514922518160456,0.04850868687719623
1589988245.9315896,-0.17436938040753236,-0.8152170552864225,7.167663757516352,0.4155555555555556,0.4444444444444444,-0.6822222222222222,-0.8859898238305398,-0.01261488606957556,-0.7075078572037421
1589988245.9415896,-0.00043373357712389593,-0.49897042468567976,7.839687847542931,0.4155555555555556,0.4444444444444444,-0.6822222222222222,-0.20553342267719055,-0.3670731634764534,-0.47637691232529134
1589988245.9515896,-0.9003581214706092,1.8922585718029974,2.242835187876766,0.4155555555555556,0.4444444444444444,-0.6822222222222222,1.367354761400209,0.07404801798857481,-0.30770566623504725
1589988245.9615896,0.5058119274870284,0.7643584651848055,-1.158502338094933,0.4155555555555556,0.4444444444444444,-0.6822222222222222,1.7428115578091954,0.23931133579094674,-0.11629460799838343
1589988245.9715896,0.38042982512331047,-0.901432323361732,5.1732938312728205,0.4155555555555556,0.4444444444444444,-0.6822222222222222,0.45912125011020133,-0.27064782754153044,0.1250079079846086
1589988245.9815896,0.05691495301014238,-1.6930059551502745,7.095464780869079,0.4215190802601243,0.4504079691490131,-0.6871918261426961,-0.9239811752222702,0.12895965536219256,0.309011441334054
1589988245.9915895,-0.29654302634464946,-3.1003709209660517,11.239843784271196,0.4222222222222222,0.4511111111111111,-0.6877777777777778,-0.7792559829823513,-0.007105061290051856,0.5067853389529908
1589988246.0015895,-0.4364136826872749,-2.5826355491240496,8.016388743495797,0.4222222222222222,0.4511111111111111,-0.6877777777777778,0.22907763817532706,0.00605187907138771,0.7100089232211827
1589988246.0115895,-0.32018873733797226,-2.0919080020936605,5.846856430308815,0.4222222222222222,0.4511111111111111,-0.6877777777777778,0.4903889078311404,0.07648618356082527,0.8396080434817479
1589988246.0215895,2.5810649813067474,-14.599483354103615,10.442423713726189,0.4222222222222222,0.4511111111111111,-0.6877777777777778,0.0089916538593654,-0.017129519495094073,0.9659179765315362
1589988246.0315895,-2.011837283902775,-2.771963659066934,9.3628366595621,0.4088888888888889,0.4455555555555555,-0.6733333333333333,-0.4848095243559244,-0.27921989597987407,-0.42777480199008094
1589988246.0415895,-6.986667848639886,-9.695767353899667,9.75236090708002,0.4088888888888889,0.4455555555555555,-0.6733333333333333,-0.11467005185671583,0.047099970839016514,-1.7623079595398237
1589988246.0515895,-3.3959850058254393,-5.4110274724346965,7.875574016851561,0.4088888888888889,0.4455555555555555,-0.6733333333333333,0.31486762478408864,0.37697872610092925,-1.1906211237229258
1589988246.0615895,0.9327945263306012,-3.3842793822774127,9.357480916030536,0.4088888888888889,0.4455555555555555,-0.6733333333333333,0.18996533924717052,-0.11058196807956411,0.5304378897458345
1589988246.0715895,3.768868394597667,-8.454973119454522,10.059145504611216,0.4088888888888889,0.4455555555555555,-0.6733333333333333,-0.17571179387868538,-0.0654530652319596,0.8141936358574274
1589988246.0815895,-0.14841420620907,-3.195972597840907,8.812447643101406,0.4155555555555556,0.4388888888888889,-0.6966666666666667,0.20725784867432664,0.16144295580947549,-0.5355979142057599
1589988246.0915895,-1.4601323667821455,-5.303218255001302,8.918097002222801,0.4155555555555556,0.4388888888888889,-0.6966666666666667,0.1998244191471454,0.1529383333809974,-0.5125185762414548
1589988246.1015894,1.0764208903218055,-4.5472917876524415,8.582129683401085,0.4155555555555556,0.4388888888888889,-0.6966666666666667,-0.009987380757674413,-0.08710835471971345,0.13890583307001625
1589988246.1115894,0.32339272138944675,-4.616496364593283,8.77866181945771,0.4155555555555556,0.4388888888888889,-0.6966666666666667,-0.005622538329288766,-0.03845951962418119,0.047848795456187254
1589988246.1215894,-0.35747636207942346,-4.513915153245085,8.545743033503408,0.4155555555555556,0.4388888888888889,-0.6966666666666667,0.0017738892701266978,0.0005074676974909923,-0.028029723437556116
1589988246.1315894,-0.37113602391629297,-4.458990200963295,8.41829596412556,0.42162809795345924,0.4422011847422908,-0.6922502721954641,-0.00601678055175196,0.0005488576408525184,-0.008232864612787777
1589988246.1415894,-0.1461925325342969,-4.471054610616609,8.619908052054875,0.42777777777777776,0.4455555555555555,-0.6877777777777778,-0.004228223027785387,-0.0019114613605920388,-0.0019114613605920388
1589988246.1515894,-0.06,-4.55,8.7,0.42777777777777776,0.4455555555555555,-0.6877777777777778,0.006544984694978735,-0.002181661564992912,0.0
1589988246.1615894,-0.09661741968733895,-4.513382580312661,8.761029032812232,0.42777777777777776,0.4455555555555555,-0.6877777777777778,0.0032163673141003125,-0.0008502146126415429,0.001997170428527054
1589988246.1715894,-0.11318581942373371,-4.530885083457598,8.752300735966136,0.42777777777777776,0.4455555555555555,-0.6877777777777778,0.005550701540544884,0.0007433117930080713,0.001042556968465154
1589988246.1815894,-0.12145954795942816,-4.492702260202859,8.75864886989857,0.4207747206914606,0.44173570623574615,-0.6877777777777778,0.008260836860857126,0.002340873549260325,0.0
1589988246.1915894,-0.1380284330573348,-4.498170598344009,8.820142165286674,0.4155555555555556,0.4388888888888889,-0.6877777777777778,0.0034720491114798926,-0.00023057241817180194,0.001751532382830585
1589988246.2015893,-0.12023235047238048,-4.549535299055239,8.711394102834284,0.4155555555555556,0.4388888888888889,-0.6877777777777778,-0.002849742575550499,-0.00037205876241882586,0.0007441175248376517
1589988246.2115893,-0.13560811568209843,-4.450495460150207,8.684144154242798,0.4155555555555556,0.4388888888888889,-0.6877777777777778,0.0010638076233291304,-0.0009311373622587729,-0.0009311373622587729
1589988246.2215893,-0.11075337461062186,-4.481181594431412,8.719246625389378,0.4155555555555556,0.4388888888888889,-0.6877777777777778,-0.0010086503608946963,-0.0026859867454402603,-0.0002932528010245539
1589988246.2315893,-0.14284444716842362,-4.474293331698946,8.764275557734738,0.42602864264117024,0.45126617362643345,-0.6754004930402332,-0.0003122198917785272,-0.003272492347489368,0.0009347208366071924
1589988246.2415893,-0.109931558390368,-4.536780736016054,8.72993155839037,0.42777777777777776,0.4533333333333333,-0.6733333333333333,-0.0036423241262040352,-0.0018155626970077538,0.001090830782496456
1589988246.2515893,-0.132052111410602,-4.469074932614555,8.583843665768194,0.42777777777777776,0.4533333333333333,-0.6733333333333333,5.0454598996331826e-05,0.0007440387213297479,0.002008265534409558
1589988246.2615893,-0.10388626869694112,-4.486113731303059,8.646672955127341,0.42777777777777776,0.4533333333333333,-0.6733333333333333,0.004242348364591054,0.001090830782496456,-0.0001819766215780368
1589988246.2715893,-0.1298859683030537,-4.466761693080788,8.713238306919212,0.42777777777777776,0.4533333333333333,-0.6733333333333333,0.00545415391248228,-0.0010846113182359912,0.0018097586851468065
1589988246.2815893,-0.12158865449244848,-4.4670468073045315,8.747046807304532,0.424620961610272,0.4451256112978184,-0.6815410553688482,0.004214475102411096,-0.0009419827549217278,0.0020328135374181842
1589988246.2915893,-0.1167637014148642,-4.505145552122296,8.801909253537161,0.4222222222222222,0.4388888888888889,-0.6877777777777778,0.003272492347489368,-0.0009143180765956634,-0.0007378053706948709
1589988246.3015893,-0.1386125070477778,-4.444856225332778,8.670406197141666,0.4222222222222222,0.4388888888888889,-0.6877777777777778,0.001242182784774541,-7.567600113904263e-05,-0.001090830782496456
1589988246.3115892,-0.12159821218536815,-4.504406257351211,8.687602681721946,0.4222222222222222,0.4388888888888889,-0.6877777777777778,-0.0019201547076788362,-0.002007323660116861,-0.001090830782496456
1589988246.3215892,-0.12728905865890094,-4.480843765364396,8.6972890586589,0.4222222222222222,0.4388888888888889,-0.6877777777777778,-0.004567000433158359,-0.002976774521048061,-0.001090830782496456
1589988246.3315892,-0.1136267125318783,-4.502746574936243,8.765493149872485,0.4267703576300338,0.450714040949199,-0.6704948632280937,-0.0036681053143932186,-0.004165516646533899,0.0006952178155926053
1589988246.3415892,-0.11842575607920605,-4.459445463524764,8.712593951366351,0.42777777777777776,0.4533333333333333,-0.6666666666666666,-0.0023533849377889065,-0.004363323129985824,0.00017172337279599441
1589988246.3515892,-0.11084607993351858,-4.5232313605318515,8.654230399667593,0.42777777777777776,0.4533333333333333,-0.6666666666666666,-0.0011831237860899183,-0.0023662475721798366,-0.0019970755578059872
1589988246.3615892,-0.11850593667546173,-4.512988126649076,8.624482189973614,0.42777777777777776,0.4533333333333333,-0.6666666666666666,-0.0001629770265405325,-0.000325954053081065,-0.0012538078090369885
1589988246.3715892,-0.11310742440287093,-4.496214848805742,8.70271090716555,0.42777777777777776,0.4533333333333333,-0.6666666666666666,0.0022555900896096856,0.001503726726406457,-0.00033896741929322744
1589988246.3815892,-0.13412219620409171,-4.473918535863938,8.756081464136061,0.4233107044066497,0.4417189425684003,-0.6791744721058253,0.005903815763573605,0.0004274459542700864,-0.0008771078053614128
1589988246.3915892,-0.1215665147119768,-4.488433485288023,8.778433485288023,0.4222222222222222,0.4388888888888889,-0.6822222222222222,0.003863942937529234,0.0020107813180871266,-0.002431351661221207
1589988246.4015892,-0.12337538356631436,-4.513375383566314,8.682996931469486,0.4222222222222222,0.4388888888888889,-0.6822222222222222,-6.8804532820268376e-06,0.0010839503292144293,-0.0018134643353060753
1589988246.4115891,-0.1174777067588833,-4.513738853379441,8.680089172964468,0.4222222222222222,0.4388888888888889,-0.6822222222222222,-0.001090830782496456,0.0,-0.0017738159292393267
1589988246.4215891,-0.11,-4.4992913757312705,8.71,0.4222222222222222,0.4388888888888889,-0.6822222222222222,-0.001090830782496456,-0.0017521945485778844,-0.0027657264145188737
1589988246.4315891,-0.11316032442720984,-4.5026412977088395,8.71316032442721,0.4285428710766419,0.43713315309599454,-0.6839779580151165,-0.001090830782496456,-0.0022382785971265754,-0.002583016513914173
1589988246.441589,-0.11911805230039346,-4.526472209201574,8.719118052300393,0.44045832682300917,0.4338233042775592,-0.687287806833552,-0.001090830782496456,-0.0002886167097848253,-0.001283241922353006
1589988246.451589,-0.11182400585731936,-4.497296023429278,8.646416052715875,0.44222222222222224,0.43333333333333335,-0.6877777777777778,-0.001090830782496456,-0.0017837252176693525,-0.001090830782496456
1589988246.461589,-0.11706889735106228,-4.525344486755311,8.65827558940425,0.44222222222222224,0.43333333333333335,-0.6877777777777778,-0.001090830782496456,0.0016738238494302844,-0.001090830782496456
1589988246.471589,-0.12,-4.516032350347379,8.717935299305243,0.44222222222222224,0.43333333333333335,-0.6877777777777778,0.00087001796939125,0.0019652598462308974,0.00087001796939125
1589988246.481589,-0.10429894580849416,-4.5,8.757850527095753,0.4474559069527242,0.42897192939124834,-0.6764381275283569,0.0047507405494538486,0.001947190443983435,0.001325301903505933
1589988246.491589,-0.1270333346003269,-4.5,8.739724999049756,0.4488888888888889,0.42777777777777776,-0.6733333333333333,0.003979714235704125,0.002918881403381989,-0.00038360889428169873
1589988246.501589,-0.12601635152979518,-4.493008175764897,8.681057230354284,0.4488888888888889,0.42777777777777776,-0.6733333333333333,0.004035182057634813,0.001747112927198479,-0.001090830782496456
1589988246.511589,-0.12,-4.502891190854501,8.66644559542725,0.4488888888888889,0.42777777777777776,-0.6733333333333333,0.000847796178204051,-0.0003153799982162533,-0.0024970415632091653
1589988246.521589,-0.12435697666220123,-4.505643023337798,8.691784883311007,0.4488888888888889,0.42777777777777776,-0.6733333333333333,-0.0025166480610207846,-0.0006155583563216798,-0.0018466750689650397
1589988246.531589,-0.12269792241220813,-4.5,8.734604155175584,0.4391527854384997,0.43183448754877324,-0.6765787011501297,-0.0035667900290917397,0.0,-0.0015930662017881686
1589988246.541589,-0.11,-4.485569568437877,8.76,0.4222222222222222,0.4388888888888889,-0.6822222222222222,-0.0016569562665705298,-0.0005247052984223821,-0.0033139125331410595
1589988246.551589,-0.11,-4.503240985207421,8.699058193786394,0.4222222222222222,0.4388888888888889,-0.6822222222222222,-0.00048649261741704223,-0.00048649261741704223,-0.0015773233999134982
1589988246.561589,-0.11519846215964749,-4.514404613521058,8.67079384863859,0.4222222222222222,0.4388888888888889,-0.6822222222222222,-0.0005670642545386488,-0.0011341285090772976,-0.001090830782496456
1589988246.571589,-0.11190008326394671,-4.508099916736053,8.70214987510408,0.4222222222222222,0.4388888888888889,-0.6822222222222222,-0.0006490488569291986,-0.00041453386272388205,-0.0006490488569291986
1589988246.581589,-0.1043000041941031,-4.507099987417691,8.728600008388206,0.4131444355902268,0.43649999766994274,-0.6783999962719084,0.0014071730819374554,0.0017126038710137603,-0.00046905769397915175
1589988246.591589,-0.11,-4.508065595170106,8.709890674716489,0.4011111111111111,0.43333333333333335,-0.6733333333333333,0.003272492347489368,0.0017477143596855188,-0.001090830782496456
1589988246.601589,-0.11739784896814817,-4.4756129061911105,8.660408604127408,0.4011111111111111,0.43333333333333335,-0.6733333333333333,0.003272492347489368,-0.00023927884862179252,0.0013301096311182485
1589988246.611589,-0.12689298095538248,-4.473785961910766,8.691357885732295,0.4011111111111111,0.43333333333333335,-0.6733333333333333,0.002520584766560065,-0.001090830782496456,0.0014297539840636092
1589988246.621589,-0.11858932771064797,-4.485705336144676,8.71,0.4011111111111111,0.43333333333333335,-0.6733333333333333,-0.0009301165805582164,-0.001090830782496456,0.0017131864116066817
1589988246.631589,-0.1234844597447306,-4.510226689617095,8.730226689617096,0.4370696704303927,0.4370790165957585,-0.6928108862979442,-0.0025370291587450454,-0.001090830782496456,-0.0007601911899843767
1589988246.641589,-0.13,-4.512892017106201,8.718676051318603,0.4544444444444444,0.4388888888888889,-0.7022222222222222,-0.002181661564992912,0.0004598905259063817,-0.0006309402565900742
1589988246.651589,-0.11547693079237713,-4.495476930792377,8.659169257773321,0.4544444444444444,0.4388888888888889,-0.7022222222222222,-0.00138955101759284,-0.0020776114071038316,0.0007921105474000719
1589988246.661589,-0.10405344272350867,-4.49,8.687572458211932,0.4544444444444444,0.4388888888888889,-0.7022222222222222,0.0015038443083335593,-0.0019751548020743603,0.001090830782496456
1589988246.671589,-0.10331595395261328,-4.496631907905226,8.72,0.4544444444444444,0.4388888888888889,-0.7022222222222222,0.002187348954033958,-0.001090830782496456,5.6873890410462195e-06
1589988246.681589,-0.11001739199177833,-4.510008695995889,8.72000869599589,0.4544338160050243,0.4388734293406415,-0.7022048302304439,2.8457580001093363e-06,-0.001090830782496456,-0.0021807129789928755
1589988246.6915889,-0.13,-4.511822575501092,8.742266136748363,0.44222222222222224,0.4211111111111111,-0.6822222222222222,0.003272492347489368,-0.00019881214600147624,-0.001090830782496456
1589988246.7015889,-0.11804514551726447,-4.482067718275896,8.700225727586322,0.44222222222222224,0.4211111111111111,-0.6822222222222222,0.003924528510991051,0.002394903109499822,-0.0017428669459981388
1589988246.7115889,-0.10540659576753679,-4.465406595767536,8.669186808464927,0.44222222222222224,0.4211111111111111,-0.6822222222222222,0.002860135110019712,0.0027714296741673306,-0.002181661564992912
1589988246.7215889,-0.10482738780207135,-4.474482163406214,8.694482163406214,0.44222222222222224,0.4211111111111111,-0.6822222222222222,0.0005642444611417227,0.0016550752436381786,-0.002181661564992912
1589988246.7315888,-0.12,-4.511805585582044,8.744097207208977,0.4363040340314765,0.42839503503818277,-0.6844984484494321,-0.0019847027316603335,0.0004469359745819386,-0.0017347255904109733
1589988246.7415888,-0.12,-4.50433922390235,8.73698232829295,0.42777777777777776,0.4388888888888889,-0.6877777777777778,-0.0027991564470065734,0.0006174948820136614,-0.001090830782496456
1589988246.7515888,-0.12655585898709037,-4.51,8.667553128103277,0.42777777777777776,0.4388888888888889,-0.6877777777777778,-0.0028967948438753327,-0.0007151332788824209,-0.00037569750361403505
1589988246.7615888,-0.11684198190596728,-4.51,8.653158018094032,0.42777777777777776,0.4388888888888889,-0.6877777777777778,-0.002554833788808556,-0.0018084893411772678,0.0
1589988246.7715888,-0.11,-4.51,8.697761668047502,0.42777777777777776,0.4388888888888889,-0.6877777777777778,-0.002181661564992912,-0.001004758996289295,0.0
1589988246.7815888,-0.11,-4.51,8.740113392250171,0.42777777777777776,0.4388888888888889,-0.6950818944029006,-0.0005268616277009394,0.0,-0.0005515999790973242
1589988246.7915888,-0.11474719830599892,-4.5052528016940006,8.754747198306,0.42777777777777776,0.4388888888888889,-0.7022222222222222,0.0005729917782165906,-0.0005178390042798654,-0.001090830782496456
1589988246.8015888,-0.11016869286589388,-4.5,8.705927810762416,0.42777777777777776,0.4388888888888889,-0.7022222222222222,0.0010724292454059965,-0.0021632600279024527,-0.0016270454051994542
1589988246.8115888,-0.10543681533233426,-4.4945631846676655,8.682620891994006,0.42777777777777776,0.4388888888888889,-0.7022222222222222,0.003367790669644693,-0.0009002341381858063,-0.0027747261173188026
1589988246.8215888,-0.11,-4.480807987155424,8.723788019266864,0.42777777777777776,0.4388888888888889,-0.7022222222222222,0.0028592835453908594,-0.0009145553302968297,-0.0027711458192910465
1589988246.8315887,-0.12188227031298013,-4.489803783854967,8.743960756770994,0.42777777777777776,0.44152939340288444,-0.7022222222222222,0.001090830782496456,-0.0024083892659332007,-0.0026137131057709954
1589988246.8415887,-0.1338519560214779,-4.510777934032217,8.731555868064433,0.42777777777777776,0.4455555555555555,-0.7022222222222222,-0.0002504643422863251,-0.0007555070013007607,-0.0022665210039022822
1589988246.8515887,-0.11646172302616781,-4.4970765539476645,8.668770338157007,0.42777777777777776,0.4455555555555555,-0.7022222222222222,-0.002114593915472998,-0.0011578984320163702,-0.0007719322880109133
1589988246.8615887,-0.11585946022862022,-4.5158594602286195,8.66515676137172,0.42777777777777776,0.4455555555555555,-0.7022222222222222,-0.0006391679586192652,-0.001994156430250837,-0.0015424936063736469
1589988246.8715887,-0.11541729836973814,-4.515417298369738,8.699165403260524,0.42777777777777776,0.4455555555555555,-0.7022222222222222,-0.001090830782496456,-0.001090830782496456,-0.001090830782496456
1589988246.8815887,-0.1148764019655651,-4.505123598034435,8.719752803931131,0.42777777777777776,0.44230462091184547,-0.692469418291092,0.001568833903435861,-0.0005588978453099925,0.0005049680290629345
1589988246.8915887,-0.1135266518664317,-4.506473348133568,8.736473348133568,0.42777777777777776,0.4388888888888889,-0.6822222222222222,0.0029510576480033662,0.0,0.0028877943059841408
1589988246.9015887,-0.11442639085828676,-4.505573609141713,8.70016248227542,0.42777777777777776,0.4388888888888889,-0.6822222222222222,0.002181661564992912,0.0004828443403580109,0.003272492347489368
1589988246.9115887,-0.11335565765906082,-4.493355657659061,8.669933027022818,0.42777777777777776,0.4388888888888889,-0.6822222222222222,0.002906446880487014,0.000728438124749405,0.002185314374248215
1589988246.9215887,-0.10494653046566378,-4.489893060931328,8.719893060931328,0.42777777777777776,0.4388888888888889,-0.6822222222222222,0.0011258265108842758,0.0,0.000539582769850258
1589988246.9315886,-0.11,-4.494703012912482,8.751187948350072,0.42777777777777776,0.43594611828471225,-0.6739824645305276,-0.0016038499080378308,0.0005778116569550811,-0.0012204158453238683
1589988246.9415886,-0.11497175141242938,-4.49497175141243,8.77,0.42777777777777776,0.43333333333333335,-0.6666666666666666,-0.001090830782496456,6.162885776816139e-06,-0.0005608226056902682
1589988246.9515886,-0.11503864784087395,-4.509922704318252,8.700541069772235,0.42777777777777776,0.43333333333333335,-0.6666666666666666,-0.0016320303482944502,-0.0016320303482944502,0.0016404619991949175
1589988246.9615886,-0.10362337814143777,-4.52,8.674636353009936,0.42777777777777776,0.43333333333333335,-0.6666666666666666,-0.002181661564992912,-0.001486080023826966,0.001090830782496456
1589988246.9715886,-0.10484775156281509,-4.515152248437184,8.704847751562815,0.42777777777777776,0.43333333333333335,-0.6666666666666666,-0.0016528539019315125,-0.001090830782496456,0.001090830782496456
1589988246.9815886,-0.11,-4.512887789811974,8.721551159247898,0.4223230636884928,0.43686285421463533,-0.6711587841519601,-0.000775821780468326,-0.000775821780468326,0.000775821780468326
1589988246.9915886,-0.11,-4.516898619329388,8.74689861932939,0.4088888888888889,0.4455555555555555,-0.6822222222222222,0.0006766163007484921,-0.00016915407518712302,0.0
1589988247.0015886,-0.11,-4.500353057199211,8.730353057199212,0.4088888888888889,0.4455555555555555,-0.6822222222222222,0.004286297997809546,-0.0010715744994523864,0.0
1589988247.0115886,-0.11596401726688199,-4.511928034533764,8.64017991366559,0.4088888888888889,0.4455555555555555,-0.6822222222222222,0.002181661564992912,0.00045988295675266407,-0.00019069040545286256
1589988247.0215886,-0.11869681111699104,-4.5043484055584955,8.70913565002646,0.4088888888888889,0.4455555555555555,-0.6822222222222222,0.0017073241011943512,0.004363323129985824,0.0024659732747915803
1589988247.0315886,-0.11672697201876667,-4.501151314679178,8.76,0.4147880124361037,0.4455555555555555,-0.6886129393983715,0.001090830782496456,0.0038807022133569534,0.0
1589988247.0415885,-0.10616892728022712,-4.496168927280227,8.76,0.4222222222222222,0.4455555555555555,-0.6966666666666667,0.001090830782496456,0.0012537156158132054,0.0
1589988247.0515885,-0.11,-4.495902553658155,8.72312298292339,0.4222222222222222,0.4455555555555555,-0.6966666666666667,0.0001969066626339366,0.0013408861797937794,0.0004469620599312597
1589988247.0615885,-0.1116815763546798,-4.493363152709359,8.67504472906404,0.4222222222222222,0.4455555555555555,-0.6966666666666667,-0.0012742623075767466,0.003272492347489368,0.0012742623075767466
1589988247.0715885,-0.12,-4.501720314735336,8.708279685264664,0.4222222222222222,0.4455555555555555,-0.6966666666666667,-0.002181661564992912,0.0014661452362738493,0.0017300747871890321
1589988247.0815885,-0.11579732649203349,-4.498405347015933,8.741013367539832,0.4222222222222222,0.44882430161730724,-0.6990014852822036,-0.0008063398756112405,-0.0006323902193692322,0.0006323902193692322
1589988247.0915885,-0.11,-4.501224135487528,8.734896541950112,0.4222222222222222,0.4533333333333333,-0.7022222222222222,0.001090830782496456,0.0004786491576611168,0.0
1589988247.1015885,-0.11364916272620613,-4.493649162726206,8.66080669819035,0.4222222222222222,0.4533333333333333,-0.7022222222222222,0.0018869545889133243,0.00148889268570489,-0.000398061903208434
1589988247.1115885,-0.12408273991183452,-4.504082739911834,8.638579179382841,0.4222222222222222,0.4533333333333333,-0.7022222222222222,0.0023817766729381756,0.0008455880531661234,-0.001090830782496456
1589988247.1215885,-0.12616017882455566,-4.511919910587722,8.685759731763167,0.4222222222222222,0.4533333333333333,-0.7022222222222222,0.0006719712687508154,-0.0004625415118779951,-0.0008814010256236357
1589988247.1315885,-0.12132607027773516,-4.516224643240754,8.732652140555471,0.4272560312345489,0.447880040236646,-0.6946715087037321,0.00014465182787071315,0.0025934891017819683,-0.0004118275367890564
1589988247.1415884,-0.11996299722479187,-4.504990749306198,8.754972247918595,0.4355555555555555,0.4388888888888889,-0.6822222222222222,0.0010888125941847142,0.0016332188912770711,0.000548442673715841
