time,acc_x,acc_y,acc_z,mag_x,mag_y,mag_z,gyr_x,gyr_y,gyr_z
1592167831.9394977,-0.06909981374889912,9.015280168730282,4.277342237408308,-0.3333333333333333,-0.51,-0.5755555555555556,0.02440230938280625,0.0042973075293635645,-0.0195591507685502
1592167831.9494977,-0.03675826537982544,9.018327359740699,4.28502777951141,-0.3333333333333333,-0.51,-0.5755555555555556,0.032892842408050314,0.006487477434642341,-0.019498522565357657
1592167831.9594977,-0.06318584176214943,9.02506558753047,4.2257831622431485,-0.3333333333333333,-0.51,-0.5755555555555556,0.03976057132926199,0.011729486862374976,-0.01796785734147603
1592167831.9694977,-0.033957128199744946,9.044184617024534,4.07704235070089,-0.3333333333333333,-0.51,-0.5755555555555556,0.03788649307290658,0.022202506927093423,-0.015793
1592167831.9794977,0.026076603717724148,9.056686,4.0271196633303665,-0.3333333333333333,-0.5026001572365275,-0.5580650181146206,0.026156494902092858,0.029675505097907142,-0.01990852126455348
1592167831.9894977,0.028371252275952632,9.020607489128892,4.103865809572609,-0.3333333333333333,-0.49777777777777776,-0.5466666666666666,0.018346295698163012,0.042187788774856454,-0.020241725441389295
1592167831.9994977,0.27095519681697383,8.91529725079882,4.1464989814443145,-0.3333333333333333,-0.49777777777777776,-0.5466666666666666,0.008082371756678948,0.06839119155697483,0.022837800557860305
1592167832.0094976,0.5472686052349529,9.076866970435855,4.014748900436823,-0.3333333333333333,-0.49777777777777776,-0.5466666666666666,-0.0016051687658149546,0.07263497927310178,0.014121018838366714
1592167832.0194976,0.39889449761480866,9.042023803078848,4.348307091676633,-0.3333333333333333,-0.49777777777777776,-0.5466666666666666,-0.0009384999277898712,0.09021093614952,-0.005185874945842404
1592167832.0294976,0.3531627358026302,9.019901950842714,4.360864924766673,-0.3464650477349907,-0.5070794088122851,-0.5466666666666666,0.010851245930097394,0.10512766042079018,0.006758214464808853
1592167832.0394976,0.3028634429578043,9.013556062554315,4.25383177264878,-0.36,-0.5166666666666667,-0.5466666666666666,0.02490556128668037,0.10266034886526341,0.008498348865263414
1592167832.0494976,0.26695880732706606,9.020300628286192,4.133450343231301,-0.36,-0.5166666666666667,-0.5466666666666666,0.026710560161337764,0.10875341282565787,0.015040707497017665
1592167832.0594976,0.2531707869173172,9.069903519984871,3.897101350280049,-0.36,-0.5166666666666667,-0.5466666666666666,0.02143511268162479,0.09271607931956852,0.015774156453143163
1592167832.0694976,0.24415133645715315,9.047288164085897,3.8307971952394526,-0.36,-0.5166666666666667,-0.5466666666666666,-0.009280163345548266,0.13278824164418002,0.023815799198621247
1592167832.0794976,0.3706486393918191,9.050107604706907,3.6942127153678395,-0.3463334914091854,-0.5132500395189631,-0.5648886781210861,-0.03945622541604242,0.126297,0.022814393734698665
1592167832.0894976,0.4027303393386312,9.003984263963718,3.7657648452759487,-0.3333333333333333,-0.51,-0.5822222222222222,-0.0820667547464084,0.1373648298618653,0.017494903113315495
1592167832.0994976,0.4232372098583107,9.045610610225035,3.8800131796761943,-0.3333333333333333,-0.51,-0.5822222222222222,-0.11116501114406098,0.15655114025496736,0.01712084219114279
1592167832.1094975,0.3693854536648936,9.008751490236614,3.9815395045742012,-0.3333333333333333,-0.51,-0.5822222222222222,-0.1318186874036184,0.16160917776015582,0.014038
1592167832.1194975,0.34616214682142904,8.967424323127851,4.102149245457516,-0.3333333333333333,-0.51,-0.5822222222222222,-0.14619661348620977,0.16242738651379024,0.016252613486209752
1592167832.1294975,0.34257184310637745,8.942693875202785,4.317898991597962,-0.3409474459168649,-0.5070714951601802,-0.58632212899797,-0.14808833772676397,0.15813197143286184,0.021465383989729348
1592167832.1394975,0.33957865862096326,8.989946114999077,4.602268861635932,-0.3477777777777778,-0.5044444444444445,-0.59,-0.12386626967963583,0.1328398218189759,0.018312676211955585
1592167832.1494975,0.29638129703650024,8.993597253055043,4.876283601875713,-0.3477777777777778,-0.5044444444444445,-0.59,-0.07880276751214516,0.10436586663317907,0.014038
1592167832.1594975,0.30456074010725137,9.048568217044194,5.120822849732288,-0.3477777777777778,-0.5044444444444445,-0.59,-0.0026077856372449942,0.07212834484283828,0.009959104744984881
1592167832.1694975,0.317996522012837,9.06445165492594,5.194300177285431,-0.3477777777777778,-0.5044444444444445,-0.59,0.08642513055151904,0.0296836330104336,-0.014597396572386236
1592167832.1794975,0.346659194821349,9.080493709736546,5.057871565155811,-0.33914969722574284,-0.5044444444444445,-0.59,0.16477809391072837,0.010441255961337954,-0.04595060583340429
1592167832.1894975,0.5805509236135311,9.069872707449289,5.098183995783,-0.3288888888888889,-0.5044444444444445,-0.59,0.23431879255528715,-0.005172113044055248,-0.11089105242584127
1592167832.1994975,0.40395871746419343,8.954643532768163,5.182233450929914,-0.3288888888888889,-0.5044444444444445,-0.59,0.31126428254096594,-0.0077157178829878915,-0.12800395370619727
1592167832.2094975,0.24362045627503376,9.015667268255784,4.740991162461318,-0.3288888888888889,-0.5044444444444445,-0.59,0.38258799082770983,-0.05403184383201515,-0.11975136558627894
1592167832.2194974,0.3388172712656932,9.00744540992755,4.587323265121194,-0.3288888888888889,-0.5044444444444445,-0.59,0.42107475771252734,-0.06934669304676498,-0.119125
1592167832.2294974,0.39052102675932304,8.6539810075134,4.332717939302057,-0.3309739347452377,-0.5127846278698396,-0.5842661238950408,0.4445935783589451,-0.07957726635202209,-0.05805273892753721
1592167832.2394974,0.5686030470253491,8.775913976813024,3.985092538258084,-0.3333333333333333,-0.5222222222222223,-0.5777777777777777,0.449970451847725,-0.0826582429948007,0.051378771046806854
1592167832.2494974,0.8919048632278099,9.083543147761011,3.838621755769161,-0.3333333333333333,-0.5222222222222223,-0.5777777777777777,0.43189920370492096,-0.0619785681294403,0.07573054022377272
1592167832.2594974,0.9402666867508462,9.212671548450187,3.883901956994654,-0.3333333333333333,-0.5222222222222223,-0.5777777777777777,0.3975141346607157,-0.0032817504612499097,0.04704348056750335
1592167832.2694974,0.8627614451644178,9.18368718550694,3.7330975409267104,-0.3333333333333333,-0.5222222222222223,-0.5777777777777777,0.3708668227624617,0.02630502388039467,0.013373722866668394
1592167832.2794974,0.7746284607183004,9.174336193942857,3.6197589197532647,-0.3314948942924454,-0.5171665148597804,-0.5828334851402196,0.3391592358155628,0.06812229598285777,-0.0066937273102254165
1592167832.2894974,0.7990289330805522,9.259494140461499,3.5153048671775573,-0.3288888888888889,-0.51,-0.59,0.30784172900919443,0.11230927099080555,-0.029490573217789764
1592167832.2994974,0.6781509949324943,9.259609034324738,3.506081821452426,-0.3288888888888889,-0.51,-0.59,0.2637724138102614,0.1375021280292559,-0.07334316586828993
1592167832.3094974,0.3135795947945364,9.10445948457739,3.4106727020149092,-0.3288888888888889,-0.51,-0.59,0.21342491035061373,0.14427552019378864,-0.09175245730639293
1592167832.3194973,0.13842911657182133,9.255031587115377,3.4470075428791884,-0.3288888888888889,-0.51,-0.59,0.1905278717637849,0.146545,-0.07066263506235997
1592167832.3294973,0.14475258566934016,9.231705711957147,3.570388741028231,-0.3288888888888889,-0.5124568891699272,-0.5846767401318245,0.1879560913487125,0.12216914333910739,-0.07907290865128751
1592167832.3394973,0.004774187006336673,9.23327359911445,3.318555640959957,-0.3288888888888889,-0.5166666666666667,-0.5755555555555556,0.17929677004049877,0.07620481077003056,-0.085037
1592167832.3494973,0.01970090304794673,9.030781553961518,3.1297710277264574,-0.3288888888888889,-0.5166666666666667,-0.5755555555555556,0.1455241552812343,0.02519448340335535,-0.05912667187787894
1592167832.3594973,0.06298837513482126,9.400729629392881,3.073868483274833,-0.3288888888888889,-0.5166666666666667,-0.5755555555555556,0.09525381674775737,0.030345026914335355,-0.06665246384665195
1592167832.3694973,-0.022686541925554096,9.20434121206733,3.2239178718901247,-0.3288888888888889,-0.5166666666666667,-0.5755555555555556,0.05187249169232854,0.03134719051680858,-0.0907443609460423
1592167832.3794973,-0.06430716092046673,9.135406076738086,3.290775827096855,-0.33337185582083545,-0.5214133375357866,-0.5789837067388088,0.013357227034780327,0.010931227034780326,-0.07868005847041866
1592167832.3894973,0.108312735240744,9.285590388757255,3.395038848620624,-0.3477777777777778,-0.5366666666666666,-0.59,-0.01227235701186324,-0.010472148068411697,-0.07319195382404822
1592167832.3994973,0.09122555216340403,9.303973549405457,3.6199262319654,-0.3477777777777778,-0.5366666666666666,-0.59,-0.026333774296563733,-0.0002947539989352878,-0.1014307134036784
1592167832.4094973,0.02927760346062059,9.076626149274256,3.747027097619394,-0.3477777777777778,-0.5366666666666666,-0.59,-0.026245426038090994,-0.04022918108910715,-0.0972504769677365
1592167832.4194973,0.03890036006778259,9.191914919340373,3.7225732647563303,-0.3477777777777778,-0.5366666666666666,-0.59,-0.011988835559069318,-0.07933872108832458,-0.07467387533329091
1592167832.4294972,0.06610305929444674,9.11705782232561,3.635234353078239,-0.3439044072004966,-0.5345810055865922,-0.5879143389199255,-0.01359578135257598,-0.10061014976765208,-0.054988244066842926
1592167832.4394972,0.04806668117421153,9.115284907526359,3.624462080977058,-0.3333333333333333,-0.5288888888888889,-0.5822222222222222,-0.019886579990871033,-0.12439720889326981,-0.028183235652585344
1592167832.4494972,0.08083588033523906,9.1793847025154,3.589381089097019,-0.3333333333333333,-0.5288888888888889,-0.5822222222222222,-0.03228333291809686,-0.12890416645904842,-0.006057422650161211
1592167832.4594972,0.08684553344455503,9.199944546899912,3.6527949005067017,-0.3333333333333333,-0.5288888888888889,-0.5822222222222222,-0.04496029983656051,-0.12242020149676504,-0.0023123508050786573
1592167832.4694972,0.17553703173524804,9.292789976817945,3.605397589654686,-0.3333333333333333,-0.5288888888888889,-0.5822222222222222,-0.06185401014606953,-0.1000204230934668,-0.013377194397344538
1592167832.4794972,0.0771850204395435,9.21160573683721,3.6308905116989227,-0.33275853713628617,-0.5296073841351978,-0.5832281155670548,-0.06336194272681991,-0.09036272447935394,-0.02263593026304401
1592167832.4894972,-0.000137,9.09680822691081,3.51905972653758,-0.3288888888888889,-0.5344444444444445,-0.59,-0.07512167168927013,-0.11710008746439492,-0.0007106484258949078
1592167832.4994972,0.025254950492119156,9.221335934553148,3.4848307121989928,-0.3288888888888889,-0.5344444444444445,-0.59,-0.0950497234254981,-0.12401746828991966,0.00768077421409604
1592167832.5094972,0.035967458175678785,9.104003749769026,3.646677204558009,-0.3288888888888889,-0.5344444444444445,-0.59,-0.11292200901220935,-0.12395830307853159,0.011928890581007259
1592167832.5194972,0.07299179794020014,9.25562685024793,3.8133301991520234,-0.3288888888888889,-0.5344444444444445,-0.59,-0.10803146129883347,-0.13021261471011894,0.016104923991047577
1592167832.5294971,0.11163517607592244,9.249237613685727,3.8613951999114513,-0.3291085865302211,-0.5348289153167759,-0.59,-0.0943300396760197,-0.15401528057772793,0.0008430372650606692
1592167832.5394971,0.08197158826360412,9.274078696772467,3.759935090215911,-0.3333333333333333,-0.5422222222222223,-0.59,-0.0916658323604981,-0.1525446506797408,-0.018069290451955343
1592167832.5494971,0.03490294500788793,9.190482912361041,3.72948216929782,-0.3333333333333333,-0.5422222222222223,-0.59,-0.10064272586265983,-0.13705502254612784,-0.027367203370363077
1592167832.559497,0.030974897058035904,9.234908000704824,3.745501320667209,-0.3333333333333333,-0.5422222222222223,-0.59,-0.10439554507314287,-0.1448581663033945,-0.03695723763175936
1592167832.569497,0.03946544686065791,9.15960904071285,3.775951788996164,-0.3333333333333333,-0.5422222222222223,-0.59,-0.10949350264999395,-0.15619124867500303,-0.03683918221862162
1592167832.579497,-0.0020164478361151972,9.174510659176363,3.8020481033338953,-0.3333333333333333,-0.5422222222222223,-0.59,-0.11453487273170365,-0.14138005169357634,-0.03770911799748547
1592167832.589497,-0.12527141025850033,9.118206813618645,3.8798904756017345,-0.37444444444444447,-0.52,-0.6055555555555555,-0.11252667234163899,-0.15855699750467023,-0.034924751478631624
1592167832.599497,-0.1788834735558331,9.093373624452296,3.885745928985532,-0.37444444444444447,-0.52,-0.6055555555555555,-0.10569880167950649,-0.19598576175606144,-0.016990055783116693
1592167832.609497,-0.1448185471577088,9.183598938369384,3.8890458754577173,-0.37444444444444447,-0.52,-0.6055555555555555,-0.104568,-0.19228624132326902,-0.019226712802619103
1592167832.619497,-0.1305019865514407,9.135217806923892,3.9295573333264615,-0.37444444444444447,-0.52,-0.6055555555555555,-0.10346927672589158,-0.19481554799563255,-0.027857651027535794
1592167832.629497,-0.14286416265174035,9.119748599339612,3.950990863282923,-0.37444444444444447,-0.52,-0.6055555555555555,-0.09854844477529821,-0.21240091068499437,-0.014092534090303845
1592167832.639497,-0.07939723019244148,9.211590573101056,3.9870694830385927,-0.36777777777777776,-0.5155555555555555,-0.6044444444444445,-0.09364684167408184,-0.19967664850538336,-0.022322067064516803
1592167832.649497,-0.1435465304105411,9.071889687865035,4.023708719260165,-0.36777777777777776,-0.5155555555555555,-0.6044444444444445,-0.08795343398681629,-0.19305492892052656,-0.024323
1592167832.659497,-0.1879247408396851,9.109579792121036,4.075057491098189,-0.36777777777777776,-0.5155555555555555,-0.6044444444444445,-0.0762496197956978,-0.19754,-0.02416123594216589
1592167832.669497,-0.17611321370223465,9.128888331646747,4.207734399463378,-0.36777777777777776,-0.5155555555555555,-0.6044444444444445,-0.055450897819256155,-0.19957877479110642,-0.014436912144244285
1592167832.679497,-0.1895895538886522,9.029352931043366,4.173795968837776,-0.36777777777777776,-0.5155555555555555,-0.6044444444444445,-0.026590487009376548,-0.24051312815450393,0.009495970974387712
1592167832.689497,-0.10935467280848413,9.098482182480293,4.026646919027192,-0.36777777777777776,-0.5155555555555555,-0.5966666666666667,-0.008193245716173183,-0.2636052821730154,0.03531371782698466
1592167832.699497,-0.16645034104755346,9.163818,3.9640256723392437,-0.36777777777777776,-0.5155555555555555,-0.5966666666666667,-0.006067434834447313,-0.2609654348344473,0.02919554110170569
1592167832.709497,-0.14941097231919598,9.246984014001066,3.9471622994399276,-0.36777777777777776,-0.5155555555555555,-0.5966666666666667,-0.005033662195369688,-0.2526195564945317,0.0063975057414283245
1592167832.719497,-0.10866926599138166,9.252196605055149,3.940667100855624,-0.36777777777777776,-0.5155555555555555,-0.5966666666666667,-0.004856544056712937,-0.25014148071771186,-0.03696040898345883
1592167832.729497,0.010251822897255784,9.157814904282768,3.8946934809955427,-0.36938651175970527,-0.5161405497308019,-0.5966666666666667,-0.009499451923680347,-0.23853366941551546,-0.06455816178641306
1592167832.739497,0.08472660675421238,9.095851722848158,3.8588633574625626,-0.38,-0.52,-0.5966666666666667,-0.01770241563793943,-0.23551004343904045,-0.07106754092302013
1592167832.749497,0.13520961018940522,9.107710733735324,3.753292559487096,-0.38,-0.52,-0.5966666666666667,-0.03381933708463697,-0.23409748880821546,-0.05810431416765155
1592167832.759497,0.060374345982959154,9.138325457405754,3.775176687697077,-0.38,-0.52,-0.5966666666666667,-0.05108171482478705,-0.2365267381301025,-0.05254634575973581
1592167832.769497,0.004570128964386723,9.100141542407533,3.7533246026133518,-0.38,-0.52,-0.5966666666666667,-0.06611867921775168,-0.22843711177139606,-0.056855919111156054
1592167832.779497,-0.05062609354844417,9.104766094135428,3.7552892301579455,-0.38,-0.52,-0.5966666666666667,-0.08505704910962919,-0.2085451875481447,-0.06637369591237843
1592167832.789497,-0.0717068729036591,9.136298064861004,3.7637435648141713,-0.4122222222222222,-0.5155555555555555,-0.5822222222222222,-0.1034359656296633,-0.18689,-0.07127874879595611
1592167832.799497,-0.0919773293338526,9.078531321384819,3.8506777507379466,-0.4122222222222222,-0.5155555555555555,-0.5822222222222222,-0.11962190485489,-0.18886509514511002,-0.0726218592196554
1592167832.8094969,-0.09745698861375782,9.078796884582003,3.8440857874913292,-0.4122222222222222,-0.5155555555555555,-0.5822222222222222,-0.1348915484198444,-0.18190939530402692,-0.054138
1592167832.8194969,-0.0002374829029450909,9.115122747799482,3.8964433482765757,-0.4122222222222222,-0.5155555555555555,-0.5822222222222222,-0.1497272407493372,-0.1598564937057738,-0.05683511166844709
1592167832.8294969,-0.0028284777985778473,9.031029975596146,4.049225077920186,-0.4122222222222222,-0.5155555555555555,-0.5822222222222222,-0.15547500303837655,-0.12671941473847337,-0.05452991269271937
1592167832.8394969,0.08780431786951792,9.126633160618942,4.180060493932387,-0.4,-0.5155555555555555,-0.5844444444444444,-0.1465434669244663,-0.11759819694168655,-0.053006281967973926
1592167832.8494968,-0.06316813032167352,9.036447416237058,4.1372266503346875,-0.4,-0.5155555555555555,-0.5844444444444444,-0.13083924523886603,-0.13782707571573635,-0.04582838517173853
1592167832.8594968,-0.1280595011665306,9.094345682650614,4.027507387226837,-0.4,-0.5155555555555555,-0.5844444444444444,-0.119476,-0.13792428273004084,-0.020257871615784778
1592167832.8694968,-0.11054313851662058,9.114489782326686,3.9271176025006325,-0.4,-0.5155555555555555,-0.5844444444444444,-0.1258420818583745,-0.1378873307895924,-0.04449090715430823
1592167832.8794968,-0.2494261476516546,9.120812556797516,3.897632573691653,-0.4,-0.5155555555555555,-0.5844444444444444,-0.14470258745392364,-0.13047011475422154,-0.08020118420251018
1592167832.8894968,-0.22153919027608948,9.102517557868435,4.032141756811755,-0.4266666666666667,-0.5077777777777778,-0.6144444444444445,-0.150375,-0.13155168432050668,-0.07585323276796974
1592167832.8994968,-0.13795746920014326,9.087871950415568,4.20803275368605,-0.4266666666666667,-0.5077777777777778,-0.6144444444444445,-0.1261221275400562,-0.13139184887089195,-0.05574023480570245
1592167832.9094968,0.03446414185924185,9.070852903922962,4.240788822858212,-0.4266666666666667,-0.5077777777777778,-0.6144444444444445,-0.10340857171689663,-0.12759481544911336,-0.032837
1592167832.9194968,0.055144757748852344,9.086904148949136,4.2853367526991955,-0.4266666666666667,-0.5077777777777778,-0.6144444444444445,-0.0810130852214454,-0.10034627387685505,-0.008244651266835705
1592167832.9294968,0.10672886861640361,9.097876936678801,4.309808155641311,-0.4273060995297256,-0.5050601881097775,-0.6131655787183267,-0.061852047720408296,-0.07029022239464745,-0.008699758830731569
1592167832.9394968,0.23774838590222325,9.14845180598968,4.325932208731207,-0.4311111111111111,-0.4888888888888889,-0.6055555555555555,-0.030826457460772477,-0.03238747693831857,0.017892716306982668
1592167832.9494967,0.33828709397465434,9.126640620474262,4.243354420376001,-0.4311111111111111,-0.4888888888888889,-0.6055555555555555,0.002397795981135523,-0.005338018445715016,0.02716172784462809
1592167832.9594967,0.2298576603818499,9.087012466887018,4.256316576377596,-0.4311111111111111,-0.4888888888888889,-0.6055555555555555,0.021934075199904084,7.358886903969641e-05,0.006058357895827636
1592167832.9694967,-0.017997151299601732,9.143059976527699,4.338991391256183,-0.4311111111111111,-0.4888888888888889,-0.6055555555555555,0.0441126861681566,0.022835904419602985,0.01321234383812696
1592167832.9794967,0.017361368777768345,9.124499617848649,4.330956163580525,-0.4311111111111111,-0.4888888888888889,-0.6055555555555555,0.07850186960025445,0.06635111746779802,0.009868755198498863
1592167832.9894967,-0.0558824311469749,9.097249073382383,4.249470584693223,-0.4388888888888889,-0.5077777777777778,-0.5866666666666667,0.1082125763571893,0.050327708903576324,0.03609597827859794
1592167832.9994967,0.05402288049734273,9.060248122631076,4.163327712502191,-0.4388888888888889,-0.5077777777777778,-0.5866666666666667,0.13146373793311078,0.061460950798620455,0.052383
1592167833.0094967,-0.005521343228730871,9.042960797900976,3.9182949385562735,-0.4388888888888889,-0.5077777777777778,-0.5866666666666667,0.119312230196034,0.04949614341475431,0.03238264817547187
1592167833.0194967,-0.005859777155450749,9.06222991365009,3.8959336125897384,-0.4388888888888889,-0.5077777777777778,-0.5866666666666667,0.10605245031916354,0.04376916112130818,0.03466534503986754
1592167833.0294967,-0.028477309078166552,9.082647214623005,3.8139975897834204,-0.4388888888888889,-0.5077777777777778,-0.5866666666666667,0.08453158792203737,0.020061244833716012,0.0200845896789927
1592167833.0394967,0.004890262562601732,8.997088386899156,3.953608231033505,-0.4388888888888889,-0.4955555555555556,-0.5933333333333334,0.081863,0.028273389539529056,0.0641230184416291
1592167833.0494967,0.4452920415956967,9.080522121879728,3.998227589544914,-0.4388888888888889,-0.4955555555555556,-0.5933333333333334,0.06902410914234806,0.08387004335579738,0.09865239565932789
1592167833.0594966,0.4772059469038923,9.130378284319603,3.978447119369789,-0.4388888888888889,-0.4955555555555556,-0.5933333333333334,0.054153,0.07457130457621124,0.061561551615353316
1592167833.0694966,0.2698004403110457,9.040469882650711,4.159641535812526,-0.4388888888888889,-0.4955555555555556,-0.5933333333333334,0.05041780893140365,0.08952343864901458,0.08643191823611686
1592167833.0794966,0.3612425883634974,9.02458717772437,3.953298057800746,-0.4388888888888889,-0.4955555555555556,-0.5933333333333334,0.03850464179118537,0.16574341650125096,0.10945506658045243
1592167833.0894966,0.3536852840950933,8.936882262768881,3.892277819041947,-0.45111111111111113,-0.5077777777777778,-0.5733333333333334,0.015274799422514944,0.14699307051329216,0.08042189528007065
1592167833.0994966,0.16249837058675243,8.979138595942832,3.844506049807662,-0.45111111111111113,-0.5077777777777778,-0.5733333333333334,-0.02620469951840844,0.16491036308158874,0.04893214130479729
1592167833.1094966,0.07061075112451065,8.992993675261893,3.912648814904031,-0.45111111111111113,-0.5077777777777778,-0.5733333333333334,-0.0595866587416274,0.16590974390559396,0.009260862468517091
1592167833.1194966,-0.2339363593212156,9.025422199620689,3.9166653554488016,-0.45111111111111113,-0.5077777777777778,-0.5733333333333334,-0.08320325078198726,0.10289809284865904,-0.010425659037883074
1592167833.1294966,-0.2969061517873627,8.932133228513905,4.019101383350033,-0.45111111111111113,-0.5077777777777778,-0.5733333333333334,-0.09774344630163025,0.05350574501252007,0.030954644067142042
1592167833.1394966,-0.1903595686463819,9.031483725246828,4.05840386270702,-0.46555555555555556,-0.4955555555555556,-0.5522222222222222,-0.11420594927700954,0.02555651902436283,0.030909775186067183
1592167833.1494966,-0.16997335565849228,9.091427344197381,4.388217228323714,-0.46555555555555556,-0.4955555555555556,-0.5522222222222222,-0.1092430416140166,0.02773933456396709,0.0009092109006971533
1592167833.1594965,-0.27916174417332973,9.00001077019842,4.605887846995389,-0.46555555555555556,-0.4955555555555556,-0.5522222222222222,-0.07761804221889315,0.014186265399480976,-0.012785002224866872
1592167833.1694965,-0.16871192010963051,9.083912571384682,4.563956574592124,-0.46555555555555556,-0.4955555555555556,-0.5522222222222222,-0.03307933057582596,0.008322775742655072,-0.017887962863982684
1592167833.1794965,-0.2186656508314444,9.08888635555256,4.489824202681071,-0.46555555555555556,-0.4955555555555556,-0.5522222222222222,0.005770901586365023,0.016927884121630668,-0.041610518002021105
1592167833.1894965,-0.5443491786142627,8.946485390015162,4.345065371311808,-0.46555555555555556,-0.4955555555555556,-0.5733333333333334,0.04002227285493709,-0.028910089073759915,-0.004838439992717757
1592167833.1994965,-0.4378805012347658,9.056172410396686,4.136462530655045,-0.46555555555555556,-0.4955555555555556,-0.5733333333333334,0.0491313221851588,-0.04297479793510151,0.032249687347369604
1592167833.2094965,-0.37905243117927273,9.070310836316569,4.131706766916793,-0.46555555555555556,-0.4955555555555556,-0.5733333333333334,0.054299695939623506,-0.04178808874522257,0.028097940940830006
1592167833.2194965,-0.3095980078604285,9.025533231767781,4.191170806334625,-0.46555555555555556,-0.4955555555555556,-0.5733333333333334,0.055222,-0.03233396020163818,0.03315811942524579
1592167833.2294965,-0.15809584852600805,8.992420552371012,4.117734697616183,-0.46555555555555556,-0.4955555555555556,-0.5733333333333334,0.05604256417637647,-0.032513381792379614,0.02672160161010069
1592167833.2394965,-0.12989814617568812,9.025249602360324,3.9422543567264388,-0.46555555555555556,-0.4811111111111111,-0.5522222222222222,0.02977347019292935,-0.029301399374988858,0.018325061391351795
1592167833.2494965,-0.27612154478008355,8.937841169075865,3.8357579350854336,-0.46555555555555556,-0.4811111111111111,-0.5522222222222222,-0.004700003356841655,-0.029835691936337533,0.024424466898330385
1592167833.2594965,-0.2375692037530942,9.11863674382521,3.866560166797822,-0.46555555555555556,-0.4811111111111111,-0.5522222222222222,-0.023101391542694062,-0.024902284413399884,0.030373431046127077
1592167833.2694964,-0.20994320648795672,9.089683705840832,3.9679336403084062,-0.46555555555555556,-0.4811111111111111,-0.5522222222222222,-0.03212,-0.00020125393992292007,-0.011664775260953955
1592167833.2794964,-0.31434600168746135,9.06125734213072,3.921687627648168,-0.46555555555555556,-0.4811111111111111,-0.5522222222222222,-0.047091264049152835,-0.0012724408028432785,-0.03996602865088184
1592167833.2894964,-0.39824830613560336,9.100464040432275,3.872369095256682,-0.48444444444444446,-0.4811111111111111,-0.5377777777777778,-0.06449391003978186,0.00836982434680673,-0.07128903534613275
1592167833.2994964,-0.7466967581958003,9.0322286261341,4.015654955420434,-0.48444444444444446,-0.4811111111111111,-0.5377777777777778,-0.06925774455678403,-0.057642925771829334,-0.014253526028028471
1592167833.3094964,-0.3090853565305572,9.089192183124347,4.004891816593356,-0.48444444444444446,-0.4811111111111111,-0.5377777777777778,-0.07175973450958828,-0.06202926549041171,0.015301577999927766
1592167833.3194964,-0.16675336636043772,9.133252045696139,4.025573878738811,-0.48444444444444446,-0.4811111111111111,-0.5377777777777778,-0.07556714880706908,-0.061662347734275744,-0.030082691496193137
1592167833.3294964,-0.31189979408560586,9.051839122456112,3.926440066091063,-0.48444444444444446,-0.4811111111111111,-0.5377777777777778,-0.09258360114307496,-0.07210139567879714,-0.07279112145282021
1592167833.3394964,-0.45230226667048146,9.116564831068759,3.9915471993557157,-0.4777777777777778,-0.47555555555555556,-0.5377777777777778,-0.09633343868873352,-0.07917938061990765,-0.07585505806882588
1592167833.3494964,-0.37959673790103066,8.92476697228287,3.985923604412579,-0.4777777777777778,-0.47555555555555556,-0.5377777777777778,-0.1138476879938754,-0.1091497975016866,-0.05879080657363657
1592167833.3594964,-0.32852164217748653,9.019854917550754,3.856180120451617,-0.4777777777777778,-0.47555555555555556,-0.5377777777777778,-0.1367928864925907,-0.12050023147149194,-0.028712920469299456
1592167833.3694963,-0.18916326899243818,8.882072087761248,4.0921218709232825,-0.4777777777777778,-0.47555555555555556,-0.5377777777777778,-0.15760366703753753,-0.11818309361274465,-0.014310269334111378
1592167833.3794963,-0.11222517449739541,9.157055515724121,3.956890110472389,-0.4777777777777778,-0.47555555555555556,-0.5377777777777778,-0.182327,-0.11206444242074456,-0.010060081662991181
1592167833.3894963,-0.0299076235048582,9.018452360981357,4.188355094115569,-0.48444444444444446,-0.47555555555555556,-0.5244444444444445,-0.17471205869124418,-0.09190884084073021,-0.019961573057105476
1592167833.3994963,-0.09356304446129815,9.140790359112733,4.213464125537322,-0.48444444444444446,-0.47555555555555556,-0.5244444444444445,-0.16959447268851802,-0.07759097936638629,-0.04849876480847058
1592167833.4094963,-0.012095809972140954,8.981974743994279,4.154878727216714,-0.48444444444444446,-0.47555555555555556,-0.5244444444444445,-0.16067120616076025,-0.057888520839038796,-0.08225072952056922
1592167833.4194963,-0.04222324698807059,9.14245641250646,4.0542076371683775,-0.48444444444444446,-0.47555555555555556,-0.5244444444444445,-0.16581491027813558,-0.04786491027813558,-0.11005490129697527
1592167833.4294963,-0.403549,8.812614604494284,4.1000889654493715,-0.48444444444444446,-0.47555555555555556,-0.5244444444444445,-0.18102832397386054,-0.08301280072011948,-0.06403886585194851
1592167833.4394963,-0.1637861537559554,9.103178809893976,4.167783867383081,-0.47250838832628816,-0.4695875274964774,-0.5125083883262881,-0.17488297110780246,-0.107219146476333,0.009049140968029475
1592167833.4494963,0.11223887601782583,8.936547627442744,4.311748078031325,-0.4711111111111111,-0.4688888888888889,-0.5111111111111111,-0.17343917248068627,-0.10955809542151115,-0.0019894084966383986
1592167833.4594963,0.10938905101023637,8.932341327565668,4.313985889381717,-0.4711111111111111,-0.4688888888888889,-0.5111111111111111,-0.1814264623739526,-0.10740682079131754,-0.028429639913419284
1592167833.4694963,-0.004102099575564157,8.923775889023188,4.292347475509607,-0.4711111111111111,-0.4688888888888889,-0.5111111111111111,-0.18910107410173485,-0.10599857817983167,-0.044936074101734856
1592167833.4794962,0.06172215254386125,8.93903318440111,4.247304952449623,-0.4711111111111111,-0.4688888888888889,-0.5111111111111111,-0.19154545401208167,-0.11194045401208166,-0.05341034457054524
1592167833.4894962,-0.0009716413488368124,8.985850919957842,4.21598322127725,-0.476932593222857,-0.46694839485164025,-0.5305160514835974,-0.20651045639085516,-0.12671518793885414,-0.04998136917256551
1592167833.4994962,0.09069163604909405,8.901180667973145,4.431313997645554,-0.4777777777777778,-0.4666666666666667,-0.5333333333333333,-0.19772306454922825,-0.14622722710990357,-0.047745
1592167833.5094962,0.11072476005829907,8.998650076740134,4.487696066192045,-0.4777777777777778,-0.4666666666666667,-0.5333333333333333,-0.18344547297131905,-0.16821235242513397,-0.038424465497347994
1592167833.5194962,0.2701671505312673,8.95421663974758,4.481069821593478,-0.4777777777777778,-0.4666666666666667,-0.5333333333333333,-0.1615108896565667,-0.17256543677089484,-0.04715804754746468
1592167833.5294962,0.27952574483434633,8.949861526058395,4.481247995957958,-0.4777777777777778,-0.4666666666666667,-0.5333333333333333,-0.14954748799424133,-0.16688439358414917,-0.055376556124724016
1592167833.5394962,0.34873021956264155,8.955499159735801,4.630982962307996,-0.48444444444444446,-0.4533333333333333,-0.49777777777777776,-0.13384111419780179,-0.15189161889439623,-0.06248891574632275
1592167833.5494962,0.36407079035312856,8.951250819495693,4.760101,-0.48444444444444446,-0.4533333333333333,-0.49777777777777776,-0.10260547316139396,-0.13560570949446865,-0.06599719917760004
1592167833.5594962,0.2421606343353844,8.897464741697194,4.6586431227598295,-0.48444444444444446,-0.4533333333333333,-0.49777777777777776,-0.07801627513536037,-0.13423317717311456,-0.08232402908065067
1592167833.5694962,0.0650303773145741,8.871316123225654,4.5436152239305985,-0.48444444444444446,-0.4533333333333333,-0.49777777777777776,-0.06470990679856226,-0.14134955440739622,-0.08272371498962452
1592167833.5794961,0.000498126504886886,8.86295125645697,4.475167902530339,-0.48444444444444446,-0.4533333333333333,-0.49777777777777776,-0.0598906122268717,-0.14653008787577862,-0.07632437891384548
1592167833.5894961,0.06107357510962767,8.88747221020349,4.378553404672494,-0.48444444444444446,-0.45867422381762074,-0.49777777777777776,-0.06322061834645756,-0.14630695429656657,-0.071182
1592167833.5994961,0.04591778745685493,8.855539243091988,4.3804920342143,-0.48444444444444446,-0.46,-0.49777777777777776,-0.07368666997224761,-0.13250017202056893,-0.06368897196153757
1592167833.609496,0.15216052324804705,8.850789907141019,4.362723825628387,-0.48444444444444446,-0.46,-0.49777777777777776,-0.08104368528379242,-0.122971,-0.04582053502717898
1592167833.619496,0.28973951067297316,8.872544335202718,4.357505095642156,-0.48444444444444446,-0.46,-0.49777777777777776,-0.09268154857461304,-0.09291247012273411,-0.041198548574613046
1592167833.629496,0.28667459086401315,8.899672704465337,4.413050628258699,-0.48444444444444446,-0.46,-0.49777777777777776,-0.09285,-0.05334782437584916,-0.051765219889122416
1592167833.639496,0.19482308008562535,8.957594601163661,4.425512398872772,-0.5014276509607184,-0.46,-0.47324647947649323,-0.08915003314947811,-0.02311004270143368,-0.05594040775329846
1592167833.649496,-0.045373097589347114,8.972258785405277,4.514397053618849,-0.5044444444444445,-0.46,-0.4688888888888889,-0.07285756919905231,-0.04341617306123838,-0.034874259482361676
1592167833.659496,0.017560407492414325,8.934423421537385,4.596289637075265,-0.5044444444444445,-0.46,-0.4688888888888889,-0.05196470000437624,-0.050015774686506295,0.01252002089964397
1592167833.669496,0.1153874179098498,8.924957559711261,4.613521095934692,-0.5044444444444445,-0.46,-0.4688888888888889,-0.03047748933963807,-0.03935681174500312,0.028542928962146018
1592167833.679496,0.11177689036774059,8.847214015372375,4.658704816780644,-0.5044444444444445,-0.46,-0.4688888888888889,-0.02169832926699055,-0.00898738263230335,0.03215
1592167833.689496,0.09406313569895391,8.950980685351006,4.691302701143001,-0.5002085586281477,-0.45322258269392524,-0.4866796093173353,-0.0013676173881491654,0.011589361452749284,0.0058688619359140454
1592167833.699496,-0.06221678684174775,8.906350566645315,4.6893129914134795,-0.4988888888888889,-0.45111111111111113,-0.4922222222222222,0.027162238598430165,0.020178161558223568,-0.0012609614798967015
1592167833.709496,-0.1299538404489356,8.94833055958375,4.6377412147513,-0.4988888888888889,-0.45111111111111113,-0.4922222222222222,0.0471429364141219,0.014769144123697335,0.019799936414121894
1592167833.719496,0.014319288225003075,8.955874071398542,4.574882664719692,-0.4988888888888889,-0.45111111111111113,-0.4922222222222222,0.0720100418830357,0.016603059108534487,0.02465694089146551
1592167833.729496,0.11992209635060999,8.90803381534085,4.469983163751646,-0.4988888888888889,-0.45111111111111113,-0.4922222222222222,0.08329073161922218,0.01626220015390472,0.012758589869237797
1592167833.739496,0.13887548664419147,8.89633447897995,4.345565417978639,-0.5048310342461053,-0.4417734541211996,-0.4701513966097042,0.07520139728856526,0.014187050734736164,-0.0060704238978957535
1592167833.749496,0.07691001330341408,8.929283051113725,4.366035335054856,-0.5066666666666667,-0.4388888888888889,-0.4633333333333333,0.07313950545616839,0.018949667128754545,0.01074419794218534
1592167833.759496,0.1042924108305236,8.845383897993637,4.39377213852443,-0.5066666666666667,-0.4388888888888889,-0.4633333333333333,0.072266,0.02171635717939933,0.03978330204672909
1592167833.769496,0.26787565260167145,8.836377049306336,4.321928672584497,-0.5066666666666667,-0.4388888888888889,-0.4633333333333333,0.06825201277909393,0.04608969865505563,0.06713244600518369
1592167833.779496,0.07520798573982079,8.85586727658674,4.202363955539994,-0.5066666666666667,-0.4388888888888889,-0.4633333333333333,0.0449246181448172,0.039109065008977054,0.05623091774220258
1592167833.789496,0.004359979899073789,8.85850750616708,4.152678470535775,-0.4965404844453879,-0.4388888888888889,-0.4582702422226939,0.013399927415824605,0.037064728001741494,0.09015161344960787
1592167833.799496,0.26143708382121894,8.839479284167119,3.9743377437085137,-0.49333333333333335,-0.4388888888888889,-0.45666666666666667,-0.030296598642029257,0.06326765455289989,0.06719212190475626
1592167833.809496,0.2629836382888416,8.807257136197723,4.048739129399714,-0.49333333333333335,-0.4388888888888889,-0.45666666666666667,-0.08265324570883463,0.09861335231160184,0.023314004681354517
1592167833.819496,0.10994686820126556,8.848616220084066,4.265563966588593,-0.49333333333333335,-0.4388888888888889,-0.45666666666666667,-0.11951913350687084,0.10477927104698229,-0.0036437427024700775
1592167833.829496,-0.06647175939000949,8.884457016403335,4.513739436026041,-0.49333333333333335,-0.4388888888888889,-0.45666666666666667,-0.1259993342011536,0.10059923213421545,0.02003896998891863
1592167833.839496,0.03747931659460449,8.80168031392573,4.595464533085567,-0.49815131730433554,-0.4311801145352853,-0.41908639169284934,-0.11847374756461536,0.09653174756461536,0.023888912580251866
1592167833.849496,-0.0035028162660940346,8.935392612114377,4.453903828667112,-0.4988888888888889,-0.43,-0.41333333333333333,-0.11737224331704603,0.10669813758197379,-0.003216728097920182
1592167833.8594959,-0.19400720403620728,8.817175918285724,4.580694009793089,-0.4988888888888889,-0.43,-0.41333333333333333,-0.110962,0.10629682680550934,-0.010263853000343742
1592167833.8694959,-0.36183140246145196,8.860526647123237,4.54897328025365,-0.4988888888888889,-0.43,-0.41333333333333333,-0.11541313394831308,0.07953006360238177,0.005223977314768206
1592167833.8794959,-0.29551109335615094,8.880762036403816,4.5811803140631735,-0.4988888888888889,-0.43,-0.41333333333333333,-0.10196124373528859,0.083694,0.015134365959819103
1592167833.8894958,-0.2890061114866009,8.804930043242912,4.7049489207211845,-0.48764438678465827,-0.43,-0.4189555843854486,-0.09018013382649263,0.082626,0.03138590181646784
1592167833.8994958,-0.14276017112137973,8.807302824702571,4.757313159303877,-0.4811111111111111,-0.43,-0.4222222222222222,-0.07518797547339859,0.08060882039379284,0.057905222041481776
1592167833.9094958,-0.0657559778446325,8.807172580026633,4.697858163755958,-0.4811111111111111,-0.43,-0.4222222222222222,-0.05909414354701702,0.090088,0.04774519646056397
1592167833.9194958,-0.265958625325561,8.766445841226442,4.5706615303504385,-0.4811111111111111,-0.43,-0.4222222222222222,-0.061161905014989824,0.09036494641235647,0.027644756442336126
1592167833.9294958,-0.3201554189242467,8.737373805208103,4.631660581769144,-0.4811111111111111,-0.43,-0.4222222222222222,-0.07014719519795987,0.08040338293689471,0.04703939212724076
1592167833.9394958,-0.2787276775614206,8.795026664675012,4.637712748787221,-0.49757569713447897,-0.4251978290765177,-0.4215361978045819,-0.08089870638990251,0.0528605844058211,0.04727635929565155
1592167833.9494958,-0.38998242635670693,8.840136536480484,4.65617365877751,-0.5077777777777778,-0.4222222222222222,-0.4211111111111111,-0.06702850890366549,0.03418801780733096,0.038020619843539515
1592167833.9594958,-0.37904098773710926,8.739370832573936,4.636253269405652,-0.5077777777777778,-0.4222222222222222,-0.4211111111111111,-0.06522022491293218,0.008841622399286483,0.05659761899017586
1592167833.9694958,-0.2472857466952178,8.82973834019817,4.60781236595718,-0.5077777777777778,-0.4222222222222222,-0.4211111111111111,-0.068344,-0.015321663109105417,0.04603752076606242
1592167833.9794958,-0.2296132254467162,8.760008501958874,4.615138154207009,-0.5077777777777778,-0.4222222222222222,-0.4211111111111111,-0.07253398674126463,-0.018536256407199726,0.023957488074272403
1592167833.9894958,-0.13561748078241365,8.813429187349648,4.71215907821189,-0.5077777777777778,-0.42156349542083815,-0.40925402868619815,-0.07167021039263434,-0.015381,-0.017400371060868586
1592167833.9994957,-0.283636147770591,8.852833370747632,4.773603967400914,-0.5077777777777778,-0.4211111111111111,-0.4011111111111111,-0.060631470497845,-0.020349930295415763,-0.057518860120015156
1592167834.0094957,-0.24633991796606292,8.779137691760397,4.749823122368459,-0.5077777777777778,-0.4211111111111111,-0.4011111111111111,-0.04577017524792991,-0.01844644133966102,-0.036821289473385366
1592167834.0194957,-0.10574961818077797,8.841981345985513,4.698108802521113,-0.5077777777777778,-0.4211111111111111,-0.4011111111111111,-0.03302598871253959,-0.03243551716362109,-0.04578365418715035
1592167834.0294957,-0.22897916101871532,8.731562912671045,4.619443617208171,-0.5077777777777778,-0.4211111111111111,-0.4011111111111111,-0.028926471420754697,-0.04501584136227091,-0.04687550699558167
1592167834.0394957,-0.12475227782361309,8.787857794174004,4.5294914239766015,-0.5009788613230852,-0.41122177808610366,-0.38442286163141104,-0.043013953920224265,-0.048607939693095466,-0.05015725545474695
1592167834.0494957,-0.15236365989555214,8.808100784694364,4.577717215305635,-0.4955555555555556,-0.4033333333333333,-0.3711111111111111,-0.04953109649452253,-0.05055199266557382,-0.0706101627298942
1592167834.0594957,-0.3573201293665267,8.776252711202007,4.588096244886344,-0.4955555555555556,-0.4033333333333333,-0.3711111111111111,-0.05852080542262718,-0.06891810561260947,-0.059679724909782295
1592167834.0694957,-0.16916958347741098,8.73012067267399,4.39395052731375,-0.4955555555555556,-0.4033333333333333,-0.3711111111111111,-0.08049744174099861,-0.07617102241844881,-0.05740716536453878
1592167834.0794957,-0.15612815908839628,8.75114302558563,4.372989518859565,-0.4955555555555556,-0.4033333333333333,-0.3711111111111111,-0.10707623054280836,-0.08132664552599062,-0.07179486631189139
1592167834.0894957,-0.20527852131487864,8.732383983346242,4.445924098738866,-0.49216025345782916,-0.4022015659674245,-0.37563818057474635,-0.13154224072097215,-0.0895852908465204,-0.07153862755148599
1592167834.0994956,-0.16313163449207327,8.758675848778497,4.57507230984563,-0.4888888888888889,-0.4011111111111111,-0.38,-0.14631158126226396,-0.097397,-0.0726365696172586
1592167834.1094956,-0.16170247863526763,8.788961824780264,4.7565485047385305,-0.4888888888888889,-0.4011111111111111,-0.38,-0.1456336337514298,-0.10558225153708196,-0.05377410894515685
1592167834.1194956,-0.18540983829324853,8.816936868194265,5.035803216057221,-0.4888888888888889,-0.4011111111111111,-0.38,-0.11915487309403669,-0.11232,-0.01582945471318309
1592167834.1294956,-0.01498477942917065,8.847741866555184,5.044544629970065,-0.4888888888888889,-0.4011111111111111,-0.38,-0.07678375422916084,-0.1063557477734511,-0.0004150491388559038
1592167834.1394956,0.1301592644082464,8.786374211582014,5.023683426682846,-0.4927661785389261,-0.39271031686936375,-0.3761227103499628,-0.04554041977176532,-0.0842639305536148,-0.023327847977929653
1592167834.1494956,0.08385953243789614,8.784552507238823,5.032647876128431,-0.4955555555555556,-0.38666666666666666,-0.37333333333333335,-0.019764855168798407,-0.061103113332095664,-0.05260261265883338
1592167834.1594956,-0.0019565062658274722,8.756301158696159,4.963121590211116,-0.4955555555555556,-0.38666666666666666,-0.37333333333333335,0.008597776733607699,-0.05524356472424908,-0.06565873613456268
1592167834.1694956,-0.0591806493879201,8.775728307517246,4.90466980411903,-0.4955555555555556,-0.38666666666666666,-0.37333333333333335,0.03183746928807627,-0.0595324405343003,-0.0717695594656997
1592167834.1794956,-0.10132687907608334,8.730051335986671,4.835026695179129,-0.4955555555555556,-0.38666666666666666,-0.37333333333333335,0.04647810727557461,-0.07015193628949815,-0.07500506371050185
1592167834.1894956,-0.07277491112219443,8.696516418705803,4.855112578058959,-0.48905988135362777,-0.3931623408685945,-0.36333998840729054,0.05967538096921075,-0.07030767685809605,-0.06887374235642796
1592167834.1994956,-0.047928059581518884,8.753939862549037,4.770417135378562,-0.4811111111111111,-0.4011111111111111,-0.3511111111111111,0.06452676462078777,-0.07755462546676159,-0.06731562546676159
1592167834.2094955,-0.1676249230069376,8.711695146614343,4.698577071811367,-0.4811111111111111,-0.4011111111111111,-0.3511111111111111,0.06693749837134491,-0.07822446308616779,-0.055176622514524036
1592167834.2194955,-0.07250108002991829,8.750193390849457,4.567418065545721,-0.4811111111111111,-0.4011111111111111,-0.3511111111111111,0.05251459344024791,-0.07798527488641865,-0.05217692295753428
1592167834.2294955,-0.1487957060112131,8.663671270445434,4.5146345753048465,-0.4811111111111111,-0.4011111111111111,-0.3511111111111111,0.03444542318429064,-0.068634,-0.0620663787797257
1592167834.2394955,-0.21647205815934703,8.718569623763944,4.558232580357729,-0.48438634024330696,-0.3973679921028873,-0.33613863507821584,0.007238278483281389,-0.07613955602320725,-0.06025898313800875
1592167834.2494955,-0.25551483479763726,8.681958329339475,4.707423656352179,-0.4888888888888889,-0.39222222222222225,-0.31555555555555553,-0.004836450395647425,-0.08608945039564743,-0.04308787584983229
1592167834.2594955,-0.11823315180514032,8.713413661658512,4.712736673387077,-0.4888888888888889,-0.39222222222222225,-0.31555555555555553,-0.014672234315929206,-0.09417255653380342,-0.04396699104695261
1592167834.2694955,-0.12902034479855778,8.709570903765899,4.708020353244841,-0.4888888888888889,-0.39222222222222225,-0.31555555555555553,-0.026497879051676377,-0.08148815028831738,-0.07715639372167325
1592167834.2794955,-0.3257308392017045,8.673855732744713,4.685637578384359,-0.4888888888888889,-0.39222222222222225,-0.31555555555555553,-0.032443683741116155,-0.09132683527844813,-0.07031244367326256
1592167834.2894955,-0.2538930409668595,8.776746760143222,4.615986402862977,-0.4835784972468592,-0.3967156305347089,-0.31310460556692643,-0.03705648060926926,-0.09859824545450611,-0.06506483645687701
1592167834.2994955,-0.3229451783125099,8.763328731231756,4.409094802323596,-0.47444444444444445,-0.40444444444444444,-0.3088888888888889,-0.05279319895960323,-0.09323982076169605,-0.07991023954640201
1592167834.3094954,-0.4651587810812322,8.705654358074836,4.385341131128904,-0.47444444444444445,-0.40444444444444444,-0.3088888888888889,-0.08753343780393613,-0.095276,-0.07586171266430146
1592167834.3194954,-0.4516021518343491,8.720103097708847,4.546182434501233,-0.47444444444444445,-0.40444444444444444,-0.3088888888888889,-0.11543954507520571,-0.08839667658380088,-0.06377961201205476
1592167834.3294954,-0.4285735463903491,8.756199557587852,4.770963024547577,-0.47444444444444445,-0.40444444444444444,-0.3088888888888889,-0.12046203330198053,-0.07387703330198053,-0.059431351856056476
1592167834.3394954,-0.4166762849878245,8.736293244558109,4.88392906772386,-0.4827127377197639,-0.40270375112332457,-0.30627784890720905,-0.107837320138641,-0.06653554898995544,-0.052073622310468026
1592167834.3494954,-0.43030985877486205,8.745318146642362,4.940162069422577,-0.4955555555555556,-0.4,-0.3022222222222222,-0.0838850936465505,-0.06428701865413566,-0.031243475940390078
1592167834.3594954,-0.4531348040937933,8.824631037696193,4.933180160175058,-0.4955555555555556,-0.4,-0.3022222222222222,-0.05140298582950027,-0.06360250219805358,-0.010760471642582883
1592167834.3694954,-0.39758590171297886,8.81305941652733,4.783007541955389,-0.4955555555555556,-0.4,-0.3022222222222222,-0.02552576444490953,-0.052978875781736955,-0.00024333214820667802
1592167834.3794954,-0.3443524652556289,8.793617505980771,4.693289943523937,-0.4955555555555556,-0.4,-0.3022222222222222,-0.017482793316750827,-0.039100290082730825,0.006172584887436735
1592167834.3894954,-0.21208461083611402,8.803877555555438,4.7222786703811375,-0.4935424816416169,-0.3971816965204859,-0.3046379109189486,-0.013279088812189465,-0.018968574455160057,-0.009999676702047506
1592167834.3994954,-0.30968807995731346,8.788852345092286,4.8337519253555845,-0.49,-0.39222222222222225,-0.3088888888888889,-0.009077107122599385,-0.00266922256357447,-0.02394085286745524
1592167834.4094954,-0.4251902908011797,8.747557965290138,4.911709611730697,-0.49,-0.39222222222222225,-0.3088888888888889,0.015022365598948529,-0.004438057076152559,0.0056114712509731865
1592167834.4194953,-0.26963017943737405,8.71307582665494,4.891952574563523,-0.49,-0.39222222222222225,-0.3088888888888889,0.04072681209949391,-0.015689984210835263,0.05911185056919172
1592167834.4294953,-0.06650436965747114,8.791482582152923,4.813962819569761,-0.49,-0.39222222222222225,-0.3088888888888889,0.04833265421548338,0.007337438539529258,0.03689562739554096
1592167834.4394953,-0.38386723587675625,8.771889508896345,4.708845974651867,-0.49,-0.3901436078268686,-0.2978029454470027,0.04807925859071174,0.0305527407492117,-0.002084555891947053
1592167834.4494953,-0.5531343616091239,8.644207908105152,4.708492315782591,-0.49,-0.38555555555555554,-0.2733333333333333,0.044512159520087156,0.02738741600778035,0.024768080002408627
1592167834.4594953,-0.2919220591284417,8.658638808366586,4.5972178870975675,-0.49,-0.38555555555555554,-0.2733333333333333,0.026926454519841783,0.01727993463663707,0.04139336050915785
1592167834.4694953,-0.08499851362268798,8.627225057405145,4.537325989823224,-0.49,-0.38555555555555554,-0.2733333333333333,-0.012592668694842522,0.041047929463072785,0.004179870591584169
1592167834.4794953,-0.22896913866340096,8.662743150351798,4.6485388379598085,-0.49,-0.38555555555555554,-0.2733333333333333,-0.050345777545145756,0.05774428911154963,-0.07506237970281565
1592167834.4894953,-0.862314726467184,8.624131829321017,4.868263672083611,-0.4805317922676719,-0.3780598911007958,-0.2709662814002513,-0.04931820610189712,0.012471459855959266,-0.040139400960819506
1592167834.4994953,-0.49988994284537186,8.63352402380973,4.901505699936324,-0.4633333333333333,-0.36444444444444446,-0.26666666666666666,-0.036971777316958075,-0.02870744184661847,0.026055256355054547
1592167834.5094953,-0.38967501191480003,8.679895180373606,4.60936813344043,-0.4633333333333333,-0.36444444444444446,-0.26666666666666666,-0.05585199620822362,-0.030740834733114834,-0.01563516147510878
1592167834.5194952,-0.6608674847178714,8.685970217972839,4.722055495195749,-0.4633333333333333,-0.36444444444444446,-0.26666666666666666,-0.08160858688969894,-0.02864507770413831,-0.0539894413047941
1592167834.5294952,-0.8147358724995396,8.701920408455972,4.9751667433748485,-0.4633333333333333,-0.36444444444444446,-0.26666666666666666,-0.07233773455141064,-0.03866061243830674,-0.07324325693696535
1592167834.5394952,-0.7746035733447744,8.700850519032802,4.888932742148301,-0.46496544353958,-0.36444444444444446,-0.26550087366220476,-0.05749313110036332,-0.053464409301398404,-0.07085077451728475
1592167834.5494952,-0.6736495797817396,8.715421343592181,4.8140541266002295,-0.4711111111111111,-0.36444444444444446,-0.2611111111111111,-0.049983765398946146,-0.05949280857758718,-0.06153814824377179
1592167834.5594952,-0.6843951862882651,8.686605272682957,4.9393386632105845,-0.4711111111111111,-0.36444444444444446,-0.2611111111111111,-0.04095911101605882,-0.060455674924576326,-0.0503649406822349
1592167834.5694952,-0.7242810565642428,8.674936649738132,5.039336586326769,-0.4711111111111111,-0.36444444444444446,-0.2611111111111111,-0.024704028224537,-0.07694805569384042,-0.030273143897821583
1592167834.5794952,-0.6885389496249218,8.706712946052818,4.9951029469060995,-0.4711111111111111,-0.36444444444444446,-0.2611111111111111,-0.0030109803523946325,-0.07326335058311759,-0.014020158375533581
1592167834.5894952,-0.6748887976357116,8.705324048282678,4.858016781662171,-0.4680472316249975,-0.3616162479957242,-0.25050537442841025,0.007294,-0.06054547076590396,-0.021879658076002978
1592167834.5994952,-0.8104068025293991,8.714370233236552,4.807645777684447,-0.45666666666666667,-0.3511111111111111,-0.2111111111111111,0.008635972401186454,-0.05942407397820136,-0.042312960179434006
1592167834.6094952,-1.0099685219509207,8.699809218242628,4.788322379560544,-0.45666666666666667,-0.3511111111111111,-0.2111111111111111,0.010717226077302808,-0.08161656505349688,-0.04616964227209036
1592167834.6194952,-0.9141857904719091,8.732904052056941,4.704972480104607,-0.45666666666666667,-0.3511111111111111,-0.2111111111111111,0.018078459535230424,-0.11321166927420002,-0.04678764770011657
1592167834.6294951,-0.7846326446799847,8.730236685331475,4.546913466357517,-0.45666666666666667,-0.3511111111111111,-0.2111111111111111,0.006707851590306527,-0.12759625205927458,-0.0568880790871312
1592167834.6394951,-0.6769020823158067,8.727501554582112,4.536695838461892,-0.4529492464346669,-0.3511111111111111,-0.21753210969365616,-0.013841490943832087,-0.13166650905616792,-0.05999739286085221
1592167834.6494951,-0.5582848652631196,8.73177362271019,4.679053261741934,-0.4444444444444444,-0.3511111111111111,-0.23222222222222222,-0.02435305301971001,-0.1178150835608325,-0.07481396558635586
1592167834.659495,-0.5761380166871432,8.742292602289211,4.7188446926204906,-0.4444444444444444,-0.3511111111111111,-0.23222222222222222,-0.02905321012471534,-0.1049509210076574,-0.08917178987528465
1592167834.669495,-0.5586857223463916,8.737521060330588,4.682729225206919,-0.4444444444444444,-0.3511111111111111,-0.23222222222222222,-0.03444483275322664,-0.08734324418963864,-0.08506907200266395
1592167834.679495,-0.508063293692113,8.703299646974044,4.673178709122213,-0.4444444444444444,-0.3511111111111111,-0.23222222222222222,-0.03752529357753039,-0.07903504325091418,-0.054017632086068426
1592167834.689495,-0.3979031185167444,8.74915638065859,4.754900367270821,-0.44290946828642935,-0.3511111111111111,-0.23038025083260416,-0.03733019278058328,-0.07275059596372077,-0.02101451885148746
1592167834.699495,-0.376190416110405,8.75858256814238,4.7805429186027055,-0.4388888888888889,-0.3511111111111111,-0.22555555555555556,-0.02893647117703219,-0.05906480039254851,-0.01261130348091127
1592167834.709495,-0.2384908274732846,8.73112503093623,4.8834294696079095,-0.4388888888888889,-0.3511111111111111,-0.22555555555555556,-0.017389340213618085,-0.027543170225678475,0.001103285838023417
1592167834.719495,-0.09441100358464953,8.753298900274924,4.992095996112203,-0.4388888888888889,-0.3511111111111111,-0.22555555555555556,-0.0017511652823622645,0.007140648813130613,-0.010181653695067686
1592167834.729495,-0.14184821521870572,8.712457093967997,5.068256212056295,-0.4388888888888889,-0.3511111111111111,-0.22555555555555556,0.017094258163477864,0.05011265008653968,-0.009654720430615348
1592167834.739495,-0.22467295152987193,8.677854453486727,5.0948824062767,-0.4405265054271945,-0.34947349457280547,-0.2271931720938612,0.04417297371109438,0.07392498830171888,0.015423539006271577
1592167834.749495,-0.21301699174037725,8.664650012390183,5.007051227621371,-0.44555555555555554,-0.34444444444444444,-0.23222222222222222,0.06304897232545445,0.09336137023853815,0.0358457733689126
1592167834.759495,-0.39323758963442496,8.623089824373594,4.8454363659046855,-0.44555555555555554,-0.34444444444444444,-0.23222222222222222,0.0657057731131505,0.08323936996375499,0.045376630036245015
1592167834.769495,-0.39575578372306275,8.738135925697105,4.779838645737954,-0.44555555555555554,-0.34444444444444444,-0.23222222222222222,0.06888042757630394,0.05466767932623689,0.05036699858817315
1592167834.779495,-0.3752077991203922,8.70161387402747,4.7758492284665,-0.44555555555555554,-0.34444444444444444,-0.23222222222222222,0.0693076159000826,0.03486189695859521,0.03997639128711294
1592167834.789495,-0.27831572112892444,8.690385149605124,4.731477752932903,-0.4466597644760175,-0.34504674021924187,-0.23161992644742477,0.06559059959454845,0.025617819295690028,0.040627009242393465
1592167834.799495,-0.16211217822967558,8.695999711867481,4.803104507347512,-0.4577777777777778,-0.3511111111111111,-0.22555555555555556,0.061615,0.020653185664464137,0.03234687761224576
1592167834.809495,-0.33808241394828886,8.693685866571299,4.755479163576526,-0.4577777777777778,-0.3511111111111111,-0.22555555555555556,0.05192079246792539,0.014770430967621298,-0.003537736761500131
1592167834.819495,-0.5844696996455541,8.598932764699661,4.806177552940789,-0.4577777777777778,-0.3511111111111111,-0.22555555555555556,0.04170200749941691,0.004839108978891221,-0.0058102320729140275
1592167834.829495,-0.6449954982531231,8.61074990755861,4.897135461579653,-0.4577777777777778,-0.3511111111111111,-0.22555555555555556,0.03748501825261536,0.003914180437474341,0.0020030365052307155
1592167834.839495,-0.7601000043045378,8.747228863836114,4.878675503516965,-0.4546190075816308,-0.34999625104188276,-0.22314002540556083,0.04362561151497034,-0.004173423515348119,-0.010841280929950068
1592167834.849495,-0.838773027467828,8.734233211813933,4.935016424928424,-0.4388888888888889,-0.34444444444444444,-0.2111111111111111,0.06177245064946411,-0.02405951252795461,-0.023459384377719935
1592167834.859495,-0.7615534086014779,8.717208258146366,4.818945668594581,-0.4388888888888889,-0.34444444444444444,-0.2111111111111111,0.08291122561677255,-0.05128090951737171,-0.015353944737600253
1592167834.869495,-0.5490648191276456,8.742122000150838,4.718316193866942,-0.4388888888888889,-0.34444444444444444,-0.2111111111111111,0.085052,-0.064377,-0.008818193244048526
1592167834.879495,-0.4761174140807167,8.770128546721946,4.541584596355634,-0.4388888888888889,-0.34444444444444444,-0.2111111111111111,0.07804462238636843,-0.05471120157030604,-0.010492670146137334
1592167834.889495,-0.46920918778252796,8.757719398724886,4.534519757577303,-0.4399711087035031,-0.34444444444444444,-0.2111111111111111,0.061189294238270506,-0.04052147506772285,-0.021053736030108367
1592167834.899495,-0.6262119027063004,8.777197342175905,4.550275969717604,-0.44555555555555554,-0.34444444444444444,-0.2111111111111111,0.047462596290042264,-0.02767994832634087,-0.02906805167365913
1592167834.9094949,-0.745331,8.733954302431911,4.549796439246298,-0.44555555555555554,-0.34444444444444444,-0.2111111111111111,0.036968165910795936,-0.03149840640724965,-0.025845401583482766
1592167834.9194949,-0.7164137334661804,8.717417318407193,4.506771632684314,-0.44555555555555554,-0.34444444444444444,-0.2111111111111111,0.02580788799388757,-0.04074717084701093,-0.011304883441128639
1592167834.9294949,-0.6322337348455954,8.705026494848653,4.4642414247758895,-0.44555555555555554,-0.34444444444444444,-0.2111111111111111,0.009035256504321573,-0.0535782719435807,0.005626691813487756
1592167834.9394948,-0.4822502298660361,8.725323817685474,4.480770272259894,-0.44181371762855026,-0.3435089849626931,-0.20908428223398323,-0.01235718713748592,-0.045706231610070175,0.03047468450783332
1592167834.9494948,-0.2109687246316585,8.738485952210212,4.557672096832557,-0.41888888888888887,-0.3377777777777778,-0.19666666666666666,-0.02989317091375407,-0.012961140531854985,0.047341859468145016
1592167834.9594948,0.042245354558750434,8.796498522145654,4.595562662668092,-0.41888888888888887,-0.3377777777777778,-0.19666666666666666,-0.04082236637510764,6.588911190732625e-05,0.04657356318754153
1592167834.9694948,0.16407289233392722,8.768724924458981,4.637606215495142,-0.41888888888888887,-0.3377777777777778,-0.19666666666666666,-0.04817329020825426,0.01990382862964736,0.031159449389116363
1592167834.9794948,0.08231216573102754,8.766589739860526,4.654930520278948,-0.41888888888888887,-0.3377777777777778,-0.19666666666666666,-0.05606854895832744,0.034093294026004514,0.012251170984044464
1592167834.9894948,-0.023288913838635822,8.744439295308275,4.721373202408558,-0.41888888888888887,-0.3377777777777778,-0.19666666666666666,-0.05960845309275831,0.038291151837350525,0.001654359278274908
1592167834.9994948,-0.07274680209466419,8.748321479804945,4.678844295004134,-0.4388888888888889,-0.33,-0.2111111111111111,-0.060883,0.03844732774706936,-0.0010040331598794735
1592167835.0094948,-0.12179490046130523,8.719252900461305,4.664606654641696,-0.4388888888888889,-0.33,-0.2111111111111111,-0.06349533686426292,0.04091971473249644,0.007485474201620321
1592167835.0194948,-0.1339011101536195,8.71630549579157,4.674078221559545,-0.4388888888888889,-0.33,-0.2111111111111111,-0.06967546410123451,0.03736279862216453,0.009106345982601528
1592167835.0294948,-0.10751876817822391,8.735010913479615,4.733118297556981,-0.4388888888888889,-0.33,-0.2111111111111111,-0.07270493830281752,0.03352606169718249,0.013073938302817514
1592167835.0394948,-0.06873265320260909,8.7419871412001,4.7328504478942515,-0.4388888888888889,-0.33,-0.2111111111111111,-0.07374521585110846,0.03513886917866002,0.011902
1592167835.0494947,-0.06287210167409076,8.719557780102841,4.867700671744984,-0.45111111111111113,-0.3377777777777778,-0.23222222222222222,-0.0735735524635809,0.045444447536419096,0.010882061277178497
1592167835.0594947,-0.10789892331801533,8.711199250230434,4.918125952786158,-0.45111111111111113,-0.3377777777777778,-0.23222222222222222,-0.06496913626544085,0.04966775447483946,0.010854681649146611
1592167835.0694947,-0.14226879508740067,8.702924105471366,4.9777458047563545,-0.45111111111111113,-0.3377777777777778,-0.23222222222222222,-0.044978731488465144,0.04856667238933297,0.014023613290200795
1592167835.0794947,-0.17709593921849562,8.698608475966664,4.961866708833855,-0.45111111111111113,-0.3377777777777778,-0.23222222222222222,-0.02817778193000236,0.04538353843620845,0.021344370253618836
1592167835.0894947,-0.10897693675518433,8.712310742117667,4.8880987734844235,-0.45111111111111113,-0.3377777777777778,-0.23222222222222222,-0.016395296739390334,0.03505912157108188,0.026622409807603987
1592167835.0994947,-0.023547249079888442,8.717368551533074,4.7999551121959465,-0.45111111111111113,-0.3377777777777778,-0.23222222222222222,-0.008902190317141298,0.027544152321397928,0.02286069338039522
1592167835.1094947,-0.018407202602595218,8.717490097674185,4.777270393533105,-0.45111111111111113,-0.3377777777777778,-0.23222222222222222,-0.009881279117216639,0.026169,0.015629272661040475
1592167835.1194947,-0.04960722599063514,8.722983276153977,4.818758276011946,-0.45111111111111113,-0.3377777777777778,-0.23222222222222222,-0.007788221809993031,0.020409206236623317,0.009187984426630285
1592167835.1294947,-0.0670037400964816,8.724619157322842,4.836721315249607,-0.45111111111111113,-0.3377777777777778,-0.23222222222222222,-0.0017939753082916753,0.018893866613124966,0.006763866613124964
