time,acc_x,acc_y,acc_z,mag_x,mag_y,mag_z,gyr_x,gyr_y,gyr_z
1592167846.9894834,-0.1273204784139186,8.838634988746534,4.6086166401785835,-0.45111111111111113,-0.3466666666666667,-0.21444444444444444,0.02153126043488099,0.008636399018891452,0.022379541551104012
1592167846.9994833,-0.09600098648077329,8.857778429801083,4.5811248010264665,-0.4507718344711783,-0.345926426724995,-0.21425938445902654,0.029522501113469515,0.010333498886530484,0.029873501113469515
1592167847.0094833,-0.08821827818645672,8.840665080258734,4.587891234185578,-0.4388888888888889,-0.32,-0.20777777777777778,0.03458970424699928,0.006365833820082274,0.030449956808972334
1592167847.0194833,-0.08736356129808363,8.860312116365273,4.540366124814082,-0.4388888888888889,-0.32,-0.20777777777777778,0.040464756556365555,0.004459454763639141,0.03386283693879009
1592167847.0294833,-0.09181218044097306,8.863779293806916,4.5086668812378665,-0.4388888888888889,-0.32,-0.20777777777777778,0.043503,0.00919810793919203,0.03571936931306401
1592167847.0394833,-0.09060896899461776,8.83291831969211,4.450302203430161,-0.4388888888888889,-0.32,-0.20777777777777778,0.04282426610972925,0.007762732121224622,0.03674908700080124
1592167847.0494833,-0.09428758064012159,8.862850382020646,4.432720651455812,-0.4388888888888889,-0.32,-0.20782292037905165,0.04010830910434915,0.0013446517957980085,0.03980169089565085
1592167847.0594833,-0.18219575363113366,8.86830256929262,4.4702618176273115,-0.4388888888888889,-0.32,-0.2222222222222222,0.034768371439392196,-0.0007421206325716101,0.04655824126514322
1592167847.0694833,-0.15122594893814675,8.877517315264468,4.548380903675836,-0.4388888888888889,-0.32,-0.2222222222222222,0.038387274333795636,-0.0023376731151908124,0.0494816194422692
1592167847.0794833,-0.11050697575803672,8.890645249524026,4.620755999679982,-0.4388888888888889,-0.32,-0.2222222222222222,0.05042473767755027,-0.004190737677550266,0.03100949136560245
1592167847.0894833,-0.2479011913442813,8.87303187850548,4.56383639813402,-0.4388888888888889,-0.32,-0.2222222222222222,0.06219791732784151,-0.02264378166630459,0.000183
1592167847.0994833,-0.2852103910974167,8.874086551537507,4.576789872255126,-0.4388888888888889,-0.32,-0.2222222222222222,0.06760386537055812,-0.02354033553436684,0.011997245544794302
1592167847.1094832,-0.20116253645797913,8.852322143890953,4.530510700948764,-0.45666666666666667,-0.31444444444444447,-0.2222222222222222,0.07254343656007768,-0.019024134385557317,0.016396638610216917
1592167847.1194832,-0.29081497054107774,8.88562165460316,4.394952656847724,-0.45666666666666667,-0.31444444444444447,-0.2222222222222222,0.07204570886427127,-0.03338207546772358,0.006355047073525549
1592167847.1294832,-0.45140011786275525,8.889692084741936,4.371161093931389,-0.45666666666666667,-0.31444444444444447,-0.2222222222222222,0.06660864443067077,-0.03841278897647132,0.0025672247851987124
1592167847.1394832,-0.5764204188867135,8.892726636434968,4.3107642687330685,-0.45666666666666667,-0.31444444444444447,-0.2222222222222222,0.05708204021002202,-0.05438854183898769,0.007645
1592167847.1494832,-0.6055119251960636,8.885292943511791,4.190881950717309,-0.456559421182266,-0.31455168992884514,-0.22215397509578544,0.04004095980161319,-0.08048950728160827,0.009875513447329683
1592167847.1594832,-0.6136893474089273,8.887062575701103,4.224014936804025,-0.4444444444444444,-0.32666666666666666,-0.21444444444444444,0.020125069033517472,-0.0825089583400591,0.015099315927506077
1592167847.1694832,-0.5609428910167339,8.876874984084516,4.310137824129839,-0.4444444444444444,-0.32666666666666666,-0.21444444444444444,0.003227414965092756,-0.08345356653923097,0.017158528598535856
1592167847.1794832,-0.5275001442922036,8.874196730686975,4.377029,-0.4444444444444444,-0.32666666666666666,-0.21444444444444444,-0.008387458453868958,-0.09584664374981267,0.017289271568018766
1592167847.1894832,-0.461500122843028,8.882556384744168,4.481445728247112,-0.4444444444444444,-0.32666666666666666,-0.21444444444444444,-0.00975,-0.11413730637570263,0.021078599009522133
1592167847.1994832,-0.3334208385380774,8.885778122713807,4.570376711414231,-0.4444444444444444,-0.32666666666666666,-0.21444444444444444,-0.004780720113651617,-0.10214173915228732,0.013084402999497414
1592167847.2094831,-0.32555928269927253,8.88662364050333,4.514196981195185,-0.4444444444444444,-0.32,-0.2222222222222222,0.0005848579743887722,-0.11153435801199449,0.00929550003760571
1592167847.2194831,-0.425669030906225,8.880438527869126,4.566390084978629,-0.4444444444444444,-0.32,-0.2222222222222222,0.011503732789673555,-0.09574333686527477,0.016670674779644762
1592167847.2294831,-0.414571547348304,8.878857173954767,4.344603443558121,-0.4444444444444444,-0.32,-0.2222222222222222,0.012190316102016627,-0.07524083981069123,-0.0006566285984531631
1592167847.239483,-0.4596882928763014,8.888395793629416,4.335382628841029,-0.4444444444444444,-0.32,-0.2222222222222222,-0.002496583045223065,-0.07702566353052126,-0.0077584054922576785
1592167847.249483,-0.42710866131400727,8.865376022658813,4.399182851427284,-0.4444444444444444,-0.32,-0.2222222222222222,-0.011617052236038917,-0.07425793397758564,-0.00646891427901655
1592167847.259483,-0.4175360684245677,8.874046767819113,4.322776686931839,-0.4711111111111111,-0.32666666666666666,-0.2,-0.01966062657719671,-0.06239216794319938,-0.01930962657719671
1592167847.269483,-0.46930340626870437,8.872659256336005,4.340086504234445,-0.4711111111111111,-0.32666666666666666,-0.2,-0.033670077191539444,-0.051921716349189836,-0.02211345964340208
1592167847.279483,-0.43732181832679573,8.872373496231681,4.408986818326795,-0.4711111111111111,-0.32666666666666666,-0.2,-0.04418216219441225,-0.054799480991742276,-0.021477510096952257
1592167847.289483,-0.5614611474155067,8.914606953043302,4.461614032114204,-0.4711111111111111,-0.32666666666666666,-0.2,-0.04422630384509817,-0.03774282561863796,-0.0027939051833830025
1592167847.299483,-0.708504463905961,8.934185848349815,4.402969153998204,-0.4711111111111111,-0.32666666666666666,-0.2,-0.04342973242951106,-0.029636097592860584,0.0426208819712562
1592167847.309483,-1.0472225754163202,8.93013936927472,4.426684327292974,-0.45666666666666667,-0.32,-0.2288888888888889,-0.05254273088464623,-0.013091756090086283,0.09576688230950757
1592167847.319483,-0.23915366181315492,8.8298202314897,4.687831013885909,-0.45666666666666667,-0.32,-0.2288888888888889,-0.0324015585080326,0.020456531049693916,0.05292326486178389
1592167847.329483,-0.603464653073807,8.917290876295633,4.210123278724245,-0.45666666666666667,-0.32,-0.2288888888888889,-0.03510914598963904,0.02380768089335885,0.05805676077568821
1592167847.339483,-0.3038956394877855,8.857131432913484,4.401955905347606,-0.45666666666666667,-0.32,-0.2288888888888889,-0.04810606943335656,0.0005947553571671459,0.041704352464814146
1592167847.349483,-0.44746939120839624,8.89707817719219,4.190164170733359,-0.45666666666666667,-0.32,-0.2288888888888889,-0.0648013628291044,0.0010994610903709908,0.02204753890962901
1592167847.359483,-0.48385528024623486,8.834726552061625,4.2005061275594935,-0.4444444444444444,-0.3411111111111111,-0.2288888888888889,-0.09294086161034415,-0.036751621101205764,0.020192284670553708
1592167847.369483,-0.5699886133906509,8.845437112014347,4.37113384718923,-0.4444444444444444,-0.3411111111111111,-0.2288888888888889,-0.12046125481112523,-0.09447782796596436,0.004532488465070974
1592167847.379483,-0.5881857014567414,8.827960700093367,4.536803406188131,-0.4444444444444444,-0.3411111111111111,-0.2288888888888889,-0.12587,-0.10430931038775455,-0.008889823250067524
1592167847.389483,-0.492334475616994,8.827266349439933,4.533881181564689,-0.4444444444444444,-0.3411111111111111,-0.2288888888888889,-0.11898991104332995,-0.07569036806328638,-0.033616782478611044
1592167847.399483,-0.5319217588803743,8.88493484471302,4.659300658716106,-0.4444444444444444,-0.3411111111111111,-0.2288888888888889,-0.112697817537392,-0.05689040980852841,-0.01822476339065735
1592167847.409483,-0.4864753132219615,8.901210741638673,4.741598697094468,-0.45111111111111113,-0.32666666666666666,-0.24333333333333335,-0.08851220153618562,-0.04881325973911299,0.012877414328912998
1592167847.419483,-0.3937591935677742,8.85105936025633,4.701780960130572,-0.45111111111111113,-0.32666666666666666,-0.24333333333333335,-0.07080475626049501,-0.03775,0.040624601092474
1592167847.429483,-0.28958028565221383,8.841578008215283,4.695991236873271,-0.45111111111111113,-0.32666666666666666,-0.24333333333333335,-0.056607693656164554,-0.025964826022206646,0.053452
1592167847.439483,-0.19045903563088767,8.785696222399007,4.652160517302157,-0.45111111111111113,-0.32666666666666666,-0.24333333333333335,-0.048922944945906634,-0.015043032827638875,0.043246294840404424
1592167847.449483,-0.1447716315014137,8.796015758580394,4.658159912740031,-0.45111111111111113,-0.32666666666666666,-0.24333333333333335,-0.04532795805516757,-0.00473,0.00936004194483243
1592167847.459483,-0.1850967085966396,8.802185166581628,4.760323340871636,-0.47555555555555556,-0.3466666666666667,-0.2222222222222222,-0.03344011543623871,-0.012302969281138613,0.02017888456376129
1592167847.469483,0.03680955447235223,8.80159834785586,4.812191921858585,-0.47555555555555556,-0.3466666666666667,-0.2222222222222222,-0.01469840585782158,0.004337701785280428,0.030382341421470654
1592167847.479483,0.07554116038079614,8.753448819958816,4.758821759676262,-0.47555555555555556,-0.3466666666666667,-0.2222222222222222,0.0059166184673440335,0.018525498749346444,-0.0009553584851564793
1592167847.4894829,-0.018598659812553382,8.784055939246231,4.7660217941458,-0.47555555555555556,-0.3466666666666667,-0.2222222222222222,0.021825306852526975,0.04613900172196023,-0.01861982241006645
1592167847.4994829,-0.13336735892052734,8.827261165866632,4.816357111545847,-0.47555555555555556,-0.3466666666666667,-0.2222222222222222,0.03455586863514788,0.05010806828872208,-0.026231397675311845
1592167847.5094829,-0.27096605265616114,8.817682950663174,5.001738618016541,-0.4688888888888889,-0.35333333333333333,-0.2644444444444444,0.061212646829039215,0.041923094586815604,-0.016528419522279313
1592167847.5194829,-0.34949758597035885,8.826420825239955,5.129272022406954,-0.4688888888888889,-0.35333333333333333,-0.2644444444444444,0.10442718861295976,0.0271259941528939,-0.002996728533298716
1592167847.5294828,-0.41759086066849455,8.837168296547974,5.0774816638591105,-0.4688888888888889,-0.35333333333333333,-0.2644444444444444,0.14963352024843923,-0.001248931968984764,0.00014621599312823492
1592167847.5394828,-0.384168660857221,8.822402336477843,4.951706174491578,-0.4688888888888889,-0.35333333333333333,-0.2644444444444444,0.18338885504964225,-0.002778612770105192,-0.0008386841817072245
1592167847.5494828,-0.4026497520840586,8.85481960901162,4.771189481905652,-0.4688888888888889,-0.35333333333333333,-0.2644444444444444,0.21207780710788104,-0.010901601909784009,0.007127204508832535
1592167847.5594828,-0.3432605655244267,8.826578663540824,4.576561873715882,-0.47555555555555556,-0.35333333333333333,-0.28555555555555556,0.22728991465531756,0.028647672503808022,0.020126194642308495
1592167847.5694828,-0.39908140127444164,8.846632151220783,4.203911127043742,-0.47555555555555556,-0.35333333333333333,-0.28555555555555556,0.21311632744373737,0.05867203334009483,0.010963697061963523
1592167847.5794828,-0.6156630137034196,8.925380180712697,4.125187859546406,-0.47555555555555556,-0.35333333333333333,-0.28555555555555556,0.18787385330641507,0.0555814836174093,0.014291284821008776
1592167847.5894828,-0.6944815147503633,8.899752495984078,3.995866587150782,-0.47555555555555556,-0.35333333333333333,-0.28555555555555556,0.1564803139794676,0.040676080087856586,0.02304853752868142
1592167847.5994828,-0.6851007657706515,8.911091332276278,3.867482570500754,-0.47555555555555556,-0.35333333333333333,-0.28555555555555556,0.10735316450164842,0.015600721407181793,0.02214274192420847
1592167847.6094828,-0.7588101950304119,8.919161875047552,3.9569519014935404,-0.4888888888888889,-0.36,-0.2788888888888889,0.062165032877665484,-0.009351149738884996,0.028748866303881345
1592167847.6194828,-0.6017427321357995,8.880025949564722,4.059142135104896,-0.4888888888888889,-0.36,-0.2788888888888889,0.02590772991244534,-0.03650446349517808,0.042959175568482964
1592167847.6294827,-0.2862600620131589,8.832476919829299,4.165466666301667,-0.4888888888888889,-0.36,-0.2788888888888889,0.000475888027007286,-0.024858870532991732,0.02477406805211013
1592167847.6394827,-0.16330436182037564,8.8929194035092,4.017302245613969,-0.4888888888888889,-0.36,-0.2788888888888889,-0.02309514160654868,-0.015821131170410625,-0.014229825950430446
1592167847.6494827,-0.17188092162450763,9.009645332137627,3.9785279562816593,-0.4888888888888889,-0.36,-0.2788888888888889,-0.052959362140343795,-0.026417874404967238,0.00782274428927157
1592167847.6594827,0.05613223160100632,8.932356902628513,4.0428481540798735,-0.4955555555555556,-0.35333333333333333,-0.2788888888888889,-0.07855568023027201,-0.008919517979625721,0.028270708230039892
1592167847.6694827,0.17424446128649568,8.865777271358738,4.056630335603764,-0.4955555555555556,-0.35333333333333333,-0.2788888888888889,-0.11360629636031926,-0.0008541059410034171,0.01628910758839392
1592167847.6794827,0.1267974877600631,8.825284817054493,4.173025295157129,-0.4955555555555556,-0.35333333333333333,-0.2788888888888889,-0.13792432479424163,0.03948720196775017,-0.008517396823545628
1592167847.6894827,-0.06077458071573209,8.92101515130883,4.401312701528185,-0.4955555555555556,-0.35333333333333333,-0.2788888888888889,-0.15153773083603547,0.06335126916396454,0.003133509839409925
1592167847.6994827,-0.18728633292478084,8.974955582955863,4.728211433907331,-0.4955555555555556,-0.35333333333333333,-0.2788888888888889,-0.13516894509702057,0.058121,0.048222326673527605
1592167847.7094827,-0.02793368600681591,8.874097908033233,4.787148826792405,-0.5022222222222222,-0.38,-0.31444444444444447,-0.1026217168022354,0.07974249201053799,0.07540220215003374
1592167847.7194827,-0.14512241640093382,8.800072325159388,4.568769289906641,-0.5022222222222222,-0.38,-0.31444444444444447,-0.082199,0.09933518821164455,0.0366295263659886
1592167847.7294827,-0.35783299230516397,8.998989777256543,4.550728662599858,-0.5022222222222222,-0.38,-0.31444444444444447,-0.08173113190210646,0.08482189140251524,0.07170649200739151
1592167847.7394826,0.039034450855267105,8.88090997333152,4.813600063626145,-0.5022222222222222,-0.38,-0.31444444444444447,-0.059378971364391055,0.0772449436558065,0.0793171446353671
1592167847.7494826,0.08572349018914141,8.834202175528297,4.637751232410026,-0.5022222222222222,-0.38,-0.31444444444444447,-0.03113238639635797,0.08924577315835021,0.029747105949092773
1592167847.7594826,-0.11088714795269072,8.901083730625796,4.669638659418189,-0.4888888888888889,-0.39111111111111113,-0.3288888888888889,-0.021602503579235557,0.038183129727934376,0.03325037871814607
1592167847.7694826,0.03790937190059253,8.892730805555484,4.855553974584663,-0.4888888888888889,-0.39111111111111113,-0.3288888888888889,0.005749840321176999,0.022883381605367886,0.04780502229794451
1592167847.7794826,0.1285859303869796,8.87892751168185,4.732256985945218,-0.4888888888888889,-0.39111111111111113,-0.3288888888888889,0.042014714528115595,0.03778090467370067,0.024681355170176025
1592167847.7894826,0.07916571364418395,8.843288116263723,4.531288461551238,-0.4888888888888889,-0.39111111111111113,-0.3288888888888889,0.05358057152339144,0.041199109715958006,-0.00035227229769523244
1592167847.7994826,-0.005036886356069359,8.762421285453255,4.438207064066257,-0.4888888888888889,-0.39111111111111113,-0.3288888888888889,0.04676419152162615,0.04638090423918693,-0.01789290423918693
1592167847.8094826,-0.1350785429332787,8.81464337245286,4.251043178831722,-0.4955555555555556,-0.37777777777777777,-0.3511111111111111,0.0221733727776389,0.02630350451816544,-0.02812735405653212
1592167847.8194826,-0.17558439306468593,8.79459875088499,4.255976769041414,-0.4955555555555556,-0.37777777777777777,-0.3511111111111111,-0.017057632112511042,0.010155598324173842,-0.01563863211251104
1592167847.8294826,-0.009038343444371134,8.786011005983397,4.162768207876153,-0.4955555555555556,-0.37777777777777777,-0.3511111111111111,-0.04614254614492451,0.024389786313731496,-0.048937010500010175
1592167847.8394825,-0.17316467642559435,8.847431226500605,4.267649771516464,-0.4955555555555556,-0.37777777777777777,-0.3511111111111111,-0.09001734596980772,-0.025747987174806183,-0.04099486759266949
1592167847.8494825,-0.21009773948326577,8.942026243925977,4.587904528810291,-0.4955555555555556,-0.37777777777777777,-0.3511111111111111,-0.10162832124809096,-0.054299702323102474,0.01902880422307473
1592167847.8594825,-0.1240530745984498,8.88506326890907,4.8227117433912445,-0.5013655899864363,-0.37777777777777777,-0.36273117997287263,-0.0777771177057289,-0.062256,0.05212248037051043
1592167847.8694825,-0.05304747961916077,8.846131924411475,4.711710481964276,-0.5022222222222222,-0.37777777777777777,-0.36444444444444446,-0.051715611740404795,-0.037987247376231825,0.03781704766078246
1592167847.8794825,-0.073151,8.9444825119144,4.501149223331364,-0.5022222222222222,-0.37777777777777777,-0.36444444444444446,-0.0351028173954656,-0.021299944105467147,0.018920605145762378
1592167847.8894825,-0.08596395084754237,8.895097309498112,4.537159104618571,-0.5022222222222222,-0.37777777777777777,-0.36444444444444446,-0.01612482971740818,-0.006897025235355157,-0.01688785855214047
1592167847.8994825,-0.23492853686308568,8.918190700993216,4.432214009260497,-0.5022222222222222,-0.37777777777777777,-0.36444444444444446,-0.008758265723292804,-0.02273634557000908,-0.020171469545108563
1592167847.9094825,-0.1763451688431606,8.910826400465211,4.4361718805355315,-0.5069195164008435,-0.3740199424348807,-0.3879309153375513,-0.004425,-0.049608931422904734,-0.01237132943968974
1592167847.9194825,-0.18706498940219404,8.857223015185902,4.387678940796326,-0.5077777777777778,-0.37333333333333335,-0.39222222222222225,-0.007457104449988211,-0.03809258396835215,-0.03837293651328391
1592167847.9294825,-0.2796403030103916,8.802024891218514,4.334694589950586,-0.5077777777777778,-0.37333333333333335,-0.39222222222222225,-0.030637113296323494,-0.05049013535581743,-0.053796314617194765
1592167847.9394825,-0.350529729322117,8.923102650880185,4.527134919701297,-0.5077777777777778,-0.37333333333333335,-0.39222222222222225,-0.05133429602758567,-0.13055598522971562,-0.016440938454904488
1592167847.9494824,-0.15011657140414783,8.899580384273737,4.859093678300193,-0.5077777777777778,-0.37333333333333335,-0.39222222222222225,-0.02942330553755182,-0.11868137900257836,0.003371271787165557
1592167847.9594824,-0.040819680734309235,8.897563627071543,4.911945200809779,-0.5022408317205102,-0.3921589499280433,-0.4088330603940251,0.010883673940063078,-0.11652392296096299,-0.024059737165836138
1592167847.9694824,-0.17093907703400615,8.947962715340628,4.834009477233535,-0.5022222222222222,-0.39222222222222225,-0.4088888888888889,0.0503582531200614,-0.14555449404814177,-0.04124601878753688
1592167847.9794824,-0.2475121727260976,8.945965084334226,4.936820859282239,-0.5022222222222222,-0.39222222222222225,-0.4088888888888889,0.09254596031401383,-0.17115998649373823,0.0010142943895518827
1592167847.9894824,0.046976359982618565,8.971114139528146,4.906361260615355,-0.5022222222222222,-0.39222222222222225,-0.4088888888888889,0.14893213988014897,-0.13454423142072378,0.0035525742524113177
1592167847.9994824,0.005620517706761405,8.887378553318879,4.612357437933106,-0.5022222222222222,-0.39222222222222225,-0.4088888888888889,0.18911790594330527,-0.14979866269304884,-0.022400220121298223
1592167848.0094824,-0.006556545860835487,8.915517734023249,4.471696497120136,-0.512266385873084,-0.39925313677782553,-0.4129065543492336,0.2004526959230351,-0.15669248174549577,-0.02005
1592167848.0194824,0.07666984218748997,8.856659663208536,4.391319554200223,-0.5133333333333333,-0.4,-0.41333333333333333,0.19737436338564604,-0.16442882291829336,-0.02970035552821567
1592167848.0294824,0.17734351754261451,8.873413687771967,4.4115898223269685,-0.5133333333333333,-0.4,-0.41333333333333333,0.189453,-0.15902064094867852,-0.047745
1592167848.0394824,0.19060198538240514,8.8532685110915,4.427874827425216,-0.5133333333333333,-0.4,-0.41333333333333333,0.19453026776356563,-0.14271351975428237,-0.07202260082626048
1592167848.0494823,0.162893146390174,8.870056276927004,4.455753845848192,-0.5133333333333333,-0.4,-0.41333333333333333,0.19510314972783588,-0.15531800650711192,-0.08722885677927604
1592167848.0594823,0.3079482411237908,8.799270812932566,4.310876843957223,-0.5189075894259684,-0.4037161707284233,-0.41333333333333333,0.19189859002688683,-0.0935674137844948,-0.07854444941677455
1592167848.0694823,0.3572036045553188,8.868549592529762,4.150723647582447,-0.52,-0.40444444444444444,-0.41333333333333333,0.1797658187557452,-0.12196728918510355,-0.086054780186992
1592167848.0794823,0.2755080244510689,8.900941801429381,4.256556090315677,-0.52,-0.40444444444444444,-0.41333333333333333,0.15456448108890217,-0.10437839166935609,-0.06344757772736025
1592167848.0894823,0.30763405565096136,8.864709689743634,4.067258874947913,-0.52,-0.40444444444444444,-0.41333333333333333,0.12768707521511874,-0.0916388497932013,-0.05780295335374209
1592167848.0994823,0.2083752938474801,8.890027429658012,4.120815652939281,-0.52,-0.40444444444444444,-0.41333333333333333,0.10485733625906644,-0.13090082345325615,-0.08333606865806639
1592167848.1094823,0.1392694747456425,8.86423415465123,4.085009136652206,-0.5153496189399867,-0.4199457146444889,-0.4195338414133511,0.06905808286152888,-0.12107734701755563,-0.10719547270388183
1592167848.1194823,-0.01109218304010283,8.945698947041302,4.266532301068513,-0.5133333333333333,-0.4266666666666667,-0.4222222222222222,0.0479895818630741,-0.1603050929839063,-0.09141259558538999
1592167848.1294823,0.20820444698959206,8.932028825481177,4.377769185003943,-0.5133333333333333,-0.4266666666666667,-0.4222222222222222,0.03541070612827913,-0.1489922083854598,-0.06875093274364598
1592167848.1394823,0.20549335408230754,8.97455388546259,4.406089499402674,-0.5133333333333333,-0.4266666666666667,-0.4222222222222222,0.04591993286946098,-0.15979128841649842,-0.06611962003229772
1592167848.1494823,0.35198369580319744,8.882410279384324,4.386519877736159,-0.5133333333333333,-0.4266666666666667,-0.4222222222222222,0.059387551974723,-0.10677552942800199,-0.05164924655935951
1592167848.1594822,0.3360662177126186,8.98272994026203,4.219537894209087,-0.5239158055537195,-0.4250385940173765,-0.44338716666299455,0.06290249800161893,-0.12174213043443181,-0.069061
1592167848.1694822,0.26886743135208313,8.86551042370137,4.2589628009048806,-0.5277777777777778,-0.42444444444444446,-0.45111111111111113,0.06191787924575197,-0.0760792440225424,-0.08408501599213256
1592167848.1794822,0.24329075794677324,8.936713903992485,4.042996750069292,-0.5277777777777778,-0.42444444444444446,-0.45111111111111113,0.03767024369249174,-0.08065494362772263,-0.09487377477703138
1592167848.1894822,0.20617894361439779,8.850263047882482,4.04447584476859,-0.5277777777777778,-0.42444444444444446,-0.45111111111111113,0.015352591661026236,-0.09119298648905855,-0.11031828909067569
1592167848.1994822,0.02149515416840738,8.948591552866423,4.161919089728884,-0.5277777777777778,-0.42444444444444446,-0.45111111111111113,-0.022053900483800543,-0.11141623600757666,-0.07168649100966894
1592167848.2094822,0.14664673050807453,8.917155886691482,4.363263211936965,-0.508763796352379,-0.4344041490006057,-0.4393405511811023,-0.033188,-0.11816715143557788,-0.049750002176838816
1592167848.2194822,0.25955177434042054,8.965327625583472,4.516307495792128,-0.5044444444444445,-0.43666666666666665,-0.43666666666666665,-0.02440314938264348,-0.1021183057933966,-0.04291080927195148
1592167848.2294822,0.35151694093793345,8.898730870626848,4.482786809802669,-0.5044444444444445,-0.43666666666666665,-0.43666666666666665,-0.0020023586909885516,-0.05485404811628439,-0.08419523098175859
1592167848.2394822,0.2315200274948117,8.980373268531642,4.517045258709144,-0.5044444444444445,-0.43666666666666665,-0.43666666666666665,0.013283670380888192,-0.07164820245429024,-0.07778886330121844
1592167848.2494822,0.21191098235040592,8.974252358350858,4.621610260368941,-0.5044444444444445,-0.43666666666666665,-0.43666666666666665,0.039483317155029264,-0.0589531456931264,-0.04235980991651898
1592167848.2594821,0.16622159557291216,8.962059805570288,4.5367921982432176,-0.5231489748954755,-0.42185891339293374,-0.4514744199403996,0.061543478190980716,-0.06323747819098072,-0.03606480079818037
1592167848.2694821,0.04350897916546891,8.96272930510218,4.393207202247059,-0.5311111111111111,-0.41555555555555557,-0.4577777777777778,0.0689696725199458,-0.09573747415951897,-0.020264085672382682
1592167848.2794821,0.012010112983235788,9.00910379366453,4.316248235459888,-0.5311111111111111,-0.41555555555555557,-0.4577777777777778,0.0711353342620042,-0.116577,0.006884024889124295
1592167848.289482,0.10466366441047684,8.916016,4.153602581870964,-0.5311111111111111,-0.41555555555555557,-0.4577777777777778,0.0655986309526736,-0.09556798392343818,-0.0030987975012417455
1592167848.299482,0.16051901626133586,8.958430779329396,4.094586870906611,-0.5311111111111111,-0.41555555555555557,-0.4577777777777778,0.055598738563429416,-0.11288568191542746,-0.03886046568145293
1592167848.309482,0.1263539875722101,8.94597498561296,4.184316985612959,-0.5089656750418085,-0.430887011295842,-0.4688504958124291,0.05400192445792502,-0.09329337326895065,-0.07665431213360369
1592167848.319482,0.14983101856233258,8.951603730542429,4.2693090795106965,-0.5022222222222222,-0.43555555555555553,-0.4722222222222222,0.05592749633453573,-0.10576146023503169,-0.08288454238029337
1592167848.329482,0.22228591416084736,9.003149722378808,4.254725139886472,-0.5022222222222222,-0.43555555555555553,-0.4722222222222222,0.05436730508791395,-0.10954245370154558,-0.10058479076914481
1592167848.339482,0.17388084712141774,9.073596352984412,4.33666976074423,-0.5022222222222222,-0.43555555555555553,-0.4722222222222222,0.06302143562327472,-0.13758972216713455,-0.07119370421264366
1592167848.349482,0.24294393381691415,8.969443450255325,4.3044418394884225,-0.5022222222222222,-0.43555555555555553,-0.4722222222222222,0.07252486030432026,-0.129364,-0.06396773873501682
1592167848.359482,0.2522933096147096,8.957339412619726,4.140332654076574,-0.5145911552156417,-0.4429769153516072,-0.476551348769919,0.06630896157305308,-0.12565158801971357,-0.06923267313554975
1592167848.369482,0.12313236295993853,9.120344357535243,4.021209879726066,-0.5244444444444445,-0.4488888888888889,-0.48,0.056549335761315954,-0.15627634905816384,-0.06672367471574571
1592167848.379482,-0.01944188686662515,9.019488625097177,4.040270117610796,-0.5244444444444445,-0.4488888888888889,-0.48,0.04815984903999363,-0.18121252650949163,-0.04176017249061541
1592167848.389482,0.14476433877176212,8.903351780039468,3.9053454836830617,-0.5244444444444445,-0.4488888888888889,-0.48,0.0189127560027946,-0.15540872660504823,-0.05655887266254539
1592167848.399482,0.08572442779079045,9.002849819066938,3.8103065121956634,-0.5244444444444445,-0.4488888888888889,-0.48,-0.022293075373063576,-0.2015471918347112,-0.08492857174186579
1592167848.409482,0.03675609269721875,8.95609312260713,4.037002414562077,-0.5185816592725521,-0.4430261037169965,-0.47047297409567485,-0.050288046232197015,-0.21093571701950187,-0.10253161179788414
1592167848.419482,0.03608122972870056,9.097165866983115,4.274593362745584,-0.5155555555555555,-0.44,-0.46555555555555556,-0.0499067140948675,-0.22817469145077907,-0.0895587564944884
1592167848.429482,0.17715682308673358,8.914078153385393,4.428134251652562,-0.5155555555555555,-0.44,-0.46555555555555556,-0.028653247824201936,-0.20511213475161488,-0.0905285493502409
1592167848.439482,0.33202808791312594,8.967348820663084,4.41151990320765,-0.5155555555555555,-0.44,-0.46555555555555556,-0.010818444521385662,-0.18635542364605032,-0.0999525416529397
1592167848.449482,0.3635952471994807,8.938226730601466,4.332522990625633,-0.5155555555555555,-0.44,-0.46555555555555556,-0.00027914715726924926,-0.14847423064430257,-0.11307227300256863
1592167848.459482,0.21157340260862986,9.093115161190324,4.430178924044276,-0.5194518128717774,-0.44779251463244374,-0.4778937037235915,0.019886742847854966,-0.1434683779382101,-0.11078925715214503
1592167848.469482,0.03548543862171975,9.088141631164149,4.467487735339121,-0.5222222222222223,-0.4533333333333333,-0.4866666666666667,0.046770521538748486,-0.1367557275142137,-0.07448347608466498
1592167848.479482,0.02581269448745263,9.029485097728235,4.223287731858712,-0.5222222222222223,-0.4533333333333333,-0.4866666666666667,0.05652520329218253,-0.11972153336415535,-0.05229705981412635
1592167848.489482,-0.028453569723037954,8.945081796653927,4.229975707544079,-0.5222222222222223,-0.4533333333333333,-0.4866666666666667,0.05104982100898805,-0.14073949072212,-0.05567630800979904
1592167848.499482,-0.12037447490865706,9.024513182237405,4.341145429222317,-0.5222222222222223,-0.4533333333333333,-0.4866666666666667,0.06591113541854925,-0.14701852613019908,-0.05232964827126551
1592167848.509482,0.013865227823699047,8.847673474929005,4.188799438412831,-0.5182999050499711,-0.44548869898883114,-0.4958187400685859,0.06808362114808648,-0.10952660326211902,-0.06180848246597865
1592167848.519482,-0.07441604967453977,9.075836,4.048045816834598,-0.5155555555555555,-0.44,-0.5022222222222222,0.062384210461626365,-0.13736999264628705,-0.08277803832878598
1592167848.529482,-0.19475405904685156,9.092577651303971,4.308683405482184,-0.5155555555555555,-0.44,-0.5022222222222222,0.06830741163081239,-0.13705358037204396,-0.0658042286064215
1592167848.5394819,-0.11395409198852169,8.987410425822521,4.328072506661889,-0.5155555555555555,-0.44,-0.5022222222222222,0.08471383447760444,-0.11468420225337958,-0.043488
1592167848.5494819,0.002876629987654658,8.996612935222437,4.175638481163625,-0.5155555555555555,-0.44,-0.5022222222222222,0.08270361689474263,-0.11360038310525737,-0.04859759149438285
1592167848.5594819,-0.10711398197939609,9.13815729948833,4.010969622585863,-0.5075203340935837,-0.4496422657543662,-0.5086503993917997,0.0789791760075835,-0.13161028268523134,-0.02928268408772302
1592167848.5694818,-0.11131906139850939,9.075051546929192,4.0536837117413045,-0.4988888888888889,-0.46,-0.5155555555555555,0.06855844264142984,-0.14114531315932768,0.017586693374044293
1592167848.5794818,0.09713386866024684,9.074634936560924,3.991954090119375,-0.4988888888888889,-0.46,-0.5155555555555555,0.05140579676238976,-0.133621,0.01998217060140461
1592167848.5894818,0.10628213360506031,8.96845882746902,4.079218685822027,-0.4988888888888889,-0.46,-0.5155555555555555,0.041382,-0.12258108325728828,-0.009399
1592167848.5994818,0.07851836752587943,9.079512144407284,4.203465964953925,-0.4988888888888889,-0.46,-0.5155555555555555,0.05058997800018951,-0.10409450040313392,-0.008609412167384261
1592167848.6094818,0.045815685244905424,9.02674969569601,4.226378065560635,-0.5013202313942889,-0.4624313425054,-0.5184731665620356,0.06822220248102508,-0.08738562853849426,-0.012960780798079
1592167848.6194818,0.10764960650034902,8.934283522214571,4.202907529563662,-0.5044444444444445,-0.46555555555555556,-0.5222222222222223,0.0776069696666162,-0.05264214247991902,-0.0478406011830625
1592167848.6294818,0.03741335124164498,9.112524573830315,4.101170850696439,-0.5044444444444445,-0.46555555555555556,-0.5222222222222223,0.08705059726623773,-0.058894066566874057,-0.05948380891445432
1592167848.6394818,-0.011373078460218879,8.918847489734823,4.104706229705571,-0.5044444444444445,-0.46555555555555556,-0.5222222222222223,0.08224252871608197,-0.026932865418814136,-0.06145786059006631
1592167848.6494818,0.12160159168054216,9.109016722615673,3.9341133523142404,-0.5044444444444445,-0.46555555555555556,-0.5222222222222223,0.0664741829404432,-0.05359076365335125,-0.06289313029274014
1592167848.6594818,0.10094373822552555,8.931989386692898,3.983251159159117,-0.5070903269407607,-0.4682014380518718,-0.5138435943172208,0.049960289759426624,-0.04727010258260486,-0.04689693101627646
1592167848.6694818,0.17501239289800602,9.104018556544696,3.9143749608062564,-0.5111111111111111,-0.4722222222222222,-0.5011111111111111,0.022230538800549017,-0.042469182343340746,-0.07476971375712496
1592167848.6794817,-0.09593482599532782,9.02664580233018,4.106463903952049,-0.5111111111111111,-0.4722222222222222,-0.5011111111111111,0.017944,-0.04096620041124275,-0.04669926039710302
1592167848.6894817,-0.1189242047426408,8.939196105786328,4.060657600107774,-0.5111111111111111,-0.4722222222222222,-0.5011111111111111,0.003075307308684737,-0.011783295178622722,-0.058634498714604716
1592167848.6994817,-0.23592085070813024,8.996984257166192,4.118634172320818,-0.5111111111111111,-0.4722222222222222,-0.5011111111111111,-0.0010203356921136535,-0.03306167138422731,-0.08545071452999752
1592167848.7094817,-0.2641497963958703,8.990060495760297,4.084430616580651,-0.5007179396828046,-0.47823932147018916,-0.5147863366746722,-0.010407615425669235,-0.006209384574330765,-0.08094404924277625
1592167848.7194817,-0.11381118137835719,9.07912132772741,3.9953673995207053,-0.49,-0.48444444444444446,-0.5288888888888889,-0.021975332027590548,-0.00836278688562657,-0.062005408548426934
1592167848.7294817,-0.03811931185457819,8.88406511833946,4.073567272738162,-0.49,-0.48444444444444446,-0.5288888888888889,-0.03549734186035748,0.002589897785548762,-0.0719207280694957
1592167848.7394817,-0.155495865773107,9.112200543650195,3.9667487875579064,-0.49,-0.48444444444444446,-0.5288888888888889,-0.05559531970170591,-0.007708271455506382,-0.092772045062895
1592167848.7494817,-0.22736557429624868,8.933585674648974,4.063967356651471,-0.49,-0.48444444444444446,-0.5288888888888889,-0.06634122921618024,0.006844170275205925,-0.07448092490730708
1592167848.7594817,-0.1270715508203943,9.086464300036226,3.9344015976502074,-0.4941046107920439,-0.475488929989076,-0.5266500102750468,-0.09564439088165916,-0.016041833380431955,-0.052014361930923236
1592167848.7694817,-0.0984658104221474,8.92163679046734,4.05121635709802,-0.5022222222222222,-0.4577777777777778,-0.5222222222222223,-0.11670202680669045,0.024219765373958518,-0.027952819020287487
1592167848.7794816,-0.013573896392444445,9.288738146030102,4.156080999522063,-0.5022222222222222,-0.4577777777777778,-0.5222222222222223,-0.10652047174390217,0.02491647174390216,-0.0046648279166724045
1592167848.7894816,-0.09578135366570681,8.904980495564859,4.318652735250802,-0.5022222222222222,-0.4577777777777778,-0.5222222222222223,-0.0930286121778978,0.04782876790938518,0.0445849922651808
1592167848.7994816,-0.01200799796344541,9.217781747865574,4.205388804285187,-0.5022222222222222,-0.4577777777777778,-0.5222222222222223,-0.07506230630797822,0.027955103532155495,0.08148861085481675
1592167848.8094816,0.10636446514800336,8.750527423779488,4.156751243928379,-0.49631388184124686,-0.4640336675929282,-0.5288256614715476,-0.0863148487797245,0.06529869755944902,0.08777546720443327
1592167848.8194816,0.035726363071357924,9.325167946158908,4.335146324985707,-0.48333333333333334,-0.4777777777777778,-0.5433333333333333,-0.0505941708530705,0.019892478656860307,0.04664287436206123
1592167848.8294816,-0.1803586684125937,9.124189464799409,4.808195269192011,-0.48333333333333334,-0.4777777777777778,-0.5433333333333333,0.018514580484833034,0.024894726762621392,0.08738277176787762
1592167848.8394816,0.013685739319359846,9.1251413845679,4.6496474281239,-0.48333333333333334,-0.4777777777777778,-0.5433333333333333,0.0895851774109451,0.006137273527379621,0.13534376211825697
1592167848.8494816,0.10381505971930148,9.136794766963819,4.862983370015718,-0.48333333333333334,-0.4777777777777778,-0.5433333333333333,0.189457889379325,-0.0013600288321923464,0.172599303037331
1592167848.8594816,0.11793276087351902,8.98260583353619,4.692493229348777,-0.47604915966855144,-0.4802058356660384,-0.5433333333333333,0.2730829356017477,0.035242716118774615,0.27148214123111597
1592167848.8694816,1.5445107382400203,7.997543771177495,3.4745536052960455,-0.4666666666666667,-0.48333333333333334,-0.5433333333333333,0.1870642952642527,0.20491648909703641,0.030686876238238417
1592167848.8794816,-0.0905253090033511,9.295740949108094,3.407144091490913,-0.4666666666666667,-0.48333333333333334,-0.5433333333333333,0.09740049057674019,-0.014126439426412457,-0.22131450069336286
1592167848.8894815,-0.9100912521015336,8.974768352693975,4.327942032634993,-0.4666666666666667,-0.48333333333333334,-0.5433333333333333,0.09043846717293043,0.0906065782690749,-0.06964231145248273
1592167848.8994815,0.45341654012153015,8.73912805762499,3.5525453306608643,-0.4666666666666667,-0.48333333333333334,-0.5433333333333333,-0.003565876263007379,0.046128775405337594,-0.04938039107357535
1592167848.9094815,0.007738346849748057,9.07056812491275,3.840196235896536,-0.4620723843927829,-0.4791567130843481,-0.546256967507623,-0.059078151404567666,-0.057369571644030525,-0.1018295123727495
1592167848.9194815,-0.03452721251939628,9.067545914439405,4.247802808617381,-0.45444444444444443,-0.4722222222222222,-0.5511111111111111,-0.07336868409787078,0.03160001530009571,-0.0025482005369931067
1592167848.9294815,0.5081920937202449,8.47314063797882,4.2930811740264945,-0.45444444444444443,-0.4722222222222222,-0.5511111111111111,-0.06075209478407968,0.027039907790242394,0.051253674295139794
1592167848.9394815,0.36419565685039074,9.40971311812769,3.936863779286859,-0.45444444444444443,-0.4722222222222222,-0.5511111111111111,-0.1325005190646545,0.04049889956863412,-0.008618579308795697
1592167848.9494815,0.2020509782656228,9.268183205970859,4.458529012697068,-0.45444444444444443,-0.4722222222222222,-0.5511111111111111,-0.13504859744613215,0.12450601292119873,0.02037259820165037
1592167848.9594815,0.7050151636032936,8.739660761397824,4.997585223693833,-0.45444444444444443,-0.47288705311423024,-0.5535488243818071,-0.013258845583040592,0.16721922672924863,0.1422741410004861
1592167848.9694815,0.6891855392993164,9.334451044466968,4.554753427795346,-0.45444444444444443,-0.47555555555555556,-0.5633333333333334,0.0006672835699478279,0.14374717531496833,0.10475664681148492
1592167848.9794815,0.43650392627344264,9.31013893806119,4.349003907379051,-0.45444444444444443,-0.47555555555555556,-0.5633333333333334,0.011891885400597253,0.2140944776705164,0.07673513684209339
1592167848.9894814,0.7039909531442496,8.694445406775914,4.19715997447452,-0.45444444444444443,-0.47555555555555556,-0.5633333333333334,0.04254647840537503,0.22930717839554202,0.1366321162561117
1592167848.9994814,0.746038295038127,9.040221533744806,4.010045778743694,-0.45444444444444443,-0.47555555555555556,-0.5633333333333334,0.04822845694716732,0.19044250095418616,0.14998044946389577
1592167849.0094814,0.6305009825921807,9.358487973885648,4.131759530532774,-0.4525519108611892,-0.47730250963240656,-0.5652258669165886,0.06421261490126566,0.27632745720392543,0.14144704638524236
1592167849.0194814,0.8775582085436153,8.839956277178057,4.189672530122221,-0.44,-0.4888888888888889,-0.5777777777777777,0.07793993763359629,0.38112087623362445,0.1344528975584664
1592167849.0294814,0.38866520206616684,9.39904834123615,4.159850983674152,-0.44,-0.4888888888888889,-0.5777777777777777,0.1165718314325177,0.32265306637241964,0.1460651703552737
1592167849.0394814,0.5525317247456056,8.753785405206818,4.102118395678722,-0.44,-0.4888888888888889,-0.5777777777777777,0.10701129551518204,0.43932239410871515,0.189804
1592167849.0494814,0.5394370408303832,9.157616915124539,3.847651931643995,-0.44,-0.4888888888888889,-0.5777777777777777,0.08274143717400517,0.3764293331058066,0.16209278618803033
1592167849.0594814,0.3815273631912612,8.922460816032238,4.167207016134722,-0.44316369771809516,-0.4880979644593651,-0.5787268870932063,0.07644467821386437,0.4411593388474279,0.18304778264489616
1592167849.0694814,0.38058303790405223,9.184614319906803,4.0481377622433685,-0.4622222222222222,-0.48333333333333334,-0.5844444444444444,0.08380094884913183,0.4117098782343115,0.21411094884913184
1592167849.0794814,0.44460055333574805,9.036826005953483,4.147240310992835,-0.4622222222222222,-0.48333333333333334,-0.5844444444444444,0.09175130190286754,0.4176910746796981,0.1915637282836138
1592167849.0894814,0.4117995517795596,9.116506448660456,4.156369261453979,-0.4622222222222222,-0.48333333333333334,-0.5844444444444444,0.10268631616064929,0.422116104051394,0.195129
1592167849.0994813,0.4373658873216477,9.060847420614808,3.9297399114908185,-0.4622222222222222,-0.48333333333333334,-0.5844444444444444,0.08091193590266593,0.3862051038452718,0.15382373914514086
1592167849.1094813,0.29242619357891364,9.316295168222545,4.312451229147136,-0.4622222222222222,-0.48333333333333334,-0.5844444444444444,0.10817936711272812,0.36527789269067523,0.14935817425634815
1592167849.1194813,0.4582788917225642,9.023615304875984,4.398821231858179,-0.42444444444444446,-0.4955555555555556,-0.5911111111111111,0.14036198108880754,0.3771979106605227,0.1941952564087577
1592167849.1294813,0.7092884248820951,9.070606550727279,4.052285876588567,-0.42444444444444446,-0.4955555555555556,-0.5911111111111111,0.1432110748985416,0.3028046466304506,0.15420082127568485
1592167849.1394813,0.5835362866171523,9.050825622190088,4.454911994337245,-0.42444444444444446,-0.4955555555555556,-0.5911111111111111,0.18981862932301474,0.3018142042694672,0.09167737135150048
1592167849.1494813,0.3827764984089626,9.040055184248383,4.3296139529136415,-0.42444444444444446,-0.4955555555555556,-0.5911111111111111,0.2378444621763025,0.3033480919240291,0.06257810880938573
1592167849.1594813,0.3637203159674182,9.095137761484427,3.9040034353642135,-0.4239662013468264,-0.49515088831910953,-0.5916629300699012,0.2505869437862972,0.2677529262252803,0.0254876892944658
1592167849.1694813,0.14406104769442424,9.133670240731147,3.694958137642129,-0.41,-0.48333333333333334,-0.6077777777777778,0.23243906013503168,0.25239552849091534,-0.0030555850028273768
1592167849.1794813,0.017968415236054417,9.085700738638748,3.6663852025831187,-0.41,-0.48333333333333334,-0.6077777777777778,0.20464508512907714,0.20357056112359714,0.015801899974825822
1592167849.1894813,0.17703804481437269,9.142024014044283,3.6666255181235323,-0.41,-0.48333333333333334,-0.6077777777777778,0.17594474912275437,0.17365453709898954,0.04228781657700231
1592167849.1994812,0.3673167720290607,9.142230761172069,3.583649760666605,-0.41,-0.48333333333333334,-0.6077777777777778,0.13609802899117518,0.16677578899519868,0.05554121753873862
1592167849.2094812,0.34844111664508365,9.158691939060198,3.5410776326956412,-0.4098412569158874,-0.4834920764174459,-0.6075035851779469,0.09996734390826295,0.1052146888469789,0.07624845393609006
1592167849.2194812,0.6629642939752843,9.106480412041893,3.712973360423322,-0.3977777777777778,-0.4955555555555556,-0.5866666666666667,0.08796892853364967,0.08482088662705002,0.08099006950511588
1592167849.2294812,0.8003516250793387,9.148082225825293,3.8101066820529703,-0.3977777777777778,-0.4955555555555556,-0.5866666666666667,0.087189,0.11095271136002867,0.04187893212576916
1592167849.2394812,0.5957799010421805,9.14778009641427,3.5520452420696156,-0.3977777777777778,-0.4955555555555556,-0.5866666666666667,0.07584471973461793,0.16780670996317631,0.00496846555455114
1592167849.2494812,0.31511749327831784,9.197250356539088,3.34559650121866,-0.3977777777777778,-0.4955555555555556,-0.5866666666666667,0.0322749626811616,0.1739658699714995,0.008369569763700195
1592167849.2594812,0.3530982668959335,9.15081917909517,3.5204197814143674,-0.3977777777777778,-0.4955555555555556,-0.5866666666666667,-0.0012970443841604027,0.17434102824182163,0.012391182700441147
1592167849.2694812,0.2415436057187899,9.174118335841822,3.6399019608511187,-0.38333333333333336,-0.47444444444444445,-0.5877777777777777,-0.019839165996456784,0.19414274923985633,0.003717482332985013
1592167849.2794812,0.1577631092909682,9.130648329536404,3.700423653238384,-0.38333333333333336,-0.47444444444444445,-0.5877777777777777,-0.03578980464249107,0.17893625764151747,0.013791926952633959
1592167849.2894812,0.10793519453916553,9.145548546344735,3.6520410992665973,-0.38333333333333336,-0.47444444444444445,-0.5877777777777777,-0.051459581369458954,0.17549973229863003,0.009576960570732753
1592167849.2994812,0.2408296200129571,9.151716562357027,3.734280311150483,-0.38333333333333336,-0.47444444444444445,-0.5877777777777777,-0.07055742084885212,0.2251963015184262,0.012393815652602815
1592167849.3094811,0.3674504728687596,9.14031696925524,3.496504884089787,-0.38333333333333336,-0.47444444444444445,-0.5877777777777777,-0.10060033609672027,0.2796962185510448,0.0112552658375331
1592167849.3194811,0.16217702431647374,9.175069090302044,3.4874489627888785,-0.4,-0.5011111111111111,-0.6111111111111112,-0.1472213244408834,0.23613712202870304,0.016732480226164064
1592167849.3294811,0.1528238485804971,9.135268952430517,3.7469202854436063,-0.4,-0.5011111111111111,-0.6111111111111112,-0.16900478373078578,0.27316675261228063,0.025239105801890486
1592167849.339481,0.042886667929563416,9.132754841582548,4.0407575250021965,-0.4,-0.5011111111111111,-0.6111111111111112,-0.17454294840020007,0.27122532994609727,0.01968605159979991
1592167849.349481,-0.0005661804172425108,9.169408580422514,4.266407691663749,-0.4,-0.5011111111111111,-0.6111111111111112,-0.1566209533971946,0.26774953274538466,0.04948981550975562
1592167849.359481,-0.003429954431004115,9.088189315572764,4.207635187756617,-0.4,-0.5011111111111111,-0.6111111111111112,-0.13874005790473573,0.23195989712701248,0.07679667587733874
1592167849.369481,-0.048447340062457475,9.091876401272248,4.21569266304682,-0.39222222222222225,-0.4866666666666667,-0.5988888888888889,-0.12406694129476849,0.21276977079670073,0.11871593490007595
1592167849.379481,-0.08239093663541419,9.058484601932031,4.129000369460083,-0.39222222222222225,-0.4866666666666667,-0.5988888888888889,-0.11329683660761161,0.19227896758622778,0.16708029245803477
1592167849.389481,-0.09077731861659727,9.017857256852443,4.0364153766123465,-0.39222222222222225,-0.4866666666666667,-0.5988888888888889,-0.11589070953074321,0.1615711812337047,0.19394291153091825
1592167849.399481,-0.07925540832952373,8.956642801374588,3.877561145862441,-0.39222222222222225,-0.4866666666666667,-0.5988888888888889,-0.13774107105031674,0.15678864796804848,0.19858312764464217
1592167849.409481,-0.011645269406876345,8.921799799959357,3.8832924732698415,-0.39222222222222225,-0.4866666666666667,-0.5988888888888889,-0.1654904003947184,0.12945484416793185,0.1887933935284691
1592167849.419481,0.041901864995866046,8.93969362543703,4.071963976682434,-0.37777777777777777,-0.4866666666666667,-0.6266666666666667,-0.1939204792792994,0.1336334792792994,0.19731436675327363
1592167849.429481,0.25581541312558465,9.13166462683925,4.313796063477953,-0.37777777777777777,-0.4866666666666667,-0.6266666666666667,-0.19664029099470628,0.12209229138433002,0.2257839559451664
1592167849.439481,0.42252536458444373,8.893313969133981,4.457691632597534,-0.37777777777777777,-0.4866666666666667,-0.6266666666666667,-0.17048822066878994,0.119919,0.16039962120410958
1592167849.449481,0.29745022626885453,9.095509132721224,4.403921042782637,-0.37777777777777777,-0.4866666666666667,-0.6266666666666667,-0.13940024547371083,0.12143943941774551,0.12885319263322012
1592167849.459481,0.4289349354267446,8.98585920965776,4.260097720005146,-0.37777777777777777,-0.4866666666666667,-0.6266666666666667,-0.12009299603301617,0.14123814478349728,0.12970137650258648
1592167849.469481,0.6642284505306211,9.053150047617718,4.143788859528732,-0.3511111111111111,-0.4811111111111111,-0.6133333333333333,-0.12013201940834438,0.11656030424657662,0.1112860845253735
1592167849.479481,0.6404148249124377,9.006813001363511,4.274035674428989,-0.3511111111111111,-0.4811111111111111,-0.6133333333333333,-0.0988792046067993,0.15613581242630323,0.08042874713545402
1592167849.489481,0.5202571496662678,9.091408731220778,4.258624688557004,-0.3511111111111111,-0.4811111111111111,-0.6133333333333333,-0.08320246893884511,0.14738919212972856,0.06440311258184375
1592167849.499481,0.48140594999548575,9.009167858240442,4.413867820100977,-0.3511111111111111,-0.4811111111111111,-0.6133333333333333,-0.05638361633618428,0.15645911507985286,0.06877023724630976
1592167849.509481,0.5361916530692679,9.064142930085017,4.444993160644142,-0.3511111111111111,-0.4811111111111111,-0.6133333333333333,-0.03147970806402992,0.15202953514574163,0.061966
1592167849.519481,0.4888206850756638,9.042478743174339,4.582205394394454,-0.39222222222222225,-0.48,-0.6077777777777778,0.0041198433574239956,0.14714029830808584,0.05818225856591612
1592167849.529481,0.4388921609266315,9.046843119031266,4.351002517220105,-0.39222222222222225,-0.48,-0.6077777777777778,0.033312872959212786,0.145912626091652,0.055014015062249476
1592167849.539481,0.4368177254744714,9.04527046287655,4.233377698035941,-0.39222222222222225,-0.48,-0.6077777777777778,0.05521129734967582,0.14068727967475586,0.051315
1592167849.549481,0.4625456168779284,8.975069625759303,4.011471617834911,-0.39222222222222225,-0.48,-0.6077777777777778,0.05012777071250666,0.135895,0.04785284413521715
1592167849.559481,0.422527854341812,9.021395250645066,3.82942085378717,-0.39222222222222225,-0.48,-0.6077777777777778,0.02501836189966024,0.13077322907013314,0.013149989458374653
1592167849.569481,0.2532557918053049,8.93763932296056,3.9081279280539234,-0.37333333333333335,-0.4666666666666667,-0.6144444444444445,-0.00655093045346825,0.09648338048868911,-0.020443090768511887
1592167849.579481,0.11197584965857274,9.150136501313725,4.163017182113914,-0.37333333333333335,-0.4666666666666667,-0.6144444444444445,-0.018945648578815782,0.04270712019042292,-0.014812187031935074
1592167849.5894809,0.28591050608171853,9.136658629291185,4.436521517834726,-0.37333333333333335,-0.4666666666666667,-0.6144444444444445,0.0038771272802714967,0.0032372371957517417,0.019057173994306356
1592167849.5994809,0.43753160469844576,9.107175456644859,4.36166708026884,-0.37333333333333335,-0.4666666666666667,-0.6144444444444445,0.03460409468125593,-0.0380722754830335,0.03390918080177757
1592167849.6094809,0.5108899114489693,9.033130538113356,4.069956102041254,-0.37333333333333335,-0.4666666666666667,-0.6144444444444445,0.04253167881383898,-0.041779077575831415,0.029134788854459893
1592167849.6194808,0.587656637200609,8.99690032835445,3.8192969019609877,-0.35,-0.48444444444444446,-0.6222222222222222,0.0304350745832499,-0.028454212746241863,0.005120886306163394
1592167849.6294808,0.510211228430799,9.018651849060419,3.644244791521851,-0.35,-0.48444444444444446,-0.6222222222222222,0.002024441215712801,-0.018555101333400312,-0.024006879804802962
1592167849.6394808,0.441962326069716,9.018827402855718,3.6661065157414026,-0.35,-0.48444444444444446,-0.6222222222222222,-0.034460142192990234,-0.03028072003623943,-0.04408481624739682
1592167849.6494808,0.2967462889728823,9.076616963825327,3.9236259087751892,-0.35,-0.48444444444444446,-0.6222222222222222,-0.06212621132316482,-0.04390383522645278,-0.040298
1592167849.6594808,0.2480804232570029,9.046181325980621,4.070794269444298,-0.35,-0.48444444444444446,-0.6222222222222222,-0.068344,-0.058732897433817655,-0.0436678943005936
1592167849.6694808,0.20189705436159905,9.040079581620876,4.136773130249824,-0.3566666666666667,-0.48444444444444446,-0.6144444444444445,-0.069412,-0.08933087545712064,-0.040456390510484525
1592167849.6794808,0.228216635393839,8.985931947809185,4.14164468230308,-0.3566666666666667,-0.48444444444444446,-0.6144444444444445,-0.07084895189944249,-0.11047171601055722,-0.035137269263393486
1592167849.6894808,0.35351684796752936,8.999392402110235,4.1866032555285395,-0.3566666666666667,-0.48444444444444446,-0.6144444444444445,-0.07136674964921517,-0.127844146948535,-0.053807540607178295
1592167849.6994808,0.4678979487696596,9.037945253034364,4.168916334727371,-0.3566666666666667,-0.48444444444444446,-0.6144444444444445,-0.06608430382555681,-0.11902361095006338,-0.06686271451470753
1592167849.7094808,0.49921590813507105,9.05679058561679,4.094006108438524,-0.3566666666666667,-0.48444444444444446,-0.6144444444444445,-0.06512050826285344,-0.13351800922307078,-0.06259901652570687
1592167849.7194808,0.4789326399763794,9.064273119025303,4.097694019926791,-0.36444444444444446,-0.48444444444444446,-0.6,-0.06620139608350047,-0.12295759774970608,-0.057302899865054116
1592167849.7294807,0.42274774375505275,9.051333671797188,4.120042582675152,-0.36444444444444446,-0.48444444444444446,-0.6,-0.06723410477198472,-0.12502259721390413,-0.042587489530867724
1592167849.7394807,0.343660188351206,9.030798720840762,4.124435,-0.36444444444444446,-0.48444444444444446,-0.6,-0.06722711070439008,-0.12625777859121984,-0.03719177859121984
1592167849.7494807,0.33165921307151364,9.00579515921063,4.096892422859415,-0.36444444444444446,-0.48444444444444446,-0.6,-0.07031476169077948,-0.12313623830922052,-0.030948857463830776
1592167849.7594807,0.4217751071436499,9.0189902187569,4.125762242004706,-0.36444444444444446,-0.48444444444444446,-0.6,-0.07569508938465362,-0.11394099534337028,-0.021782009807607434
1592167849.7694807,0.5047151908094527,9.017014139743523,4.169861425957702,-0.35,-0.4722222222222222,-0.5933333333333334,-0.075806,-0.10236070359375428,-0.01301816499445783
1592167849.7794807,0.49683079817367226,9.045054386638947,4.274490439216795,-0.35,-0.4722222222222222,-0.5933333333333334,-0.07187865776520817,-0.09454099622182209,-0.01522449433273314
1592167849.7894807,0.5105372127456971,9.014490222328027,4.297016405025532,-0.35,-0.4722222222222222,-0.5933333333333334,-0.06012479482865252,-0.07911320291769397,-0.00572566273281935
1592167849.7994807,0.505252835045943,8.98999120910457,4.2185276042050015,-0.35,-0.4722222222222222,-0.5933333333333334,-0.057693,-0.07539842310641648,-0.010835142964283648
1592167849.8094807,0.5093034485892859,8.979691421722398,4.233617701907513,-0.35,-0.4722222222222222,-0.5933333333333334,-0.05394502603442034,-0.06400024284362923,-0.01797174812869226
1592167849.8194807,0.5309975642205023,8.973755929807803,4.276822093287521,-0.34451176901706126,-0.477710453205161,-0.6021145029060353,-0.04682332988418347,-0.053510320147044176,-0.03952221075151858
1592167849.8294806,0.4927725035738383,9.001306655254282,4.309445019424127,-0.34444444444444444,-0.4777777777777778,-0.6022222222222222,-0.04038031419780874,-0.056915,-0.05986936503634639
1592167849.8394806,0.46505073091221644,8.969106704695488,4.356339221774223,-0.34444444444444444,-0.4777777777777778,-0.6022222222222222,-0.030682278529245117,-0.058748288553736115,-0.06940505538389145
1592167849.8494806,0.4932921255858784,9.009562564473576,4.424561512049419,-0.34444444444444444,-0.4777777777777778,-0.6022222222222222,-0.0173777926281039,-0.056978863753251036,-0.04689590809179342
1592167849.8594806,0.6001355701133542,9.010784174753345,4.399613396987843,-0.34444444444444444,-0.4777777777777778,-0.6022222222222222,-0.0008383651730470001,-0.054794,-0.027525438424249052
1592167849.8694806,0.6283461005443433,9.000030722302895,4.401452505163164,-0.35,-0.4577777777777778,-0.5877777777777777,0.013875468953234254,-0.043101427982723754,-0.017934512910337437
1592167849.8794806,0.6679789210793813,8.970987426293282,4.418195644042305,-0.35,-0.4577777777777778,-0.5877777777777777,0.0325123509513274,-0.01619771600024312,-0.00029420373109189
1592167849.8894806,0.7457236960811799,8.986274224672718,4.431024553569349,-0.35,-0.4577777777777778,-0.5877777777777777,0.05409241604964938,0.022988355274021485,0.012563408836558152
1592167849.8994806,0.7923825051773777,8.957726413880927,4.341646643128093,-0.35,-0.4577777777777778,-0.5877777777777777,0.07022486280523989,0.03526832147105255,0.011323972407258588
1592167849.9094806,0.6997831161381409,8.997898127844746,4.36052193735844,-0.35,-0.4577777777777778,-0.5877777777777777,0.08224408092910135,0.04730808729890909,0.010801526241358668
1592167849.9194806,0.7358973532345977,8.99733342733908,4.430239456924975,-0.3566666666666667,-0.46555555555555556,-0.5811111111111111,0.09997498790108447,0.05977034524461488,0.013159380978459524
1592167849.9294806,0.6812752457189006,8.968412916157206,4.391572121146716,-0.3566666666666667,-0.46555555555555556,-0.5811111111111111,0.11702101202142375,0.0587301389923773,0.0036779886251588163
1592167849.9394805,0.5589126823121386,8.944798526720506,4.379124963849508,-0.3566666666666667,-0.46555555555555556,-0.5811111111111111,0.13173482012352283,0.05214538165559364,-0.03504093517438804
1592167849.9494805,0.2823445931693178,8.996831698431793,4.2109298024462545,-0.3566666666666667,-0.46555555555555556,-0.5811111111111111,0.14018054702342875,0.04065682475146579,-0.06548525062818439
1592167849.9594805,0.09591555230009398,9.033858707632556,4.1049287151393825,-0.3566666666666667,-0.46555555555555556,-0.5811111111111111,0.1407058747724306,0.01841627274447908,-0.0744395172724782
1592167849.9694805,0.0003199855834778026,9.058061932477607,3.9626566375444927,-0.3643231819284205,-0.48305616186813566,-0.5876738384783287,0.12880270908598052,-0.013095024146180398,-0.07475930241916644
1592167849.9794805,-0.010261417512833677,9.050709830913599,3.8436232294215187,-0.36444444444444446,-0.48333333333333334,-0.5877777777777777,0.1046829128220134,-0.04751427704404835,-0.07098255883970525
1592167849.9894805,-0.09104815861290524,9.059030184733079,3.812590540234106,-0.36444444444444446,-0.48333333333333334,-0.5877777777777777,0.07978171031567247,-0.07709355716083242,-0.06152935251867364
1592167849.9994805,-0.0302151781120117,9.046436540501059,3.8627608455968496,-0.36444444444444446,-0.48333333333333334,-0.5877777777777777,0.05541557939451723,-0.08963301601090874,-0.056340546653777614
1592167850.0094805,-0.01604030416965873,9.058127140842668,3.8694677130986306,-0.36444444444444446,-0.48333333333333334,-0.5877777777777777,0.0340471393695537,-0.098465,-0.05005756671141801
1592167850.0194805,0.0702084756464466,9.035374073630411,3.7927243669842228,-0.35242670263446857,-0.47316447487873836,-0.5877777777777777,0.014335270103652122,-0.09498864865887786,-0.047745
1592167850.0294805,0.055527,9.029841116317426,3.828810707030508,-0.35,-0.4711111111111111,-0.5877777777777777,-0.011762109778874298,-0.0991968878167142,-0.0480811121832858
1592167850.0394804,0.058571143747548224,9.050799027830989,3.930385759607346,-0.35,-0.4711111111111111,-0.5877777777777777,-0.032039040896657094,-0.089951,-0.0518775775345649
1592167850.0494804,0.005851296347400857,9.077407553047307,4.101217362612927,-0.35,-0.4711111111111111,-0.5877777777777777,-0.039581,-0.08079680875794258,-0.04764045427259526
1592167850.0594804,-0.03252615130527459,9.050444621307173,4.0760457084482615,-0.35,-0.4711111111111111,-0.5877777777777777,-0.039659241235018454,-0.061864720565324355,-0.04531213395367643
1592167850.0694804,-0.09542770632793529,9.027257790555302,4.106917429334559,-0.37175989227263306,-0.4765510841792694,-0.5877777777777777,-0.041718,-0.04804852888585717,-0.03467102360858816
1592167850.0794804,-0.10008564224479576,9.032877043934606,4.201037642244796,-0.37666666666666665,-0.4777777777777778,-0.5877777777777777,-0.039468725834684554,-0.03670451808611397,-0.023141725834684553
1592167850.0894804,-0.0699504633943184,9.049755573173263,4.255417732898695,-0.37666666666666665,-0.4777777777777778,-0.5877777777777777,-0.031101558943733214,-0.03669357383252025,-0.014759721497560746
1592167850.0994804,0.011277755840724546,9.039336752922676,4.2286299001082455,-0.37666666666666665,-0.4777777777777778,-0.5877777777777777,-0.022693916566454683,-0.04280094446349898,-0.00837036736973775
1592167850.1094804,0.1792160341330172,9.029518122733604,4.276404870756994,-0.37666666666666665,-0.4777777777777778,-0.5877777777777777,-0.016478862313449145,-0.04020686847251303,-0.014524459921579469
1592167850.1194804,0.17728631510287582,8.995590202705802,4.226336317406386,-0.3619906622990324,-0.4818544456576762,-0.5828857763218996,-0.0067509986396033445,-0.047832515535038006,-0.028889605804484547
1592167850.1294804,0.10545349521900932,9.015606796557465,4.236018233543355,-0.3566666666666667,-0.48333333333333334,-0.5811111111111111,0.0012332323171075632,-0.04381076768289244,-0.037918226770621795
1592167850.1394804,0.006845269407044129,9.02530300473873,4.232245035523468,-0.3566666666666667,-0.48333333333333334,-0.5811111111111111,0.01201683055525978,-0.027850597446919867,-0.040298
1592167850.1494803,-0.09533982270408216,9.06343312937316,4.2286054712982555,-0.3566666666666667,-0.48333333333333334,-0.5811111111111111,0.01634349639378885,-0.0173378547385351,-0.03283651193305358
1592167850.1594803,-0.1609760493591834,9.053448551836814,4.237156027675383,-0.3566666666666667,-0.48333333333333334,-0.5811111111111111,0.02668480425955426,0.005515701508315853,-0.01641235904868727
1592167850.1694803,-0.08309771942359369,9.033590843575398,4.212368241717717,-0.37153515912352425,-0.4792031965397618,-0.5811111111111111,0.030967981622140563,0.012904660949135675,-0.0047950722861712855
1592167850.1794803,-0.07774384204034909,9.058075087760528,4.234361868695532,-0.37666666666666665,-0.4777777777777778,-0.5811111111111111,0.039776608031411365,0.015250687361249475,0.0025825464705414476
1592167850.1894803,0.03324075884755265,9.025638491616643,4.2501195860975285,-0.37666666666666665,-0.4777777777777778,-0.5811111111111111,0.04975873273922971,0.01368437853758578,0.00444
1592167850.1994803,-0.09759521174257182,9.01724233142856,4.558182064720767,-0.37666666666666665,-0.4777777777777778,-0.5811111111111111,0.07486550146724857,-0.0027536035391094956,0.00992529438902958
1592167850.2094803,0.06657319819119739,9.034971227207151,4.542678012431088,-0.37666666666666665,-0.4777777777777778,-0.5811111111111111,0.10988098992289268,-0.008981766725714739,0.011902
1592167850.2194803,0.13293971223080245,9.030074684954304,4.4883339868394945,-0.3730864291869908,-0.4856543002330646,-0.567506208688343,0.1404366559761832,-0.015558250475608087,0.005609899948483772
1592167850.2294803,0.15726624073201442,9.045730629394761,4.29217375090574,-0.3711111111111111,-0.49,-0.56,0.16543651986539926,-0.030558595453992407,-0.003695975842585562
1592167850.2394803,0.08885723513137002,9.058366644567384,4.074712109905262,-0.3711111111111111,-0.49,-0.56,0.1722302727227916,-0.04509996533635639,-0.0140081654969713
1592167850.2494802,0.11466803049088009,9.051211759668522,3.8671230747174294,-0.3711111111111111,-0.49,-0.56,0.16080878834070017,-0.06236259252684732,-0.02029038086754749
1592167850.2594802,0.08309697039293866,9.087205992146101,3.589975519952616,-0.3711111111111111,-0.49,-0.56,0.13131655991283558,-0.08323656086047726,-0.027008160295440533
1592167850.2694802,0.09465144209793336,9.07803787768469,3.470498037692552,-0.3659812749768773,-0.4754654642863375,-0.56,0.08764992570833315,-0.09635348733959274,-0.02911497374096062
1592167850.2794802,0.09004908124515867,9.08215930809529,3.5964983643440847,-0.36444444444444446,-0.4711111111111111,-0.56,0.04395870108992834,-0.10171106125914905,-0.03329613235534485
1592167850.2894802,0.15286456253469372,9.10619456186304,3.5995485312934536,-0.36444444444444446,-0.4711111111111111,-0.56,0.00866226634742455,-0.08316308722572423,-0.041612209403706614
1592167850.2994802,0.09761616558604111,9.099798377550364,3.7096217031397587,-0.36444444444444446,-0.4711111111111111,-0.56,-0.020665828679822622,-0.073959,-0.05124136986761988
1592167850.3094802,0.009258251291044954,9.107435189690863,3.8543783530480438,-0.36444444444444446,-0.4711111111111111,-0.56,-0.03848265079370043,-0.06293551248138812,-0.05117854147665338
1592167850.3194802,-0.07156256977151937,9.08855600769891,3.9088678662734697,-0.3586841643509167,-0.48016297982951184,-0.5863327089989839,-0.049671244364912916,-0.053910320121409144,-0.045517693458966176
1592167850.3294802,-0.13059190254487604,9.080616748759264,4.008876651304139,-0.3566666666666667,-0.48333333333333334,-0.5955555555555555,-0.054158176203658065,-0.04445155801005052,-0.03489943876310628
1592167850.3394802,-0.1596275245089217,9.058704103134817,4.019078632167449,-0.3566666666666667,-0.48333333333333334,-0.5955555555555555,-0.05696084801803251,-0.03333263928832939,-0.01983978084031787
1592167850.3494802,-0.09360939123570536,9.066004005355953,4.066196465258694,-0.3566666666666667,-0.48333333333333334,-0.5955555555555555,-0.05983,-0.015662327589788506,-0.006795055254879867
1592167850.3594801,-0.029169975769842753,9.069898159532546,4.123781840467454,-0.3566666666666667,-0.48333333333333334,-0.5955555555555555,-0.05551458350277829,-0.0036156708301312776,-4.9253122598458374e-05
1592167850.3694801,-0.04570575216834569,9.065344110068716,4.139706252907297,-0.36109290858243553,-0.4871272549754209,-0.5911293136397867,-0.05163432081872412,0.005263152523432576,0.005173908169784393
1592167850.3794801,-0.05306755254750173,9.056553420874163,4.221583032420619,-0.36444444444444446,-0.49,-0.5877777777777777,-0.041517942940676414,0.013161222358059173,0.007209441970938835
1592167850.38948,-0.06606744131842399,9.048854435871664,4.300273174053734,-0.36444444444444446,-0.49,-0.5877777777777777,-0.024704449589657625,0.02460433636411819,0.0169209601385384
1592167850.39948,-0.017843338628086427,9.060310981553675,4.300938209341495,-0.36444444444444446,-0.49,-0.5877777777777777,-0.0019102648839704594,0.027979696165051148,0.021646651917474426
1592167850.40948,0.038817868046182195,9.075250284531611,4.324339360152416,-0.36444444444444446,-0.49,-0.5877777777777777,0.016354636157403936,0.031359141830288,0.024554141830287996
1592167850.41948,0.03998936629018899,9.074052376367279,4.27792819618838,-0.3511532476238359,-0.4938765990726775,-0.5877777777777777,0.0388800950586287,0.02626963059804549,0.024487644580502607
1592167850.42948,0.039343704318235806,9.06668520463721,4.243708900865276,-0.3377777777777778,-0.49777777777777776,-0.5877777777777777,0.055727788101580765,0.030353599290646262,0.017227
1592167850.43948,0.01609009776160923,9.058697809320172,4.253929406937865,-0.3377777777777778,-0.49777777777777776,-0.5877777777777777,0.07146772415633336,0.027352286199510405,0.020432
1592167850.44948,0.031248287475912725,9.068249386066775,4.204550147886294,-0.3377777777777778,-0.49777777777777776,-0.5877777777777777,0.08404875266706484,0.02934733616540205,0.022552
1592167850.45948,0.08846582441567369,9.072294456847352,4.1493102219906275,-0.3377777777777778,-0.49777777777777776,-0.5877777777777777,0.09456732642839524,0.028305,0.01731165157829348
1592167850.46948,0.06421417129186512,9.082478165920397,4.1652189266461335,-0.3521438437685348,-0.4915524825151164,-0.5849045645796264,0.10089431355342257,0.017907043631049255,0.013059543508902286
1592167850.47948,0.04858287421042594,9.089691147967509,4.04145351458159,-0.3711111111111111,-0.48333333333333334,-0.5811111111111111,0.10941286899480591,0.010409677329383875,0.01297
1592167850.48948,0.0533349149847833,9.09303508747182,3.977717868792269,-0.3711111111111111,-0.48333333333333334,-0.5811111111111111,0.10752235925035947,0.005268027461404733,0.009966718500718936
1592167850.49948,0.053238865766024226,9.102694933984306,3.8785019547799537,-0.3711111111111111,-0.48333333333333334,-0.5811111111111111,0.10063116986321904,-0.004191652712040602,0.0075104131780101505
1592167850.50948,0.049221129156429295,9.099530673931843,3.7616657160494404,-0.3711111111111111,-0.48333333333333334,-0.5811111111111111,0.08667139649111975,-0.005783,0.00444
1592167850.51948,0.07420013915155935,9.091448270235299,3.8080827366890286,-0.3681582774562934,-0.48333333333333334,-0.5840639447659288,0.07021537388206688,-0.008606651710918999,0.001631348289081001
1592167850.52948,0.1098694927256027,9.083670680584566,3.8713199738866497,-0.36444444444444446,-0.48333333333333334,-0.5877777777777777,0.05737677792936915,-0.01174412563602029,-0.0023551577808904782
1592167850.53948,0.06112907631670305,9.133051567043578,3.843573482398785,-0.36444444444444446,-0.48333333333333334,-0.5877777777777777,0.04686435630655538,-0.009564246680355147,-0.007597166899229088
1592167850.54948,0.059778782720795766,9.141879887947027,3.868613780195325,-0.36444444444444446,-0.48333333333333334,-0.5877777777777777,0.03822251087070968,-0.006061312569604009,-0.006999687430395991
1592167850.55948,-0.009022658035750064,9.11263023012607,3.903286254297892,-0.36444444444444446,-0.48333333333333334,-0.5877777777777777,0.03453585403159422,-0.0018337829226685184,-0.004689565845337037
1592167850.56948,-0.05313245108813454,9.105730031872737,3.8301980367509816,-0.3569368581858748,-0.48124789270595286,-0.5877777777777777,0.024546323537533003,-0.0011291533408618812,0.0005798466591381187
1592167850.57948,0.03833689176772658,9.12168352403151,3.8064152203832884,-0.34444444444444444,-0.4777777777777778,-0.5877777777777777,0.012658118992050719,0.0009583704181933629,0.001251
1592167850.58948,0.10661288635923523,9.09961157161088,3.8557691288366036,-0.34444444444444444,-0.4777777777777778,-0.5877777777777777,7.600243728453793e-05,-6.598645918025683e-05,-0.0011483886798872977
1592167850.59948,0.1142560824269396,9.095634837723589,3.8585850070079446,-0.34444444444444444,-0.4777777777777778,-0.5877777777777777,-0.0069960355851052015,0.0010203915270553814,-0.007278
1592167850.60948,0.23207935934002139,9.086053170959396,3.9972974349406907,-0.34444444444444444,-0.4777777777777778,-0.5877777777777777,-0.011271609605983307,-0.00659808787893549,-0.019634882760120084
1592167850.61948,0.03214472457815821,9.140667258522033,4.246385703470413,-0.35509369549890535,-0.48265868451107236,-0.5793471206929962,0.005686270062184983,-0.011337848752241022,-0.036041
1592167850.62948,-0.23844962777438927,9.160070442437078,4.008347575731741,-0.3711111111111111,-0.49,-0.5666666666666667,0.015858454458547742,-0.009088432538096679,-0.025683139945569748
1592167850.6394799,-0.2678570032453591,9.082216685602093,4.06301384458577,-0.3711111111111111,-0.49,-0.5666666666666667,0.020599334086889718,-0.002594,-0.0003740265766215417
1592167850.6494799,0.004322122294413727,9.083756483428292,4.111214189538897,-0.3711111111111111,-0.49,-0.5666666666666667,0.03370027025841461,-0.004078635129207302,0.009766
1592167850.6594799,0.10950938126025843,9.105478215125762,4.027651925004796,-0.3711111111111111,-0.49,-0.5666666666666667,0.041844819501868954,-0.00638158762773405,0.005637735730774968
1592167850.6694798,0.1452947821299088,9.132658956785468,3.87442593811035,-0.3663607574720511,-0.49,-0.5714170203057267,0.03704369588566874,-0.003846762750992945,-0.002018890613746521
1592167850.6794798,0.06672871959566667,9.114627730733083,3.8741817656009223,-0.3566666666666667,-0.49,-0.5811111111111111,0.02990335024651779,-0.00022683760633697013,-0.007278
1592167850.6894798,0.02309243518286181,9.087052750403315,3.9103013525894035,-0.3566666666666667,-0.49,-0.5811111111111111,0.023877586775722284,-0.0019055973047272432,-0.006275460491362527
1592167850.6994798,0.0057898531138302674,9.135393236487651,3.899829851999533,-0.3566666666666667,-0.49,-0.5811111111111111,0.018660196443035182,-0.002945803556964821,-0.008331
1592167850.7094798,-0.015681490772342703,9.114338108857202,4.063765140891603,-0.3566666666666667,-0.49,-0.5811111111111111,0.022328821344820504,-0.006021488537242145,-0.007039511462757855
1592167850.7194798,-0.04217291939990505,9.14202042842403,4.124274896506325,-0.35913386798272673,-0.48612296936047705,-0.5811111111111111,0.0364651973232087,-0.008394567877887008,0.00047921606105649577
1592167850.7294798,-0.02337970577533597,9.125366936817375,3.9653586316546483,-0.36444444444444446,-0.4777777777777778,-0.5811111111111111,0.04430742346727452,-0.006046576532725476,0.004437851007813745
1592167850.7394798,-0.009773966187725433,9.11542613400196,3.8658476599845617,-0.36444444444444446,-0.4777777777777778,-0.5811111111111111,0.042435,-0.0021156242692183438,0.007645
1592167850.7494798,0.08531922318857019,9.110009258959868,3.816779965663259,-0.36444444444444446,-0.4777777777777778,-0.5811111111111111,0.03821669961160569,-0.000458,0.007645
1592167850.7594798,0.07902027745185856,9.120397538103495,3.8044426058744665,-0.36444444444444446,-0.4777777777777778,-0.5811111111111111,0.0259256861616859,0.0013095970621248504,0.0037280787050162677
1592167850.7694798,0.07595756053187024,9.114155066410826,3.799958511580941,-0.36294287659951857,-0.48163895223615866,-0.5806820917268466,0.015973235918921157,0.005181790246043782,-0.003006
1592167850.7794797,0.036385587693885155,9.126635078447908,3.847647295560852,-0.3566666666666667,-0.49777777777777776,-0.5788888888888889,0.005981318846155417,-0.0005802833281731469,-0.0073985658656988045
