time,acc_x,acc_y,acc_z,mag_x,mag_y,mag_z,gyr_x,gyr_y,gyr_z
1592167851.439479,0.08597727138929855,9.143451988499034,3.8998482368864025,-0.36444444444444446,-0.4777777777777778,-0.5577777777777778,-0.003372,-0.017017029271301196,-0.01710090171040924
1592167851.449479,0.014897748807137727,9.124522287282353,3.8806230259584535,-0.36444444444444446,-0.4777777777777778,-0.5577777777777778,-0.005326001439388608,-0.02449566762625907,-0.023421717349175877
1592167851.459479,-0.0015706293689566565,9.1447901736566,3.884319517171007,-0.36444444444444446,-0.4777777777777778,-0.5577777777777778,-0.009238997132739046,-0.030834080129967266,-0.01978128774491782
1592167851.469479,-0.00973529525882436,9.145153032826514,3.873208923073631,-0.36444444444444446,-0.4777777777777778,-0.5577777777777778,-0.012376492634442422,-0.03169076104833637,-0.01875225368277879
1592167851.479479,0.0284079226893098,9.133872631797184,3.8716714249769044,-0.36444444444444446,-0.4777777777777778,-0.5644444444444444,-0.017011810277523555,-0.02538014229185733,-0.01729490513876178
1592167851.489479,0.0008406440799895252,9.120525959685631,3.8892843463622566,-0.36444444444444446,-0.4777777777777778,-0.5644444444444444,-0.020233275002555073,-0.019612216377654104,-0.01917715863512126
1592167851.499479,0.04510656224055702,9.107125004508363,3.9008876969116955,-0.36444444444444446,-0.4777777777777778,-0.5644444444444444,-0.021006382251650274,-0.007904657252920258,-0.018997
1592167851.509479,0.055818893404389294,9.137237897200567,3.9351597495180073,-0.36444444444444446,-0.4777777777777778,-0.5644444444444444,-0.016144,0.00843841258094666,-0.02017713752698222
1592167851.519479,0.054758949724939526,9.125129891364848,3.916820153052281,-0.36444444444444446,-0.4777777777777778,-0.5644444444444444,-0.017112656035311556,0.01698207359704438,-0.021217343964688447
1592167851.529479,0.009928668984461132,9.13206546261035,3.958067537389649,-0.3711111111111111,-0.4777777777777778,-0.5577777777777778,-0.01941912176662672,0.014307756466746558,-0.02047990190279285
1592167851.539479,0.08913334245430783,9.122518036210561,3.942437609442394,-0.3711111111111111,-0.4777777777777778,-0.5577777777777778,-0.019385322644912162,0.008019677355087839,0.00816594444541721
1592167851.549479,0.3641672497798135,9.108742326524226,3.8783870777471456,-0.3711111111111111,-0.4777777777777778,-0.5577777777777778,-0.021497586691449213,0.013448577369411375,0.01925844979700315
1592167851.559479,0.29093048063071836,9.136757172924389,3.876175648589562,-0.3711111111111111,-0.4777777777777778,-0.5577777777777778,-0.027808444875042637,0.03236159970086196,-0.005973052897716537
1592167851.569479,0.04830338404085818,9.116070985014336,3.801111215175559,-0.3711111111111111,-0.4777777777777778,-0.5577777777777778,-0.03718429529788048,0.03691116032354597,-0.010468
1592167851.579479,-0.05913255376514347,9.132599665397477,3.7513386439102403,-0.34444444444444444,-0.49,-0.5788888888888889,-0.0528462184798898,0.03278251978750515,-0.005362519787505148
1592167851.589479,0.05375135026909585,9.139824996370907,3.7292112665492962,-0.34444444444444444,-0.49,-0.5788888888888889,-0.06870190495369974,0.030629292188566866,-0.0049387078114331365
1592167851.599479,0.08947420993127896,9.121133899097446,3.780096769053275,-0.34444444444444444,-0.49,-0.5788888888888889,-0.08616908211626476,0.03202041451351541,-0.009535000677719528
1592167851.609479,0.07855974742469023,9.114539356967398,3.8304419941675785,-0.34444444444444444,-0.49,-0.5788888888888889,-0.09768399839056364,0.02665770291276296,-0.00621
1592167851.619479,0.03494332576221998,9.101633497179826,3.9301464074042185,-0.34444444444444444,-0.49,-0.5788888888888889,-0.10611730620463587,0.025675382853667817,-0.0016481547465867362
1592167851.629479,0.02145436589085186,9.066500588494458,4.0344728514338755,-0.3566666666666667,-0.49,-0.5866666666666667,-0.10797725469905378,0.024446315322769203,0.0018804906018924496
1592167851.639479,-0.03340963435631962,9.080238085376827,4.110020644384955,-0.3566666666666667,-0.49,-0.5866666666666667,-0.09598492824024941,0.021600886038894054,0.003683113961105946
1592167851.649479,-0.031558769619203446,9.107394415517756,4.141100814761038,-0.3566666666666667,-0.49,-0.5866666666666667,-0.0857224285366588,0.02140655161583159,0.006014185017307069
1592167851.659479,-0.005695576754664871,9.121089950227924,4.160229310820437,-0.3566666666666667,-0.49,-0.5866666666666667,-0.07066737277433803,0.023869062641833177,0.0021738678024886054
1592167851.669479,0.03558969291088962,9.1072344765916,4.20920734333806,-0.3566666666666667,-0.49,-0.5866666666666667,-0.05864176401112175,0.023312132077527557,-0.00918237268517509
1592167851.679479,0.08587157217353601,9.096573121853915,4.0819118300985435,-0.36444444444444446,-0.49,-0.5866666666666667,-0.0467461629785829,0.009245457213292277,-0.015390705765290627
1592167851.6894789,0.15019275752245284,9.092673561111875,4.014666270326095,-0.36444444444444446,-0.49,-0.5866666666666667,-0.04424189122660655,-0.004579984904823709,-0.020317876131430258
1592167851.6994789,0.1629071291352122,9.106537929592013,3.9731726978792383,-0.36444444444444446,-0.49,-0.5866666666666667,-0.044907,-0.008772756254002772,-0.02729956537478761
1592167851.7094789,0.1257730530455458,9.059225179393422,4.088370438581532,-0.36444444444444446,-0.49,-0.5866666666666667,-0.044907,-0.0006029775602452657,-0.028125527880874752
1592167851.7194788,0.03301075141780033,9.058631997161108,4.0784491105831435,-0.36444444444444446,-0.49,-0.5866666666666667,-0.03938274163034429,0.007099241663231509,-0.02517674163034429
1592167851.7294788,-0.04690964817418724,9.059425649813177,4.049817372039631,-0.3711111111111111,-0.48333333333333334,-0.5788888888888889,-0.04013559958832589,0.008057,-0.016778601646696447
1592167851.7394788,-0.06027646234460959,9.043690782963925,4.040954407754997,-0.3711111111111111,-0.48333333333333334,-0.5788888888888889,-0.03846699642575247,0.012267996425752471,-0.008913093117653186
1592167851.7494788,-0.08522571323900513,9.076507825688713,4.069754214261996,-0.3711111111111111,-0.48333333333333334,-0.5788888888888889,-0.03860890369881735,0.010771514450889643,0.001651456647331074
1592167851.7594788,-0.02309223747253632,9.08205681849944,4.12349132349956,-0.3711111111111111,-0.48333333333333334,-0.5788888888888889,-0.033483716775460706,0.007595308084611707,0.003387
1592167851.7694788,0.08854417380178622,9.100332595460191,4.202580178446668,-0.3711111111111111,-0.48333333333333334,-0.5788888888888889,-0.025265298798872987,0.014049592669880293,0.003387
1592167851.7794788,0.1486791994062998,9.080801656641567,4.251394527232334,-0.3711111111111111,-0.48333333333333334,-0.5933333333333334,-0.011838191824089957,0.026870027222603034,-0.0010296095446831624
1592167851.7894788,0.22775067480081806,9.088151201141061,4.202859038477749,-0.3711111111111111,-0.48333333333333334,-0.5933333333333334,0.004605902221236481,0.03325168932828246,-0.0116639049016498
1592167851.7994788,0.17741159835908615,9.06005568582239,4.063225558648394,-0.3711111111111111,-0.48333333333333334,-0.5933333333333334,0.015808,0.025122372219015424,-0.015793
1592167851.8094788,0.0551352210631067,9.079466834948516,3.904040573453025,-0.3711111111111111,-0.48333333333333334,-0.5933333333333334,0.010725706154531382,0.017446284858413905,-0.019625136437703573
1592167851.8194788,-0.07045036911309079,9.065934262348536,3.799829676438288,-0.3711111111111111,-0.48333333333333334,-0.5933333333333334,-0.0051811223596524465,0.00953407827948004,-0.02005
1592167851.8294787,-0.116257,9.05707019013474,3.769752368027017,-0.35,-0.48333333333333334,-0.5866666666666667,-0.028602397333699126,-0.007865197410518306,-0.012617610014772926
1592167851.8394787,-0.10613591413089218,9.067811686938525,3.822467561051264,-0.35,-0.48333333333333334,-0.5866666666666667,-0.05043375679886633,-0.02210039554708021,-0.010468
1592167851.8494787,0.011966445637289293,9.071300095672251,4.0725349521094945,-0.35,-0.48333333333333334,-0.5866666666666667,-0.06134220460121862,-0.03023756804594257,-0.007926090924799213
1592167851.8594787,0.18678305336896486,9.082598954603494,4.277535227959435,-0.35,-0.48333333333333334,-0.5866666666666667,-0.052071304103038334,-0.03315122600118301,-0.011661808897553168
1592167851.8694787,0.4528217967817034,9.046233305982138,4.495354658352987,-0.35,-0.48333333333333334,-0.5866666666666667,-0.026647403201258735,-0.032497726539807745,-0.03327078330203341
1592167851.8794787,0.5382400972886004,9.001746149344532,4.647709951877267,-0.3566666666666667,-0.48333333333333334,-0.5722222222222222,0.011716239910020052,-0.04540905579215683,-0.057571979632630534
1592167851.8894787,0.48670379261532154,9.080214190193265,4.429740544115777,-0.3566666666666667,-0.48333333333333334,-0.5722222222222222,0.04856017570902138,-0.07305947547428684,-0.07364648698576233
1592167851.8994787,0.26444573356125356,9.061316024479135,4.191247909231735,-0.3566666666666667,-0.48333333333333334,-0.5722222222222222,0.06173370891556033,-0.10604186578617325,-0.0973499423924487
1592167851.9094787,0.2339699424430437,9.040533570885318,3.9660043032218413,-0.3566666666666667,-0.48333333333333334,-0.5722222222222222,0.061487934696055006,-0.15216521292964427,-0.07643188012777756
1592167851.9194787,0.29557104050488653,9.069354277195549,3.765802401714714,-0.3566666666666667,-0.48333333333333334,-0.5722222222222222,0.04672771920767526,-0.18153866475263084,-0.07225230910088669
1592167851.9294786,0.3744780053565893,9.119484872764279,3.662858071258192,-0.3566666666666667,-0.48333333333333334,-0.5866666666666667,0.02155365066782715,-0.1837753367321352,-0.09731349176523148
1592167851.9394786,0.35676790592214774,9.108991138389547,3.6160735744387273,-0.3566666666666667,-0.48333333333333334,-0.5866666666666667,-0.01102093630112621,-0.1641451870629381,-0.10219684740388667
1592167851.9494786,0.42981806968866804,9.09138084288453,3.6418288264924623,-0.3566666666666667,-0.48333333333333334,-0.5866666666666667,-0.04771199797241947,-0.12386822432933019,-0.10037224820671196
1592167851.9594786,0.4129476394248901,9.116605886197505,3.7749659979323584,-0.3566666666666667,-0.48333333333333334,-0.5866666666666667,-0.07645638217443174,-0.07706514454568097,-0.08890541693473146
1592167851.9694786,0.2809281355252387,9.08352098901972,3.8667136207606934,-0.3566666666666667,-0.48333333333333334,-0.5866666666666667,-0.09273824466510489,-0.0303414918855729,-0.08441213436025838
1592167851.9794786,0.14925180002779143,9.049567762683665,3.840768017002524,-0.36444444444444446,-0.49777777777777776,-0.5866666666666667,-0.11204970317648623,-0.004870802024695659,-0.05837529682351378
1592167851.9894786,-0.0016653310832580072,8.996844437795849,3.850140398068382,-0.36444444444444446,-0.49777777777777776,-0.5866666666666667,-0.13528763448670564,0.008727619894171638,-0.03363156383265568
1592167851.9994786,0.03675365629158424,9.040638841188422,3.9223374631215413,-0.36444444444444446,-0.49777777777777776,-0.5866666666666667,-0.152973427996826,0.011139770037189991,-0.011889823079106323
1592167852.0094786,0.06908618525788865,9.032669621669521,4.089794096732844,-0.36444444444444446,-0.49777777777777776,-0.5866666666666667,-0.15756040613954794,0.015258570398051802,0.0017988047959450202
1592167852.0194786,0.360091326604904,9.102467590996183,4.307434599204745,-0.36444444444444446,-0.49777777777777776,-0.5866666666666667,-0.14797318108019195,0.010979906628865287,0.0005764533144326429
1592167852.0294785,0.5044878318853339,8.958933928756709,4.2194692489485774,-0.35133867682397246,-0.490720825982139,-0.5927154824915,-0.1336519077646289,0.011996728376698285,0.014562604449708317
1592167852.0394785,0.37620753783894634,9.008112683240578,4.1584016513480275,-0.35,-0.49,-0.5933333333333334,-0.13903906343165143,0.059020399163736,0.03999406343165145
1592167852.0494785,0.32205478386255654,9.06386259492715,4.260034687576288,-0.35,-0.49,-0.5933333333333334,-0.14015769318736612,0.10607209161156324,0.028876070083172854
1592167852.0594785,0.23187288696290498,9.05879537436587,4.361248324197655,-0.35,-0.49,-0.5933333333333334,-0.13387447729433818,0.12869242224554703,-0.0034965681169854624
1592167852.0694785,0.04617238500686563,9.003045395425378,4.3251857893031955,-0.35,-0.49,-0.5933333333333334,-0.12147186624277372,0.11508234987353191,-0.0087695163692418
1592167852.0794785,-0.09963939026826561,8.933621216897649,4.443447647036316,-0.3711111111111111,-0.4777777777777778,-0.5866666666666667,-0.10315636954426505,0.08627706071351342,0.00206194057289664
1592167852.0894785,-0.019266373560129616,8.949770137146421,4.646627207108646,-0.3711111111111111,-0.4777777777777778,-0.5866666666666667,-0.06919067743352934,0.057148725836184966,0.025086378028739136
1592167852.0994785,0.017475338969512984,9.016312401843491,4.759154598156508,-0.3711111111111111,-0.4777777777777778,-0.5866666666666667,-0.024462010945498335,0.03355245678508977,0.037485040698572634
1592167852.1094785,-0.03344896677328289,9.025000854532367,4.603184967342718,-0.3711111111111111,-0.4777777777777778,-0.5866666666666667,0.021299786961409925,0.02561287502621388,0.04691806090129713
1592167852.1194785,-0.05848619402573436,9.044415910893363,4.4362166512626455,-0.3711111111111111,-0.4777777777777778,-0.5866666666666667,0.055090376451667034,0.02909634111514192,0.05491223632350815
1592167852.1294785,-0.09795737752451436,9.024788114688995,4.433437757141638,-0.3492208126493841,-0.47230520316234603,-0.6039964862822006,0.08662661529352253,0.037280673056383044,0.0647269689892019
1592167852.1394784,-0.018074406880953978,9.011214340905012,4.412279308376963,-0.34444444444444444,-0.4711111111111111,-0.6077777777777778,0.10851514942831285,0.024601847859080147,0.05720984785908015
1592167852.1494784,-0.005351847220471891,8.985199683439575,4.378815,-0.34444444444444444,-0.4711111111111111,-0.6077777777777778,0.12086193202049336,0.00953067500005448,0.0385444743151309
1592167852.1594784,0.10474646561440776,9.060052902689215,4.42263536361754,-0.34444444444444444,-0.4711111111111111,-0.6077777777777778,0.14276281118182224,-0.005189113924111928,0.031407147769779806
1592167852.1694784,0.25367278765676954,9.050364196007516,4.359697140633699,-0.34444444444444444,-0.4711111111111111,-0.6077777777777778,0.16518499282954693,-0.014275897101292678,0.021563710341552626
1592167852.1794784,0.3202843176726517,9.083638398945885,4.146067472835462,-0.339021387893196,-0.48105338145506654,-0.5960278219167395,0.1725189194482175,-0.01305408061808152,-0.0034735703654051307
1592167852.1894784,0.2535893637876462,9.060875090595669,3.9981856119573638,-0.3377777777777778,-0.48333333333333334,-0.5933333333333334,0.16462004472751704,-0.004947156709735614,-0.026045648442962047
1592167852.1994784,0.20350956267758216,9.096004673064488,3.924129857603716,-0.3377777777777778,-0.48333333333333334,-0.5933333333333334,0.15355484879362058,-0.0006181729742770438,-0.04291399910363071
1592167852.2094784,0.16722394839994764,9.05543545119368,3.8519104691139505,-0.3377777777777778,-0.48333333333333334,-0.5933333333333334,0.14401644706763467,0.012314,-0.040298
1592167852.2194784,0.19277036464930436,9.056187109369503,3.7911125162367565,-0.3377777777777778,-0.48333333333333334,-0.5933333333333334,0.12392205833216999,0.01589889903353665,-0.0385455928032222
1592167852.2294784,0.07553393574667447,9.092673728024822,3.90125527743757,-0.37631769480701993,-0.4786333434517185,-0.5989733211912712,0.10086399734621021,0.013882580278219788,-0.04012987307111947
1592167852.2394783,0.06632980197318072,9.007482038297747,4.1595987568399,-0.38333333333333336,-0.4777777777777778,-0.6,0.10703313148208547,-0.02018092257638269,0.005560858424816292
1592167852.2494783,0.33908670593621393,9.15092149890027,4.318562255845254,-0.38333333333333336,-0.4777777777777778,-0.6,0.12501976082701785,0.002136553391196136,0.02157930894814189
1592167852.2594783,0.4355696774431761,9.177458295634226,4.356742188163459,-0.38333333333333336,-0.4777777777777778,-0.6,0.16082799967091774,0.04361497472756866,-0.00021897472756866046
1592167852.2694783,0.36505017973502535,9.143153903137268,4.182599256745289,-0.38333333333333336,-0.4777777777777778,-0.6,0.18555005167267882,0.05290070478816708,-0.014552893834011312
1592167852.2794783,0.09393820750621877,9.200877769045418,3.949153919672871,-0.35791810637129845,-0.4777777777777778,-0.6,0.19791828377138032,0.053639374531417955,-0.0435877840571589
1592167852.2894783,-0.20251935560319692,9.194417355603196,3.8354843838315777,-0.35,-0.4777777777777778,-0.6,0.2021704250737975,0.03794270327739297,-0.035082286760341475
1592167852.2994783,-0.08777853400880706,9.182424517095434,3.704916208389951,-0.35,-0.4777777777777778,-0.6,0.204361,0.04827960906989482,-0.018076429324414656
1592167852.3094783,0.05263570696920957,9.155518926665387,3.639779819862107,-0.35,-0.4777777777777778,-0.6,0.20055655675178785,0.07746382584011122,0.00385879120819847
1592167852.3194783,0.1122838080963314,9.094302473295027,3.60931989586171,-0.35,-0.4777777777777778,-0.6,0.17633738399810048,0.09439719213672457,0.016118617446223837
1592167852.3294783,0.28500656131357366,9.045915414327627,3.6815116073201746,-0.3547793600562588,-0.48653993788091887,-0.6055759200656352,0.14084208763624406,0.10723863035731765,0.04077163035731764
1592167852.3394783,0.3438990077770682,9.043748908588213,3.756846005360614,-0.3566666666666667,-0.49,-0.6077777777777778,0.1020103596454984,0.1368676712697147,0.020692436543710828
1592167852.3494782,0.2400570872625251,9.008189383526691,3.8960043899035885,-0.3566666666666667,-0.49,-0.6077777777777778,0.07549377689433162,0.1502583923797867,0.029104612863707822
1592167852.3594782,0.21469864915103223,9.009891737346349,3.873355341978857,-0.3566666666666667,-0.49,-0.6077777777777778,0.04943072632986689,0.14568718350580187,0.03917958500392719
1592167852.3694782,0.14188165892831825,9.072536790727298,3.945662056475021,-0.3566666666666667,-0.49,-0.6077777777777778,0.034038543890664644,0.14949602274643572,0.041257045492871416
1592167852.3794782,0.05191548049655873,9.08480475306342,3.957445692588953,-0.3698446922149204,-0.4951247877132098,-0.612170452960529,0.02407792382674698,0.14124505056197922,0.0327019012067169
1592167852.3894782,-0.15955294349053717,9.01057409958494,3.9472509362076162,-0.37666666666666665,-0.49777777777777776,-0.6144444444444445,0.0215610592493282,0.11876983105101854,0.04879144657117718
1592167852.3994782,-0.20056727318597276,9.010345197545705,3.8582671939799726,-0.37666666666666665,-0.49777777777777776,-0.6144444444444445,0.01940521696711335,0.08767167356978858,0.0787768621482704
1592167852.4094782,-0.13846395432894515,9.0419002540303,3.8448468369932325,-0.37666666666666665,-0.49777777777777776,-0.6144444444444445,0.006572197345502995,0.08973365656666146,0.09854558585833463
1592167852.4194782,-0.09911891855689468,9.1733126235033,3.912854429341374,-0.37666666666666665,-0.49777777777777776,-0.6144444444444445,-0.009591747938778488,0.09737510690844711,0.08915027269764994
1592167852.4294782,-0.1959891089031406,9.158928143150401,4.091046851620877,-0.35760557185862585,-0.489233149070725,-0.6229890731514973,-0.0032001837291081546,0.10303474515606816,0.08262517335424295
1592167852.4394782,-0.15096342913957236,9.134629562950577,4.069876310786779,-0.34444444444444444,-0.48333333333333334,-0.6288888888888889,0.019331215600638982,0.08425371860337177,0.08158496710200537
1592167852.4494781,-0.0010057897000735729,9.139627575762324,3.9995060977444665,-0.34444444444444444,-0.48333333333333334,-0.6288888888888889,0.03584975137999707,0.07956303392994812,0.085403
1592167852.4594781,0.050096333555321136,9.15849046826099,3.9281286292320066,-0.34444444444444444,-0.48333333333333334,-0.6288888888888889,0.0421051730019752,0.0851711808683003,0.08450026453378598
1592167852.4694781,0.07814970789812783,9.149855844392697,4.0282141668541005,-0.34444444444444444,-0.48333333333333334,-0.6288888888888889,0.054227964818735826,0.08210038434072801,0.09611168828677352
1592167852.4794781,0.102471980056184,9.16839684124446,4.128383907412018,-0.34444444444444444,-0.48707378102387233,-0.6126802822298866,0.07405417334425021,0.08588111162405923,0.10144511162405923
1592167852.489478,0.09238804614609644,9.170267801161406,4.159998874263988,-0.34444444444444444,-0.49,-0.6,0.0960914030702445,0.0732629153147704,0.09426552187158262
1592167852.499478,0.09169817302388449,9.195527809990839,4.107479910900864,-0.34444444444444444,-0.49,-0.6,0.12242898290978871,0.06364697482066535,0.08478810719853401
1592167852.509478,0.08781311899160979,9.19786206235559,3.910450312697823,-0.34444444444444444,-0.49,-0.6,0.1425190994206074,0.04207149183451524,0.08286540991902183
1592167852.519478,0.14189776300224827,9.231099334481353,3.5977526981554813,-0.34444444444444444,-0.49,-0.6,0.1451967677017443,0.011655062863366407,0.07437737717285593
1592167852.529478,0.18791061302030265,9.257453115913465,3.3733202764459285,-0.36079667093945644,-0.4947693993943785,-0.6265723680543944,0.12441199273554608,0.0027478150005582334,0.040970580852624
1592167852.539478,0.23207275746777672,9.211300813003744,3.3204199011522393,-0.3711111111111111,-0.49777777777777776,-0.6433333333333333,0.08634555000967852,0.00847427848778513,0.019215614054329627
1592167852.549478,0.29266870082905433,9.232809512414203,3.355462835872745,-0.3711111111111111,-0.49777777777777776,-0.6433333333333333,0.046985620174897304,0.015117111792150027,0.0008353442707226229
1592167852.559478,0.33041255979582035,9.167695154064493,3.447709458000536,-0.3711111111111111,-0.49777777777777776,-0.6433333333333333,0.01311028861137797,0.03710742298819387,-0.00621
1592167852.569478,0.43536547778814416,9.191692071168768,3.6045000072062314,-0.3711111111111111,-0.49777777777777776,-0.6433333333333333,-0.011682664083412867,0.05806753789570348,-0.011432519461088931
1592167852.579478,0.4080276986516913,9.19384895796194,3.7287644998599303,-0.3711111111111111,-0.49777777777777776,-0.6234030591413047,-0.02232594360685816,0.081558,-0.02303985597578323
1592167852.589478,0.24324609315472534,9.148819276807796,3.685089275036876,-0.3711111111111111,-0.49777777777777776,-0.6077777777777778,-0.033422126250297855,0.06691231556551773,-0.018004749024629327
1592167852.599478,0.20592396163868354,9.184305780970512,3.646029323552714,-0.3711111111111111,-0.49777777777777776,-0.6077777777777778,-0.04585636210882084,0.05930763789117916,0.005283645214118523
1592167852.609478,0.1704982675461848,9.14375758023127,3.636545882143753,-0.3711111111111111,-0.49777777777777776,-0.6077777777777778,-0.058684588469783736,0.04045677684203545,0.03182659385505545
1592167852.619478,0.17317907350861317,9.116317767937558,3.612865521646814,-0.3711111111111111,-0.49777777777777776,-0.6077777777777778,-0.07830329659104816,0.04423415897446029,0.047011158974460295
1592167852.629478,0.20519015230552376,9.124184991867835,3.655529939929678,-0.3735184115986656,-0.4944075570952014,-0.6044075570952014,-0.10404839958256044,0.06301018299467726,0.07330386806200907
1592167852.639478,0.3666873217628116,9.13657017490639,3.7393628042367606,-0.37666666666666665,-0.49,-0.6,-0.1241131435717375,0.08850346979319798,0.08833200625815661
1592167852.649478,0.4993865479260147,9.102983791928567,3.8063486820228953,-0.37666666666666665,-0.49,-0.6,-0.15151043730878455,0.11682192122131563,0.06400084720259676
1592167852.659478,0.42497255138343576,9.15395185609064,4.007060605291725,-0.37666666666666665,-0.49,-0.6,-0.16312626373302128,0.1567344654423742,0.031417640013661055
1592167852.669478,0.24688546841599102,9.147968644789277,4.032577479292942,-0.37666666666666665,-0.49,-0.6,-0.15477879046057957,0.1803416876121211,0.0040197187125811315
1592167852.679478,0.13090844335086319,9.253518805632531,4.052074589884182,-0.38744106324329813,-0.4865975589758006,-0.6073719555524321,-0.14146649625007415,0.15818996848439904,-0.02842525017336002
1592167852.689478,-0.05790840376449233,9.077330863015764,4.062082783196068,-0.3977777777777778,-0.48333333333333334,-0.6144444444444445,-0.1181874680135859,0.12443572855818232,-0.022472532510655622
1592167852.699478,-0.03794905034568624,9.116573398291825,4.013959038434863,-0.3977777777777778,-0.48333333333333334,-0.6144444444444445,-0.08856585963961891,0.07208119007582828,0.02684822022860749
1592167852.709478,0.13996419623793516,9.147951775189007,4.002671457967834,-0.3977777777777778,-0.48333333333333334,-0.6144444444444445,-0.058860660949654524,0.057275508766692934,0.06596558585192785
1592167852.719478,0.1785186808962613,9.157184447710094,4.00279975904379,-0.3977777777777778,-0.48333333333333334,-0.6144444444444445,-0.038124340242682846,0.03729298708860322,0.07697938789603609
1592167852.729478,0.24207706736416912,9.128099594951953,4.020342515442779,-0.40019947696112224,-0.4862393723533467,-0.6207408623211401,-0.0348799569923234,0.028745924728128307,0.081146
1592167852.7394779,0.27558434034545193,9.1106219587501,4.068528150744461,-0.4033333333333333,-0.49,-0.6288888888888889,-0.03400618474839928,0.03802875271895678,0.06684318439467121
1592167852.7494779,0.19090219775455783,9.048153249997215,4.052247781346152,-0.4033333333333333,-0.49,-0.6288888888888889,-0.036669608999746625,0.03422401492919468,0.056641
1592167852.7594779,0.13392007329487468,8.990828907375194,4.044604529438611,-0.4033333333333333,-0.49,-0.6288888888888889,-0.04095758692174827,0.029358,0.05923419450498191
1592167852.7694778,0.07208153299208973,9.10696753643101,3.9507575988841603,-0.4033333333333333,-0.49,-0.6288888888888889,-0.049164,0.009464594783124964,0.06168835578857559
1592167852.7794778,0.06536818431353313,9.100205956814044,3.9324134337347623,-0.40125488982773583,-0.4854274242876855,-0.6334614646012035,-0.048801736591049874,-0.026193931754126668,0.06513572843088682
1592167852.7894778,0.15797126547441828,9.088490687719254,3.8302399255874615,-0.3977777777777778,-0.4777777777777778,-0.6411111111111111,-0.06361212031455535,-0.055900990731089284,0.06339085681910775
1592167852.7994778,0.18740779745611566,9.066036462176596,3.9775963288998444,-0.3977777777777778,-0.4777777777777778,-0.6411111111111111,-0.07646247697895653,-0.062045907113839914,0.04319712694299826
1592167852.8094778,0.20683045144795306,9.170270451447951,4.142757505904653,-0.3977777777777778,-0.4777777777777778,-0.6411111111111111,-0.07031715654652246,-0.06514128322827069,0.03426982867737093
1592167852.8194778,0.23361892778533383,9.169620234873976,4.311610198108528,-0.3977777777777778,-0.4777777777777778,-0.6411111111111111,-0.03550505962110894,-0.06263247478397853,0.006765793214042689
1592167852.8294778,0.19250014898810705,9.092298761361633,4.096057889335691,-0.4069074202084948,-0.47093054595474004,-0.6338834775201267,-0.016067103061016514,-0.044144,-0.019116244099347295
1592167852.8394778,0.08016209470814081,9.042552212119201,3.850508123866501,-0.42444444444444446,-0.4577777777777778,-0.62,-0.023024845512822686,-0.06584033818450759,-0.030141492661265215
1592167852.8494778,-0.065421523311824,9.060526852740422,3.888742763457666,-0.42444444444444446,-0.4577777777777778,-0.62,-0.034481243333792065,-0.0894509459273822,-0.024097288888777987
1592167852.8594778,0.13278282577167136,9.077424677239273,3.8017414301547,-0.42444444444444446,-0.4577777777777778,-0.62,-0.05397759171550562,-0.1084174732918904,-0.01592306519292849
1592167852.8694777,0.24024727774416046,9.106403996482092,3.844044005007035,-0.42444444444444446,-0.4577777777777778,-0.62,-0.06626867930347247,-0.13681,-0.020594333287773485
1592167852.8794777,0.3510973134629898,9.034621728951414,3.928117962121678,-0.4217497315393848,-0.46316720358789715,-0.6226947129050597,-0.0794604164813869,-0.131485,-0.04263143297280035
1592167852.8894777,0.43658927808429576,9.01744455187802,4.0307267730761245,-0.4177777777777778,-0.4711111111111111,-0.6266666666666667,-0.10189016617289882,-0.1233703369157248,-0.06782118913358233
1592167852.8994777,0.3507305985520242,9.077618721714103,4.209578474508945,-0.4177777777777778,-0.4711111111111111,-0.6266666666666667,-0.1025306509672001,-0.09889188318058488,-0.0722255759650868
1592167852.9094777,0.31266605224473154,9.040991997923987,4.38085648654607,-0.4177777777777778,-0.4711111111111111,-0.6266666666666667,-0.0726151242436479,-0.0768421678726232,-0.07406674404435823
1592167852.9194777,0.18217973352144878,9.068493234991745,4.200894413442081,-0.4177777777777778,-0.4711111111111111,-0.6266666666666667,-0.055168290291318714,-0.06767754708541901,-0.07524663226865332
1592167852.9294777,0.11440729456426939,9.168151931997246,4.122506417065951,-0.4226522490713156,-0.4696774430836,-0.6212187281621244,-0.03988512092931764,-0.061740489804434015,-0.06078213132958304
1592167852.9394777,0.12513203244380328,9.085193750806516,4.102054361106772,-0.43666666666666665,-0.46555555555555556,-0.6055555555555555,-0.02762620336035452,-0.061884256159501494,-0.07603638052273175
1592167852.9494777,-0.0773876159702193,9.05318424690643,4.0639721409428,-0.43666666666666665,-0.46555555555555556,-0.6055555555555555,-0.024880725492092075,-0.08009395104324253,-0.06956083902239267
1592167852.9594777,0.01987209806333154,9.076767576641247,4.076709486355034,-0.43666666666666665,-0.46555555555555556,-0.6055555555555555,-0.016862892315901046,-0.08639934391480623,-0.049162107684098955
1592167852.9694777,0.042729866338146835,8.925853058105915,3.9348739357454536,-0.43666666666666665,-0.46555555555555556,-0.6055555555555555,-0.03146248022778021,-0.09871591861279197,-0.03387338158699673
1592167852.9794776,0.026698341292152632,9.192037605646872,3.8957407822620636,-0.43666666666666665,-0.46555555555555556,-0.6055555555555555,-0.043483659918500284,-0.1054516655707904,-0.004785100432249183
1592167852.9894776,0.0843521057290669,9.093037567129137,4.0136969066966195,-0.43666666666666665,-0.46555555555555556,-0.6055555555555555,-0.038695345549642365,-0.08799643091740905,-0.0077326687253723055
1592167852.9994776,0.08269112545395216,9.13603325964889,3.9296733810518445,-0.43666666666666665,-0.46555555555555556,-0.6055555555555555,-0.04090017219061913,-0.08668300049328764,-0.015918999013424723
1592167853.0094776,-0.03411074744817087,9.079997844753755,3.849679254392247,-0.43666666666666665,-0.46555555555555556,-0.6055555555555555,-0.053668420074632316,-0.0921886058201796,-0.011186974105188085
1592167853.0194776,0.2005368295240032,9.081106771216882,3.8805762212410535,-0.43666666666666665,-0.46555555555555556,-0.6055555555555555,-0.06728548615331634,-0.0920611752083237,0.00015727856606146816
1592167853.0294776,0.36493022783136914,9.037940394064979,3.958253063725082,-0.4389941149548192,-0.46280493485137525,-0.6070366590116526,-0.07784806317126353,-0.08043230812143982,-0.044990970693601
1592167853.0394776,0.22598355569360254,9.062981884153587,4.034213407324505,-0.4488888888888889,-0.45111111111111113,-0.6133333333333333,-0.082199,-0.07101180159225104,-0.05338752179476839
1592167853.0494776,0.27081989316359734,9.08434490084441,4.074288331676119,-0.4488888888888889,-0.45111111111111113,-0.6133333333333333,-0.08316478522635104,-0.068634,-0.023509212938096644
1592167853.0594776,0.2975588107976488,9.122328802104835,4.125534545752609,-0.4488888888888889,-0.45111111111111113,-0.6133333333333333,-0.07033885055407656,-0.05251848329140023,-0.0037948577336455545
1592167853.0694776,0.24215767255606047,9.112862368179565,4.15773108252093,-0.4488888888888889,-0.45111111111111113,-0.6133333333333333,-0.05429837964581493,-0.04137126880901421,0.015154733681148265
1592167853.0794775,0.14278781250770414,9.182053044358028,4.115788294724792,-0.45117392261098177,-0.4521657420597694,-0.6110482996112404,-0.03810571790634681,-0.03469104182993694,0.02490022149551246
1592167853.0894775,0.12910302097408263,9.094904009072835,4.16206399761841,-0.4633333333333333,-0.4577777777777778,-0.5988888888888889,-0.01266989055053364,-0.020050131508224614,0.02873993424588769
1592167853.0994775,0.1892558931285523,9.144273224773116,4.102027404847032,-0.4633333333333333,-0.4577777777777778,-0.5988888888888889,-0.0003675294447526879,-0.012754447425991798,0.011143257866995023
1592167853.1094775,0.0693637103618122,9.07632250442835,4.035499799897952,-0.4633333333333333,-0.4577777777777778,-0.5988888888888889,0.010744653249926682,-0.007682408655562186,-0.014251572317444667
1592167853.1194775,-0.002343920057036916,9.05357642541191,3.865967033983739,-0.4633333333333333,-0.4577777777777778,-0.5988888888888889,-0.008221107553598095,-0.03176038328012447,-0.014047169722092481
1592167853.1294775,0.10393008559173868,9.041718,3.8711651444892765,-0.46258322337013075,-0.4570276678145752,-0.5990139072160894,-0.027152447505091472,-0.02504352663226625,-0.024030966014000517
1592167853.1394775,0.13845699843173107,9.063923804320364,4.010567476303427,-0.45666666666666667,-0.45111111111111113,-0.6,-0.03751563902867325,-0.013622931012865018,-0.06788297896981756
1592167853.1494775,0.0061542822023732645,9.015884104296896,3.977229211496965,-0.45666666666666667,-0.45111111111111113,-0.6,-0.06182999580691034,-0.0113016823869844,-0.07551267819389473
1592167853.1594775,0.05264381156583989,9.075682290190622,4.070727774624799,-0.45666666666666667,-0.45111111111111113,-0.6,-0.068394425657985,0.010039832560747447,-0.082901
1592167853.1694775,0.14170246528682798,9.024245545758943,4.143033711984918,-0.45666666666666667,-0.45111111111111113,-0.6,-0.08159798992878815,0.017805753347627528,-0.07801084956107396
1592167853.1794775,0.15585582948290866,8.96912338845709,4.224309323247928,-0.45666666666666667,-0.45111111111111113,-0.6,-0.07016007070576527,0.01828779397856956,-0.07289229618224824
1592167853.1894774,0.06138442074914813,9.01335241691914,4.150747605559235,-0.4688888888888889,-0.4388888888888889,-0.5788888888888889,-0.07139250415819252,0.014027387990874126,-0.051076085560220384
1592167853.1994774,-0.14742553696455915,8.997089219097578,4.04430224536313,-0.4688888888888889,-0.4388888888888889,-0.5788888888888889,-0.07368166996885261,0.0010338542462056,-0.005984129641715647
1592167853.2094774,-0.06313949965891828,9.07678397303311,4.293699053520418,-0.4688888888888889,-0.4388888888888889,-0.5788888888888889,-0.06898572592143938,0.0071143317287485205,0.030135468504824334
1592167853.2194774,-0.08702813456342261,9.018422161746551,4.300058705747649,-0.4688888888888889,-0.4388888888888889,-0.5788888888888889,-0.05906942252605393,0.02819286891182978,-0.007874145557156716
1592167853.2294774,-0.27940784198775914,9.039728822816263,4.237961740996329,-0.4688888888888889,-0.4388888888888889,-0.5788888888888889,-0.05191447927447897,0.03529747927447897,-0.028419041451042064
1592167853.2394774,-0.28737562031797276,9.010147899961947,4.335975519393171,-0.4688888888888889,-0.4444444444444444,-0.5722222222222222,-0.04044807072803767,0.0285175881479463,-0.0304884118520537
1592167853.2494774,-0.23067136002256777,8.969143176566096,4.327758228541064,-0.4688888888888889,-0.4444444444444444,-0.5722222222222222,-0.030167634985958314,0.01733113595013866,-0.029648
1592167853.2594774,-0.1808589299377545,8.988777166209491,4.458323166259986,-0.4688888888888889,-0.4444444444444444,-0.5722222222222222,-0.017478113664892447,0.0062432393872529374,-0.02107687427763951
1592167853.2694774,-0.25466072666852146,8.911326972781888,4.468587990036743,-0.4688888888888889,-0.4444444444444444,-0.5722222222222222,-0.0013612464025881676,-0.0207417514960562,-0.0050462987588640144
1592167853.2794774,-0.24415117412929066,8.976278483295372,4.417344657424664,-0.4688888888888889,-0.4444444444444444,-0.5722222222222222,0.014315408454113356,-0.035305881837926004,0.016186172129965357
1592167853.2894773,-0.21685671922623348,8.973183501603732,4.381543014453184,-0.47555555555555556,-0.42444444444444446,-0.5511111111111111,0.02601600967660121,-0.04099256035478132,0.02407872784730359
1592167853.2994773,-0.12240663997140747,9.042479268997903,4.433812525372226,-0.47555555555555556,-0.42444444444444446,-0.5511111111111111,0.04252204429020841,-0.03755889239658176,0.0025466734084011395
1592167853.3094773,-0.10822174749496807,9.036346222683347,4.347107888006422,-0.47555555555555556,-0.42444444444444446,-0.5511111111111111,0.059296147164137426,-0.03585275377503654,-0.03547116242350413
1592167853.3194773,-0.2766657714117973,9.050111619472249,4.107370796195094,-0.47555555555555556,-0.42444444444444446,-0.5511111111111111,0.06325185297702648,-0.04433450955768714,-0.03652890112843703
1592167853.3294773,-0.21343016710420085,9.136415058477489,4.031724268820191,-0.47555555555555556,-0.42444444444444446,-0.5511111111111111,0.07947029371330251,-0.047981577903761265,0.011065441141926202
1592167853.3394773,0.07919398764790872,9.020296731439517,3.976137014351432,-0.47555555555555556,-0.4311111111111111,-0.5577777777777778,0.07199650007196298,-0.053057312823509804,0.011495356253601203
1592167853.3494773,0.13354553500844016,9.024140306092761,3.8621714055938585,-0.47555555555555556,-0.4311111111111111,-0.5577777777777778,0.04786648017161487,-0.03572085439650144,-0.026138162893019193
1592167853.3594773,0.0426960161841974,9.022645254375652,3.875386338122627,-0.47555555555555556,-0.4311111111111111,-0.5577777777777778,0.011827808557035066,-0.015499139425294092,-0.052333224013961295
1592167853.3694773,-0.016955487937880234,9.02886153966451,3.930396133729948,-0.47555555555555556,-0.4311111111111111,-0.5577777777777778,-0.008194549482592135,0.0033365804128169772,-0.055811580412816975
1592167853.3794773,-0.126434,9.006367024103943,3.9792915430528186,-0.47555555555555556,-0.4311111111111111,-0.5577777777777778,-0.02586198505447358,-0.016654808369021827,-0.03263094992055417
1592167853.3894773,-0.1591265399829522,8.954284686132295,3.917980348580464,-0.4688888888888889,-0.4388888888888889,-0.5244444444444445,-0.04367031813217416,-0.04914832865836657,-0.005378100768523866
1592167853.3994772,-0.07999007571792124,8.911977595984988,3.894763989854051,-0.4688888888888889,-0.4388888888888889,-0.5244444444444445,-0.06767522396118712,-0.07863059604177161,0.019005965020340822
1592167853.4094772,0.01881914949371817,8.981246140956499,3.8313704107536997,-0.4688888888888889,-0.4388888888888889,-0.5244444444444445,-0.10553196118966884,-0.10741143590110547,0.03490500861802118
1592167853.4194772,0.0681,9.026009931449384,3.9072852555512396,-0.4688888888888889,-0.4388888888888889,-0.5244444444444445,-0.13636396916318855,-0.1062089648746728,0.02622782563738874
1592167853.4294772,0.05596103061470414,8.963677129205893,3.869211382027783,-0.4688888888888889,-0.4388888888888889,-0.5244444444444445,-0.15749291622672998,-0.10379,0.019615855592039058
1592167853.4394772,0.05144720036351774,9.01472328072208,3.8317208027293352,-0.49,-0.4177777777777778,-0.5311111111111111,-0.1987083885946792,-0.09848598914003953,0.010545413216433604
1592167853.4494772,0.14391846337612282,9.040675450812667,4.1248733631129975,-0.49,-0.4177777777777778,-0.5311111111111111,-0.21392664721790172,-0.06039745621943267,-0.01606316521076093
1592167853.4594772,0.24622325570510406,9.080225245970782,4.219258303489162,-0.49,-0.4177777777777778,-0.5311111111111111,-0.21258094027823823,-0.024712250304117077,-0.06805715224029976
1592167853.4694772,0.10359331002940748,8.948862728365429,4.218238170505796,-0.49,-0.4177777777777778,-0.5311111111111111,-0.2190046496571421,-0.008044183016793516,-0.08374397467766592
1592167853.4794772,0.08244255993147229,8.985931288250068,4.323061977567663,-0.4898001828834626,-0.4177111720722653,-0.5300454198229116,-0.2161677304539083,-0.019530404100963197,-0.0691535958990368
1592167853.4894772,0.13364525795387233,9.036487082544795,4.518709276455231,-0.48333333333333334,-0.41555555555555557,-0.4955555555555556,-0.18530043601348534,-0.02666129186461875,-0.03174853337877716
1592167853.4994771,0.1647366644771861,8.939663380320031,4.502519587807632,-0.48333333333333334,-0.41555555555555557,-0.4955555555555556,-0.16193979009976722,-0.043229899906474,-0.02923749676233479
1592167853.5094771,0.03147884169020996,9.08633793722549,4.420755811591995,-0.48333333333333334,-0.41555555555555557,-0.4955555555555556,-0.1362359531333167,-0.04518667966580715,-0.02326432033419285
1592167853.5194771,0.04495248950674975,8.98079679256767,4.319358175082035,-0.48333333333333334,-0.41555555555555557,-0.4955555555555556,-0.12103527347357601,-0.03379791461338783,-0.03405651172296157
1592167853.5294771,0.067640620691989,8.952281733808716,4.242551113116726,-0.48333333333333334,-0.41555555555555557,-0.4955555555555556,-0.11994291587289178,-0.016354171431118496,-0.05867323443952993
1592167853.539477,0.054335798560686294,8.97451216010873,4.325398297841527,-0.48444444444444446,-0.4222222222222222,-0.51,-0.123734,0.008033878447293943,-0.07366783151679729
1592167853.549477,-0.06455799412912062,8.872476324856779,4.438785211129071,-0.48444444444444446,-0.4222222222222222,-0.51,-0.1236232985507569,0.004859111970846228,-0.05544285807934849
1592167853.559477,-0.08031068171754577,8.920048250891776,4.505809115539337,-0.48444444444444446,-0.4222222222222222,-0.51,-0.1069459820970578,-0.007612435238833947,-0.013769089320070914
1592167853.569477,-0.10725116886930369,8.874076963678478,4.529377445533237,-0.48444444444444446,-0.4222222222222222,-0.51,-0.08967298652392311,-0.03558206444153043,0.013476543717780658
1592167853.579477,-0.16847056539044805,8.954255533741348,4.459072145084818,-0.48444444444444446,-0.4222222222222222,-0.51,-0.07767226833215839,-0.0539886571757581,0.04311585236234281
1592167853.589477,0.06703010871742868,8.94460658141376,4.4039344367649,-0.4777777777777778,-0.4033333333333333,-0.51,-0.07037091094032778,-0.06614263358950832,0.03801946422030371
1592167853.599477,0.004796347417245901,8.923065350195664,4.264320991503122,-0.4777777777777778,-0.4033333333333333,-0.51,-0.07314675882414752,-0.054877481356802864,0.02424356702780895
1592167853.609477,0.09003187205789599,8.882658515717095,4.273703356340801,-0.4777777777777778,-0.4033333333333333,-0.51,-0.09058364913536805,-0.03705196086331652,0.019666404707356075
1592167853.619477,0.3149572109840474,8.903395446579871,4.485776872140866,-0.4777777777777778,-0.4033333333333333,-0.51,-0.10379580995818628,-0.005544067288990763,-0.011569407815543522
1592167853.629477,0.23298188542145198,8.888943866780041,4.777162745232714,-0.4777777777777778,-0.4033333333333333,-0.51,-0.0853542392271441,0.02441004573827523,-0.047052173611044544
1592167853.639477,0.16665798613457014,8.852506705695433,4.904048375185629,-0.4922222222222222,-0.4011111111111111,-0.5022222222222222,-0.049956626875304215,0.028859222037704597,-0.03609249264865364
1592167853.649477,0.09300649704014773,8.853578695523264,4.7740385202119775,-0.4922222222222222,-0.4011111111111111,-0.5022222222222222,-0.01618622393116649,0.005941970245551455,0.008798158572996706
1592167853.659477,0.1886384941722415,8.9259233750035,4.69607645473184,-0.4922222222222222,-0.4011111111111111,-0.5022222222222222,0.008640033050086282,-0.0015319456651005845,0.036670289359399026
1592167853.669477,0.18083120247612386,8.881487709049582,4.5730634143714,-0.4922222222222222,-0.4011111111111111,-0.5022222222222222,0.03014100482184661,-0.009468610704519665,0.022393838304376714
1592167853.679477,0.1140922667461305,8.980277832880525,4.271900361092074,-0.4922222222222222,-0.4011111111111111,-0.5022222222222222,0.027956303238899537,-0.004514892839158451,-0.014714217137391062
1592167853.689477,0.015453471415855805,8.912630175515758,4.241173576755335,-0.4777777777777778,-0.41333333333333333,-0.48333333333333334,0.013973028374354832,0.0126819935585746,-0.04528940289272101
1592167853.699477,0.015914801723913026,8.908824602742007,4.302856180423332,-0.4777777777777778,-0.41333333333333333,-0.48333333333333334,0.0015153665654855926,0.022062877811504802,-0.0483624856358719
1592167853.709477,0.05368966960143239,8.881081524513249,4.411005583224314,-0.4777777777777778,-0.41333333333333333,-0.48333333333333334,0.0012675234824667137,0.01514874780877286,-0.03800261678009705
1592167853.719477,0.11169970825894014,8.888261479758027,4.400675584675361,-0.4777777777777778,-0.41333333333333333,-0.48333333333333334,0.0018727096840542576,0.008745177083351098,-0.026822912139791173
1592167853.729477,0.08944660123855191,8.883735412120755,4.3873179283520525,-0.4777777777777778,-0.41333333333333333,-0.48333333333333334,-0.0015050382858329326,0.0033949685784989574,-0.041367
1592167853.739477,-0.16531891659400527,8.843827467802026,4.331106776023328,-0.5044444444444445,-0.4088888888888889,-0.48333333333333334,-0.008895956476480752,-0.02464775505957911,-0.02119618044267108
1592167853.749477,-0.03544892746548961,8.866336083695286,4.269264256895352,-0.5044444444444445,-0.4088888888888889,-0.48333333333333334,-0.022591605911527306,-0.05796117506662551,0.014005224148681434
1592167853.759477,0.1285868055240057,8.88330561896464,4.160935071553042,-0.5044444444444445,-0.4088888888888889,-0.48333333333333334,-0.049875826859416356,-0.051634636577580766,-0.01008948767335182
1592167853.769477,0.04902929093824275,8.923080035013651,4.215361964197837,-0.5044444444444445,-0.4088888888888889,-0.48333333333333334,-0.07844512831801277,-0.03926764760888161,-0.052084823809775596
1592167853.779477,-0.17164957299074826,8.862727705153516,4.468852533247084,-0.5044444444444445,-0.4088888888888889,-0.48333333333333334,-0.086456,-0.04177437682827323,-0.039561167468451286
1592167853.7894769,0.04533006152401381,8.906805050361255,4.564663124046306,-0.49777777777777776,-0.39222222222222225,-0.46,-0.07422484833848468,-0.03797135830377882,-0.027179179806341037
1592167853.7994769,0.011700149839154017,8.942126135215855,4.468476084284857,-0.49777777777777776,-0.39222222222222225,-0.46,-0.06371667025214169,-0.013217141774312774,-0.052044858225687225
1592167853.8094769,-0.3095125055859632,8.853290699265866,4.44819589055165,-0.49777777777777776,-0.39222222222222225,-0.46,-0.060693126875371345,-0.02948923399685901,-0.034846116165985236
1592167853.8194768,-0.168877172530189,8.87740641445857,4.5365574010365535,-0.49777777777777776,-0.39222222222222225,-0.46,-0.053436,-0.03615893844240978,-0.003146852926415672
1592167853.8294768,-0.014793515057222758,8.834421994973882,4.479268623027686,-0.49777777777777776,-0.39222222222222225,-0.46,-0.05320625803898305,-0.028994484751918688,-0.015026075910604373
1592167853.8394768,0.011454285267640005,8.800312198575929,4.459081489554351,-0.49227422562361733,-0.38011440748306924,-0.4335829496600299,-0.0684233314036678,-0.023274364077797427,-0.0398931101613178
1592167853.8494768,-0.14480068849122968,8.875251981687974,4.668480681278221,-0.4922222222222222,-0.38,-0.43333333333333335,-0.06791596930355714,-0.012462329456624281,-0.05237163984693286
1592167853.8594768,-0.08487152626681187,8.847452190957222,4.846547542648701,-0.4922222222222222,-0.38,-0.43333333333333335,-0.04138907106759057,0.0016115353652139618,-0.037094
1592167853.8694768,-0.1776819274825566,8.883213009877016,4.782756655334726,-0.4922222222222222,-0.38,-0.43333333333333335,-0.012824948159371831,-0.00014147625723298207,-0.041278723285632216
1592167853.8794768,-0.4254724231517137,8.797691167234234,4.724673940388545,-0.4922222222222222,-0.38,-0.43333333333333335,0.008974858384268258,-0.0020137499608071643,0.004548154843647571
1592167853.8894768,-0.35810128973967525,8.845715013401106,4.59207522973716,-0.5044444444444445,-0.38,-0.3888888888888889,0.025796573202963195,0.027360998834867194,0.030276997669734393
1592167853.8994768,-0.32486594746620034,8.813175428539717,4.4399049972321185,-0.5044444444444445,-0.38,-0.3888888888888889,0.026485609441724036,0.029358,0.026422939985289638
1592167853.9094768,-0.3464890167622917,8.805332294519278,4.286001852535239,-0.5044444444444445,-0.38,-0.3888888888888889,0.001659330528187124,0.03210347444286169,0.014948611148586474
1592167853.9194767,-0.4128229587066984,8.793110656705748,4.390415624570082,-0.5044444444444445,-0.38,-0.3888888888888889,-0.014300459141771547,0.02085430705623698,0.025354735028566906
1592167853.9294767,-0.3046998842676375,8.86637623173184,4.5951373299673035,-0.5044444444444445,-0.38,-0.3888888888888889,-0.013936231522366966,0.011728118469539172,0.06008308474395489
1592167853.9394767,-0.14770069142535086,8.902122041807301,4.622433499667265,-0.4923338298469443,-0.3777980700731818,-0.39769660859616174,-0.0023438297552667085,0.019735662841361593,0.05992384590858603
1592167853.9494767,-0.19981078993630683,8.900529331761822,4.61399058581692,-0.4922222222222222,-0.37777777777777777,-0.3977777777777778,0.007118014832820069,0.029358,0.03772025391238809
1592167853.9594767,-0.31464942963126724,8.820472123666537,4.59203620787176,-0.4922222222222222,-0.37777777777777777,-0.3977777777777778,0.013540626314324329,0.03339719178574579,0.0499757704950866
1592167853.9694767,-0.13277022373814756,8.906870399566628,4.543748607247359,-0.4922222222222222,-0.37777777777777777,-0.3977777777777778,0.017305844518533904,0.06500298879689595,0.029117352135125417
1592167853.9794767,-0.20779636754280284,8.89799260002376,4.438461620900831,-0.4922222222222222,-0.37777777777777777,-0.3977777777777778,0.016071898458457037,0.09940647799357552,-0.0088876921403136
1592167853.9894767,-0.4474687842433811,8.781494935570565,4.456497081514925,-0.4922222222222222,-0.3719440061811359,-0.4036115493744197,0.007499106226799749,0.09903137851942274,0.001729893169186174
1592167853.9994767,-0.24853918103493694,8.896191878770214,4.461525176403338,-0.4922222222222222,-0.3711111111111111,-0.40444444444444444,-0.0005430734502736887,0.10790548919042035,-0.005113389824589467
1592167854.0094767,-0.34447628179282874,8.800507,4.583709838043115,-0.4922222222222222,-0.3711111111111111,-0.40444444444444444,-0.001236,0.10127235265240132,-0.003186943656139709
1592167854.0194767,-0.3157984749433904,8.90968337804128,4.634941878519331,-0.4922222222222222,-0.3711111111111111,-0.40444444444444444,0.010618542353767508,0.1112534576462325,-0.01771033152376182
1592167854.0294766,-0.43234856736631866,8.779485897806625,4.574051221858709,-0.4922222222222222,-0.3711111111111111,-0.40444444444444444,0.022202,0.103674956194377,-0.010840836317097848
1592167854.0394766,-0.5322395298936419,8.825684342019725,4.574615499335324,-0.49729187336684144,-0.3761807622557303,-0.37909618872134815,0.028896913771376032,0.09206266751463693,0.016393391586344987
1592167854.0494766,-0.5019059988191878,8.84996167273692,4.488662650207972,-0.49777777777777776,-0.37666666666666665,-0.37666666666666665,0.037511310103951354,0.06749805946987796,0.03634166898158395
1592167854.0594766,-0.5710779047833363,8.860978581939843,4.367000204105519,-0.49777777777777776,-0.37666666666666665,-0.37666666666666665,0.03941926717456797,0.03402319530978572,0.04878596692539646
1592167854.0694766,-0.5193055270532627,8.877447658097218,4.284836682873916,-0.49777777777777776,-0.37666666666666665,-0.37666666666666665,0.03308771518608537,0.006488845581580278,0.05780554539630362
1592167854.0794766,-0.4304654200606123,8.92734380093414,4.3018845144386395,-0.49777777777777776,-0.37666666666666665,-0.37666666666666665,0.02422675393429405,-0.028249879861112475,0.037086488480051846
1592167854.0894766,-0.40236647997473174,8.900077186988433,4.485294181452504,-0.48444444444444446,-0.36444444444444446,-0.38555555555555554,0.025641356953740684,-0.062352894340314026,0.014356023083020256
1592167854.0994766,-0.18660007241287496,8.908777996862982,4.556370420070297,-0.48444444444444446,-0.36444444444444446,-0.38555555555555554,0.03414185255770457,-0.08663546458189068,-0.011689413764369763
1592167854.1094766,-0.020253931838448924,8.95002601213943,4.501797405084756,-0.48444444444444446,-0.36444444444444446,-0.38555555555555554,0.04023037944323706,-0.07795410840871074,-0.05775979825094788
1592167854.1194766,0.01756084941159304,8.889555382282792,4.3886401690126435,-0.48444444444444446,-0.36444444444444446,-0.38555555555555554,0.03285143340228631,-0.052657504476559064,-0.08610556666426264
1592167854.1294765,-0.08129078480863305,8.825052416379762,4.339776962301301,-0.48444444444444446,-0.36444444444444446,-0.38555555555555554,0.023303951965004368,-0.05036771702841922,-0.08842926672681456
1592167854.1394765,-0.2059702460613602,8.80144440554916,4.316789174976423,-0.48444444444444446,-0.3515052057691957,-0.3457425134778671,0.0025238700399439033,-0.04858598064879277,-0.047803682074039955
1592167854.1494765,-0.21939019427357115,8.802550318238561,4.373283693520134,-0.48444444444444446,-0.35,-0.3411111111111111,-0.011219041280574566,-0.03387406409388825,-0.026138560423036583
1592167854.1594765,-0.3180655642104305,8.776481949242624,4.560316420241056,-0.48444444444444446,-0.35,-0.3411111111111111,-0.016020028645634475,-0.023134318634653157,-0.0006034628814078694
1592167854.1694765,-0.32243335475490503,8.833911971575931,4.699740717991372,-0.48444444444444446,-0.35,-0.3411111111111111,-0.003969295160896441,-0.012784060408511783,0.018606306021693525
1592167854.1794765,-0.25638656155182493,8.88587519276322,4.704689378165423,-0.48444444444444446,-0.35,-0.3411111111111111,0.010476000666057127,0.009826882965509428,0.023621
1592167854.1894765,-0.1967579371411183,8.883665676384549,4.630511701278219,-0.4538848176917941,-0.3632425049261485,-0.31462610125881413,0.025217602517000077,0.04141784325370934,0.018914145538518414
1592167854.1994765,-0.2585733659878673,8.924319889351965,4.427492127140648,-0.45111111111111113,-0.36444444444444446,-0.31222222222222223,0.02480499007438111,0.07354834614438864,0.003125785706438086
1592167854.2094765,-0.386598355242341,8.79406694049125,4.3287099295192695,-0.45111111111111113,-0.36444444444444446,-0.31222222222222223,0.009441422978026252,0.05923088151720454,0.018528455901278877
1592167854.2194765,-0.3509016375432816,8.890802984629664,4.4070306624580375,-0.45111111111111113,-0.36444444444444446,-0.31222222222222223,0.001490161209115515,0.08823739612470523,0.028946
1592167854.2294765,-0.31586514376972763,8.941321524534246,4.546760809512707,-0.45111111111111113,-0.36444444444444446,-0.31222222222222223,0.011174250622012435,0.08646522667640237,0.01598350742579166
1592167854.2394764,-0.4762280658497864,8.854962017725267,4.556976822934258,-0.46202245243654394,-0.3493364333784606,-0.31222222222222223,0.029672424720048825,0.06052671666016881,0.020455783996907225
1592167854.2494764,-0.53355935229379,8.82428245074732,4.353563376077567,-0.46555555555555556,-0.34444444444444444,-0.31222222222222223,0.030799301309905453,0.017631348525468514,0.045774406500105794
1592167854.2594764,-0.5471152776624812,9.028423656160726,4.326584042040759,-0.46555555555555556,-0.34444444444444444,-0.31222222222222223,0.029814292192711898,0.03040298452462678,0.038751678960925295
1592167854.2694764,-0.47661979682196026,8.98538430283869,4.283298248754277,-0.46555555555555556,-0.34444444444444444,-0.31222222222222223,0.016291566148746578,0.06103716146277385,0.006947483338501001
1592167854.2794764,-0.4926513664002403,8.887743399181558,4.323813426653278,-0.46555555555555556,-0.34444444444444444,-0.31222222222222223,0.0047774105453986795,0.07589651493505621,-0.015322636234129834
1592167854.2894764,-0.4627050757868856,8.956195996265095,4.340577070714058,-0.46972203728362183,-0.3394446663707649,-0.3072224441485427,-0.00457536698679522,0.08838063792815375,-0.025811634520871166
1592167854.2994764,-0.5295596953037731,8.94106663106049,4.310046437205975,-0.4711111111111111,-0.3377777777777778,-0.3055555555555556,-0.014034644950494939,0.09484551320145987,-0.052577054257844195
1592167854.3094764,-0.8350548143121479,8.75641553061252,4.400718773590767,-0.4711111111111111,-0.3377777777777778,-0.3055555555555556,-0.024060939620150174,0.05910648257729171,-0.033866972145360816
1592167854.3194764,-0.7703316755813997,8.902879185029418,4.35836694634086,-0.4711111111111111,-0.3377777777777778,-0.3055555555555556,-0.025518818020423887,0.048795396185710944,-0.011792845649783376
1592167854.3294764,-0.7868499421265445,8.913233725117525,4.195039993962756,-0.4711111111111111,-0.3377777777777778,-0.3055555555555556,-0.037698059057013455,0.04493283214614472,-0.02398858392692764
1592167854.3394763,-0.9084310191707071,8.799312406748303,4.174434563981597,-0.45358841531175736,-0.3309633960780291,-0.2880328597562018,-0.05617643614125704,0.022579683591840635,-0.020288880303671215
1592167854.3494763,-0.8460861057718616,8.95346659758644,4.1724767112579135,-0.45111111111111113,-0.33,-0.28555555555555556,-0.07564703244398711,0.012842014666551478,-0.02202766105224022
1592167854.3594763,-0.7809217511966017,8.870149974475277,4.3006318074497,-0.45111111111111113,-0.33,-0.28555555555555556,-0.0857957559193438,0.01301314736207368,-0.022147442086221037
1592167854.3694763,-0.7525999016006774,8.84821487232536,4.4710697928137675,-0.45111111111111113,-0.33,-0.28555555555555556,-0.09004072815099705,0.011979744810466705,-0.01967027184900296
1592167854.3794763,-0.777690566486445,8.907991941855979,4.5426813248882505,-0.45111111111111113,-0.33,-0.28555555555555556,-0.08279015178626647,0.022987511271862132,-0.03452646162542993
1592167854.3894763,-0.9682028033965889,8.932055678098946,4.625947333535592,-0.44575620972818,-0.32018268079795964,-0.28555555555555556,-0.06981846033072944,0.025287393332197476,-0.047246156491880076
1592167854.3994763,-1.0169509514389743,8.825978629590775,4.688119564798961,-0.4444444444444444,-0.31777777777777777,-0.28555555555555556,-0.04216664618839407,-0.002025479114394595,-0.03322833067766944
1592167854.4094763,-0.8780721294384748,8.885923826232657,4.598619874469377,-0.4444444444444444,-0.31777777777777777,-0.28555555555555556,-0.03147199796988556,0.018547292651284436,-0.028594035374838317
1592167854.4194763,-0.8104949385872875,8.877034010717997,4.502963783648362,-0.4444444444444444,-0.31777777777777777,-0.28555555555555556,-0.029999,0.03363,-0.042750102314820584
1592167854.4294763,-0.8391638779693573,8.855502273250725,4.5801279855581045,-0.4444444444444444,-0.31777777777777777,-0.28555555555555556,-0.027321091611200943,0.030207101115178374,-0.060412374905074805
1592167854.4394763,-0.8663940313467215,8.750747606517061,4.695773153819645,-0.4444444444444444,-0.31777777777777777,-0.26700001101600623,-0.0017720035367349328,0.015117093714843101,-0.026045638965120566
1592167854.4494762,-0.8789246318779739,8.844247931421702,4.736825871870974,-0.4444444444444444,-0.31777777777777777,-0.2577777777777778,0.023469127086562146,0.012209644859834981,-0.012918982213856694
1592167854.4594762,-0.986202591980165,8.886768399727014,4.681648491217592,-0.4444444444444444,-0.31777777777777777,-0.2577777777777778,0.050980021441068,0.011462720279576769,0.00612762761457549
1592167854.4694762,-0.9551820309681294,8.879591610904006,4.636195898007336,-0.4444444444444444,-0.31777777777777777,-0.2577777777777778,0.08260552534667306,-0.013507306710575283,0.020999818327491215
1592167854.4794762,-0.9433244176838743,8.832028222689173,4.6491228724997775,-0.4444444444444444,-0.31777777777777777,-0.2577777777777778,0.11290587389774952,-0.027226997687112894,0.04606942949070662
1592167854.4894762,-0.8358711486516844,8.883671780640379,4.567107584963286,-0.42570980563760347,-0.3130941180760675,-0.2523135081257825,0.12759719700947356,-0.032479346614416864,0.045030948857311695
1592167854.4994762,-0.7189570794699425,8.886515061597263,4.506793462836713,-0.4177777777777778,-0.3111111111111111,-0.25,0.12455798899155503,-0.0127276419691117,0.029358658481779158
1592167854.5094762,-0.639262499287514,8.91593156597667,4.485347646870001,-0.4177777777777778,-0.3111111111111111,-0.25,0.12043066372096202,0.016528526620856278,0.008236798344393441
1592167854.5194762,-0.6291026679942586,8.873765023458587,4.426326931483193,-0.4177777777777778,-0.3111111111111111,-0.25,0.11401825909682878,0.04935619242556724,-0.0067700900434882055
1592167854.5294762,-0.6665819873938794,8.831444470589291,4.325755581012424,-0.4177777777777778,-0.3111111111111111,-0.25,0.1008639342394784,0.06893700397384667,0.0014151868988544194
1592167854.5394762,-0.7218813903301622,8.732233724825292,4.3017276909657,-0.43067193634725737,-0.30580175170014895,-0.25,0.08812760205002786,0.06198159664852247,0.03311512335260694
1592167854.5494761,-0.7002171731251974,8.764075511580952,4.201837174862034,-0.43666666666666665,-0.30333333333333334,-0.25,0.07073647352111465,0.03162412022877918,0.06332556324359519
1592167854.5594761,-0.6788372738466555,8.77648972143454,4.075531729622387,-0.43666666666666665,-0.30333333333333334,-0.25,0.04221081662095208,0.018064513966238017,0.07709396022739923
1592167854.5694761,-0.7948640580368326,8.879015229563686,4.091924911366023,-0.43666666666666665,-0.30333333333333334,-0.25,0.0008165584602451131,0.023295515849728263,0.07033163712819628
1592167854.579476,-0.8129913800980277,8.952877286945231,4.232965044526597,-0.43666666666666665,-0.30333333333333334,-0.25,-0.032034124099099816,0.022186778091981028,0.03283993833498066
1592167854.589476,-0.907996225903514,8.954053516476868,4.380650893170865,-0.4296712894000454,-0.30333333333333334,-0.24618433967275205,-0.0394209988261964,0.007421646174905894,-0.004410314896807487
1592167854.599476,-0.8457314838995564,8.898528388784396,4.419715638118291,-0.42444444444444446,-0.30333333333333334,-0.24333333333333335,-0.03352479941137383,0.002336598822747663,-0.011141598822747662
1592167854.609476,-0.7203851888146723,8.894278243491948,4.355475906226235,-0.42444444444444446,-0.30333333333333334,-0.24333333333333335,-0.03316734121188349,-0.000458,-0.008002065628596775
1592167854.619476,-0.669975240720324,8.838195825976905,4.326763136946304,-0.42444444444444446,-0.30333333333333334,-0.24333333333333335,-0.0391886132261415,0.0017721603215754937,0.0006458036331851574
1592167854.629476,-0.6705992119690566,8.840344356270995,4.406551585596185,-0.42444444444444446,-0.30333333333333334,-0.24333333333333335,-0.04555481955548621,-0.011797425316272288,0.01577981874365479
1592167854.639476,-0.595977355751955,8.858249075131523,4.425764152967748,-0.42731289204998485,-0.30333333333333334,-0.22554895817898296,-0.03772963080446522,-0.03176644797819759,0.014038
1592167854.649476,-0.6046522319335689,8.87147528441637,4.3676842890813266,-0.43,-0.30333333333333334,-0.2088888888888889,-0.037555368968870885,-0.04499803455894231,0.01637296544105769
1592167854.659476,-0.5114295555777958,8.896408072228528,4.30609722379049,-0.43,-0.30333333333333334,-0.2088888888888889,-0.049315189786000344,-0.029539111415729503,0.016628823677842155
1592167854.669476,-0.5554903046116297,8.915983509240418,4.354717466899872,-0.43,-0.30333333333333334,-0.2088888888888889,-0.06299637088099291,-0.007957289706262865,0.004463107367314551
1592167854.679476,-0.654002661112854,8.870266619802722,4.385573112149036,-0.43,-0.30333333333333334,-0.2088888888888889,-0.06890958300775775,-0.0020284169922422553,-0.0034452509767267654
1592167854.689476,-0.7092480852884768,8.809595191689011,4.552992087264569,-0.43,-0.29647119228371294,-0.23696128409188152,-0.06314494581977242,-0.00566543863120912,0.005351507929815973
1592167854.699476,-0.6722583555858446,8.792138276006833,4.740307041139973,-0.43,-0.2911111111111111,-0.2588888888888889,-0.04829790546229055,-0.016255440546380406,0.028494216899609955
1592167854.709476,-0.6195448991210832,8.7761150407165,4.724864729266686,-0.43,-0.2911111111111111,-0.2588888888888889,-0.018252375855645004,-0.05498563557678719,0.049862022008940264
1592167854.719476,-0.44227702270337066,8.843242788068709,4.641643013519886,-0.43,-0.2911111111111111,-0.2588888888888889,0.005036018184325311,-0.08189223355060925,0.07317884948919393
1592167854.729476,-0.14684235969105716,8.87743226106568,4.611179745769551,-0.43,-0.2911111111111111,-0.2588888888888889,0.015454029279779777,-0.06471850350985163,0.08043197072022022
1592167854.739476,0.08553441402222699,8.92904216141371,4.640671689814949,-0.4265582032262358,-0.286980954982594,-0.24581006114858475,0.022365230612540848,-0.056427172384644154,0.07073095149290017
1592167854.749476,0.22438154448739817,8.900708215316204,4.710666430407984,-0.42444444444444446,-0.28444444444444444,-0.23777777777777778,0.037339938124253104,-0.019777243857150285,0.049146357493834655
1592167854.759476,0.23429670960537996,8.931396328706178,4.67339173117356,-0.42444444444444446,-0.28444444444444444,-0.23777777777777778,0.05363169607841508,0.0019395426211216275,0.021756258681586566
1592167854.769476,0.09092002952845071,8.914252415851022,4.59189285656597,-0.42444444444444446,-0.28444444444444444,-0.23777777777777778,0.06422360258306142,0.022741094951525192,-0.0012414923684637706
1592167854.779476,-0.08362644270331007,8.874725,4.52448167268669,-0.42444444444444446,-0.28444444444444444,-0.23777777777777778,0.071168010597453,0.02707681093905784,-0.008128703256503661
1592167854.789476,-0.17984852062597914,8.879660564218248,4.507653851793301,-0.43432636531220864,-0.29123826504103234,-0.2340720574523662,0.08025666278766823,0.011612969472733074,-0.005325567781645257
1592167854.799476,-0.1692359575865986,8.871314391206635,4.424448845756917,-0.44222222222222224,-0.2966666666666667,-0.2311111111111111,0.08442756878074374,-0.012708416749751553,0.0027603543968149073
1592167854.809476,-0.07089624543877605,8.932027085808258,4.26097125615239,-0.44222222222222224,-0.2966666666666667,-0.2311111111111111,0.08531496700925519,-0.05145677632219139,0.006232421436548382
1592167854.819476,0.014023254247121666,8.91521078246927,4.111289180814339,-0.44222222222222224,-0.2966666666666667,-0.2311111111111111,0.06180967924605416,-0.06012,-0.0022007095761564614
1592167854.8294759,0.015255509019804055,8.922933414157864,4.177165331332234,-0.44222222222222224,-0.2966666666666667,-0.2311111111111111,0.041961268092564924,-0.07124456643222797,-0.012900256301478777
1592167854.8394759,-0.01239259090312483,8.901485276035691,4.2696386378598765,-0.4373387002810912,-0.2966666666666667,-0.2311111111111111,0.026204009532461266,-0.08668248446486793,-0.02118196472562099
1592167854.8494759,-0.06512401425648301,8.896764954359787,4.355017470289476,-0.43,-0.2966666666666667,-0.2311111111111111,0.013682836466823766,-0.08034473141023708,-0.023262268589762915
1592167854.8594759,-0.054367388338196355,8.910787314341382,4.392725435276968,-0.43,-0.2966666666666667,-0.2311111111111111,0.012619,-0.07305579999159452,-0.02848985561902733
1592167854.8694758,-0.1930112497433678,8.876841135340516,4.46698729262634,-0.43,-0.2966666666666667,-0.2311111111111111,0.008462664987627891,-0.05749256683428796,-0.028752685227315236
1592167854.8794758,-0.22936802557924554,8.883677555321437,4.459587580900684,-0.43,-0.2966666666666667,-0.2311111111111111,0.009244950132599742,-0.03417560470110599,-0.015323181075282098
