time,acc_x,acc_y,acc_z,mag_x,mag_y,mag_z,gyr_x,gyr_y,gyr_z
1592167861.4894695,0.0648519946864718,9.210859452472537,3.668532473129294,-0.3622222222222222,-0.4577777777777778,-0.5844444444444444,-0.0319878740667748,0.0015289919309738663,-0.0007509919309738663
1592167861.4994695,0.004855010538704714,9.23114739317605,3.729859752274817,-0.3622222222222222,-0.4577777777777778,-0.5844444444444444,-0.033511603275655465,0.00198660327565546,-0.0037503967243445405
1592167861.5094695,0.04746173215205109,9.216807821019607,3.727622986490206,-0.3622222222222222,-0.4577777777777778,-0.5844444444444444,-0.03231485533434796,-7.102606352807177e-05,-0.003879144665652042
1592167861.5194695,0.0038406376200652848,9.211561835514551,3.756783214035012,-0.3622222222222222,-0.4599951497813291,-0.5851835684456282,-0.03151150227088471,-0.00023732065476586627,-0.003453645851301149
1592167861.5294695,0.0211827648401035,9.205353879719903,3.7220928928567347,-0.3622222222222222,-0.4777777777777778,-0.5911111111111111,-0.031620300595216325,4.169940478367627e-05,-0.004890383326587003
1592167861.5394695,0.03534331117678791,9.215563633451293,3.6902502468026874,-0.3622222222222222,-0.4777777777777778,-0.5911111111111111,-0.0339765895784411,-0.0009711034605557806,-0.0037945895784411007
1592167861.5494695,0.06461161455625711,9.2133928358384,3.6995890589841416,-0.3622222222222222,-0.4777777777777778,-0.5911111111111111,-0.036392,-0.001218795830678678,-0.00848170215733549
1592167861.5594695,0.05436787830175907,9.228975181708115,3.6998342446460284,-0.3622222222222222,-0.4777777777777778,-0.5911111111111111,-0.040680329335014614,-0.001526,-0.009399
1592167861.5694695,0.06416165649843318,9.189965350797593,3.7792965754195005,-0.3622222222222222,-0.4777777777777778,-0.5896683200181743,-0.039264318204102595,-0.001842681795897401,-0.015041681795897401
1592167861.5794694,0.057181437624276965,9.210373220652963,3.9074504096183564,-0.3622222222222222,-0.4777777777777778,-0.57,-0.030278050626272587,-0.0008614528498137219,-0.018997
1592167861.5894694,0.08368036865600037,9.205645481288427,3.942061934712997,-0.3622222222222222,-0.4777777777777778,-0.57,-0.015967669351476366,-0.0038675068040807505,-0.023028856417171728
1592167861.5994694,0.0968223073790293,9.224133107214993,3.8011202636193313,-0.3622222222222222,-0.4777777777777778,-0.57,-0.008092119969279863,-0.014738876366635206,-0.02992475144132425
1592167861.6094694,0.08135823096148834,9.22902447263549,3.5474777406842644,-0.3622222222222222,-0.4777777777777778,-0.57,-0.016476786264071928,-0.02340173229335547,-0.03824346458671094
1592167861.6194694,0.05247767911120871,9.22719991909892,3.3183207447728917,-0.3622222222222222,-0.47694170946111175,-0.5709754130361103,-0.04514636076879927,-0.034656826642183995,-0.04300013391510432
1592167861.6294694,-0.060683741012584155,9.220613113750431,3.229140820212915,-0.3622222222222222,-0.4711111111111111,-0.5777777777777777,-0.08244384925813293,-0.03616285520234649,-0.04351722431405847
1592167861.6394694,-0.09669781704898435,9.219427537549153,3.2689928701158153,-0.3622222222222222,-0.4711111111111111,-0.5777777777777777,-0.12283105403839131,-0.028432949637761586,-0.03572681573679706
1592167861.6494694,-0.03455857184810031,9.213785487254983,3.4441892996536585,-0.3622222222222222,-0.4711111111111111,-0.5777777777777777,-0.15842619541966868,-0.01903767814377901,-0.031769
1592167861.6594694,0.08360453239296015,9.15884933552161,3.706463464514702,-0.3622222222222222,-0.4711111111111111,-0.5777777777777777,-0.17914261978947463,-0.00748564827532378,-0.03390961978947464
1592167861.6694694,0.22058705571005505,9.167119365429908,4.092558685085402,-0.3614579768756157,-0.4711111111111111,-0.5777777777777777,-0.17219446882172557,0.019400510640176775,-0.04589157760402818
1592167861.6794693,0.21775097974561688,9.112092198554102,4.3795058358149825,-0.3477777777777778,-0.4711111111111111,-0.5777777777777777,-0.13971679791805522,0.043485536966041224,-0.04274731302781374
1592167861.6894693,0.6290109744763477,9.13834151068178,4.408915848834233,-0.3477777777777778,-0.4711111111111111,-0.5777777777777777,-0.09702170032385578,0.03225449152124896,0.019321801624236204
1592167861.6994693,0.8699630109942903,9.177724766608085,4.358132125907691,-0.3477777777777778,-0.4711111111111111,-0.5777777777777777,-0.0537978655743424,0.02446915856996297,-0.00042192245377342327
1592167861.7094693,0.7686813942723139,9.203489876866271,4.069977157305525,-0.3477777777777778,-0.4711111111111111,-0.5777777777777777,-0.022121641345828807,0.006793581107545374,-0.02231769712619363
1592167861.7194693,0.5177007545651112,9.161534506569916,3.556660085225372,-0.3477777777777778,-0.4711111111111111,-0.5777777777777777,-0.02109051498762015,-0.014778204395925898,-0.03104742214885045
1592167861.7294693,0.18972783515653224,9.164243369919019,3.2419340140690904,-0.3422222222222222,-0.4777777777777778,-0.57,-0.06026738192812596,-0.008003934284359259,-0.010469648917610735
1592167861.7394693,0.21218379077273525,9.128638578720501,3.1018639957663945,-0.3422222222222222,-0.4777777777777778,-0.57,-0.12015086592468671,0.0023972882181128867,0.011435639034260647
1592167861.7494693,0.23194616095790024,9.116460636868013,3.157465276283722,-0.3422222222222222,-0.4777777777777778,-0.57,-0.18200001730786952,0.022531924398696668,0.014381078892844146
1592167861.7594693,0.29849506401835646,9.12374427519231,3.3218308606606466,-0.3422222222222222,-0.4777777777777778,-0.57,-0.23906496840882643,0.06135741064634991,0.018150041151082767
1592167861.7694693,0.384763955058659,9.125715938057288,3.478241972277587,-0.3422222222222222,-0.4777777777777778,-0.57,-0.2851611299614331,0.08663361983329182,0.015338684624284634
1592167861.7794693,0.35962144089596726,9.095261713735571,3.6720074414760617,-0.3477777777777778,-0.4633333333333333,-0.5555555555555556,-0.31434699830067914,0.10944064603516461,0.02109317052725284
1592167861.7894692,0.368854949984942,9.110482523675849,3.901464364541517,-0.3477777777777778,-0.4633333333333333,-0.5555555555555556,-0.3292332637947641,0.12179708768077012,0.035339
1592167861.7994692,0.6873538613702602,9.001221780959607,4.299303132127438,-0.3477777777777778,-0.4633333333333333,-0.5555555555555556,-0.3172053260783575,0.1023595555683939,0.018820776589577693
1592167861.8094692,0.5678781802110366,9.03720701028454,4.741970754353953,-0.3477777777777778,-0.4633333333333333,-0.5555555555555556,-0.2741193404350705,0.061462166622402496,-0.001938
1592167861.8194692,0.6095110795994353,9.066581628640334,4.816005544726304,-0.3477777777777778,-0.4633333333333333,-0.5555555555555556,-0.20897294653990647,0.012021361352443645,0.007713855197187813
1592167861.8294692,0.630160535176174,9.068887356923717,4.789475653857158,-0.33555555555555555,-0.4577777777777778,-0.5844444444444444,-0.1478477454556192,-0.005596482844759826,-0.010850583084898214
1592167861.8394692,0.5654968311291458,9.060864492594371,4.824433630484962,-0.33555555555555555,-0.4577777777777778,-0.5844444444444444,-0.08897707063305443,-0.019896208212734152,-0.03885758137944489
1592167861.8494692,0.5963939462325153,9.049273158765315,4.837090192663875,-0.33555555555555555,-0.4577777777777778,-0.5844444444444444,-0.02607050044832298,-0.0579998113023029,-0.07497818343276536
1592167861.8594692,0.38193419324008876,9.050090871434438,4.782502173765028,-0.33555555555555555,-0.4577777777777778,-0.5844444444444444,0.04020763526705705,-0.09144279680529038,-0.07234685669667011
1592167861.8694692,0.4487543502718261,9.077075904145675,4.659474482664966,-0.33555555555555555,-0.4577777777777778,-0.5844444444444444,0.08993015635035567,-0.09774427962964997,-0.07852739734606723
1592167861.8794692,0.4440625181676371,9.074387735479478,4.565567,-0.3477777777777778,-0.45111111111111113,-0.5988888888888889,0.13378652638632735,-0.10317303454415896,-0.09679378957279601
1592167861.8894691,0.44911215015538003,9.10733577588579,4.520234000288655,-0.3477777777777778,-0.45111111111111113,-0.5988888888888889,0.17622280024769954,-0.11671233752537034,-0.09709865569768822
1592167861.8994691,0.7453991822907619,8.915733993265349,4.212123951214376,-0.3477777777777778,-0.45111111111111113,-0.5988888888888889,0.20546106283446425,-0.13999711847973803,-0.05296484161083156
1592167861.9094691,0.7709771353146896,8.984895373502942,3.739766003997029,-0.3477777777777778,-0.45111111111111113,-0.5988888888888889,0.18982897571496518,-0.10640987882565556,0.007646624335153772
1592167861.919469,0.5788816866772183,9.078178079604609,3.709912986842553,-0.3477614994651412,-0.4511469233989117,-0.5988465652760337,0.15416620673637738,-0.033134574907221076,0.011067903964902849
1592167861.929469,0.4140820350901436,9.121248344383199,3.7201828686195166,-0.3422222222222222,-0.4633333333333333,-0.5844444444444444,0.1212361611239096,0.016975816184531898,0.008359730261011866
1592167861.939469,0.371567,9.133169297593232,3.582750851990669,-0.3422222222222222,-0.4633333333333333,-0.5844444444444444,0.09120886381177634,0.05508900655837694,0.012207873025731925
1592167861.949469,0.3703692764071244,9.087476962488655,3.5411753547973746,-0.3422222222222222,-0.4633333333333333,-0.5844444444444444,0.05257272648013795,0.0928948448340384,0.028066788502807454
1592167861.959469,0.3825348952687608,9.149248361118861,3.6628360138844336,-0.3422222222222222,-0.4633333333333333,-0.5844444444444444,0.020404603415575637,0.13672144394097682,0.038292771570141736
1592167861.969469,0.2790612585330496,9.123358833336473,3.7349209692730887,-0.3422222222222222,-0.4633333333333333,-0.5844444444444444,-0.003430228262914339,0.17097574701152485,0.05531013789454433
1592167861.979469,0.22672005899295353,9.060470705930886,3.80860146659932,-0.35555555555555557,-0.4577777777777778,-0.5844444444444444,-0.020619971272384723,0.1565560162745627,0.07296881980637723
1592167861.989469,0.2231614070919232,9.104895730950448,3.7804420360645272,-0.35555555555555557,-0.4577777777777778,-0.5844444444444444,-0.03536159914514057,0.17538363702407198,0.08596010953545682
1592167861.999469,0.1308271305467895,9.089768496849132,3.8607863075539077,-0.35555555555555557,-0.4577777777777778,-0.5844444444444444,-0.046929102102968086,0.18119469320038292,0.08804730679961709
1592167862.009469,0.1548755941361982,9.10154848134409,3.992727400429165,-0.35555555555555557,-0.4577777777777778,-0.5844444444444444,-0.053436,0.18265429136907338,0.08168988997076823
1592167862.019469,0.4017990283228511,9.160753296593272,4.296897943368279,-0.35555555555555557,-0.4577777777777778,-0.5844444444444444,-0.03885231373641921,0.20112066228449713,0.057758325725961054
1592167862.029469,0.5758933953692656,9.180015938976242,4.583748916544386,-0.3688888888888889,-0.4711111111111111,-0.6055555555555555,-0.0013178372863454878,0.23279469848288725,0.02429432997178363
1592167862.039469,0.18328082429669607,8.987491422044101,4.592236985082398,-0.3688888888888889,-0.4711111111111111,-0.6055555555555555,0.04951797966781379,0.2287941157222024,0.04365436666334421
1592167862.049469,0.1939967242132733,9.041497290962495,4.436145986703838,-0.3688888888888889,-0.4711111111111111,-0.6055555555555555,0.10518575782296784,0.18845816477267793,0.1305893647313699
1592167862.059469,0.3680506749622084,9.135877558614107,4.2289157064328196,-0.3688888888888889,-0.4711111111111111,-0.6055555555555555,0.13323834612191052,0.20474730569881697,0.11716380386699694
1592167862.069469,0.2134884039297213,9.114958822664258,4.101836509743319,-0.3688888888888889,-0.4711111111111111,-0.6055555555555555,0.1430372818015161,0.19905231680075477,0.10366476278425181
1592167862.079469,0.08984452193144507,9.094460516388303,4.074220258010163,-0.3422222222222222,-0.45111111111111113,-0.6344444444444445,0.15438527378456396,0.19374096496383955,0.11138623874840353
1592167862.089469,0.32101646743685874,9.110089762284906,4.082696232386699,-0.3422222222222222,-0.45111111111111113,-0.6344444444444445,0.170455125795225,0.2105777569005899,0.130712062570578
1592167862.099469,0.4280295123769714,9.191977378324363,4.1651838549962115,-0.3422222222222222,-0.45111111111111113,-0.6344444444444445,0.18329582502119302,0.23350239390433872,0.1128441639921258
1592167862.109469,0.3664368137164881,9.15785703010664,4.2350922155863655,-0.3422222222222222,-0.45111111111111113,-0.6344444444444445,0.20360278824795522,0.24747832279282445,0.09744232185176695
1592167862.119469,0.4699535066104222,9.159534331350372,4.244727344820531,-0.3422222222222222,-0.45111111111111113,-0.6344444444444445,0.23226295250375903,0.26280562426602494,0.08385112880789725
1592167862.129469,0.5046595208026624,9.174391698932359,4.106954974171013,-0.33555555555555555,-0.4711111111111111,-0.62,0.26183896846208643,0.2618864879461138,0.059207642783046875
1592167862.139469,0.4194061678243201,9.208467895604088,3.857882246369929,-0.33555555555555555,-0.4711111111111111,-0.62,0.2768941304375044,0.2496482383427286,0.04772585291953349
1592167862.149469,0.24495522867412062,9.171553723090028,3.6678582249149185,-0.33555555555555555,-0.4711111111111111,-0.62,0.276794,0.21427681984076447,0.04613448604470841
1592167862.159469,0.15907145885093607,9.158132223527625,3.59984231012987,-0.33555555555555555,-0.4711111111111111,-0.62,0.2669903779165176,0.17464309213038218,0.052427490893378906
1592167862.1694689,0.1718850500277619,9.221400909745839,3.527799530548168,-0.33555555555555555,-0.4711111111111111,-0.62,0.2564613007672579,0.1408878095797531,0.051348326647953975
1592167862.1794689,0.06756424269580764,9.141516551426928,3.454229136161081,-0.35,-0.4577777777777778,-0.6266666666666667,0.24278382154256933,0.08301493041906163,0.0597783271077934
1592167862.1894689,0.13223609639875797,9.176543978572605,3.3865966093230826,-0.35,-0.4577777777777778,-0.6266666666666667,0.21457313288472726,0.04468562097523059,0.0787851636551077
1592167862.1994689,0.2819168964245265,9.25816437211557,3.402845915915078,-0.35,-0.4577777777777778,-0.6266666666666667,0.18201737589787706,0.03747544743548796,0.060719897907341364
1592167862.2094688,0.35176181627576647,9.25272889384067,3.5423187434453642,-0.35,-0.4577777777777778,-0.6266666666666667,0.16458434819305867,0.02925846480202482,0.03741378954761028
1592167862.2194688,0.4987072801966977,9.246702672301065,3.54055662736594,-0.35,-0.4577777777777778,-0.6266666666666667,0.14999835812481624,0.02974424047826066,0.01825528691621829
1592167862.2294688,0.4339913180983708,9.156496057959409,3.3629469060413215,-0.35,-0.4711111111111111,-0.6133333333333333,0.12361865937061474,0.014943155104933504,0.018893378278452073
1592167862.2394688,0.367073488114465,9.204784005182027,3.3198142054487496,-0.35,-0.4711111111111111,-0.6133333333333333,0.08840485909375533,0.00524685696369897,0.034883534161532996
1592167862.2494688,0.4093020619544563,9.262965970282659,3.416423369941413,-0.35,-0.4711111111111111,-0.6133333333333333,0.0662198411438227,0.010811008986841428,0.03455002366017599
1592167862.2594688,0.44431681595853484,9.316652462097851,3.419656992601959,-0.35,-0.4711111111111111,-0.6133333333333333,0.053292632556351055,0.023840367443648945,0.005538002790204713
1592167862.2694688,0.3794534328671617,9.305576876886793,3.39285252516154,-0.35,-0.4711111111111111,-0.6133333333333333,0.04120614024490643,0.029814442757581182,-0.01411318003941406
1592167862.2794688,0.3285113168502596,9.191285158059046,3.268598505362418,-0.3977777777777778,-0.4633333333333333,-0.6133333333333333,0.008559365586653453,0.02891742236636734,-0.010793971610143057
1592167862.2894688,0.38964604988776363,9.19221070868738,3.262156646123762,-0.3977777777777778,-0.4633333333333333,-0.6133333333333333,-0.02763962406461078,0.036892484067746936,0.0020600595748564506
1592167862.2994688,0.4631611635046273,9.274012832857364,3.3882909106307375,-0.3977777777777778,-0.4633333333333333,-0.6133333333333333,-0.05876397534821226,0.053515577212736185,-0.010834018965106777
1592167862.3094687,0.1574633054901763,9.098633358654046,3.4558450614777696,-0.3977777777777778,-0.4633333333333333,-0.6133333333333333,-0.09899288713119185,0.03756327581087448,-0.0019544601327310743
1592167862.3194687,0.2824858041326582,9.291511421766154,3.6950897506038847,-0.3977777777777778,-0.4633333333333333,-0.6133333333333333,-0.10434726565920724,0.06203886907044168,0.04599
1592167862.3294687,0.3904265404364739,9.240531400252419,3.846541072510614,-0.4033333333333333,-0.4866666666666667,-0.6255555555555555,-0.09343030131469142,0.06099774310912582,0.03546552221190862
1592167862.3394687,0.337243552192378,9.40646618355433,3.834006382687319,-0.4033333333333333,-0.4866666666666667,-0.6255555555555555,-0.06138642612224362,0.0721852576860679,0.009313494995275208
1592167862.3494687,0.16602080623578389,9.27679852079975,3.6665050476347356,-0.4033333333333333,-0.4866666666666667,-0.6255555555555555,-0.03679567896819311,0.05579525569928398,-0.007221579172119733
1592167862.3594687,0.07088118650001138,9.23107313252111,3.402666364258681,-0.4033333333333333,-0.4866666666666667,-0.6255555555555555,-0.03954998235011543,0.037963173726457446,-0.007833401690319422
1592167862.3694687,-0.12972915781697858,9.242906720044086,3.320378660223473,-0.4033333333333333,-0.4866666666666667,-0.6255555555555555,-0.05644768119890278,0.005680773010109594,0.015788420364274473
1592167862.3794687,0.19640531572917672,9.34384463511012,3.532341791612022,-0.38333333333333336,-0.4577777777777778,-0.6444444444444445,-0.06903580286350511,0.04815026694670892,0.003547971406925981
1592167862.3894687,0.2322210535019158,9.23973868667099,3.670459517191176,-0.38333333333333336,-0.4577777777777778,-0.6444444444444445,-0.07668931106696712,0.050408392611093235,-0.026183909951646323
1592167862.3994687,0.05780772785999952,9.054570840508584,3.7428896870662314,-0.38333333333333336,-0.4577777777777778,-0.6444444444444445,-0.0840655944498163,0.024601475455462544,0.019007516869133934
1592167862.4094687,0.15920439962664612,9.224371365495239,3.855047497956715,-0.38333333333333336,-0.4577777777777778,-0.6444444444444445,-0.07483625304431574,0.037439631219247475,0.06650375043283
1592167862.4194686,0.23319889694666063,9.289398960356172,3.958845837256953,-0.38333333333333336,-0.4577777777777778,-0.6444444444444445,-0.047095019842685576,0.048115466894912286,0.07268832337583052
1592167862.4294686,0.22098508202085315,9.303392135901788,3.886674029345847,-0.4023756093237614,-0.47682005376820585,-0.6444444444444445,-0.01727791649782242,0.06432441116885033,0.04157325257287281
1592167862.4394686,0.14650829698729298,9.324406158700057,3.799719589752874,-0.4033333333333333,-0.4777777777777778,-0.6444444444444445,0.003733706205371631,0.07542108166057251,0.005283897330017242
1592167862.4494686,-0.09747700978093579,9.157355116184464,3.5839021597998033,-0.4033333333333333,-0.4777777777777778,-0.6444444444444445,0.005154882975367217,0.04611739757045595,0.007114773995865565
1592167862.4594686,-0.1594865511295952,9.23969925311461,3.5766792043052194,-0.4033333333333333,-0.4777777777777778,-0.6444444444444445,-0.006194022101483655,0.023502993977437575,0.027644398875387038
1592167862.4694686,-0.008368593826129457,9.320763864050376,3.6702576707976635,-0.4033333333333333,-0.4777777777777778,-0.6444444444444445,-0.011475192542910408,0.058532614753553286,0.008411753550394628
1592167862.4794686,-0.07412013051680943,9.227625899632432,3.8126645418624285,-0.41,-0.4577777777777778,-0.6166666666666667,-0.01063773463153642,0.042330102206836716,-0.026799193936836902
1592167862.4894686,-0.28137053653735367,9.115281294792089,3.8449791362983197,-0.41,-0.4577777777777778,-0.6166666666666667,-0.014414069674183013,0.006310511585495685,0.0001686090648683452
1592167862.4994686,-0.0860848425709802,9.253030978788606,3.9575163673462637,-0.41,-0.4577777777777778,-0.6166666666666667,0.016938626623169743,0.029295373376830258,0.02624498506438131
1592167862.5094686,-0.1112773748602284,9.186099260742271,3.887543139102898,-0.41,-0.4577777777777778,-0.6166666666666667,0.048624121859344345,-0.014567283784513795,0.03455498576220376
1592167862.5194685,-0.1398379789034783,9.207293754103766,3.800611067530281,-0.41,-0.4577777777777778,-0.6166666666666667,0.06767341010316884,-0.041072739857536636,0.051648317024445535
1592167862.5294685,-0.020890075685297195,9.327073675896386,3.7374079948540877,-0.3992474733251979,-0.45386776807784973,-0.6274191933414688,0.08830722255234374,-0.04872622724953801,0.04763817439314437
1592167862.5394685,-0.016106816326896138,9.286628071662077,3.6055980716620772,-0.3977777777777778,-0.4533333333333333,-0.6288888888888889,0.090378,-0.06118478676618077,0.015131639680344089
1592167862.5494685,-0.067169,9.28947066067681,3.433145540802156,-0.3977777777777778,-0.4533333333333333,-0.6288888888888889,0.0766990471969208,-0.04851822711047894,-0.01327588108784859
1592167862.5594685,-0.10052413495463589,9.216176188441848,3.458680725505056,-0.3977777777777778,-0.4533333333333333,-0.6288888888888889,0.049684503583725295,-0.03232710774238212,-0.04902529984031047
1592167862.5694685,-0.20283669047374764,9.164413,3.412529281421049,-0.3977777777777778,-0.4533333333333333,-0.6288888888888889,0.02420258535909798,-0.03549553622346538,-0.04156946131566388
1592167862.5794685,-0.13803913863351958,9.22261857490852,3.42714492788736,-0.435394128750895,-0.4533333333333333,-0.6166635748226258,-0.0009535672420562611,-0.045661581000278915,-0.009344643044556504
1592167862.5894685,-0.050383199160430665,9.269188591390606,3.40419172526619,-0.44222222222222224,-0.4533333333333333,-0.6144444444444445,-0.0261797969634592,-0.04691321940380632,-0.031434967033534364
1592167862.5994685,-0.08082228957941495,9.288430057092034,3.4780628913634652,-0.44222222222222224,-0.4533333333333333,-0.6144444444444445,-0.04283329938625353,-0.04313593451570859,-0.07136296120516207
1592167862.6094685,-0.36625575818573536,9.167374878763423,3.513826569514551,-0.44222222222222224,-0.4533333333333333,-0.6144444444444445,-0.06439004618324651,-0.06524239385617316,-0.0684853783920609
1592167862.6194685,-0.30964217589908083,9.214471824219055,3.5294203186350623,-0.44222222222222224,-0.4533333333333333,-0.6144444444444445,-0.07358902076498883,-0.06597143671190041,-0.04996176350477554
1592167862.6294684,-0.31280845303022836,9.140707715271066,3.5042668560770265,-0.4373794322647479,-0.45914468128230246,-0.6144444444444445,-0.09856973259977064,-0.08604912259665201,-0.047427729160810665
1592167862.6394684,-0.2569395526996347,9.104025341540027,3.536396394548829,-0.43666666666666665,-0.46,-0.6144444444444445,-0.12265997143836714,-0.09682904190165102,-0.02708717542708316
1592167862.6494684,-0.27299378747698005,9.018053931174677,3.6503540405893937,-0.43666666666666665,-0.46,-0.6144444444444445,-0.15761968849374633,-0.10252068849374635,-0.007368458352962964
1592167862.6594684,-0.2445713072353608,9.038970515967852,3.798798976635901,-0.43666666666666665,-0.46,-0.6144444444444445,-0.1849263307206035,-0.13118982828562772,0.0436780382697034
1592167862.6694684,0.05941641886950217,9.230513199472053,3.9757976413693745,-0.43666666666666665,-0.46,-0.6144444444444445,-0.17898926844332821,-0.1360042669004333,0.03889367978463777
1592167862.6794684,0.13104614011132057,9.208591461808075,3.9313622157845263,-0.46034491672880934,-0.44914746872151795,-0.6144444444444445,-0.17395011949283853,-0.16394518506257966,-0.016766183357830106
1592167862.6894684,-0.12394825104758528,9.182345973613614,3.9948549162312683,-0.4633333333333333,-0.4477777777777778,-0.6144444444444445,-0.15467718363468005,-0.16539807325903505,-0.04010807325903506
1592167862.6994684,0.027685123174743854,9.141759125022826,4.041357304282311,-0.4633333333333333,-0.4477777777777778,-0.6144444444444445,-0.14827680320197523,-0.17012175046548342,-0.03507753850640255
1592167862.7094684,0.18399912221343867,9.181817534166372,4.144442794583049,-0.4633333333333333,-0.4477777777777778,-0.6144444444444445,-0.12710783967424147,-0.16320153642636462,-0.08214860950066694
1592167862.7194684,0.010385380058533292,9.165143721572282,4.098060516217604,-0.4633333333333333,-0.4477777777777778,-0.6144444444444445,-0.10602278002681637,-0.1591620893230415,-0.13632269487329965
1592167862.7294683,-0.14825001679868824,9.07508201195165,4.046027147692484,-0.440025434037377,-0.452633590131102,-0.6086174696204554,-0.08807351259899546,-0.1664396381423535,-0.14475128356774894
1592167862.7394683,-0.29455287495706245,9.216924704426878,4.037921496794136,-0.43666666666666665,-0.4533333333333333,-0.6077777777777778,-0.0712414946936179,-0.20266629739881087,-0.12637197786594134
1592167862.7494683,-0.22677124799499984,9.139767872351484,3.9460644788038937,-0.43666666666666665,-0.4533333333333333,-0.6077777777777778,-0.052368,-0.24119335898426889,-0.0929559055337646
1592167862.7594683,-0.09395297733748728,9.191504386742752,3.73423383676491,-0.43666666666666665,-0.4533333333333333,-0.6077777777777778,-0.052803620411839274,-0.27795187762187906,-0.1053213916792659
1592167862.7694683,-0.14085384449570065,9.120262499950872,3.7259619477660566,-0.43666666666666665,-0.4533333333333333,-0.6077777777777778,-0.05879476240474349,-0.29928991779079356,-0.10983361372257035
1592167862.7794683,0.0035941039057066047,9.263130000746264,3.7009473409499467,-0.4625650831991412,-0.4426167471819646,-0.5908098497047772,-0.07234309809393959,-0.3029464499020703,-0.1318019955659879
1592167862.7894683,0.023474536629948584,9.125513639301555,3.7175314229988095,-0.4688888888888889,-0.44,-0.5866666666666667,-0.08852629903694553,-0.29134102475083,-0.1550243116516556
1592167862.7994683,0.02750529578426156,9.178379673831829,3.9709351394432146,-0.4688888888888889,-0.44,-0.5866666666666667,-0.09745336208961018,-0.28010711071056205,-0.14416640847422885
1592167862.8094683,0.11369561726217403,9.101272850271702,4.146520091287742,-0.4688888888888889,-0.44,-0.5866666666666667,-0.07600828973844173,-0.2593465527128857,-0.15006731579989233
1592167862.8194683,0.003918229174037613,9.241596143576496,4.099331778480966,-0.4688888888888889,-0.44,-0.5866666666666667,-0.06135832253249877,-0.24240690026503936,-0.1708614127550436
1592167862.8294683,-0.1829220724937021,8.994482611926049,4.03072851644605,-0.44931774407126523,-0.44,-0.5703573793186469,-0.03662019673953022,-0.24082394320821293,-0.13261347421857284
1592167862.8394682,-0.10871537933250455,9.184069718862295,3.912008078937875,-0.44222222222222224,-0.44,-0.5644444444444444,-0.03298879704263451,-0.2482873514251782,-0.09342739353052906
1592167862.8494682,-0.15904030932127486,9.04997381247614,3.929488861825869,-0.44222222222222224,-0.44,-0.5644444444444444,-0.03812653869970469,-0.23129363488431912,-0.0714836880030203
1592167862.8594682,-0.03952306198458569,9.115641744233155,3.9838118932908015,-0.44222222222222224,-0.44,-0.5644444444444444,-0.041573916863352586,-0.2196843517815324,-0.050949
1592167862.8694682,0.03551023103353268,9.145669000206038,3.9859895932376834,-0.44222222222222224,-0.44,-0.5644444444444444,-0.038919024393522794,-0.19268173403893638,-0.05660431474810922
1592167862.8794682,0.08589475465512855,9.187695650104327,4.050386381606195,-0.46182385376539015,-0.43396872875594833,-0.5599209910114057,-0.026463985294524175,-0.15524201981044342,-0.06234282379794911
1592167862.8894682,0.08669091821935823,9.135219650958577,3.995091709454427,-0.4711111111111111,-0.4311111111111111,-0.5577777777777778,-0.019403000639235037,-0.11575425635541298,-0.07932771650751701
1592167862.8994682,-0.07130919475819583,9.103910893323459,3.8814012468667687,-0.4711111111111111,-0.4311111111111111,-0.5577777777777778,-0.024755819964259233,-0.08536725980530638,-0.060200486737709176
1592167862.9094682,0.05733997534983682,9.132936917026587,3.9169230748413417,-0.4711111111111111,-0.4311111111111111,-0.5577777777777778,-0.029991979319458753,-0.05170906232768079,-0.04242602725421216
1592167862.9194682,0.010953332442150902,9.051871641844297,3.8577910136533964,-0.4711111111111111,-0.4311111111111111,-0.5577777777777778,-0.03837423125347497,-0.037923615772608006,-0.045762768746525025
1592167862.9294682,-0.028651370579651014,9.048070934102896,3.8474287031824237,-0.46776400438011156,-0.4311111111111111,-0.5504141429695788,-0.05205583844618514,-0.036619391823572905,-0.012535151459759714
1592167862.9394681,0.06606645369367042,9.132584396478931,3.94107752037888,-0.46555555555555556,-0.4311111111111111,-0.5455555555555556,-0.053436,-0.03862432892566862,-0.006016328925668622
1592167862.9494681,-0.004454540016147382,9.094282355893041,4.0427952553414555,-0.46555555555555556,-0.4311111111111111,-0.5455555555555556,-0.050232,-0.047751438306356926,0.0008619948843140352
1592167862.9594681,-0.046397070248976456,9.1318337258264,4.003904639787343,-0.46555555555555556,-0.4311111111111111,-0.5455555555555556,-0.04554019629213669,-0.05644066056480529,0.01942555426664797
1592167862.969468,0.11595569118974627,9.176879389542444,3.96146897663618,-0.46555555555555556,-0.4311111111111111,-0.5455555555555556,-0.039581,-0.0394247872143092,0.0157127872143092
1592167862.979468,0.14051413988090697,9.160268325497672,3.916759859045618,-0.4770406353858079,-0.4358402616294503,-0.5408264050372164,-0.03681787642779308,-0.022630174355276325,-0.01429228436577639
1592167862.989468,0.11213473282950741,9.159623342192416,3.9346260929925188,-0.48444444444444446,-0.4388888888888889,-0.5377777777777778,-0.040164524220603084,-0.00041151494547949155,-0.043791722944218965
1592167862.999468,0.10007301638350705,9.11531293338666,3.964658283017227,-0.48444444444444446,-0.4388888888888889,-0.5377777777777778,-0.04303244482818334,0.020823286640878947,-0.0793895870620867
1592167863.009468,-0.2680036745578681,8.865382351499617,3.876588065768205,-0.48444444444444446,-0.4388888888888889,-0.5377777777777778,-0.05927865854843654,-0.015536119802773344,-0.03046875261723033
1592167863.019468,0.056004051103037925,9.147679240801011,3.907701807164462,-0.48444444444444446,-0.4388888888888889,-0.5377777777777778,-0.0583445431535674,-0.025940162286936606,0.02658009676895815
1592167863.029468,0.28616686007813674,9.184803827109917,4.014763804498233,-0.4735880846766923,-0.430586966713549,-0.5428866529626023,-0.05983,0.0027114335141374887,-0.003333587121684684
1592167863.039468,0.13231631606694683,9.093656258426979,4.034340284831404,-0.46555555555555556,-0.42444444444444446,-0.5466666666666666,-0.06156335954685451,0.01629712469846437,-0.02005
1592167863.049468,0.12829242390084789,9.054688079191012,3.977850972787984,-0.46555555555555556,-0.42444444444444446,-0.5466666666666666,-0.0664432062169196,0.03458394442971283,-0.003999030449594268
1592167863.059468,0.11537761497637111,9.023183612583875,3.984186595565232,-0.46555555555555556,-0.42444444444444446,-0.5466666666666666,-0.07035900766214401,0.04808833843815395,0.010446601945180909
1592167863.069468,0.08880726766087939,9.001222164743238,4.063137755483786,-0.46555555555555556,-0.42444444444444446,-0.5466666666666666,-0.08087142928415275,0.06412965378176803,0.023376429284152747
1592167863.079468,0.024666602276514724,9.006075088141134,4.079690896547257,-0.47464430699092036,-0.42094877081545795,-0.5291882985217342,-0.09189653069022871,0.06916962217267537,0.03982572684935584
1592167863.089468,0.01587079679003159,8.991949782040521,4.224297728003579,-0.48,-0.41888888888888887,-0.5188888888888888,-0.09550404280567826,0.06292235813922477,0.05398085903547413
1592167863.099468,-0.022540763589390438,9.175513268213223,4.317212267663944,-0.48,-0.41888888888888887,-0.5188888888888888,-0.07420474852513093,0.0593034692958773,0.05401283655344068
1592167863.109468,0.04624521140038866,9.051635775572036,4.390018254516326,-0.48,-0.41888888888888887,-0.5188888888888888,-0.039167580207382036,0.0523156303012031,0.0479661448289104
1592167863.119468,0.16431534241272247,9.20796997740901,4.289653539576393,-0.48,-0.41888888888888887,-0.5188888888888888,-0.01185466119027955,0.06385692288749308,0.024607350485979087
1592167863.129468,0.15758941853769387,9.117681229874583,4.4468759898266965,-0.48658718235576154,-0.41120384280716704,-0.5188888888888888,0.02892455947594243,0.08595474193494382,0.0019904405240575703
1592167863.139468,0.09739283855977363,9.20470877782346,4.368100013159202,-0.49333333333333335,-0.4033333333333333,-0.5188888888888888,0.0626074929181117,0.11247452545966767,-0.03819668616761082
1592167863.149468,-0.11040493123868006,9.21423339437602,4.209983864065311,-0.49333333333333335,-0.4033333333333333,-0.5188888888888888,0.1014359685130854,0.13126745565901993,-0.07728029734456894
1592167863.159468,-0.5035883069196195,9.044363773978365,3.974878417442057,-0.49333333333333335,-0.4033333333333333,-0.5188888888888888,0.11086353389966341,0.0892159150641939,-0.07973282268797777
1592167863.169468,-0.46387340090473494,9.050316970346152,3.9165696849518468,-0.49333333333333335,-0.4033333333333333,-0.5188888888888888,0.1235709905055392,0.057825470054039756,-0.034842040902998896
1592167863.179468,-0.28652985645012413,9.096639455639595,3.6489792135964585,-0.49333333333333335,-0.41511249420911633,-0.5140386461753311,0.11083123264196193,0.032172117942238426,-0.031208888676626096
1592167863.189468,-0.34412819005603085,9.001618219345545,3.623399848422597,-0.49333333333333335,-0.4222222222222222,-0.5111111111111111,0.08304846639441353,5.2180830926329674e-05,-0.015180438033756762
1592167863.199468,-0.3405224111394279,8.998870953073737,3.7425561921818598,-0.49333333333333335,-0.4222222222222222,-0.5111111111111111,0.058187144944024626,-0.0253933276947367,0.04110291821834262
1592167863.209468,-0.18843210243255698,9.073718219833522,3.8097347948388363,-0.49333333333333335,-0.4222222222222222,-0.5111111111111111,0.03797346929820152,-0.010360633810659929,0.05775345799426365
1592167863.2194679,-0.04200191174458509,9.163094529182883,3.9839235871806347,-0.49333333333333335,-0.4222222222222222,-0.5111111111111111,0.03057666257795443,0.005328844605714728,0.06651128625629711
1592167863.2294679,0.02143406833341784,9.108492580177144,4.134216146489184,-0.48643990929705216,-0.41590325018896446,-0.5013454270597127,0.03918769057943529,0.02116354430250904,0.05050008734791017
1592167863.2394679,-0.04575640398723467,9.178698860218475,4.083771615481951,-0.48,-0.41,-0.4922222222222222,0.05630547531378805,0.027221432223734243,0.04715674992619267
1592167863.2494678,-0.067459719215398,9.128831663507668,4.019239210737322,-0.48,-0.41,-0.4922222222222222,0.073334,0.0158718507530684,0.05564395617804676
1592167863.2594678,-0.024613637064843354,9.13725445965254,3.822482561670774,-0.48,-0.41,-0.4922222222222222,0.06552997334799437,0.02868997080175827,0.051015274741529955
1592167863.2694678,0.03542383727689283,9.155487032084395,3.739284004629228,-0.48,-0.41,-0.4922222222222222,0.045540956853714974,0.053944164640985,0.03629108671458495
1592167863.2794678,0.024867511515127356,9.181317112423738,3.7828820179683973,-0.48262766888522524,-0.4130656136994294,-0.4865289396375676,0.02554160455954029,0.07495806661586907,0.012090057047614502
1592167863.2894678,-0.006965066331548104,9.217827681874468,3.8444905486743535,-0.4866666666666667,-0.4177777777777778,-0.4777777777777778,0.009647606900993486,0.10952983076229221,-0.021394830762292205
1592167863.2994678,-0.07857116830619881,9.035098458336643,3.8062341688279275,-0.4866666666666667,-0.4177777777777778,-0.4777777777777778,-0.0087108903345839,0.13727355973392721,-0.03345936854558226
1592167863.3094678,-0.119247,9.065756338600561,3.806107173095994,-0.4866666666666667,-0.4177777777777778,-0.4777777777777778,-0.02918242084571247,0.14623828023325472,-0.00996262662434662
1592167863.3194678,-0.12807806373547928,9.07833897495781,3.9047198524809437,-0.4866666666666667,-0.4177777777777778,-0.4777777777777778,-0.035324,0.1551745179162159,0.027563211154251
1592167863.3294678,-0.06803523452385793,9.087570954775172,3.989274844666944,-0.4811777584165494,-0.4148222117969454,-0.4722888695276605,-0.026794,0.161453,0.04033632413531552
1592167863.3394678,-0.1606322115096724,9.051045596889288,3.834348942386182,-0.4722222222222222,-0.41,-0.4633333333333333,-0.03562378088450853,0.15515393387607787,0.04610042350421534
1592167863.3494678,-0.2528318688923362,9.0837037935282,3.7285808244113703,-0.4722222222222222,-0.41,-0.4633333333333333,-0.06252278734646104,0.15264763587340086,0.08527596880068139
1592167863.3594677,-0.056265140445098324,9.189659728783415,3.753662602268761,-0.4722222222222222,-0.41,-0.4633333333333333,-0.08349101707151019,0.19691492609422223,0.08238935845534015
1592167863.3694677,-0.07702939397080989,9.129578080534966,3.877858405378504,-0.4722222222222222,-0.41,-0.4633333333333333,-0.10476868480912008,0.19716012994398474,0.0479443171799519
1592167863.3794677,-0.2257090825078627,9.111739383935866,3.98037667496115,-0.477375431422025,-0.4143604077844485,-0.465315336871719,-0.10913566359444629,0.19588890028718178,0.029874990783338863
1592167863.3894677,-0.2662201631590341,9.154863952281524,4.032464683404605,-0.4866666666666667,-0.4222222222222222,-0.4688888888888889,-0.09912700448450479,0.1794493204557991,0.0339335426576801
1592167863.3994677,-0.23442805213671494,9.326053009746122,4.0311810917947835,-0.4866666666666667,-0.4222222222222222,-0.4688888888888889,-0.06321966516024131,0.16764301784006436,0.0047674188886734845
1592167863.4094677,-0.4730357982716005,9.09557814479819,3.7895119839665603,-0.4866666666666667,-0.4222222222222222,-0.4688888888888889,-0.0612958874506372,0.12533661300687782,-0.017515738505869186
1592167863.4194677,-0.43797188768161166,9.233657739622512,3.636345006101535,-0.4866666666666667,-0.4222222222222222,-0.4688888888888889,-0.07878718441719709,0.10797870440752033,-0.004720367820364074
1592167863.4294677,-0.2172845587483558,9.112247001336753,3.620779570577068,-0.48972951675079335,-0.40946034687169436,-0.4729726890010578,-0.09256869719253397,0.11561156659429309,-0.01273693835787782
1592167863.4394677,-0.25367194305608787,9.039307378743983,3.678769895600948,-0.49333333333333335,-0.39444444444444443,-0.4777777777777778,-0.12688948093627656,0.11436079269377601,0.0010735456106058536
1592167863.4494677,-0.18100087075822044,8.936508082099484,3.7031724512333457,-0.49333333333333335,-0.39444444444444443,-0.4777777777777778,-0.15815488996020063,0.12625643185066662,0.026269356378265513
1592167863.4594676,-0.19586378988397035,9.168696494780036,3.8854499867467127,-0.49333333333333335,-0.39444444444444443,-0.4777777777777778,-0.18337770707369327,0.12935905633701295,0.058751773698271066
1592167863.4694676,-0.13989099769804816,8.999836278190054,4.130402965337195,-0.49333333333333335,-0.39444444444444443,-0.4777777777777778,-0.18248223441803527,0.15555532544852288,0.06862382829133895
1592167863.4794676,-0.2864602383969913,8.954827422884597,4.3967706624136405,-0.487719585722989,-0.39444444444444443,-0.46280778415019297,-0.16046716519601006,0.14718522818929605,0.09513713523818573
1592167863.4894676,-0.3962347292638434,8.93065054024053,4.36445037120033,-0.48,-0.39444444444444443,-0.44222222222222224,-0.12644042033260158,0.1035829422519329,0.13985255107730363
1592167863.4994676,-0.297574309922778,9.131854900069033,4.340708741430666,-0.48,-0.39444444444444443,-0.44222222222222224,-0.1014344511587639,0.10019766236337543,0.16180263308461432
1592167863.5094676,-0.09040055494842185,9.304905155664576,4.399021459469917,-0.48,-0.39444444444444443,-0.44222222222222224,-0.07372252849431642,0.14693533803857065,0.11163334556497405
1592167863.5194676,-0.15112567026965146,9.126501581003998,4.464885759069225,-0.48,-0.39444444444444443,-0.44222222222222224,-0.043921424505219325,0.18694424785143238,0.05495557831323907
1592167863.5294676,-0.19574887818677134,9.066738316378883,4.410978759459116,-0.4763832203036241,-0.38943659563407784,-0.44528257427300183,-0.022847058535309443,0.21399867587254728,0.031380884443148065
1592167863.5394676,-0.2581539664948663,8.84403799002175,4.378991781256141,-0.46555555555555556,-0.37444444444444447,-0.45444444444444443,-0.009939127126722033,0.21111745592655842,0.031296826468818144
1592167863.5494676,-0.25617483006782493,9.163817868043779,4.341991110085736,-0.46555555555555556,-0.37444444444444447,-0.45444444444444443,0.009596444761928103,0.22375621605690282,0.041733
1592167863.5594676,-0.3031586753169965,8.869238609452456,4.271969229699476,-0.46555555555555556,-0.37444444444444447,-0.45444444444444443,0.022572839635198277,0.20647601143652985,0.051046206086204894
1592167863.5694675,-0.4871205115691324,8.863530507439938,4.219799273628726,-0.46555555555555556,-0.37444444444444447,-0.45444444444444443,0.024539648053153444,0.18731286866726546,0.08436182426309836
1592167863.5794675,-0.4435179918353199,9.098558674201106,4.292319111694429,-0.4671969287823144,-0.37444444444444447,-0.4482072261827609,0.041527693506576646,0.1829416827193428,0.1139791518061396
1592167863.5894675,-0.372226646855713,9.015050538352137,4.362645784371321,-0.4711111111111111,-0.37444444444444447,-0.43333333333333335,0.0784825064656515,0.1610916952365757,0.11475964039172196
1592167863.5994675,-0.39346359568490874,8.99123162203551,4.092351574757393,-0.4711111111111111,-0.37444444444444447,-0.43333333333333335,0.08125221166890048,0.13041553074011925,0.13258335344379385
1592167863.6094675,-0.2866834501610784,9.120744400345304,4.023688059258585,-0.4711111111111111,-0.37444444444444447,-0.43333333333333335,0.0880693968168358,0.15673516282394537,0.1446316610323671
1592167863.6194675,-0.3261925587801077,9.113638886890378,4.006927200605215,-0.4711111111111111,-0.37444444444444447,-0.43333333333333335,0.08475723941146535,0.16749306587735388,0.11807720452913481
1592167863.6294675,-0.35943812941069375,8.994276752372071,3.9251007039079204,-0.474864854696224,-0.37000820202567464,-0.4251433473294505,0.06562228444179899,0.14318481778865158,0.08634711289090674
1592167863.6394675,-0.3711597267069948,9.17326004059437,3.831653661890567,-0.48333333333333334,-0.36,-0.4066666666666667,0.04988898821929428,0.13799138107924774,0.07151466628784935
1592167863.6494675,-0.3586900938348207,9.18129348046411,3.8228393217916143,-0.48333333333333334,-0.36,-0.4066666666666667,0.047775,0.11814829730856889,0.04008394879768874
1592167863.6594675,-0.44080875671582126,9.104378270147464,3.8835731203007695,-0.48333333333333334,-0.36,-0.4066666666666667,0.03841019496909671,0.07924394664778979,0.0065584726872343485
1592167863.6694674,-0.33419791810443866,9.055002477213254,3.882745625706926,-0.48333333333333334,-0.36,-0.4066666666666667,0.0218221423140001,0.031681774956340544,-0.027633217024880752
1592167863.6794674,-0.4699396671019023,9.017185853727149,3.9525434759379943,-0.4790131770378684,-0.36,-0.4066666666666667,0.017216631542873045,-0.015454899492266564,-0.014310468964860391
1592167863.6894674,-0.39355333595109426,9.04524206613066,3.9641718972526685,-0.4622222222222222,-0.36,-0.4066666666666667,0.017944,-0.04696897718807954,0.010431828678789487
1592167863.6994674,-0.2443217017204794,8.951397155055698,3.876011122815651,-0.4622222222222222,-0.36,-0.4066666666666667,-0.0014385679449043266,-0.08465146870490642,0.014739923656059091
1592167863.7094674,-0.21558631283536722,9.12137817929828,3.8415496563107596,-0.4622222222222222,-0.36,-0.4066666666666667,-0.024964690440706552,-0.08817057816024293,0.003740714494683604
1592167863.7194674,-0.14785030239841612,9.025219952946742,3.8791515182220864,-0.4622222222222222,-0.36,-0.4066666666666667,-0.052554834518937756,-0.08369825305765605,-0.0283032441126201
1592167863.7294674,-0.27392989834984266,8.974872125850439,3.822510331181046,-0.46277342836887586,-0.3584841830967025,-0.4055642543733594,-0.09112320843179358,-0.091003,-0.03761296064793599
1592167863.7394674,-0.3196855676688643,8.953739661694387,3.907527840213887,-0.4666666666666667,-0.3477777777777778,-0.3977777777777778,-0.12349851226483421,-0.09810066464457982,-0.02816287835916556
1592167863.7494674,-0.24658817967237506,9.089843894241568,4.011266756249882,-0.4666666666666667,-0.3477777777777778,-0.3977777777777778,-0.128322986120674,-0.09995799681504305,-0.030274018203781193
1592167863.7594674,-0.21265053086165492,9.102725169229753,4.019412559375941,-0.4666666666666667,-0.3477777777777778,-0.3977777777777778,-0.142959133791294,-0.11376742913165032,-0.06280818829725084
1592167863.7694674,-0.27586377093045494,9.056015739330704,4.067541840328989,-0.4666666666666667,-0.3477777777777778,-0.3977777777777778,-0.15983676166634533,-0.1173311781762375,-0.09549343751737639
1592167863.7794673,-0.33569313675459633,9.098388255815566,4.335619712877689,-0.4636365925832651,-0.3490403086458618,-0.3884350493539564,-0.14464346664135536,-0.11796633868831477,-0.10617882756876657
1592167863.7894673,-0.3092592031908845,9.191048266170993,4.399218464346268,-0.4533333333333333,-0.35333333333333333,-0.3566666666666667,-0.11476567246941974,-0.1328175479245418,-0.12891258578776812
1592167863.7994673,-0.5194377991462363,9.212506775780616,4.314754777607833,-0.4533333333333333,-0.35333333333333333,-0.3566666666666667,-0.07240449266746861,-0.15452830320605618,-0.1439571541952007
1592167863.8094673,-0.6069358838110405,9.053660866405451,4.411286771647257,-0.4533333333333333,-0.35333333333333333,-0.3566666666666667,-0.024533479975287757,-0.15734767725446047,-0.14959985492263733
1592167863.8194673,-0.6038180058835195,8.982504753522566,4.233368127202941,-0.4533333333333333,-0.35333333333333333,-0.3566666666666667,0.002001531361094428,-0.19329572766754735,-0.14999627233245263
1592167863.8294673,-0.5981710357610975,9.088414736373407,4.1683454585281,-0.45181472112922366,-0.35051305352570106,-0.35948694647429896,0.021509083814765493,-0.2030067127773644,-0.14482749498753916
1592167863.8394673,-0.6145386079872515,8.811233770105295,4.111666042000461,-0.44555555555555554,-0.3388888888888889,-0.3711111111111111,0.026357974479144394,-0.2245696831856576,-0.10658783182330299
1592167863.8494673,-0.49122886388737014,8.909411014068487,4.136622258536919,-0.44555555555555554,-0.3388888888888889,-0.3711111111111111,0.035892986972849435,-0.2185282010065939,-0.05860522170218041
1592167863.8594673,-0.48091490546109344,9.0382528158849,4.152062179263609,-0.44555555555555554,-0.3388888888888889,-0.3711111111111111,0.036693847968626306,-0.2186163268926289,-0.030931987206707597
1592167863.8694673,-0.49462313620582393,9.004562820681008,4.07844329866082,-0.44555555555555554,-0.3388888888888889,-0.3711111111111111,0.03274451195765881,-0.2186211262017154,-0.021792327617052246
1592167863.8794672,-0.5521494697343721,8.933480929217355,4.019082252250879,-0.44620098284191234,-0.33928331667499584,-0.37042982675329,0.020377402985957783,-0.21312562420413486,-0.011076148554907317
1592167863.8894672,-0.4604059631750155,9.010707159810604,4.074921067396197,-0.46555555555555556,-0.3511111111111111,-0.35,0.010933323948047783,-0.19628964789609557,0.008654506277873356
1592167863.8994672,-0.29237786442649194,9.140996298115414,4.269792488099522,-0.46555555555555556,-0.3511111111111111,-0.35,0.010791433143520917,-0.17544544426996933,-0.0067281908172834555
1592167863.9094672,-0.4035199907253062,9.055237347342002,4.1789380092746935,-0.46555555555555556,-0.3511111111111111,-0.35,0.013134872443645175,-0.15286052532957337,-0.031769
1592167863.9194672,-0.2514712030639848,9.054180902964186,4.265260343408075,-0.46555555555555556,-0.3511111111111111,-0.35,0.015417916335646079,-0.11467250104970368,-0.04245076898071132
1592167863.9294672,-0.14959100327996566,9.087106593804291,4.361857393155164,-0.46553585855550883,-0.3510441413109522,-0.3499487877998785,0.02862628483625929,-0.09031417645431966,-0.07247047628265256
1592167863.9394672,-0.3194806613236742,8.890602833065126,4.205907127291995,-0.46,-0.3322222222222222,-0.33555555555555555,0.02659837229948398,-0.07234725386808388,-0.06299100515744518
1592167863.9494672,-0.38246392223093967,9.046941674290421,4.163519783801272,-0.46,-0.3322222222222222,-0.33555555555555555,0.01916822947182465,-0.05517867188151578,-0.048617811279093
1592167863.9594672,-0.47380843136501677,9.048319205370074,4.301964877334299,-0.46,-0.3322222222222222,-0.33555555555555555,0.02617313216125741,-0.040287529053856456,-0.04294176720241716
1592167863.9694672,-0.5760570409784501,9.007066569520713,4.345170269436988,-0.46,-0.3322222222222222,-0.33555555555555555,0.03879285761458702,-0.030535407029648534,-0.05064039696635333
1592167863.9794672,-0.6399616377511538,9.008486210554066,4.368106457427323,-0.46,-0.3322222222222222,-0.3347355045645201,0.05163762684675848,-0.013095906548891293,-0.04211975868865169
1592167863.9894671,-0.6089272383391516,9.003722103002762,4.269924370366296,-0.46,-0.3322222222222222,-0.32726149354387696,0.0669872801819739,-0.007542086639208079,-0.03732973686236986
1592167863.9994671,-0.5665806639056669,9.016309927972916,4.080349164653946,-0.46,-0.3322222222222222,-0.3211111111111111,0.06796902549214844,0.008161237559569155,-0.04130190804991613
1592167864.0094671,-0.5959363074207873,8.976084654273834,3.9317958764777012,-0.46,-0.3322222222222222,-0.3211111111111111,0.05535446319832325,0.017624465901027987,-0.03182796454967562
1592167864.019467,-0.5583184756300525,8.999772285425042,3.8639704037707685,-0.46,-0.3322222222222222,-0.3211111111111111,0.03331872876756087,0.010065395343351395,-0.009865728767560865
1592167864.029467,-0.5822338459395291,9.072125278385927,3.8577911402626572,-0.45778197698832623,-0.3309381036365163,-0.31959351641891326,0.012252376660644505,-0.009073242955266306,-0.010187607377614843
1592167864.039467,-0.6412361648937264,9.117086603366124,4.0331933412022245,-0.4388888888888889,-0.32,-0.30666666666666664,0.010286755237820694,-0.016545744257759742,-0.01763463285673104
1592167864.049467,-0.6794892360071457,9.091279409141057,4.1306431872936455,-0.4388888888888889,-0.32,-0.30666666666666664,0.01129916774152889,-0.01712602009725451,-0.026067020097254506
1592167864.059467,-0.7535566694712774,9.019111894833172,4.1440755214182765,-0.4388888888888889,-0.32,-0.30666666666666664,0.020065,-0.026485016568902283,-0.025989983431097718
1592167864.069467,-0.687325065581493,9.010173673964974,4.004704900535144,-0.4388888888888889,-0.32,-0.30666666666666664,0.019012,-0.031357,-0.012440967865567098
1592167864.079467,-0.6267071699952167,9.07128867978887,3.811921463803948,-0.4386689412471568,-0.32048388481181067,-0.3064027294965881,0.010069817957303284,-0.024326461971719993,-0.014080836971996696
1592167864.089467,-0.6565126367018558,9.074570273612007,3.7086510294536676,-0.43333333333333335,-0.3322222222222222,-0.3,-0.01618879102590018,-0.01363472811053195,-0.009305326953903178
1592167864.099467,-0.6216380067298123,9.075241,3.659090613633431,-0.43333333333333335,-0.3322222222222222,-0.3,-0.048514129293875344,-0.012696699774101799,-0.0035581778795467037
1592167864.109467,-0.6751808356819958,9.038061395872456,3.700601163156246,-0.43333333333333335,-0.3322222222222222,-0.3,-0.07615914623190996,-0.026065469735294992,0.0006491500073157467
1592167864.119467,-0.6561549843337109,9.02223345780675,3.8339781145759524,-0.43333333333333335,-0.3322222222222222,-0.3,-0.09371498633806902,-0.04254965289601513,0.00910400255480048
1592167864.129467,-0.6175245571990672,9.054389046754899,4.017370468190527,-0.43333333333333335,-0.3322222222222222,-0.3,-0.10702506726565557,-0.049107866661607234,0.006240932734344431
1592167864.139467,-0.6280807870257176,9.045652616999648,4.049154031404989,-0.43555555555555553,-0.3055555555555556,-0.2644444444444444,-0.112015,-0.05575368120060966,-0.004654291655379261
1592167864.149467,-0.628599560048506,9.004107464137709,4.075728402304376,-0.43555555555555553,-0.3055555555555556,-0.2644444444444444,-0.11503683749754563,-0.05284016250245437,-0.008331
1592167864.159467,-0.5518338648544655,9.052479787490793,4.033900077363672,-0.43555555555555553,-0.3055555555555556,-0.2644444444444444,-0.11984076864192282,-0.05159,-0.009942739477795805
1592167864.169467,-0.5055348970510385,9.042771900760577,3.9387253995451306,-0.43555555555555553,-0.3055555555555556,-0.2644444444444444,-0.13213423952260572,-0.047808875394823674,-0.016268875394823676
1592167864.179467,-0.530352694099236,8.962689251500684,3.9391977691560456,-0.43555555555555553,-0.3055555555555556,-0.2644444444444444,-0.15165535365606006,-0.04234999628643854,0.0005123247596764318
1592167864.189467,-0.4018063421404255,8.964970981422564,3.955777882268484,-0.44,-0.32,-0.2788888888888889,-0.17274055568117713,-0.02922997231364303,0.02042202768635697
1592167864.199467,-0.37161991535591615,8.970161476534882,4.147383935299486,-0.44,-0.32,-0.2788888888888889,-0.18653063267268813,-0.01982403951607497,0.029324237846371847
1592167864.209467,-0.40505492684442745,8.969936727361294,4.362175872866008,-0.44,-0.32,-0.2788888888888889,-0.1842323780794214,-0.00876531217318116,0.036407
1592167864.219467,-0.43168344977737455,9.001616513953431,4.476969587906533,-0.44,-0.32,-0.2788888888888889,-0.17177106379950366,0.008225502681816361,0.03356981195038097
1592167864.229467,-0.510323735278942,8.971052146683244,4.60446466621905,-0.44,-0.32,-0.2788888888888889,-0.15048368009815435,0.020371636554369202,0.025515279927876684
1592167864.239467,-0.5835734857731331,8.963022251888422,4.576433808539232,-0.44,-0.3055555555555556,-0.2644444444444444,-0.12800259488110474,0.03449825033392236,0.027878
1592167864.249467,-0.5855463228860626,8.945589801827007,4.573220612417384,-0.44,-0.3055555555555556,-0.2644444444444444,-0.10416304565745062,0.04182130840992165,0.02681
1592167864.259467,-0.5719364362157889,8.924734120927235,4.544189571377781,-0.44,-0.3055555555555556,-0.2644444444444444,-0.08036536258009457,0.047957202297134634,0.032806732380803276
1592167864.2694669,-0.616645222027699,8.905926164138911,4.478605685498534,-0.44,-0.3055555555555556,-0.2644444444444444,-0.06396118743503769,0.04997533363019031,0.04956333363019032
1592167864.2794669,-0.5029861027845963,9.002186794930411,4.340189295729528,-0.44,-0.3055555555555556,-0.2644444444444444,-0.05474882321583154,0.04852716382245057,0.05367109603835993
1592167864.2894669,-0.43788784357570154,8.955930154440383,4.387021687151403,-0.43555555555555553,-0.3,-0.27111111111111114,-0.0469000828076833,0.046259082807683295,0.038045679743680054
1592167864.2994668,-0.5621308818449482,8.91567679404711,4.326578554807757,-0.43555555555555553,-0.3,-0.27111111111111114,-0.03894265038669565,0.03192273005585676,0.040662917745639904
1592167864.3094668,-0.6128969715966369,8.899835703650357,4.456549821425032,-0.43555555555555553,-0.3,-0.27111111111111114,-0.030380628745386874,0.01964939660758005,0.0566170146869535
1592167864.3194668,-0.5543600861192937,8.951175079170449,4.435867318356123,-0.43555555555555553,-0.3,-0.27111111111111114,-0.011155837121032724,-0.00787539680864698,0.063034
1592167864.3294668,-0.43520974625655195,8.971236644715034,4.381623879039449,-0.43555555555555553,-0.3,-0.27111111111111114,-0.000168,-0.01052977265691896,0.05664281751942603
1592167864.3394668,-0.3243768796909448,8.970995991236036,4.263144232205738,-0.4222222222222222,-0.2911111111111111,-0.28,-0.00044108840679457997,0.0009592031093112487,0.037111796890688754
1592167864.3494668,-0.2755309695904153,8.941133736837402,4.199563305609606,-0.4222222222222222,-0.2911111111111111,-0.28,-0.009013290463694269,0.013887056836678333,0.031145235721169104
1592167864.3594668,-0.16152337320928842,8.9500429525454,4.320093750353812,-0.4222222222222222,-0.2911111111111111,-0.28,-0.01828,0.02606317186034333,0.034271
1592167864.3694668,-0.10995498786163051,8.950660601268892,4.374968412308523,-0.4222222222222222,-0.2911111111111111,-0.28,-0.017196703549478443,0.022957048162958054,0.03107435177473922
1592167864.3794668,-0.1975312582038004,8.932205750725497,4.4289665837830015,-0.4222222222222222,-0.2911111111111111,-0.28,-0.009850463532625236,0.016646153624773164,0.03523855533022355
1592167864.3894668,-0.22682610536924228,8.95384779307214,4.371120776042667,-0.41555555555555557,-0.2911111111111111,-0.29444444444444445,-0.0023997822265953562,0.014498229805753814,0.03650278222659536
1592167864.3994668,-0.28028474581127794,8.967695431104671,4.382941491081192,-0.41555555555555557,-0.2911111111111111,-0.29444444444444445,0.005979423170860922,0.006426691736739171,0.029355679131096907
1592167864.4094667,-0.402161815777169,8.972885,4.317172009590956,-0.41555555555555557,-0.2911111111111111,-0.29444444444444445,0.007512376370904891,-0.008108861354338604,0.016707257508283144
1592167864.4194667,-0.3722074989961962,8.967541434664964,4.212147064331233,-0.41555555555555557,-0.2911111111111111,-0.29444444444444445,0.004364637237809209,-0.02770944511469999,0.004347538376212065
1592167864.4294667,-0.2696004797618403,8.952096325423595,4.2647748117469995,-0.41555555555555557,-0.2911111111111111,-0.29444444444444445,-0.0009049042499311816,-0.03865245212496559,-0.005713356374896773
1592167864.4394667,-0.10760645109895477,8.960883490341987,4.331639458276256,-0.43555555555555553,-0.28444444444444444,-0.25222222222222224,-0.000168,-0.04074565837720317,-0.009205658377203168
1592167864.4494667,-0.0033935131084104897,8.948852958772422,4.255667980970046,-0.43555555555555553,-0.28444444444444444,-0.25222222222222224,-0.0031508646290572657,-0.03054470639179485,-0.009399
1592167864.4594667,0.0705675571534912,8.92913619096444,4.165222882061898,-0.43555555555555553,-0.28444444444444444,-0.25222222222222224,-0.014870533793244347,-0.013960952566392022,-0.010212398164659822
1592167864.4694667,-0.0022533912092014084,8.932749577172562,4.073968070323515,-0.43555555555555553,-0.28444444444444444,-0.25222222222222224,-0.03356838903565486,0.0036744599506230886,-0.006554070609962653
1592167864.4794667,-0.09595540158750644,8.923063708857098,4.093888789466728,-0.43555555555555553,-0.28444444444444444,-0.25222222222222224,-0.05566094112938391,0.017467566368208367,-0.00043453317665728317
1592167864.4894667,-0.15562130799612145,8.955999338507294,4.125686369193456,-0.44,-0.29777777777777775,-0.2588888888888889,-0.0733942802082283,0.02300231460520505,-0.009469458007425866
1592167864.4994667,-0.16685750292188628,8.941792854327483,4.117945953528532,-0.44,-0.29777777777777775,-0.2588888888888889,-0.09061705985607296,0.01039594347483457,-0.018936323722398604
1592167864.5094666,-0.16401459197108967,8.923391806934342,4.246283056868671,-0.44,-0.29777777777777775,-0.2588888888888889,-0.10403356357117281,0.01285256754563133,-0.019392136569051022
1592167864.5194666,-0.18594413498273557,8.913417057980897,4.450934332829957,-0.44,-0.29777777777777775,-0.2588888888888889,-0.10203447863188023,0.0031633878738191426,-0.011555271363259132
1592167864.5294666,-0.1116710887174522,8.927224903204548,4.572325975156547,-0.44,-0.29777777777777775,-0.2588888888888889,-0.08968943833933378,0.007564775256698326,-0.004999572807935801
1592167864.5394666,-0.0801153934140465,8.925451223531853,4.461267949276137,-0.4477777777777778,-0.28444444444444444,-0.25222222222222224,-0.08046674045519096,0.02389620946038611,-0.006866149715479402
1592167864.5494666,-0.10410010095152808,8.908672454185929,4.32267004642578,-0.4477777777777778,-0.28444444444444444,-0.25222222222222224,-0.08118578493353863,0.04924396279918705,-0.006728373899690096
1592167864.5594666,0.1356396270077018,8.878937100400211,4.159857057340218,-0.4477777777777778,-0.28444444444444444,-0.25222222222222224,-0.09379666531146855,0.05924499969662708,-0.00364916704089281
1592167864.5694666,-0.2567603885372464,8.792396108455117,3.5948437459476112,-0.4477777777777778,-0.28444444444444444,-0.25222222222222224,-0.1373815280464123,0.03206796139540107,0.04610109669851408
1592167864.5794666,-0.01646138393450553,9.014659921172624,4.25672896530482,-0.4477777777777778,-0.28444444444444444,-0.25222222222222224,-0.18463818989161393,0.06821554896272379,0.0389745402814534
1592167864.5894666,0.13085975565671426,8.963542307529393,4.794991437954001,-0.42444444444444446,-0.30333333333333334,-0.2733333333333333,-0.17117551854181656,0.05787452318479789,-0.01520805713019207
1592167864.5994666,-0.020041941302651044,8.863531564723859,4.800218392509577,-0.42444444444444446,-0.30333333333333334,-0.2733333333333333,-0.14009250549407765,0.05519639357382009,-0.018850233664284774
1592167864.6094666,-0.0031058395423004884,8.859492722858082,4.905321886879863,-0.42444444444444446,-0.30333333333333334,-0.2733333333333333,-0.10500551252040134,0.042764223343780675,-0.02115998852788188
1592167864.6194665,-0.20894787432858525,8.843507563004259,4.832491570302165,-0.42444444444444446,-0.30333333333333334,-0.2733333333333333,-0.0713666604469231,0.035025202428198204,-0.020863389216491755
1592167864.6294665,-0.27312883163980545,8.87838477193772,4.732326929694746,-0.42444444444444446,-0.30333333333333334,-0.2733333333333333,-0.04327863240707152,0.022719041149485503,-0.012789219116532146
1592167864.6394665,-0.04213845461004408,8.776493425229027,4.651026814549808,-0.44222222222222224,-0.2911111111111111,-0.25222222222222224,-0.02053471949115531,-0.0025644029878640574,-0.01454168531440301
1592167864.6494665,-0.691678594575881,8.763621608388586,4.325046003972258,-0.44222222222222224,-0.2911111111111111,-0.25222222222222224,-0.02089753558226607,-0.04368381396829592,0.043796300898876026
1592167864.6594665,-0.31798531278421027,9.017224749699787,5.04730431650039,-0.44222222222222224,-0.2911111111111111,-0.25222222222222224,-0.008205595120319641,-0.019944640034921024,0.016443740062712098
1592167864.6694665,-0.29748867751336294,8.897799055687415,5.288081381832551,-0.44222222222222224,-0.2911111111111111,-0.25222222222222224,0.061700186760387805,-0.03951585685870965,-0.037094
1592167864.6794665,-0.39448666732181126,8.799322771238618,5.051178887551241,-0.44222222222222224,-0.2911111111111111,-0.25222222222222224,0.12125797121171729,-0.05036900566702321,-0.024935769945146433
1592167864.6894665,-0.28081777442698574,8.851739706268246,4.720405806861033,-0.4280022568624363,-0.27689114575132523,-0.27956830945257966,0.15357769356864118,-0.04513448829221617,-0.0086152698738203
1592167864.6994665,-0.21711888850907027,8.850398420103087,4.5235005962561905,-0.42777777777777776,-0.27666666666666667,-0.28,0.1669648650345719,-0.05301286345132775,-0.013420403313040225
1592167864.7094665,-0.2674853839029297,8.876746011319609,4.331754455894116,-0.42777777777777776,-0.27666666666666667,-0.28,0.16345207718024832,-0.046521875251546364,-0.00621
1592167864.7194664,-0.2830396388961178,8.899180105677983,4.262593089863392,-0.42777777777777776,-0.27666666666666667,-0.28,0.15282493873607073,-0.04727516866391363,-0.008216149565693649
1592167864.7294664,-0.2803184478986134,8.89447,4.202966527069784,-0.42777777777777776,-0.27666666666666667,-0.28,0.13811238588821728,-0.05170943171877992,-0.005052426210915059
1592167864.7394664,-0.2735958692231477,8.889244254220086,4.197077980078497,-0.42492983155775843,-0.27666666666666667,-0.25626711483317194,0.12236345933708195,-0.0569108690723476,0.004414979053592593
1592167864.7494664,-0.20007160853549177,8.881778735356347,4.224804725684723,-0.42444444444444446,-0.27666666666666667,-0.25222222222222224,0.10978098623026826,-0.06726158405425178,0.01077048216567298
1592167864.7594664,-0.11628320952287216,8.907697504995975,4.315943392709088,-0.42444444444444446,-0.27666666666666667,-0.25222222222222224,0.1010878332395255,-0.08846439869027153,0.01610006230007451
1592167864.7694664,-0.0038364539335500394,8.948065012393851,4.4162593443237,-0.42444444444444446,-0.27666666666666667,-0.25222222222222224,0.10397020495532705,-0.08986334698821985,0.01421191210288653
1592167864.7794664,0.10016748450468221,8.945634698202134,4.391140819594978,-0.42444444444444446,-0.27666666666666667,-0.25222222222222224,0.10435308772579788,-0.09007097368237357,0.0061153952778722435
1592167864.7894664,0.10621791443994119,8.949661722273948,4.287116322070985,-0.42942566862000764,-0.2955953185338067,-0.25222222222222224,0.10361167536292935,-0.06875071890817162,-0.007585140386453814
1592167864.7994664,0.06967649208057677,8.961430126931905,4.295670854371629,-0.43,-0.29777777777777775,-0.25222222222222224,0.09944004348595371,-0.048401259249436404,-0.018283156184327812
1592167864.8094664,-0.0547540961848089,8.965038340080286,4.217242319711585,-0.43,-0.29777777777777775,-0.25222222222222224,0.09015348167986245,-0.037105226889402446,-0.026443
1592167864.8194664,-0.1430267114652032,8.926268409757336,4.161084459341378,-0.43,-0.29777777777777775,-0.25222222222222224,0.07690308069650904,-0.03798940719284712,-0.024323
1592167864.8294663,-0.17073677693616343,8.927183662777251,4.218868510619763,-0.43,-0.29777777777777775,-0.25222222222222224,0.0634819039502139,-0.036946251880848165,-0.015523653762067258
1592167864.8394663,-0.17060580206895384,8.921139484837287,4.323147930895173,-0.43473558512453087,-0.288306607528716,-0.2569578073467531,0.062383376624270466,-0.0325941298728114,-0.009230150673420558
1592167864.8494663,-0.15281940361986038,8.942438103859196,4.410056147636604,-0.43666666666666665,-0.28444444444444444,-0.2588888888888889,0.06661077795052843,-0.0283312387014577,-6.12642926970542e-05
1592167864.8594663,-0.06177849075276868,8.959408696271852,4.291283180069294,-0.43666666666666665,-0.28444444444444444,-0.2588888888888889,0.07297895107787913,-0.02353798420276601,0.0037390015304189037
1592167864.8694663,-0.025636551989637806,8.942749567468551,4.231169393446279,-0.43666666666666665,-0.28444444444444444,-0.2588888888888889,0.06915738431625641,-0.022538214462313435,0.0016358095453798906
1592167864.8794663,-0.04844326312284491,8.95823017037098,4.232014208705952,-0.43666666666666665,-0.28444444444444444,-0.2588888888888889,0.06286458325106818,-0.00957965089982781,-0.001938
1592167864.8894663,-0.08838295629373759,8.970587864410776,4.09910193172295,-0.4404775466721651,-0.2890175004510425,-0.2588888888888889,0.05089068153646507,-0.0025202631557028204,-0.005142
1592167864.8994663,-0.1374250911987792,8.993912200757299,4.052002,-0.44222222222222224,-0.2911111111111111,-0.2588888888888889,0.03557477354784359,0.010540919661035871,-0.0007595827309468044
1592167864.9094663,-0.13073803631254685,8.96027486533243,4.132471414029887,-0.44222222222222224,-0.2911111111111111,-0.2588888888888889,0.017747452463912787,0.03074093137170793,0.004637077107108031
1592167864.9194663,-0.05101392869206266,8.961100497423331,4.212477813592679,-0.44222222222222224,-0.2911111111111111,-0.2588888888888889,0.006202897248419562,0.043758387306755714,0.008713
1592167864.9294662,-0.1479516546537187,8.970131266700479,4.235773163376217,-0.44222222222222224,-0.2911111111111111,-0.2588888888888889,0.004034880907915186,0.04651735813436566,0.013422821361872778
1592167864.9394662,-0.10404700421425231,8.96263657081693,4.107813918503283,-0.4299092486076874,-0.2911111111111111,-0.26889317995069845,-0.003015918578432764,0.042384614986956316,0.017227
1592167864.9494662,-0.05222497006591814,8.951973549812022,4.002916416465961,-0.42444444444444446,-0.2911111111111111,-0.2733333333333333,-0.0204395123527841,0.03273405393090273,0.014658026965451362
1592167864.9594662,-0.11966366477419299,8.95392127242654,4.017486407798207,-0.42444444444444446,-0.2911111111111111,-0.2733333333333333,-0.040810024931633535,0.030426,0.01699935857357243
1592167864.9694662,-0.12301783790278935,8.96673021472319,4.202669332200117,-0.42444444444444446,-0.2911111111111111,-0.2733333333333333,-0.05315277149959433,0.038884942364953025,0.022269138901981782
1592167864.9794662,-0.10717876711572114,8.971756118083482,4.421005701400588,-0.42444444444444446,-0.2911111111111111,-0.2733333333333333,-0.05233463729409947,0.05673895391974352,0.02825963514462804
1592167864.9894662,-0.056905546196909455,8.95091629044932,4.6228846214576045,-0.4387154600076888,-0.2857594802748945,-0.2679817024971167,-0.031450144067168076,0.07140958482142315,0.031082
1592167864.9994662,-0.026335018812291118,8.953971389222518,4.8023618608597065,-0.44222222222222224,-0.28444444444444444,-0.26666666666666666,0.003267839963340213,0.08521410822365301,0.029106287953127873
1592167865.0094662,0.03461667039363557,8.942662440361953,4.797428843137336,-0.44222222222222224,-0.28444444444444444,-0.26666666666666666,0.04819399522128202,0.07642217217642143,0.02200656263987143
1592167865.0194662,-0.08717084102442993,8.965356288798446,4.70844123182936,-0.44222222222222224,-0.28444444444444444,-0.26666666666666666,0.0916210531545885,0.048773608357044106,0.017968180817138333
1592167865.0294662,-0.08494332403868132,8.9581099922769,4.522586571307805,-0.44222222222222224,-0.28444444444444444,-0.26666666666666666,0.12302435850006589,0.024612678512997106,0.01999341588975325
1592167865.0394661,0.05603197931133587,8.979694521262077,4.376351270021288,-0.4383559816890747,-0.28444444444444444,-0.25661444128048316,0.13905825052852686,0.00158465063243025,0.01542174947147314
1592167865.0494661,0.02053776078170764,9.00169838978732,4.140967940749054,-0.43666666666666665,-0.28444444444444444,-0.25222222222222224,0.14179436577131174,-0.01844280255849841,0.006861218609954242
1592167865.0594661,0.02877692235835249,8.988193903132071,4.03331079616654,-0.43666666666666665,-0.28444444444444444,-0.25222222222222224,0.13115256956840793,-0.030124805013312748,-0.0027124304315920634
1592167865.069466,0.021441010847442415,9.001172730769385,3.978822589780144,-0.43666666666666665,-0.28444444444444444,-0.25222222222222224,0.1138700450546297,-0.04154715341978382,-0.010872896638726886
1592167865.079466,0.017293645613325782,9.003455466491603,3.9229630787860956,-0.43666666666666665,-0.28444444444444444,-0.25222222222222224,0.0905678485210186,-0.05068266038061465,-0.020196690510604853
1592167865.089466,-0.040949913717275806,9.000835606454364,3.962723440496518,-0.4226127320954907,-0.28940465664603593,-0.24643530798703212,0.06765307370236687,-0.049389880549807516,-0.025454156491133587
1592167865.099466,-0.07792885883368661,9.008789,3.998056189631333,-0.4177777777777778,-0.2911111111111111,-0.24444444444444444,0.049802202686344416,-0.047344765977329596,-0.024299457028508106
1592167865.109466,-0.14618252313387756,9.024678507485731,3.946360692887087,-0.4177777777777778,-0.2911111111111111,-0.24444444444444444,0.03298001206463209,-0.05050494445837583,-0.01904485820329563
1592167865.119466,-0.14498825956781858,8.99964102808436,3.9939245122641926,-0.4177777777777778,-0.2911111111111111,-0.24444444444444444,0.009851984244212065,-0.04013335467206497,-0.013788464555723518
1592167865.129466,-0.12469573189640684,9.01478059910611,4.045670813551492,-0.4177777777777778,-0.2911111111111111,-0.24444444444444444,-0.004992698965534539,-0.03057445523438138,-0.007491907023179844
1592167865.139466,-0.1155291161445419,8.998754287158167,4.093502583424395,-0.43022601682045003,-0.29450608539547624,-0.2484052477762038,-0.011590169150575142,-0.02700049790591559,-0.002236227043448493
1592167865.149466,-0.10322061769041509,9.000978671865246,4.128933862157304,-0.44222222222222224,-0.29777777777777775,-0.25222222222222224,-0.018966391713264242,-0.021340227255576754,0.000183
1592167865.159466,-0.07584896265048044,9.009337136660122,4.164408716608851,-0.44222222222222224,-0.29777777777777775,-0.25222222222222224,-0.022375569665798848,-0.007978896211431639,0.0015738606684023025
1592167865.169466,-0.08281897950210965,8.982869735767965,4.201252028585877,-0.44222222222222224,-0.29777777777777775,-0.25222222222222224,-0.023605,-0.002972448164043075,0.006011808219430053
1592167865.179466,-0.10101082386364318,8.980299816132131,4.205714220463981,-0.44222222222222224,-0.29777777777777775,-0.25222222222222224,-0.023822017661727486,0.0007979773539570191,0.007427982338272515
1592167865.189466,-0.07213895184313394,9.001642729133842,4.213160614885704,-0.43461378137813783,-0.30015541554155417,-0.24604036403640364,-0.02328645596359107,0.011068804054251969,0.009766
1592167865.199466,-0.07297148887977492,9.001093392929217,4.258762297606058,-0.42444444444444446,-0.30333333333333334,-0.23777777777777778,-0.019127304523958125,0.01523423667871205,0.011334473357424098
1592167865.209466,-0.010041547088910191,9.013753155010882,4.343286233807594,-0.42444444444444446,-0.30333333333333334,-0.23777777777777778,-0.01420366539095325,0.017208132791687068,0.007825665390953251
1592167865.219466,0.05633839856502637,9.008986593215408,4.362925100067522,-0.42444444444444446,-0.30333333333333334,-0.23777777777777778,-0.0022095701158414078,0.0072954500208254145,0.0008155100683334103
1592167865.229466,0.18166911127570093,9.033615046049132,4.351653414162771,-0.42444444444444446,-0.30333333333333334,-0.23777777777777778,0.011430331535508965,-0.0021917653497507735,-0.016371477740238543
1592167865.239466,-0.026022817663093323,9.016654621051371,4.290520515119805,-0.42444444444444446,-0.30094366291453567,-0.24399092086665172,0.019948628262214746,-0.007405980718798425,-0.02858
1592167865.249466,-0.19828420295212412,8.998083471605833,4.313229388172543,-0.42444444444444446,-0.29777777777777775,-0.25222222222222224,0.027514676041550844,-0.022165227198148396,-0.022629199073495854
1592167865.259466,-0.13796424186290304,9.008271719490402,4.2068574720143905,-0.42444444444444446,-0.29777777777777775,-0.25222222222222224,0.030873104252791987,-0.03683266227438175,-0.013056226884398886
1592167865.269466,-0.0072793785187058304,8.994858073112304,4.222753554579141,-0.42444444444444446,-0.29777777777777775,-0.25222222222222224,0.03227046261095503,-0.034459092881868554,-0.011144156677798814
1592167865.279466,-0.022810711724561866,8.996750254083155,4.20009742030198,-0.42444444444444446,-0.29777777777777775,-0.25222222222222224,0.030731,-0.025398763307031745,-0.01958245362551503
1592167865.289466,-0.08682405784874725,9.011835381179713,4.140368454081447,-0.41904404404404405,-0.29985485485485486,-0.24432932932932933,0.029679100212959747,-0.021774,-0.022728050106479873
1592167865.299466,-0.15310209173565406,9.00834789508,4.11415012510116,-0.41,-0.30333333333333334,-0.2311111111111111,0.02341867402530147,-0.023816405420844542,-0.015541029098819695
1592167865.309466,-0.1556903856578272,8.983685036426301,4.0997975597896295,-0.41,-0.30333333333333334,-0.2311111111111111,0.01547151839083368,-0.024022274782947866,-0.00799451839083368
1592167865.3194659,-0.08160392270584146,8.983094975450493,4.044270781052037,-0.41,-0.30333333333333334,-0.2311111111111111,0.0026912505814205953,-0.02088886227923967,-0.002127078134020291
1592167865.3294659,-0.11594047420285047,9.008079873503696,3.9974586097630103,-0.41,-0.30333333333333334,-0.2311111111111111,-0.010521163168225026,-0.012897786451237974,0.0016657751126177422
1592167865.3394659,-0.1431903863960725,9.017158903764608,3.9967020237916873,-0.41648404487833307,-0.2993708614632409,-0.2332724594038888,-0.02882698065467712,0.003685778128305829,0.0056013064362509
1592167865.3494658,-0.17424571796518018,8.980149130626518,4.007513600616822,-0.43,-0.2911111111111111,-0.23777777777777778,-0.04493103616046129,0.014100375233418835,0.012984080930358898
1592167865.3594658,-0.183732037336569,8.990557325689503,4.0782466819932885,-0.43,-0.2911111111111111,-0.23777777777777778,-0.05615662523034803,0.015186606131053005,0.024941921067516252
1592167865.3694658,-0.031560354528044225,9.020801503352907,4.083559179776737,-0.43,-0.2911111111111111,-0.23777777777777778,-0.06560073655873348,0.00928219963677332,0.02864239987892444
1592167865.3794658,0.03438266984627619,9.005153044046986,4.105491740295528,-0.43,-0.2911111111111111,-0.23777777777777778,-0.07393628789455793,0.001663,0.024153952535147693
1592167865.3894658,0.06413222012910312,9.018853585037839,4.200754405004462,-0.43,-0.2911111111111111,-0.24269747327369293,-0.07958273550195478,0.0035588677509773964,0.01626984364785653
1592167865.3994658,0.044675683102745715,9.010430194007965,4.316880106804305,-0.43,-0.2911111111111111,-0.25222222222222224,-0.0779930456693227,0.00613409573980533,0.006643045669322712
1592167865.4094658,0.0030510283810264785,8.992805682085438,4.479439190587552,-0.43,-0.2911111111111111,-0.25222222222222224,-0.061841090636200385,0.002762688302939663,-0.003006
1592167865.4194658,0.004215261416242531,8.975323028144278,4.6480465126584285,-0.43,-0.2911111111111111,-0.25222222222222224,-0.0328593717517204,-0.0074324574042015645,-0.00693474657963434
1592167865.4294658,0.039202907638336004,8.972212657646153,4.7004228377647355,-0.43,-0.2911111111111111,-0.25222222222222224,0.00631746281181873,-0.01217852766372893,-0.012719885788969586
1592167865.4394658,-0.01696959354552516,8.976658807880748,4.736756761203876,-0.4325309412376495,-0.2936420523487606,-0.24926945744496448,0.045562127522719494,-0.031894196582442184,-0.016240453746520358
1592167865.4494658,-0.03142997049700046,8.987799757835033,4.640081421355527,-0.43666666666666665,-0.29777777777777775,-0.24444444444444444,0.08892169982262013,-0.045767801647068285,-0.02224794908777593
1592167865.4594657,0.00996999543014495,8.996063021899568,4.443569672140092,-0.43666666666666665,-0.29777777777777775,-0.24444444444444444,0.11308762596112718,-0.05592983097019536,-0.025477498000695955
1592167865.4694657,-0.0856112043462546,9.015318162998868,4.280193119430023,-0.43666666666666665,-0.29777777777777775,-0.24444444444444444,0.12660178460274113,-0.06225571273642726,-0.027512071799086286
1592167865.4794657,-0.11821849416084124,9.002952316978766,4.126225734861636,-0.43666666666666665,-0.29777777777777775,-0.24444444444444444,0.12556809420979248,-0.057085502972379736,-0.024323
1592167865.4894657,-0.08399981043017385,9.007881538813887,4.016091519287962,-0.43666666666666665,-0.29052185933989977,-0.24711767755313635,0.11217493276618444,-0.045521594604915845,-0.019120314583479157
1592167865.4994657,-0.0764497172497899,9.015973507693426,3.9571392249432162,-0.43666666666666665,-0.27666666666666667,-0.25222222222222224,0.09225245887596284,-0.037130172982102076,-0.01695088708824132
1592167865.5094657,-0.05876123764479374,9.029739,3.9811821027407777,-0.43666666666666665,-0.27666666666666667,-0.25222222222222224,0.07355718355878788,-0.04153792947518689,-0.015793
1592167865.5194657,-0.05569478647041128,9.024068008843662,4.007544824554746,-0.43666666666666665,-0.27666666666666667,-0.25222222222222224,0.06219485515423692,-0.042007,-0.014725
1592167865.5294657,-0.011840836881179383,9.039896778683742,4.020837742899158,-0.43666666666666665,-0.27666666666666667,-0.25222222222222224,0.048809742905415905,-0.05055525709458409,-0.017409195003300005
1592167865.5394657,-0.06701252198718403,9.037371271256182,4.090818227667922,-0.4326589838713921,-0.28114584155550293,-0.24774304733338595,0.03811167475504564,-0.03768448649467105,-0.01726312416011594
1592167865.5494657,-0.027318574290906537,9.023244855894735,4.172183311004377,-0.4177777777777778,-0.29777777777777775,-0.2311111111111111,0.036057,-0.03204035321621651,-0.018768144172179608
1592167865.5594656,-0.03222670714216526,9.011175748270407,4.140722522292373,-0.4177777777777778,-0.29777777777777775,-0.2311111111111111,0.03898911011553422,-0.02654453946033992,-0.02030664957587414
1592167865.5694656,-0.061711563950948484,9.023227666807092,4.156777172018673,-0.4177777777777778,-0.29777777777777775,-0.2311111111111111,0.038177,-0.02418587693668241,-0.02189512306331759
1592167865.5794656,-0.12429821187459207,9.034180922213043,4.061571887596686,-0.4177777777777778,-0.29777777777777775,-0.2311111111111111,0.03562086565756382,-0.028269165276931362,-0.01781253634227771
1592167865.5894656,-0.11408783604608236,9.011711722736804,3.9594744870122955,-0.4195134724503351,-0.29856672990166744,-0.23410912918189186,0.02606545608946223,-0.03098192886518147,-0.010438717702671633
1592167865.5994656,-0.09085887344220317,9.04608976178942,3.8812861498699505,-0.43,-0.30333333333333334,-0.25222222222222224,0.008552436178021228,-0.026031,-0.00589882476012244
1592167865.6094656,-0.028035646123906122,9.043634898127621,3.9431831075309707,-0.43,-0.30333333333333334,-0.25222222222222224,-0.009032954416602786,-0.021173017087837906,-0.007519765655000604
1592167865.6194656,-0.05206185168934534,9.023953552359696,4.005927012752078,-0.43,-0.30333333333333334,-0.25222222222222224,-0.02418857804136182,0.002692321519017411,-0.007278
1592167865.6294656,-0.034511311073355436,9.024245250637021,4.092660584698059,-0.43,-0.30333333333333334,-0.25222222222222224,-0.033188,0.004868,-0.008477371623769608
