time,acc_x,acc_y,acc_z,mag_x,mag_y,mag_z,gyr_x,gyr_y,gyr_z
1592167866.5394647,-0.12383618985108352,9.01259225584767,4.268477749455475,-0.43666666666666665,-0.2911111111111111,-0.2588888888888889,0.007469669624494482,0.019775,0.026898455991966105
1592167866.5494647,-0.047623340865345316,9.007534516856671,4.177470922470306,-0.43666666666666665,-0.28444444444444444,-0.24444444444444444,0.011611299003728849,0.018707,0.027878
1592167866.5594647,-0.0554152019852832,8.998119137350196,4.1130702491044,-0.43666666666666665,-0.28444444444444444,-0.24444444444444444,0.009283172109053401,0.021938434883126356,0.02681
1592167866.5694647,-0.07944799386508246,8.988893235136915,4.098641082468916,-0.43666666666666665,-0.28444444444444444,-0.24444444444444444,-0.000162583625142502,0.02298,0.02681
1592167866.5794647,-0.039334563403219856,9.01658077920162,4.087441446416948,-0.43666666666666665,-0.28444444444444444,-0.24444444444444444,-0.00858136225245618,0.02720784738722752,0.02891684738722752
1592167866.5894647,-0.09011170109921098,9.004151658107578,4.128006685742768,-0.43666666666666665,-0.28444444444444444,-0.24444444444444444,-0.015954749617920674,0.03130474961792067,0.02995061981559714
1592167866.5994647,-0.1500545746452827,9.007030667150408,4.238968743748557,-0.43,-0.29777777777777775,-0.2311111111111111,-0.016144,0.028668415197434533,0.03604358480256547
1592167866.6094646,-0.15092221199464992,8.994391315720582,4.315407684279417,-0.43,-0.29777777777777775,-0.2311111111111111,-0.008128961335881884,0.02736240129326488,0.04442215608105937
1592167866.6194646,-0.05158756626388766,9.013855889499673,4.347724617607487,-0.43,-0.29777777777777775,-0.2311111111111111,0.004239981367614734,0.019928338482405734,0.04781960991728845
1592167866.6294646,-0.01280659563926827,9.00766049997826,4.334467580551086,-0.43,-0.29777777777777775,-0.2311111111111111,0.017041598031510015,0.021024988789173204,0.04546496636751961
1592167866.6394646,-0.03388430440870639,9.01740469325677,4.283772914432131,-0.43,-0.29777777777777775,-0.2311111111111111,0.023711456899926327,0.02235345689992633,0.044922
1592167866.6494646,-0.058506368302979644,8.994959513045764,4.375392239493733,-0.43,-0.29118425849968094,-0.2442981496673047,0.03605445883553258,0.035639441275225524,0.04303425358444836
1592167866.6594646,-0.09947365922714853,9.022168972432105,4.365157462720305,-0.43,-0.2911111111111111,-0.24444444444444444,0.051782615360555354,0.0298867400656879,0.0486652599343121
1592167866.6694646,-0.05829601499644379,9.019751601650293,4.306768362675939,-0.43,-0.2911111111111111,-0.24444444444444444,0.062002120740246684,0.02490949134181912,0.052867398877194924
1592167866.6794646,-0.024666417675183107,9.01469339772913,4.194208235568969,-0.43,-0.2911111111111111,-0.24444444444444444,0.065872,0.0098155707994167,0.04983831678533888
1592167866.6894646,-0.05111284313601531,8.986715568499342,4.118605498927465,-0.43,-0.2911111111111111,-0.24444444444444444,0.05738064741044877,-0.014612986234467516,0.03892153891218708
1592167866.6994646,-0.09718728690517886,8.992563689979841,4.041093497994326,-0.4463828912194119,-0.2911111111111111,-0.23866224754347554,0.046216431998200885,-0.022827,0.023717601066108273
1592167866.7094646,-0.1758056807594606,8.982812381224852,3.975557574923804,-0.4488888888888889,-0.2911111111111111,-0.23777777777777778,0.027655958488304464,-0.03939641455003905,0.018476008333922458
1592167866.7194645,-0.1800784249519242,9.019774796297824,3.907585217418022,-0.4488888888888889,-0.2911111111111111,-0.23777777777777778,0.0063959433914631105,-0.048401,0.017490999871021293
1592167866.7294645,-0.18533132743102543,8.960996255773296,3.980348211692075,-0.4488888888888889,-0.2911111111111111,-0.23777777777777778,-0.017360080121078633,-0.03963054850452839,0.003951165079545973
1592167866.7394645,-0.33252176192471383,8.970512441271852,3.990162066652673,-0.4488888888888889,-0.2911111111111111,-0.23777777777777778,-0.0404242785006662,-0.058170262421100086,-0.013370436728787558
1592167866.7494645,-0.4668141094924718,8.96999115433433,4.007425851711148,-0.4177777777777778,-0.2911111111111111,-0.24444444444444444,-0.06523424219325925,-0.09693512938079189,-0.01417873593349728
1592167866.7594645,-0.5818531978131258,9.01970836090363,3.91997954701458,-0.4177777777777778,-0.2911111111111111,-0.24444444444444444,-0.08786070493028539,-0.1278736551807605,-0.0052612510294525495
1592167866.7694645,-0.49069084097908416,9.007828002685878,3.7691567331393,-0.4177777777777778,-0.2911111111111111,-0.24444444444444444,-0.11700229768568238,-0.14523625418819666,-0.024141644448468974
1592167866.7794645,-0.29411836997080487,9.06107669395358,3.689009879025888,-0.4177777777777778,-0.2911111111111111,-0.24444444444444444,-0.15252237094506346,-0.1713751748875993,-0.06553288425409654
1592167866.7894645,-0.22036741094104462,9.050312217034286,3.818183625406218,-0.4177777777777778,-0.2911111111111111,-0.24444444444444444,-0.19014543855962532,-0.18140099318171618,-0.05608117455337095
1592167866.7994645,-0.03627354077963666,9.076840892829448,3.925929291346247,-0.4336826155603577,-0.30140247673513343,-0.2332175001273292,-0.20556745373542296,-0.17749823656911906,-0.05036898059718485
1592167866.8094645,-0.10117325173807278,9.02108351874289,4.00797806824747,-0.43666666666666665,-0.30333333333333334,-0.2311111111111111,-0.2203617725426619,-0.1783201683002201,-0.03636212464297927
1592167866.8194644,-0.20322085489121852,9.008318375039329,4.067839209721138,-0.43666666666666665,-0.30333333333333334,-0.2311111111111111,-0.23119680429841535,-0.1639117030201655,-0.013273312707968034
1592167866.8294644,-0.27040455518113704,8.966035197919103,4.199216038267839,-0.43666666666666665,-0.30333333333333334,-0.2311111111111111,-0.2433474015900553,-0.15127004896386134,0.008710521782212089
1592167866.8394644,-0.26040970112037015,8.933638577474863,4.440709734952558,-0.43666666666666665,-0.30333333333333334,-0.2311111111111111,-0.2390240754604881,-0.12228492723893265,0.011073075460488076
1592167866.8494644,-0.20640925877134075,8.879344222878547,4.520677658829109,-0.43666666666666665,-0.29126617396043036,-0.2311111111111111,-0.22770662405937958,-0.08571421845573951,0.0012029426494219128
1592167866.8594644,-0.18048685639268372,8.872672098578983,4.560121656481019,-0.43666666666666665,-0.2911111111111111,-0.2311111111111111,-0.21619330665037184,-0.07077690492442444,-0.03287291663335305
1592167866.8694644,-0.23134510890806084,8.91763429542387,4.579646679432923,-0.43666666666666665,-0.2911111111111111,-0.2311111111111111,-0.2054647904376009,-0.07979225858574589,-0.04825225858574589
1592167866.8794644,-0.17985266059311295,8.89501191153902,4.682473091652902,-0.43666666666666665,-0.2911111111111111,-0.2311111111111111,-0.17982350122243346,-0.07491689805716557,-0.039660250230004086
1592167866.8894644,-0.049451283304222445,8.897209155760642,4.6441550732540735,-0.43666666666666665,-0.2911111111111111,-0.2311111111111111,-0.1611704183922686,-0.10216980630294684,-0.033233616468458835
1592167866.8994644,-0.056605052657683966,8.974745327669757,4.685761831427542,-0.43666666666666665,-0.28634937773938635,-0.2461899334549061,-0.1357250214342513,-0.12193595304187532,-0.037987380015628555
1592167866.9094644,-0.14046037826143015,8.982574239866228,4.615925567227925,-0.43666666666666665,-0.28444444444444444,-0.25222222222222224,-0.10598912976476861,-0.09102212893163787,0.0006551745261143697
1592167866.9194643,-0.05813180837093106,8.939307725446838,4.540385214707809,-0.43666666666666665,-0.28444444444444444,-0.25222222222222224,-0.08943364326135692,-0.06987096631669552,0.04219814359064007
1592167866.9294643,-0.08131254906725548,8.882985776487676,4.5473832957919775,-0.43666666666666665,-0.28444444444444444,-0.25222222222222224,-0.07997561129706006,-0.08455222163854315,0.06417477836145687
1592167866.9394643,-0.06870522605694257,8.844233685472554,4.713549068551324,-0.43666666666666665,-0.28444444444444444,-0.25222222222222224,-0.06308685127020973,-0.06765566188127585,0.0662583171549952
1592167866.9494643,-0.08097286188832979,8.850507033531283,4.794154522294241,-0.4449871405658151,-0.2889828847530709,-0.242388934886865,-0.036923191921955756,-0.06842962160517237,0.051642389240916374
1592167866.9594643,-0.03999575923318998,8.848990578197187,4.860836128565031,-0.4488888888888889,-0.2911111111111111,-0.23777777777777778,-0.010719950963123202,-0.08614995795741387,0.04400353556529997
1592167866.9694643,0.011709976614427277,8.862268138767416,4.8382543499628,-0.4488888888888889,-0.2911111111111111,-0.23777777777777778,0.020661064978437216,-0.10265976235711863,0.03488772123985181
1592167866.9794643,0.0805031390323713,8.84143015286102,4.807863054206062,-0.4488888888888889,-0.2911111111111111,-0.23777777777777778,0.04900730382277012,-0.10431334519061737,0.0226595364239517
1592167866.9894643,0.18407510967799556,8.81512432241698,4.688836769705217,-0.4488888888888889,-0.2911111111111111,-0.23777777777777778,0.07404468418370398,-0.09137393979493108,-0.006867943240992981
1592167866.9994643,0.17473132375504957,8.818346866352874,4.631433915413451,-0.45444226728005904,-0.2863510724901081,-0.252851233410954,0.09117480745351708,-0.07636619254648291,-0.04168881424248043
1592167867.0094643,0.06499224473704976,8.864604043031353,4.572366411789093,-0.45666666666666667,-0.28444444444444444,-0.2588888888888889,0.10481564688769952,-0.05779768871342285,-0.07004999185631797
1592167867.0194643,-0.21940723656136552,8.864768554674573,4.530374370599068,-0.45666666666666667,-0.28444444444444444,-0.2588888888888889,0.11389283183217869,-0.052335242849353876,-0.08158807468153258
1592167867.0294642,-0.5232892666665038,8.879786834263594,4.573099339498969,-0.45666666666666667,-0.28444444444444444,-0.2588888888888889,0.11429837251924235,-0.05393242311011374,-0.0804558391718745
1592167867.0394642,-0.3603178928746556,8.896234903691994,4.7645710688115095,-0.45666666666666667,-0.28444444444444444,-0.2588888888888889,0.1436597841627076,-0.05539773386938333,-0.1162495162534481
1592167867.0494642,-0.5785644645616412,8.994345974122808,4.223662297618538,-0.44320583307152583,-0.2952131113205571,-0.26606800013963067,0.14235581036153372,-0.09665940415764614,-0.08357663304315534
1592167867.0594642,-0.4932059804419351,8.894119031715606,4.3889364715113715,-0.44,-0.29777777777777775,-0.2677777777777778,0.12095504657577233,-0.13352735421235898,-0.042476218555021275
1592167867.0694642,-0.4830206802049328,8.936910239520934,4.450653148262189,-0.44,-0.29777777777777775,-0.2677777777777778,0.12048936630763697,-0.1516697082205982,-0.0334521867877905
1592167867.0794642,-0.42451042000989486,9.003627486423165,4.3056278164121355,-0.44,-0.29777777777777775,-0.2677777777777778,0.11656391480578013,-0.17541425404398042,-0.0018323112242199235
1592167867.0894642,-0.2862394007592793,9.015693315540561,4.276337580809634,-0.44,-0.29777777777777775,-0.2677777777777778,0.11229759586882443,-0.1694512425217664,0.04095404867813069
1592167867.0994642,-0.20591133425056407,8.949531946535492,4.190898333556095,-0.4368547952533226,-0.3017092837111245,-0.26148736828442304,0.11536064469381523,-0.12870824022511362,0.050247
1592167867.1094642,-0.22425002942567004,8.971176253555882,3.9239568405973877,-0.43555555555555553,-0.30333333333333334,-0.2588888888888889,0.10557179293979849,-0.07379504905470996,0.05029933203982314
1592167867.1194642,-0.24444501602399266,8.900968160337124,3.77161711289365,-0.43555555555555553,-0.30333333333333334,-0.2588888888888889,0.07661329215626042,-0.019732157250336252,0.03225746074184063
1592167867.1294641,-0.49015046334301354,8.900808395891476,3.6817442535725076,-0.43555555555555553,-0.30333333333333334,-0.2588888888888889,0.02851466823789931,-0.012414279897227432,-0.02295796374241653
1592167867.1394641,-0.8120082701439959,8.937711062786285,3.5780790732448677,-0.43555555555555553,-0.30333333333333334,-0.2588888888888889,-0.03445119606152129,-0.05297480945076649,-0.07364691858425751
1592167867.1494641,-0.942757590437372,8.979414446588105,3.7217932341955167,-0.4442418310888402,-0.30333333333333334,-0.2541509204161882,-0.09642605193117336,-0.11615624956468366,-0.08301209034219084
1592167867.1594641,-0.7294550740004389,8.975498056343657,3.929517438932195,-0.4477777777777778,-0.30333333333333334,-0.25222222222222224,-0.14833690155791435,-0.1655053849683682,-0.061676840141231294
1592167867.169464,-0.4524564861736871,8.96598764566016,4.311953994485748,-0.4477777777777778,-0.30333333333333334,-0.25222222222222224,-0.17419099391997833,-0.18199862560143468,-0.023606490255175826
1592167867.179464,-0.13927806835824963,8.893390052958072,4.639003366291879,-0.4477777777777778,-0.30333333333333334,-0.25222222222222224,-0.15818346374845507,-0.15493139891720364,-0.014021344635284861
1592167867.189464,-0.0029714072944841755,8.906476307082828,4.677877600553158,-0.4477777777777778,-0.30333333333333334,-0.25222222222222224,-0.1280998492506705,-0.11800755658979069,-0.025042590743468453
1592167867.199464,0.012511487764819057,8.91722075149195,4.481052468101334,-0.45699575741163423,-0.3125513129671898,-0.26994910613348466,-0.10174274153201898,-0.06096846255985322,-0.050276694875957914
1592167867.209464,-0.06816056963310446,8.975075386563011,4.363057312368711,-0.4622222222222222,-0.31777777777777777,-0.28,-0.09578188350261478,-0.055589883502614776,-0.04748296287854523
1592167867.219464,-0.11143644016303626,8.921327160982237,4.447437509076719,-0.4622222222222222,-0.31777777777777777,-0.28,-0.08396348578358083,-0.03963392375960203,-0.052489609831538414
1592167867.229464,-0.14663855343721705,9.028149604999033,4.341827964020732,-0.4622222222222222,-0.31777777777777777,-0.28,-0.07304140495504784,-0.034958372437978606,-0.050128114066650735
1592167867.239464,-0.22543636981888554,8.90874954804672,4.442503288116641,-0.4622222222222222,-0.31777777777777777,-0.28,-0.06904940712400169,-0.05037293589170927,-0.03139172109257977
1592167867.249464,-0.3480352924925053,8.964347533240048,4.582053893125147,-0.4708486641794245,-0.313072445801122,-0.30195821589106037,-0.06319997601368033,-0.07375798936044171,-0.017074929726234114
1592167867.259464,-0.33379465808951525,8.975598098661823,4.8589569726256086,-0.47444444444444445,-0.3111111111111111,-0.3111111111111111,-0.0372869434965759,-0.08102220893550474,0.006924374165033231
1592167867.269464,-0.10998410138461757,8.84731655149381,4.968828217109034,-0.47444444444444445,-0.3111111111111111,-0.3111111111111111,0.026553350515558433,-0.0228810685024146,-0.042277385479125434
1592167867.279464,-0.2508135933584177,8.948055211370358,4.705895648082217,-0.47444444444444445,-0.3111111111111111,-0.3111111111111111,0.06904180773007772,-0.06270763883819283,-0.09381111914004295
1592167867.289464,-0.3129902711016477,8.957145736603598,4.546244935652233,-0.47444444444444445,-0.3111111111111111,-0.3111111111111111,0.09150667574074488,-0.06265192279675111,-0.08795188639895454
1592167867.299464,-0.3121851044204559,8.94325282435277,4.451345239034394,-0.46238742727298454,-0.3187260693246647,-0.29461203498174493,0.09784999854217344,-0.1059517505944354,-0.0754604786068459
1592167867.309464,-0.3066383288904206,8.922794950626969,4.395150262551133,-0.4533333333333333,-0.3244444444444444,-0.2822222222222222,0.10418292985602362,-0.11966621132822683,-0.077576
1592167867.319464,-0.2214994296324191,8.881265679593318,4.333338752110311,-0.4533333333333333,-0.3244444444444444,-0.2822222222222222,0.09085197542222523,-0.12227110922569867,-0.06431568252693148
1592167867.329464,-0.10940145562452554,8.861563915266347,4.321723855408046,-0.4533333333333333,-0.3244444444444444,-0.2822222222222222,0.0783155462575622,-0.1281579830161686,-0.04701335793065663
1592167867.339464,-0.045719992618759045,8.873875868756413,4.369675918409657,-0.4533333333333333,-0.3244444444444444,-0.2822222222222222,0.06119597519271181,-0.16045171487709237,-0.03487780295194076
1592167867.349464,0.13619617076012963,8.882303996455239,4.407036736270465,-0.45732324831427734,-0.3277693735952311,-0.27823230724127823,0.05643264367638405,-0.1308577094691442,-0.008129988774956777
1592167867.359464,0.3340523326646111,8.815514615436486,4.322358407082289,-0.46,-0.33,-0.27555555555555555,0.05791468772659374,-0.06679839147436653,-0.055091886364498785
1592167867.369464,0.026450327154455916,8.857924203707327,4.088891391959468,-0.46,-0.33,-0.27555555555555555,0.03322021012826153,-0.07368344840056472,-0.08483876882770763
1592167867.379464,-0.2782531681870391,8.934156237789042,4.218265439173066,-0.46,-0.33,-0.27555555555555555,0.006343111819759944,-0.07947706191272978,-0.056525012005699614
1592167867.389464,-0.3223642100729798,8.95637081781302,4.285498948908361,-0.46,-0.33,-0.27555555555555555,-0.001783495016049581,-0.05157435473627197,-0.023453205646627746
1592167867.399464,-0.3005456985466125,8.949333777813939,4.294817208480001,-0.46317753373300086,-0.3414391214388031,-0.2997048119263621,-0.003656000646575025,-0.07359081439410066,-0.024927405321815328
1592167867.409464,-0.30573497673689976,8.97141431002404,4.3207348716323954,-0.46555555555555556,-0.35,-0.31777777777777777,0.001762076596583884,-0.07077,-0.04961963367600892
1592167867.4194639,-0.34712854139415394,8.982878569358087,4.466540650937811,-0.46555555555555556,-0.35,-0.31777777777777777,0.016294683854025306,-0.07320802953998637,-0.06311758442850073
1592167867.4294639,-0.279148984690611,8.998908685836318,4.533639015769221,-0.46555555555555556,-0.35,-0.31777777777777777,0.040495385573545296,-0.06585749241517345,-0.06952012201128126
1592167867.4394639,-0.16653515050684425,8.839761722287893,4.424363834114308,-0.46555555555555556,-0.35,-0.31777777777777777,0.04764946541673841,-0.06012,-0.05295946541673841
1592167867.4494638,-0.08696173020510667,8.889251346134008,4.145200247159598,-0.4680185334467882,-0.35,-0.31137403526057295,0.02419552567572194,-0.08942667995482267,-0.05540710281527231
1592167867.4594638,-0.1658973890600759,8.869504180308528,4.099718404338012,-0.4711111111111111,-0.35,-0.30333333333333334,-0.0001226097316456981,-0.08648214137073008,-0.04915546715575351
1592167867.4694638,-0.13911716685082978,8.89680306256998,4.155865946337718,-0.4711111111111111,-0.35,-0.30333333333333334,-0.02578267840893577,-0.08186937608780101,-0.03728072413199708
1592167867.4794638,-0.2980872853548819,8.922531561055457,4.223475969137744,-0.4711111111111111,-0.35,-0.30333333333333334,-0.04876213345357336,-0.1221791299046125,-0.03802417855433887
1592167867.4894638,-0.25755095637751657,8.96365996432043,4.559557214782108,-0.4711111111111111,-0.35,-0.30333333333333334,-0.047213092832766895,-0.10853193561448538,-0.012630374826131323
1592167867.4994638,-0.059807343009273754,8.858183169671568,4.700746794593741,-0.463750009315775,-0.3604282275433929,-0.3149884111759489,-0.022405398646066787,-0.08892435746887324,-0.02102829811020678
1592167867.5094638,-0.05579487520231414,8.928070473408145,4.736681079351066,-0.4577777777777778,-0.3688888888888889,-0.3244444444444444,-0.001727373451761687,-0.103176921483473,0.0021006733429344126
1592167867.5194638,-0.009834112063956901,9.005005225004227,4.9343260501214905,-0.4577777777777778,-0.3688888888888889,-0.3244444444444444,0.042860126067888256,-0.10528608912482085,0.0457789347907596
1592167867.5294638,0.0773483437778961,8.814814502826405,4.979610993975551,-0.4577777777777778,-0.3688888888888889,-0.3244444444444444,0.09740462596790883,-0.06574060615461191,0.03443704242904907
1592167867.5394638,0.08917018688139025,8.854584956484011,4.633796776738432,-0.4577777777777778,-0.3688888888888889,-0.3244444444444444,0.14137125940007675,-0.003708150011306947,-0.0010610488790838003
1592167867.5494637,-0.018796990664513416,8.915816870958153,4.532197539907128,-0.4708008419433371,-0.3596642184382844,-0.3314986042007891,0.16128302742615794,0.021094339115356457,-0.01575006493240446
1592167867.5594637,-0.11746285377187954,8.901062901879342,4.481381677576776,-0.48444444444444446,-0.35,-0.3388888888888889,0.17927753828781623,0.03486401915687598,-0.02706232807380084
1592167867.5694637,-0.1717292217323422,9.016089627272965,4.280035890142192,-0.48444444444444446,-0.35,-0.3388888888888889,0.1833417253831778,0.04102205528446819,-0.01624260451811255
1592167867.5794637,-0.21979252221899187,8.96617003212844,4.140960182243435,-0.48444444444444446,-0.35,-0.3388888888888889,0.17626625010522903,0.023834670516685405,-0.005956068364968084
1592167867.5894637,-0.13276372470917103,9.005113425652226,4.067490708374595,-0.48444444444444446,-0.35,-0.3388888888888889,0.1541627615755549,0.016904249089688697,-0.00013503735009387486
1592167867.5994637,-0.15633060651239636,9.013984353680975,4.115498536298429,-0.49392890949079876,-0.36264595339513905,-0.3457387803112559,0.13287059926897957,-0.004280837113361207,0.022115068061783077
1592167867.6094637,-0.14387342526352145,9.023885338435738,4.25609816549389,-0.5044444444444445,-0.37666666666666665,-0.35333333333333333,0.12970554932690767,-0.019154892910882945,0.06328238597022175
1592167867.6194637,-0.003719061400180107,8.986974004698057,4.347522304843695,-0.5044444444444445,-0.37666666666666665,-0.35333333333333333,0.14658315117785065,0.01839404992874672,0.09659941976586733
1592167867.6294637,0.08784333477785872,8.930875438243813,4.19181481783176,-0.5044444444444445,-0.37666666666666665,-0.35333333333333333,0.15727046572267725,0.08344221829627482,0.09006500272386188
1592167867.6394637,0.12179014219049573,8.931706999957152,3.8699905330606352,-0.5044444444444445,-0.37666666666666665,-0.35333333333333333,0.14252464998465997,0.15922484585178268,0.0595239916728853
1592167867.6494637,-0.09747053660465844,9.031387817671593,3.73457178278878,-0.49811728670708755,-0.3730511479596056,-0.3619201902626034,0.10765476893502336,0.1675685606136882,0.06040118202095317
1592167867.6594636,-0.2214386511042538,9.051479266339772,3.8993270027397164,-0.4888888888888889,-0.36777777777777776,-0.37444444444444447,0.07421536390450231,0.15395085672237588,0.08890665980768592
1592167867.6694636,-0.2587226870537089,9.039379466001993,4.026782638699462,-0.4888888888888889,-0.36777777777777776,-0.37444444444444447,0.05635342773464815,0.15608273090912728,0.11727137399512912
1592167867.6794636,-0.20034922246755363,8.910575125220184,3.908929233741967,-0.4888888888888889,-0.36777777777777776,-0.37444444444444447,0.040571593609945715,0.19168980385487752,0.09459467826492557
1592167867.6894636,-0.22912317477598965,9.061533700613404,3.7713076413153632,-0.4888888888888889,-0.36777777777777776,-0.37444444444444447,-0.0018117137278285608,0.16798478166836922,0.09123012550208902
1592167867.6994636,-0.1612791446170719,8.906320052438726,3.9441442680339898,-0.4907972858354538,-0.3655513146734521,-0.37667090754877014,-0.03093734162757095,0.16202791701901154,0.08019404733857267
1592167867.7094636,-0.12266333998530608,8.999237228541892,4.027988867111472,-0.4955555555555556,-0.36,-0.38222222222222224,-0.05242427422755959,0.1634061562567652,0.06316068813752684
1592167867.7194636,-0.15928734785602863,9.061719903719391,4.311567866744308,-0.4955555555555556,-0.36,-0.38222222222222224,-0.05983,0.13012810600584068,0.08933165425688634
1592167867.7294636,-0.03787929638981845,8.914711385756506,4.460679786980148,-0.4955555555555556,-0.36,-0.38222222222222224,-0.04419629094317268,0.15064400575315273,0.08326408671486364
1592167867.7394636,-0.11860644865472214,8.994994441261891,4.235416928697019,-0.4955555555555556,-0.36,-0.38222222222222224,-0.033398069211738955,0.15076393840113075,0.0628062768469558
1592167867.7494636,-0.2705113268983258,9.094816088138986,4.156412447841831,-0.4955555555555556,-0.3631631231634282,-0.3861152968849031,-0.04561894054468605,0.0987480141871664,0.08895101908728217
1592167867.7594635,-0.2499478781541974,8.93201814388827,4.141814714438986,-0.4955555555555556,-0.37444444444444447,-0.4,-0.04970441780066795,0.079437,0.09950569647156958
1592167867.7694635,-0.17674498856377321,8.90969862630267,3.8796898069350707,-0.4955555555555556,-0.37444444444444447,-0.4,-0.06978314047954262,0.08382160588468152,0.05593272652863223
1592167867.7794635,-0.2321124996103273,9.036826378085733,3.7449708644425717,-0.4955555555555556,-0.37444444444444447,-0.4,-0.11228518637714538,0.044925669942344384,0.054198405824386245
1592167867.7894635,-0.0685872951650833,8.950579070408846,4.026331373402095,-0.4955555555555556,-0.37444444444444447,-0.4,-0.13722630551437703,0.03929370228556963,0.061632841059036415
1592167867.7994635,0.1047114559739592,8.873579662211739,4.172038584482813,-0.4931391111808498,-0.3808882961103266,-0.4048328887494116,-0.14785573451846173,0.06221979005292689,0.0027517601744812895
1592167867.8094635,-0.16340774359206967,9.039187422328387,4.2613462272496125,-0.4888888888888889,-0.39222222222222225,-0.41333333333333333,-0.14758849284248796,0.04945819255766615,-0.016210492842487947
1592167867.8194635,-0.33253090403971564,9.064562467061249,4.466461545637831,-0.4888888888888889,-0.39222222222222225,-0.41333333333333333,-0.13936389233645502,0.00850763455992119,-0.008069488198320082
1592167867.8294635,-0.37869736861713454,9.091066591595782,4.507651352237526,-0.4888888888888889,-0.39222222222222225,-0.41333333333333333,-0.11365323116079622,-0.017426327561556012,-0.0005254033722838518
1592167867.8394635,-0.4407602934906156,9.095146671716272,4.483284982835023,-0.4888888888888889,-0.39222222222222225,-0.41333333333333333,-0.08229625887447177,-0.07732331420167216,0.0047708596522871
1592167867.8494635,-0.1954592220494145,8.972888983833307,4.465765773711361,-0.4872745631258247,-0.38092194188077266,-0.42366501821694436,-0.06302340663175593,-0.07665257395733813,0.012985394328727886
1592167867.8594635,-0.13790154430634582,8.979643934754977,4.188168422380244,-0.48333333333333334,-0.35333333333333333,-0.4488888888888889,-0.0728184362449102,-0.10639684273197535,0.01440698771086782
1592167867.8694634,-0.06626612663720703,9.039826122370494,4.282072021336382,-0.48333333333333334,-0.35333333333333333,-0.4488888888888889,-0.07709245957871344,-0.11115883475352763,0.051185079487047154
1592167867.8794634,0.23345106771354712,8.82492100496775,4.394034599420935,-0.48333333333333334,-0.35333333333333333,-0.4488888888888889,-0.07334017668821977,-0.08316448440799612,0.027428482690695463
1592167867.8894634,0.30772051304608394,8.978715487379763,4.577648834190503,-0.48333333333333334,-0.35333333333333333,-0.4488888888888889,-0.06123490032631973,-0.08005609856237818,0.04103769430838734
1592167867.8994634,0.28691684974337683,8.933885507932604,4.704857155495036,-0.4858558540409687,-0.35998361519891753,-0.445678407988262,-0.026323524411326463,-0.062256,0.035051420813052715
1592167867.9094634,0.2130000775055834,9.037013828047249,4.725101860864205,-0.4955555555555556,-0.38555555555555554,-0.43333333333333335,0.013776374138493006,-0.05012158332522773,0.023931042536279264
1592167867.9194634,0.049882576185064725,9.010045087389104,4.566512469821113,-0.4955555555555556,-0.38555555555555554,-0.43333333333333335,0.06749874260271192,-0.02949097233938686,-0.010511136287788148
1592167867.9294634,-0.05650621774506544,9.041591446971191,4.36894469338164,-0.4955555555555556,-0.38555555555555554,-0.43333333333333335,0.09585145898343,-0.031064068556025747,-0.017017110338831208
1592167867.9394634,-0.0020445614513507904,8.96837482458054,4.290378336761938,-0.4955555555555556,-0.38555555555555554,-0.43333333333333335,0.10879972407758082,-0.05229539395455399,-0.0026061099621736616
1592167867.9494634,0.0942465986695168,8.93208594391963,4.350758453548722,-0.4970683198539825,-0.38427552422611744,-0.43333333333333335,0.12048713598689317,-0.03689773848891885,-0.02930288071945562
1592167867.9594634,0.19840186716033548,9.006572241440745,4.207971426490492,-0.51,-0.37333333333333335,-0.43333333333333335,0.13299569027158734,-0.006867179887847707,-0.04286446993790118
1592167867.9694633,0.1255046021153556,8.925613308867065,4.156827962670814,-0.51,-0.37333333333333335,-0.43333333333333335,0.13270010393536813,0.005520908347439209,-0.07632411332687447
1592167867.9794633,0.10377998492386444,8.981876184450561,3.986636382154369,-0.51,-0.37333333333333335,-0.43333333333333335,0.10504785281296254,0.006092483286676918,-0.05831656520628728
1592167867.9894633,0.041880361095612884,8.939948466035723,4.0120493708220115,-0.51,-0.37333333333333335,-0.43333333333333335,0.07204179641826593,0.0019368531077197145,-0.023960176329966054
1592167867.9994633,0.12604550540325277,9.032083579558337,4.071134695247367,-0.5080293039502416,-0.37333333333333335,-0.4357588053945745,0.042049502350896766,-0.01974882458600509,-0.004549077015339499
1592167868.0094633,0.11844918116239753,8.953338482449974,4.147898924408372,-0.4811111111111111,-0.37333333333333335,-0.4688888888888889,0.038520584532271335,-2.3142506238056008e-05,-0.04692924705997856
1592167868.0194633,-0.035705853314847484,8.982057845476222,4.236359,-0.4811111111111111,-0.37333333333333335,-0.4688888888888889,0.048620467147292165,-0.0030740389444322965,-0.0696792318670003
1592167868.0294633,-0.008581379442825214,8.999217260552463,4.2476746205571745,-0.4811111111111111,-0.37333333333333335,-0.4688888888888889,0.041382,0.01873451130610141,-0.03808654832759129
1592167868.0394633,0.08038828979830322,8.954167567774226,4.316955102835894,-0.4811111111111111,-0.37333333333333335,-0.4688888888888889,0.04241437625470707,0.03864309880835727,-0.017048670206454723
1592167868.0494633,0.12410005308418967,9.080345297978988,4.348493605498794,-0.4812792863262189,-0.37390512906469997,-0.4688888888888889,0.049750550311368866,0.04316428872139917,0.02879954755121315
1592167868.0594633,0.21453258533117356,8.952302777483894,4.281377650827056,-0.4866666666666667,-0.39222222222222225,-0.4688888888888889,0.07058803716971118,0.08041258350051746,0.01190299299076922
1592167868.0694633,0.12806151504006882,9.056506166441125,4.1563782753741645,-0.4866666666666667,-0.39222222222222225,-0.4688888888888889,0.07419340245098169,0.09272902900211728,0.036863516561110414
1592167868.0794632,0.1429444721775055,8.936820988311055,4.157773235207735,-0.4866666666666667,-0.39222222222222225,-0.4688888888888889,0.07067151401767664,0.1196696356239669,0.05438790768830663
1592167868.0894632,0.26722160453266314,8.969396170656719,3.821968785182068,-0.4866666666666667,-0.39222222222222225,-0.4688888888888889,0.03336937197713416,0.1331861266244259,0.048454325919003845
1592167868.0994632,0.2711421518428474,8.92225246275346,3.857244993080072,-0.4866666666666667,-0.39124289250117067,-0.47182687805204365,-0.006318926955522542,0.1602832054568582,0.06851561972556056
1592167868.1094632,0.4549641452503023,8.957714825510418,3.7972539417683193,-0.4866666666666667,-0.38555555555555554,-0.4888888888888889,-0.07589340493737184,0.18139115431698918,0.14956803420241963
1592167868.1194632,0.6507217299192867,8.927268847497496,3.9661715296529207,-0.4866666666666667,-0.38555555555555554,-0.4888888888888889,-0.12715445496568667,0.16814635595347757,0.18157795335151122
1592167868.1294632,0.5954111231974705,8.843344518927966,4.3212539476636005,-0.4866666666666667,-0.38555555555555554,-0.4888888888888889,-0.12920145238498962,0.22148246074668387,0.15157594812788122
1592167868.1394632,0.38981361266127323,8.966806116755354,4.429405122310037,-0.4866666666666667,-0.38555555555555554,-0.4888888888888889,-0.11407075799121057,0.24982570059125395,0.14576897835535005
1592167868.1494632,0.4609514034079985,8.884329355042198,4.49596472001931,-0.4875256161314414,-0.38398081487013525,-0.4888888888888889,-0.09482810688716395,0.29685207697306404,0.110094854276407
1592167868.1594632,0.3574573433210455,8.917568081709673,4.281768176536242,-0.49333333333333335,-0.37333333333333335,-0.4888888888888889,-0.08715669026831963,0.3033782129100734,0.07937730973168038
1592167868.1694632,0.21670619976747615,8.986363981771651,4.218567569067428,-0.49333333333333335,-0.37333333333333335,-0.4888888888888889,-0.10044194152144742,0.2730234906770072,0.09514911075674254
1592167868.1794631,0.23499258846801463,8.984305797408373,4.341578482546525,-0.49333333333333335,-0.37333333333333335,-0.4888888888888889,-0.09881829427432583,0.24479061586954884,0.10863166210241014
1592167868.1894631,0.24474886834844634,9.01925520261902,4.40133770793065,-0.49333333333333335,-0.37333333333333335,-0.4888888888888889,-0.08751388047876862,0.22019020310231074,0.11539029045456452
1592167868.1994631,0.27203978717191346,8.99708313323901,4.444890659393931,-0.49333333333333335,-0.37333333333333335,-0.4888888888888889,-0.06524045437500285,0.21482016332760176,0.11242494435780809
1592167868.2094631,0.2898158305263034,9.000935534162087,4.434560701060156,-0.5011111111111111,-0.39222222222222225,-0.5255555555555556,-0.04904407149254763,0.21783364732422575,0.11740477684409611
1592167868.219463,0.39171519956031114,9.030900377348893,4.346564751113293,-0.5011111111111111,-0.39222222222222225,-0.5255555555555556,-0.038559022355183666,0.22213697764481632,0.12741198407516435
1592167868.229463,0.2721685784015017,8.914449706008943,4.326858492266662,-0.5011111111111111,-0.39222222222222225,-0.5255555555555556,-0.03171512811284641,0.19586065122491728,0.1063755231120709
1592167868.239463,0.047177685599683404,8.966702052578604,4.409971296268741,-0.5011111111111111,-0.39222222222222225,-0.5255555555555556,-0.01118002975568982,0.18281720823432387,0.067324611210692
1592167868.249463,0.029134025607907833,8.978569353376303,4.466219499676675,-0.5004889248471772,-0.39222222222222225,-0.5266302409205322,0.019104906458678586,0.19191432089964616,0.025348955095242223
1592167868.259463,0.10935574817470049,8.981465368477817,4.414024218534492,-0.4888888888888889,-0.39222222222222225,-0.5466666666666666,0.036939723680197725,0.1732725665280375,0.0038742154063842156
1592167868.269463,0.15511196335463945,8.9873137680648,4.452301548579115,-0.4888888888888889,-0.39222222222222225,-0.5466666666666666,0.04640318320889102,0.13906727604256278,0.011376908320881358
1592167868.279463,0.22797463851561872,9.013560370297206,4.459102917152636,-0.4888888888888889,-0.39222222222222225,-0.5466666666666666,0.05727921817538835,0.11584808914516184,0.02820145697491759
1592167868.289463,0.18698327179111418,8.931783888452822,4.32364582250858,-0.4888888888888889,-0.39222222222222225,-0.5466666666666666,0.0655564248762807,0.1155559740897074,0.030541857107127493
1592167868.299463,0.08191673773402747,8.987158053160305,4.294079238889212,-0.4888888888888889,-0.39222222222222225,-0.5466666666666666,0.0646184992615608,0.0892041320796024,0.05121979711534753
1592167868.309463,0.0939904056866101,8.878682050589921,4.327840306540979,-0.4888888888888889,-0.4,-0.5544444444444444,0.06378680309139355,0.0988244877548846,0.043932854756583505
1592167868.319463,0.09156763263675974,8.96318225862786,4.103737797669803,-0.4888888888888889,-0.4,-0.5544444444444444,0.05111421137167726,0.1182435112779181,0.028946
1592167868.329463,0.1656245411723819,8.827707568032878,4.062639117379197,-0.4888888888888889,-0.4,-0.5544444444444444,0.03653390973271287,0.14622850302594126,0.012623610327511173
1592167868.339463,0.07405678709351005,8.933307374193207,3.861713436288328,-0.4888888888888889,-0.4,-0.5544444444444444,-0.015370713597337222,0.10486605699774156,0.01859961114562994
1592167868.349463,0.17968215304767227,8.819887689185602,4.219464115425096,-0.4888888888888889,-0.4,-0.5544444444444444,-0.04297802018291177,0.13885399979899699,0.040665
1592167868.359463,0.31360014234993566,8.894015063250398,4.228756538614168,-0.48444444444444446,-0.38555555555555554,-0.5755555555555556,-0.06828834476916551,0.192352,0.0453725872946317
1592167868.369463,0.34143913573022405,8.910943110192518,4.310745168852225,-0.48444444444444446,-0.38555555555555554,-0.5755555555555556,-0.08023270615173006,0.19350366131918154,0.04402370615173007
1592167868.379463,0.19808011353592345,8.886260666622967,4.449202619755664,-0.48444444444444446,-0.38555555555555554,-0.5755555555555556,-0.08567254867003218,0.18336807474177166,0.06687707831484571
1592167868.389463,0.15988805681169294,8.981597271727551,4.511825519207746,-0.48444444444444446,-0.38555555555555554,-0.5755555555555556,-0.08613490068699463,0.16436613886475335,0.1220072468417814
1592167868.399463,0.25181836113541595,8.93084985031194,4.557482742816756,-0.48444444444444446,-0.38555555555555554,-0.5755555555555556,-0.06406643431028115,0.16146328353391962,0.1365198498078258
1592167868.409463,0.1376738044205424,8.949429626259287,4.434887810604803,-0.49696911870957483,-0.3893129578350947,-0.5793129578350946,-0.045011917133159454,0.16267858518896441,0.11651185891211012
1592167868.419463,0.10801906492766195,8.945108621665687,4.284436259737352,-0.5066666666666667,-0.39222222222222225,-0.5822222222222222,-0.03562589597199759,0.21083411675057245,0.10287099452527211
1592167868.429463,0.0881972366588634,8.924652410906177,4.217162607891283,-0.5066666666666667,-0.39222222222222225,-0.5822222222222222,-0.033093790876343954,0.21635393158008717,0.054920206951047594
1592167868.439463,-0.08990369856824901,8.922570943354584,4.26648737677891,-0.5066666666666667,-0.39222222222222225,-0.5822222222222222,-0.022202815585095886,0.23599130951886318,-0.0012615375776728471
1592167868.449463,-0.26138712233693806,8.997470744822303,4.2194072281200645,-0.5066666666666667,-0.39222222222222225,-0.5822222222222222,-0.022855291187852893,0.19882328217587483,-0.02141872826718239
1592167868.459463,-0.2565418259588182,8.957295872810615,4.32127232539913,-0.4791000780255431,-0.39844693578634693,-0.5928931597607217,-0.04508810092489163,0.16695476976691345,0.02220101539516296
1592167868.4694629,-0.05831804706475361,8.94373051321525,4.3897765450426025,-0.4722222222222222,-0.4,-0.5955555555555555,-0.05281814511248991,0.1455336067349292,0.034476951629170034
1592167868.4794629,-0.07734228521616637,8.930073909848216,4.550720579768619,-0.4722222222222222,-0.4,-0.5955555555555555,-0.054367698568571085,0.08052823077820873,0.049451602862857824
1592167868.4894629,-0.03395323071515911,8.898415740809618,4.64842562510824,-0.4722222222222222,-0.4,-0.5955555555555555,-0.03482784398670751,0.07063660629835081,0.05212867335246555
1592167868.4994628,0.051718400473719686,8.977673204084702,4.623316051020062,-0.4722222222222222,-0.4,-0.5955555555555555,-0.009145082002531552,0.070908,0.03526948978543126
1592167868.5094628,-0.025434025460778435,8.981803154181485,4.534662660546455,-0.4784925222497477,-0.4047027250206441,-0.6002582805761997,0.02449936308791904,0.04440537872571204,0.003669031694377208
1592167868.5194628,-0.10820924549860797,8.940683434937053,4.3910525700005305,-0.4811111111111111,-0.4066666666666667,-0.6022222222222222,0.04278635419261706,0.05311000140970441,-0.02251848202057194
1592167868.5294628,-0.2121709168473279,8.9874121578423,4.329450856194709,-0.4811111111111111,-0.4066666666666667,-0.6022222222222222,0.03955534953333732,0.010090649701148022,-0.005419152438098141
1592167868.5394628,-0.2510312100726271,8.9636495086797,4.355400320218517,-0.4811111111111111,-0.4066666666666667,-0.6022222222222222,0.04072094147761112,-0.013902483812165106,0.010534066604524444
1592167868.5494628,-0.16090058405600166,8.925366215115849,4.391126069949682,-0.4811111111111111,-0.4066666666666667,-0.6022222222222222,0.045837529549252916,-0.020853794067474195,0.010834
1592167868.5594628,-0.07274849660440454,8.937313171546078,4.318193742307081,-0.4666666666666667,-0.39222222222222225,-0.6088888888888889,0.04782753507324563,-0.03371068847181825,0.007230816949247093
1592167868.5694628,-0.06173076768718963,8.941844482947026,4.293662245963759,-0.4666666666666667,-0.39222222222222225,-0.6088888888888889,0.03917097821815092,-0.0728245361725307,0.014112486909700347
1592167868.5794628,0.24280076770669695,8.845995777812607,4.289117261121509,-0.4666666666666667,-0.39222222222222225,-0.6088888888888889,0.03386356719868383,-0.02163509341454664,-0.017030072693199193
1592167868.5894628,0.14446871880299472,8.931983317062484,4.251741106156455,-0.4666666666666667,-0.39222222222222225,-0.6088888888888889,0.017559420186422,-0.09219885116323782,-0.030836789450952973
1592167868.5994627,0.24656986245396623,8.954219881524123,4.458380420429557,-0.4666666666666667,-0.39222222222222225,-0.6088888888888889,0.019259103592700406,-0.09310800520748158,-0.03788601375886598
1592167868.6094627,0.31214358875437925,8.954433324464496,4.203521148167096,-0.4633333333333333,-0.4122222222222222,-0.6377777777777778,0.02710829247358396,-0.07406399846267844,-0.09385353327491391
1592167868.6194627,-0.07789204158090479,8.893906732518571,4.288909055325202,-0.4633333333333333,-0.4122222222222222,-0.6377777777777778,0.011771074112494933,-0.13278584951526629,-0.052494265954882074
1592167868.6294627,0.1682346798286795,8.970592887174089,4.22380374171914,-0.4633333333333333,-0.4122222222222222,-0.6377777777777778,0.0007738579363350464,-0.1249556462200424,-0.0038020947091099693
1592167868.6394627,0.16785204103291368,8.91377533131466,4.185584937024978,-0.4633333333333333,-0.4122222222222222,-0.6377777777777778,-0.00595337486266107,-0.14116332144735322,-0.00796594658469217
1592167868.6494627,0.1277567651868574,8.931791604513066,4.260112916695379,-0.4633333333333333,-0.4122222222222222,-0.6377777777777778,-0.02153364073266398,-0.12366539760113203,-0.030107819284706974
1592167868.6594627,-0.051744848793855165,8.960286460393876,4.215104478593049,-0.44222222222222224,-0.4,-0.6233333333333333,-0.022256736770688314,-0.13931737573399072,-0.06370803073149181
1592167868.6694627,-0.0018579173990536102,8.954721329121469,4.3305076654847,-0.44222222222222224,-0.4,-0.6233333333333333,-0.018672227412026017,-0.14776539357713558,-0.06265584384306427
1592167868.6794627,0.128019479999935,8.982638455570475,4.413269856748188,-0.44222222222222224,-0.4,-0.6233333333333333,0.004405503648971223,-0.14452313213691315,-0.14368417163147942
1592167868.6894627,-0.015423778342393508,8.856559710667684,4.555600453744367,-0.44222222222222224,-0.4,-0.6233333333333333,0.027548019491028947,-0.11703505886235831,-0.20713418463040212
1592167868.6994627,-0.1904980702822811,8.899181012613832,4.580923740755321,-0.44222222222222224,-0.4,-0.6233333333333333,0.03140542993441608,-0.16443119030037262,-0.19030362003512785
1592167868.7094626,-0.1374573341845049,8.902698268807848,4.736407232867964,-0.4577777777777778,-0.39222222222222225,-0.6444444444444445,0.03251542092995789,-0.17428946219827654,-0.11622524932996507
1592167868.7194626,0.11769736913397885,8.993084508013736,4.685395695931188,-0.4577777777777778,-0.39222222222222225,-0.6444444444444445,0.06109576752312641,-0.17134574702961483,-0.08875575183030038
1592167868.7294626,0.21712797888243643,9.002953231332627,4.579891591682354,-0.4577777777777778,-0.39222222222222225,-0.6444444444444445,0.08207749103509578,-0.18708202958951245,-0.07374495116830548
1592167868.7394626,0.2641592188647225,8.945915996217579,4.296155320404962,-0.4577777777777778,-0.39222222222222225,-0.6444444444444445,0.09972418971379272,-0.15684743744316165,-0.06349908054029223
1592167868.7494626,0.20539686083840009,8.886711842005154,4.215405979188414,-0.4577777777777778,-0.39222222222222225,-0.6444444444444445,0.08589548614040043,-0.21279432177562618,-0.04034440798630487
1592167868.7594626,0.41423465224956635,9.0298958371453,4.236485299091897,-0.46555555555555556,-0.4122222222222222,-0.6377777777777778,0.07321223537779356,-0.1510898602177671,0.05898565776255074
1592167868.7694626,0.7786178378565782,8.875731365276984,4.0755713965224665,-0.46555555555555556,-0.4122222222222222,-0.6377777777777778,0.05216633308505019,-0.1207513618579395,0.039907276425563534
1592167868.7794626,0.493569983132361,8.931211715278682,4.201519845440361,-0.46555555555555556,-0.4122222222222222,-0.6377777777777778,0.026725583443855335,-0.14879561917411185,0.010986639655830317
1592167868.7894626,0.47956029179105086,8.919240950729202,4.226118299776885,-0.46555555555555556,-0.4122222222222222,-0.6377777777777778,0.032635854851185,-0.05094341699187114,0.009507294449345532
1592167868.7994626,0.5038791884115692,8.876064563362872,4.004944093026736,-0.46555555555555556,-0.4122222222222222,-0.6377777777777778,0.021979422201202612,-0.051822790408081354,-0.05662099359458386
1592167868.8094625,0.2723409849968144,8.993999867912553,4.008991817650916,-0.4388888888888889,-0.4266666666666667,-0.6377777777777778,0.0010380276784776668,-0.06424259140555003,-0.08437222578334994
1592167868.8194625,0.24490193492084855,9.07116210782922,4.162872587960627,-0.4388888888888889,-0.4266666666666667,-0.6377777777777778,-0.014429316879082018,-0.062093797657787594,-0.042046047471666625
1592167868.8294625,0.36086133789195113,8.974720289379938,4.286419826333038,-0.4388888888888889,-0.4266666666666667,-0.6377777777777778,-0.0009946239347527527,-0.07978568021334023,-0.053861411971139264
1592167868.8394625,0.21113039784010923,9.065100703263923,4.19498568109973,-0.4388888888888889,-0.4266666666666667,-0.6377777777777778,0.004721420323758547,-0.09674668933167883,-0.069061
1592167868.8494625,0.17735972161649463,9.050921847237575,4.117801069697474,-0.4388888888888889,-0.4266666666666667,-0.6377777777777778,0.007294,-0.09741508185167506,-0.04987446894065803
1592167868.8594625,0.26140816880477413,9.00024871314435,4.1440616112271185,-0.4281979263385949,-0.4266666666666667,-0.64360921189612,0.002536679143441891,-0.13622065193043484,-0.04564566892612326
1592167868.8694625,0.40111697203309227,9.031828160946885,4.12214521227044,-0.4266666666666667,-0.4266666666666667,-0.6444444444444445,0.0002976582582455837,-0.10595665229069501,-0.02488835997716881
1592167868.8794625,0.48790322056809377,9.016660966959407,4.010406620566443,-0.4266666666666667,-0.4266666666666667,-0.6444444444444445,-0.005368469867564603,-0.10020976909885845,-0.04163237222919075
1592167868.8894625,0.40987840224608174,9.00529393310476,4.086786163118512,-0.4266666666666667,-0.4266666666666667,-0.6444444444444445,-0.019689615618693014,-0.09933669646456413,-0.03607905213000728
1592167868.8994625,0.4787571353297678,9.011603748945745,4.003643752715955,-0.4266666666666667,-0.4266666666666667,-0.6444444444444445,-0.03631465839933261,-0.099900188066018,-0.03508457120366345
1592167868.9094625,0.5215297013877509,9.048092287922175,4.096560997020653,-0.4200058526027518,-0.4371336601956757,-0.626365091985247,-0.0566415074595322,-0.13513162635837345,-0.012152345738529843
1592167868.9194624,0.6411256399239621,8.936763813742443,4.261074676140733,-0.41888888888888887,-0.4388888888888889,-0.6233333333333333,-0.057848193007118666,-0.142151,-0.010622193007118665
1592167868.9294624,0.632229721250716,9.025959860320372,4.281232443367796,-0.41888888888888887,-0.4388888888888889,-0.6233333333333333,-0.059249234619116846,-0.17396722413688392,-0.0037011905872292436
1592167868.9394624,0.4777446017119934,8.937389802625228,4.394591195891731,-0.41888888888888887,-0.4388888888888889,-0.6233333333333333,-0.04854290829078999,-0.17920135555198716,-0.007460467637640184
1592167868.9494624,0.6135309533051823,8.971371411680083,4.214000019295685,-0.41888888888888887,-0.4388888888888889,-0.6233333333333333,-0.04017701525190966,-0.1586974866679762,-0.028946367182504613
1592167868.9594624,0.4425833392413909,8.962118060823048,4.139818052410089,-0.4289933790617482,-0.4342959388103165,-0.6407865436319087,-0.042061400668409646,-0.18246480712241053,-0.06259476827407491
1592167868.9694624,0.3925201011863948,8.9921091720566,4.257757157912258,-0.4311111111111111,-0.43333333333333335,-0.6444444444444445,-0.0349832288321749,-0.18472090019213136,-0.0746767382507685
1592167868.9794624,0.45712194662707356,8.939921196043615,4.130561518694498,-0.4311111111111111,-0.43333333333333335,-0.6444444444444445,-0.04204158347364057,-0.18478434512011466,-0.0967205658707435
1592167868.9894624,0.4214583701877395,8.97963000380399,4.1918982310977695,-0.4311111111111111,-0.43333333333333335,-0.6444444444444445,-0.05171152400971548,-0.20793241023421746,-0.09854963577330422
1592167868.9994624,0.6396725636732059,8.961159043656247,4.3376979807722345,-0.4311111111111111,-0.43333333333333335,-0.6444444444444445,-0.052296673402048216,-0.18103723912348657,-0.08877754960239818
1592167869.0094624,0.839679806642902,8.86097095008432,4.5548003231972265,-0.41264357722913136,-0.42069765225618927,-0.6308367878998278,-0.03925874150010069,-0.1411855504914763,-0.09211796535941622
1592167869.0194623,0.8140987763891891,8.940718934844593,4.395350356243264,-0.41,-0.41888888888888887,-0.6288888888888889,-0.037589066601283534,-0.12698052018351516,-0.07556226996481541
1592167869.0294623,0.6840391647002239,9.02628472282267,4.497134783502267,-0.41,-0.41888888888888887,-0.6288888888888889,-0.03195829666597188,-0.13310061335774592,-0.011241719510052494
1592167869.0394623,0.8815819660064353,8.938876963207077,4.428741859187141,-0.41,-0.41888888888888887,-0.6288888888888889,-0.00707153955067275,-0.08593493900983881,-0.001967542713458557
1592167869.0494623,0.753615869056543,8.84857983789489,4.397994765513942,-0.41,-0.41888888888888887,-0.6288888888888889,0.008586364863403124,-0.07300490241244653,-0.05156497634067681
1592167869.0594623,0.5630416373896938,8.963174903329241,4.254983690013014,-0.41,-0.430633125158077,-0.6117242358800755,0.004333583667395881,-0.06227881080867993,-0.055963561810867576
1592167869.0694623,0.5875579139368389,8.95825498104488,4.2325649809487835,-0.41,-0.43333333333333335,-0.6077777777777778,-0.0021274173861569323,-0.054257642947371496,-0.013471437702365151
1592167869.0794623,0.6977317486608231,8.951384793522285,4.235563245424213,-0.41,-0.43333333333333335,-0.6077777777777778,-0.02086958762944407,-0.04551424019513912,0.027265161537940116
1592167869.0894623,0.8458301559176302,8.941491996432378,4.416813408981328,-0.41,-0.43333333333333335,-0.6077777777777778,-0.022006768821242677,-0.01632006976581762,0.04423113220738889
1592167869.0994623,0.7747483787751448,8.832065698922483,4.654346143154761,-0.41,-0.43333333333333335,-0.6077777777777778,0.012080809431724246,0.031047629508838704,-0.013132559841449174
1592167869.1094623,0.5111397345315156,8.955188680300704,4.6575901600669205,-0.38712206292938484,-0.46097750729366,-0.6011050461321816,0.05200154723448464,0.054412875260908294,-0.03509449493095246
1592167869.1194623,0.3996894386859944,8.974266925873174,4.498470703135375,-0.38333333333333336,-0.46555555555555556,-0.6,0.07772453332670694,0.05912270220366446,-0.02928168982779056
1592167869.1294622,0.4153190572524272,8.936799634772125,4.310229484073486,-0.38333333333333336,-0.46555555555555556,-0.6,0.08075618524504882,0.05062407301926463,-0.013618258077989345
1592167869.1394622,0.40858999268075646,8.965019377824758,4.280788007022497,-0.38333333333333336,-0.46555555555555556,-0.6,0.0702305117442196,0.03382968829075051,1.1574292632196559e-05
1592167869.1494622,0.37045403927495296,9.020858063728358,4.262618889614808,-0.38333333333333336,-0.46555555555555556,-0.6,0.06082836609874998,0.015799418937453978,0.035225051030434086
1592167869.1594622,0.5427284996801333,8.903593463486791,4.215147266859994,-0.3895450237665896,-0.45157925208072897,-0.6139763034748266,0.06153077451637561,0.028686562015376338,0.044442395443185005
1592167869.1694622,0.560716776611758,8.901150367780522,4.207933950338285,-0.39222222222222225,-0.44555555555555554,-0.62,0.054711627741755024,0.043051830171680974,0.005285138611066595
1592167869.1794622,0.47255203240594607,9.002714005270748,4.184416047360786,-0.39222222222222225,-0.44555555555555554,-0.62,0.05031556984962768,0.06914189876777929,0.004253610515091298
1592167869.1894622,0.5494446024646101,8.989114738896394,4.436263325267754,-0.39222222222222225,-0.44555555555555554,-0.62,0.058193993190372245,0.08906512867323635,0.020680399147238075
1592167869.1994622,0.5683957490693136,8.97038209963822,4.512780905702061,-0.3995333264597725,-0.44108765852149706,-0.612282723304808,0.0797319234297008,0.10141835768640302,0.021292679591060355
1592167869.2094622,0.48199231618862687,8.955601637511071,4.426291227197822,-0.40991204591538644,-0.4347451077430663,-0.6013274083238822,0.09459016468591762,0.09164408859129716,0.020029447289503982
1592167869.2194622,0.470932,9.006339073605487,4.2747831227179,-0.4122222222222222,-0.43333333333333335,-0.5988888888888889,0.096771,0.06596477974838655,0.02153207335733287
1592167869.2294621,0.5013866410403877,8.989054339325275,4.161919739656978,-0.4122222222222222,-0.43333333333333335,-0.5988888888888889,0.09044685549494641,0.038595408709578144,0.035551354003803555
1592167869.2394621,0.538810779661251,8.992776095857696,4.136548374362977,-0.4122222222222222,-0.43333333333333335,-0.5988888888888889,0.0820682842164525,0.014446752922113115,0.03651737281801028
1592167869.2494621,0.6303769377221332,8.94209112024141,4.226037747057976,-0.4122222222222222,-0.43333333333333335,-0.5988888888888889,0.0804477635590725,0.031651724556713105,0.024183713874605717
1592167869.259462,0.6349311909029712,8.880611293492121,4.101099200152292,-0.3879862776013881,-0.43333333333333335,-0.6023511666918652,0.07627188366551858,0.0394392951947605,-0.03244308399737369
1592167869.269462,0.4294995024020848,9.041718,4.107938022448492,-0.37333333333333335,-0.43333333333333335,-0.6044444444444445,0.06645066623917964,0.012707495840131006,-0.024051005598199622
1592167869.279462,0.4877586837813873,9.040972115371686,4.2836382359091205,-0.37333333333333335,-0.43333333333333335,-0.6044444444444445,0.06287689698306759,-0.014211352418844962,0.013398062553482578
1592167869.289462,0.587482713129909,9.035395443202457,4.240396775925106,-0.37333333333333335,-0.43333333333333335,-0.6044444444444445,0.06740484525622863,-0.029177176683541164,0.038346867195998426
1592167869.299462,0.606876465018131,9.017852762537595,4.111340223705863,-0.37333333333333335,-0.43333333333333335,-0.6044444444444445,0.061942195019955265,-0.04823808713834994,0.03623463692882951
1592167869.309462,0.5896643206880924,8.93853399223413,4.06575012350974,-0.3759007184660376,-0.44167733501462225,-0.599951520462212,0.05465498817786438,-0.04728642071908707,0.006826332878848637
1592167869.319462,0.5564768579116904,8.954287744983139,3.9061452959855254,-0.37777777777777777,-0.4477777777777778,-0.5966666666666667,0.04152386327499199,-0.044144,-0.028437623404512707
1592167869.329462,0.5360575898577725,8.978917050557454,3.8858909647293736,-0.37777777777777777,-0.4477777777777778,-0.5966666666666667,0.01893957941492356,-0.044144,-0.043243430601670685
1592167869.339462,0.6427289966637967,9.017305009544444,3.869690854615211,-0.37777777777777777,-0.4477777777777778,-0.5966666666666667,-0.006153757212248553,-0.042759348115102375,-0.049419593381257204
1592167869.349462,0.7351053994353224,9.068649058125855,4.148892961513838,-0.37777777777777777,-0.4477777777777778,-0.5966666666666667,-0.01785004135652382,-0.03304028688413555,-0.04325796701418368
1592167869.359462,0.8079661643738776,9.03212534446561,4.340827394247739,-0.3827312786055117,-0.4513159926547306,-0.5874673079865893,-0.0065439776040805316,-0.014961436149859494,-0.02403565901137971
1592167869.369462,0.7820274015299452,9.06256137727074,4.326499554152799,-0.38555555555555554,-0.4533333333333333,-0.5822222222222222,0.012723968863671633,-0.0011516288524321438,-0.013177309453978145
1592167869.379462,0.6079682396400273,9.056240488387042,4.185393373092235,-0.38555555555555554,-0.4533333333333333,-0.5822222222222222,0.0267598208985549,-0.004683809420761138,-0.003006
1592167869.389462,0.564122704052496,9.055628567133372,4.079388149991926,-0.38555555555555554,-0.4533333333333333,-0.5822222222222222,0.029350649961294162,-0.0036053236065508726,-0.0016300369000400309
1592167869.399462,0.6288919489189634,9.043606768576085,3.985716560650136,-0.38555555555555554,-0.4533333333333333,-0.5822222222222222,0.023199508397751673,0.01558422858665367,0.001749887418113169
1592167869.409462,0.6655725955057028,9.02468456459869,3.9565891460995397,-0.38138137634937125,-0.43961817308444207,-0.5822222222222222,0.010568265458742713,0.02582673158409386,-0.000885
1592167869.419462,0.636152651248644,9.058459178134221,3.9969926153684803,-0.37777777777777777,-0.42777777777777776,-0.5822222222222222,-0.006634628121312599,0.040097628121312595,0.00817656571138278
1592167869.429462,0.6449969512621782,9.048058635211927,4.196259301917088,-0.37777777777777777,-0.42777777777777776,-0.5822222222222222,-0.007893111444760195,0.05373611334663884,0.02841657488594437
1592167869.439462,0.7072603383603876,8.976987067182328,4.435088253806959,-0.37777777777777777,-0.42777777777777776,-0.5822222222222222,0.003133360117353149,0.07317998120199218,0.03588997067803472
1592167869.449462,0.662890273143027,8.965016596164316,4.491006470309581,-0.37777777777777777,-0.42777777777777776,-0.5822222222222222,0.031605422203956894,0.07957419952916331,0.025978985188030785
1592167869.459462,0.6383406437911489,8.93988585242434,4.525158194434351,-0.37777777777777777,-0.44772336113673256,-0.5822222222222222,0.06294829845778588,0.08559384366708658,0.013482763096292344
1592167869.469462,0.6415952974196618,8.974712756497622,4.46958674679315,-0.37777777777777777,-0.46,-0.5822222222222222,0.08712144993804749,0.0819747367722541,0.0021518671149953514
1592167869.479462,0.5919348946440575,9.022676352777907,4.3545810356872465,-0.37777777777777777,-0.46,-0.5822222222222222,0.10871097625394278,0.08426477822754455,0.004661806796593262
1592167869.489462,0.5238484075563992,9.032669079836502,4.257926486892167,-0.37777777777777777,-0.46,-0.5822222222222222,0.11603787789086588,0.07086488958121204,0.01731287789086587
1592167869.499462,0.5844131471573425,9.034842526608536,4.20303790611425,-0.37777777777777777,-0.46,-0.5822222222222222,0.120209,0.06560065811352156,0.026778838785633172
1592167869.5094619,0.5817378116847052,9.03978923169758,4.215344236488939,-0.37630574513414944,-0.4533758531036724,-0.5822222222222222,0.12856166453993598,0.065501048028495,0.03513718855418348
1592167869.5194619,0.6787904152840666,9.035516096529419,4.162367986004105,-0.37333333333333335,-0.44,-0.5822222222222222,0.13691254625211338,0.07377058740753618,0.039528666343129785
1592167869.5294619,0.7800581357268362,9.054777248893307,4.105106109770105,-0.37333333333333335,-0.44,-0.5822222222222222,0.140442,0.08447471960793733,0.04260887303667835
1592167869.5394619,0.8114519630737752,9.0103248734294,4.028777783785024,-0.37333333333333335,-0.44,-0.5822222222222222,0.14056585722976225,0.08381797320095118,0.03796968935121527
1592167869.5494618,0.7694822779846918,9.024622828640155,3.910955170528485,-0.37333333333333335,-0.44,-0.5822222222222222,0.1345030949280048,0.0818613019551383,0.023611568908821146
1592167869.5594618,0.6379488886178297,9.026600456186575,3.765624622855717,-0.36964642300998446,-0.4436869103233489,-0.5822222222222222,0.1145365746905492,0.07712770333557173,-0.003525721973879053
1592167869.5694618,0.47184051680246863,9.041693755015135,3.740152253148931,-0.3655555555555556,-0.4477777777777778,-0.5822222222222222,0.08175903918641135,0.05851284800838876,-0.031631004054484574
1592167869.5794618,0.3640599301577928,9.048187006682214,3.8221134185662717,-0.3655555555555556,-0.4477777777777778,-0.5822222222222222,0.058095497365287935,0.045126417532305764,-0.055777297855168995
1592167869.5894618,0.2522756123136831,9.050086676760156,3.9007234414448893,-0.3655555555555556,-0.4477777777777778,-0.5822222222222222,0.03899028745570773,0.020075281477753275,-0.07090748382449161
1592167869.5994618,0.21019488632554928,9.072368332561368,4.025772990578966,-0.3655555555555556,-0.4477777777777778,-0.5822222222222222,0.03161798789297285,-0.0034149175538504706,-0.08201401210702715
1592167869.6094618,0.2100596621845184,9.081522161220027,4.138662069804266,-0.37625440664091586,-0.4477777777777778,-0.5853427204554523,0.0335887190982677,-0.021328215724251837,-0.09329952921472436
1592167869.6194618,0.08748220763883514,9.092107693415121,4.111432851055854,-0.39222222222222225,-0.4477777777777778,-0.59,0.03781440837206706,-0.04659692900710518,-0.09923189388378446
1592167869.6294618,-0.09209690782216175,9.110017697156605,4.031462784148701,-0.39222222222222225,-0.4477777777777778,-0.59,0.041382,-0.0571227293203802,-0.09267877684093304
1592167869.6394618,-0.18592494322457337,9.140713943224572,3.9150333100026495,-0.39222222222222225,-0.4477777777777778,-0.59,0.034304660283871365,-0.06931733971612863,-0.07177142757709046
1592167869.6494617,-0.15840609910418338,9.101963360752087,3.8872480556991644,-0.39222222222222225,-0.4477777777777778,-0.59,0.02444014290461288,-0.06768314290461289,-0.05027050679622048
1592167869.6594617,-0.06647343330330506,9.11387152124527,3.8983744714152806,-0.3883531194626154,-0.4492658942237804,-0.59,0.012859721281799113,-0.063309,-0.035099087790329234
1592167869.6694617,-0.003111266275097522,9.129740879263945,3.9649383930607183,-0.37777777777777777,-0.4533333333333333,-0.59,0.004029954004054968,-0.06162634565493038,-0.025879477002027484
1592167869.6794617,0.03551858557458062,9.085065221652089,3.9184521916524053,-0.37777777777777777,-0.4533333333333333,-0.59,-0.0028391219619164003,-0.06278420496260995,-0.022182541500346774
1592167869.6894617,0.15280386401639873,9.070578606298396,3.9652890314919795,-0.37777777777777777,-0.4533333333333333,-0.59,-0.006561,-0.05809491632229464,-0.026347608082665976
1592167869.6994617,0.16052896546056458,9.06223494585466,3.9746306375555065,-0.37777777777777777,-0.4533333333333333,-0.59,-0.0081095913250602,-0.049310494849019414,-0.03204196520668434
1592167869.7094617,0.188373528069759,9.07282611745444,4.158440327518324,-0.37777777777777777,-0.4533333333333333,-0.5842936135965535,-0.0023329171592425895,-0.030487150802442263,-0.04255381037526792
1592167869.7194617,0.18535281017429345,9.062274209227192,4.25288919588006,-0.37777777777777777,-0.4533333333333333,-0.5688888888888889,0.013822092682542723,-0.013946148608336775,-0.05452024289039491
1592167869.7294617,0.07644133190314359,9.078042228275741,4.3057649856891596,-0.37777777777777777,-0.4533333333333333,-0.5688888888888889,0.03674467020887338,-0.0021061745301686253,-0.061209673102706155
1592167869.7394617,-0.09620017406155655,9.11315127236063,4.391594196148475,-0.37777777777777777,-0.4533333333333333,-0.5688888888888889,0.06314359456986293,0.003093533149531425,-0.05587802026048362
1592167869.7494617,-0.21511271875459692,9.11112505268121,4.348940734943424,-0.37777777777777777,-0.4533333333333333,-0.5688888888888889,0.09282936342604614,2.6083143892269072e-05,-0.037347860832288096
1592167869.7594616,-0.213482444577144,9.138688813492772,4.322909105037898,-0.3817096955730547,-0.4533333333333333,-0.5688888888888889,0.12137019109790646,-0.00425880340661031,-0.0156995275237783
1592167869.7694616,-0.01281703622449068,9.097885273843817,4.225041451185987,-0.39222222222222225,-0.4533333333333333,-0.5688888888888889,0.14234719773724627,-0.009801579919825169,-0.000612281707093016
1592167869.7794616,0.1939319838879946,9.101502016409963,4.066484669460111,-0.39222222222222225,-0.4533333333333333,-0.5688888888888889,0.15158284908952216,-0.014802849089522162,-0.004472107317095124
1592167869.7894616,0.22171958766517905,9.082005767141572,3.8407681423050377,-0.39222222222222225,-0.4533333333333333,-0.5688888888888889,0.1489571922988625,-0.022654281299286656,-0.018378069295134827
1592167869.7994616,0.15349008413639684,9.116899844473062,3.746610749370453,-0.39222222222222225,-0.4533333333333333,-0.5688888888888889,0.1368178408531938,-0.03279876325326799,-0.029330169811014543
1592167869.8094616,0.08675525232994725,9.115988948067784,3.694677570187307,-0.3850175049138629,-0.45513451266042315,-0.5724912475430686,0.11791174099076474,-0.04079406307751618,-0.03634719593171908
1592167869.8194616,0.006216531142615937,9.136543478422961,3.8153166797375957,-0.3655555555555556,-0.46,-0.5822222222222222,0.1029102493315956,-0.04814636854108009,-0.036041
1592167869.8294616,-0.052306330382760884,9.130628366978604,3.8930092825000178,-0.3655555555555556,-0.46,-0.5822222222222222,0.09986187579897951,-0.04394486285130032,-0.03244030985399413
1592167869.8394616,-0.09374302336618401,9.145199998782072,3.8711765972114014,-0.3655555555555556,-0.46,-0.5822222222222222,0.0987111161382062,-0.03967603319748426,-0.022928443956288392
1592167869.8494616,-0.09463299442852079,9.157505173301425,3.783273828354569,-0.3655555555555556,-0.46,-0.5822222222222222,0.09238219651660314,-0.0341517825276554,-0.014461968953545715
1592167869.8594615,-0.0501754107485507,9.165729302867053,3.670646593768966,-0.3672915118998487,-0.45851203741917734,-0.5807342596413996,0.08277118486041328,-0.018553859051442433,-0.0029739448016005603
1592167869.8694615,0.07951854355892937,9.170520019017415,3.612170386857634,-0.37333333333333335,-0.4533333333333333,-0.5755555555555556,0.060762251646117656,-0.015416704132432592,-0.000885
1592167869.8794615,0.13956626042323558,9.158103586716855,3.5253388986131435,-0.37333333333333335,-0.4533333333333333,-0.5755555555555556,0.035610596782755216,-0.012229000732304885,-0.008331
1592167869.8894615,0.15660311913689703,9.155887956853746,3.560191256334389,-0.37333333333333335,-0.4533333333333333,-0.5755555555555556,0.009234365403414707,-0.015232758759448317,-0.018553317298292647
1592167869.8994615,0.09535350225960722,9.150055,3.6133218973518293,-0.37333333333333335,-0.4533333333333333,-0.5755555555555556,-0.018133140812687347,-0.024355617910026606,-0.02614002151025729
1592167869.9094615,-0.00998728905417359,9.160124256729627,3.6676316016936945,-0.37276650715875337,-0.4535949454139087,-0.5752939434749802,-0.038292014799167856,-0.03830095354197607,-0.026701644260486226
1592167869.9194615,-0.025197419816990523,9.148486907653883,3.790844872020535,-0.35888888888888887,-0.46,-0.5688888888888889,-0.0534068182951819,-0.04153803974578946,-0.021432110725303773
1592167869.9294615,0.025009,9.14079822981533,3.8917721026551573,-0.35888888888888887,-0.46,-0.5688888888888889,-0.05839212869947998,-0.04061056952134863,-0.021118
1592167869.9394615,0.04739822126151642,9.139939719905781,3.962020369040713,-0.35888888888888887,-0.46,-0.5688888888888889,-0.05049782436064881,-0.03521447696723272,-0.020895174344255762
1592167869.9494615,0.07137359788525709,9.140725321938223,4.021618622349909,-0.35888888888888887,-0.46,-0.5688888888888889,-0.044826480877105314,-0.02619411496991172,-0.022432870219276327
1592167869.9594615,0.007984064981393646,9.13001524049449,4.1224864571735145,-0.36066575624430985,-0.46,-0.5697089815144678,-0.030094392018181617,-0.0183402436424263,-0.024043323828416445
1592167869.9694614,-0.04534591888631696,9.110527734851201,4.264869449904845,-0.37333333333333335,-0.46,-0.5755555555555556,-0.006615753583935695,-0.00839140780708623,-0.01764200997196813
1592167869.9794614,-0.0011252576564100203,9.118739727524497,4.238133629057689,-0.37333333333333335,-0.46,-0.5755555555555556,0.023895279858119244,-0.0007470115806269368,-0.015061685075900768
1592167869.9894614,-0.006868441299602341,9.148011067684255,4.154660064718799,-0.37333333333333335,-0.46,-0.5755555555555556,0.046219440670677944,0.004829580032819043,-0.012604
1592167869.9994614,-0.017812577275794383,9.130354411105287,4.130961374381336,-0.37333333333333335,-0.46,-0.5755555555555556,0.06589257532291642,0.006595893413250997,-0.009798079716272255
1592167870.0094614,-0.033470226980309936,9.130738057341176,4.098861391064003,-0.37333333333333335,-0.46,-0.5754545920065546,0.08463007941857004,0.013391489453356553,-0.004927000286878949
1592167870.0194614,0.07059309253281029,9.156222743072542,3.97538515891172,-0.37333333333333335,-0.46,-0.5611111111111111,0.09813455730863538,0.01809696870903862,-0.0063620625819227564
1592167870.0294614,0.044571999980106775,9.163158633881824,3.8450626849943763,-0.37333333333333335,-0.46,-0.5611111111111111,0.1025855212523015,0.01928647874769851,-0.009887978669204397
1592167870.0394614,-0.0013794715292294027,9.169546255425555,3.683677269076513,-0.37333333333333335,-0.46,-0.5611111111111111,0.09182133177201361,0.014930945000786016,-0.007787063385089786
1592167870.0494614,-0.020709427193286094,9.13707025386294,3.619667230549207,-0.37333333333333335,-0.46,-0.5611111111111111,0.07397842174182664,0.008580891251790181,-0.005686108748209818
1592167870.0594614,-0.028370017237781656,9.147316465720774,3.564780462970492,-0.37262203697986346,-0.4603282906246784,-0.5603998147576412,0.05092220326001441,0.0039511454731174,-0.001938
1592167870.0694613,0.03318697345805651,9.167027722326853,3.5818249507457116,-0.35888888888888887,-0.4666666666666667,-0.5466666666666666,0.025454405008407496,-0.0008033339683463732,-0.0022833339683463734
1592167870.0794613,0.029986494699486325,9.201896984264529,3.568973951518541,-0.35888888888888887,-0.4666666666666667,-0.5466666666666666,0.0027590806632349393,-0.004524055792881441,-0.00621
1592167870.0894613,0.08055497433288897,9.169495822658657,3.6187988163785016,-0.35888888888888887,-0.4666666666666667,-0.5466666666666666,-0.014318988885220662,-0.00473,-0.00914394544778923
1592167870.0994613,0.008470716959422545,9.17570328373893,3.731756437215714,-0.35888888888888887,-0.4666666666666667,-0.5466666666666666,-0.026549180582428063,-0.00121044493504813,-0.01185155506495187
1592167870.1094613,0.12771612389591513,9.14644883058804,3.7637509277385868,-0.35888888888888887,-0.4666666666666667,-0.5466666666666666,-0.03528878398288111,-0.004755051148124894,-0.013596732834756209
1592167870.1194613,0.12593053115358266,9.141963830582688,3.8881053452385905,-0.3655555555555556,-0.46,-0.5333333333333333,-0.03756804202978628,-0.0001459771895155087,-0.023882490390349103
1592167870.1294613,0.11120677631088008,9.13145816489388,3.906552897788005,-0.3655555555555556,-0.46,-0.5333333333333333,-0.027000762618742805,-0.00711824745897672,-0.0292399885825634
1592167870.1394613,-0.01072700668798654,9.164328525298588,4.11044916492331,-0.3655555555555556,-0.46,-0.5333333333333333,-0.015678282982941563,-0.019091760167912572,-0.03766838354238526
1592167870.1494613,-0.34783864553181965,9.12922246313687,4.252820526252296,-0.3655555555555556,-0.46,-0.5333333333333333,0.01054760589768768,-0.027889361565522575,-0.018327293090036736
1592167870.1594613,-0.13466119321970973,9.169401157555784,4.063906959362631,-0.3657142131404432,-0.460135992215618,-0.533899967565075,0.03427776821270754,-0.034800612800657195,0.0020643871993428027
1592167870.1694613,0.03856818627620648,9.177565595309451,3.916219373429515,-0.37333333333333335,-0.4666666666666667,-0.5611111111111111,0.04474849884028554,-0.017512833641637457,0.006221836122012924
1592167870.1794612,0.0399590553803717,9.13776352165264,3.815013641323099,-0.37333333333333335,-0.4666666666666667,-0.5611111111111111,0.04548929487796608,-0.0006297316944898113,-0.0007352948779660805
1592167870.1894612,0.021176323494288756,9.15048386982213,3.770522683558213,-0.37333333333333335,-0.4666666666666667,-0.5611111111111111,0.04313897757507067,0.00817891155529148,-0.00205991155529148
1592167870.1994612,-0.019801155002801246,9.163085555042539,3.7468691449202276,-0.37333333333333335,-0.4666666666666667,-0.5611111111111111,0.03558764471655452,0.012502235614990528,-9.803154316703674e-05
1592167870.2094612,0.06123010242474376,9.155576948732774,3.7077825692103508,-0.37333333333333335,-0.4666666666666667,-0.5611111111111111,0.027933560340365184,0.019708675940616847,-0.005142
1592167870.2194612,0.07818081144530414,9.150271422877653,3.678217479248301,-0.3655555555555556,-0.4533333333333333,-0.5544444444444444,0.01036795022119989,0.02525458009042084,-0.006363616167491648
1592167870.2294612,0.039240216022891496,9.142137902526665,3.7189584835892338,-0.3655555555555556,-0.4533333333333333,-0.5544444444444444,0.004024731413581847,0.023936662464626127,-0.01047873656347483
