time,acc_x,acc_y,acc_z,mag_x,mag_y,mag_z,gyr_x,gyr_y,gyr_z
1592167872.0894594,0.028953472784713098,9.132348835613438,3.8286760444697014,-0.3511111111111111,-0.4666666666666667,-0.5688888888888889,-0.02102733710680669,0.010193,-0.016861
1592167872.0994594,-0.006390591735155087,9.129645878887242,3.804886723485847,-0.3511111111111111,-0.4666666666666667,-0.5688888888888889,-0.032488079826814814,0.010193,-0.016861
1592167872.1094594,-0.004541073177766281,9.127111138661581,3.793049559139665,-0.3511111111111111,-0.4666666666666667,-0.5688888888888889,-0.045108681677757764,0.007912297471355223,-0.015648297471355224
1592167872.1194594,0.023972438890706355,9.126278576401619,3.7614961817608776,-0.3511111111111111,-0.4666666666666667,-0.5688888888888889,-0.057749013614687136,-0.00231061215722259,-0.019713974957264842
1592167872.1294594,0.013523372205912947,9.118089180936016,3.8247929345639053,-0.3655555555555556,-0.4533333333333333,-0.5822222222222222,-0.07375560994212478,-0.008987,-0.02005
1592167872.1394594,-0.053835397167485255,9.13014324416636,3.896880536384183,-0.3655555555555556,-0.4533333333333333,-0.5822222222222222,-0.08339836014734187,-0.0058830781901003625,-0.01945619617746956
1592167872.1494594,-0.01323465433455263,9.113368692969066,3.961059338832736,-0.3655555555555556,-0.4533333333333333,-0.5822222222222222,-0.08486996882928659,-0.004491559932561337,-0.016861
1592167872.1594594,-0.013807527563706401,9.063927941017074,4.110725876549431,-0.3655555555555556,-0.4533333333333333,-0.5822222222222222,-0.08235371499204702,0.0014340758964472185,-0.016079809333119137
1592167872.1694593,0.02571413191442883,9.079108095097668,4.3341217119519415,-0.3668522137580487,-0.4540406014437841,-0.5822222222222222,-0.06339540606751826,0.01745300625754189,-0.015793
1592167872.1794593,0.09527221069444748,9.085076640340338,4.340646109636019,-0.37777777777777777,-0.46,-0.5822222222222222,-0.03664532649425658,0.027258508041313745,-0.02148833869420916
1592167872.1894593,0.09184297813141683,9.107897682081548,4.270251036843659,-0.37777777777777777,-0.46,-0.5822222222222222,-0.011761641714709024,0.03707781502068946,-0.02889475119868432
1592167872.1994593,0.10476700782703127,9.029012082080799,4.043633148507535,-0.37777777777777777,-0.46,-0.5822222222222222,-0.004285425975071035,0.033656042782265305,-0.0002228818134679851
1592167872.2094593,0.43849191835673185,9.128203023385193,3.6956466457879835,-0.37777777777777777,-0.46,-0.5822222222222222,-0.016655810181588734,0.02979664550951986,0.054189059550909746
1592167872.2194593,0.6370563821442304,9.133871685285618,3.495719808700974,-0.37777777777777777,-0.46,-0.5822222222222222,-0.05264754582094722,0.04156062773614931,0.013156893436551065
1592167872.2294593,0.46595341152598124,9.13950710760086,3.4206079905784867,-0.37333333333333335,-0.46,-0.59,-0.10018718971372756,0.05640775754148922,-0.019881381660955322
1592167872.2394593,0.3713645109129312,9.05432828926989,3.448002523058749,-0.37333333333333335,-0.46,-0.59,-0.14996860554577396,0.043763618900985915,-0.018405721100885834
1592167872.2494593,0.2295043397234661,9.009968786798627,3.6693971309106823,-0.37333333333333335,-0.46,-0.59,-0.19211862595900187,0.05581425880627769,0.005242054906901849
1592167872.2594593,0.17738709253727472,9.01919170631386,3.9316548714074337,-0.37333333333333335,-0.46,-0.59,-0.2129189157470951,0.07438896360914772,0.02389741674785367
1592167872.2694592,0.14882869499645826,9.039411118900453,4.118371888053883,-0.372448889045942,-0.46075809510347837,-0.5916425393908697,-0.2199140684511025,0.09584358280803192,0.03335638523114484
1592167872.2794592,0.09984725939563405,9.050051414607204,4.217019084052936,-0.3655555555555556,-0.4666666666666667,-0.6044444444444445,-0.21747084558880211,0.1201560366367852,0.04322590792245426
1592167872.2894592,-0.0010782058771587194,9.050786645900368,4.224413057116212,-0.3655555555555556,-0.4666666666666667,-0.6044444444444445,-0.210160771524323,0.11964182556366595,0.04719171268282989
1592167872.2994592,0.01667163913676663,9.0060748209795,4.126585976093352,-0.3655555555555556,-0.4666666666666667,-0.6044444444444445,-0.2007665632138669,0.09838509214072887,0.05030043046840359
1592167872.3094592,0.06221048546726436,9.010999149207558,4.1417543048642,-0.3655555555555556,-0.4666666666666667,-0.6044444444444445,-0.19869865576075352,0.07010070411777389,0.05092409914900069
1592167872.3194592,0.282345485473448,9.04352133229681,4.234362698145064,-0.3655555555555556,-0.4666666666666667,-0.6044444444444445,-0.19600697644801582,0.04224551469909564,0.0436481233600883
1592167872.3294592,0.38179424519323507,9.047252641750397,4.2826100202800035,-0.35888888888888887,-0.46,-0.5966666666666667,-0.18837816274192795,0.027173150841974865,0.0229949355064577
1592167872.3394592,0.3314648680053358,9.020208660564496,4.3561636933568515,-0.35888888888888887,-0.46,-0.5966666666666667,-0.17572974111911416,0.0237419217973981,0.010629741119114175
1592167872.3494592,0.2859615977951504,8.955800474908033,4.378412769216177,-0.35888888888888887,-0.46,-0.5966666666666667,-0.1628924572833068,0.038429894053612815,0.006609808620226471
1592167872.3594592,0.19083224526664824,8.95694638824567,4.539383499165543,-0.35888888888888887,-0.46,-0.5966666666666667,-0.14699447797069343,0.07089037480733898,0.020326204217415086
1592167872.3694592,0.08357739396557762,8.973191492385325,4.706700571371174,-0.3586394898038303,-0.4593586880669923,-0.5969160657517252,-0.11667180325392906,0.09845842937504516,0.02714070694841031
1592167872.3794591,-0.0003063531009611037,8.989823353100961,4.784793606186928,-0.3511111111111111,-0.44,-0.6044444444444445,-0.07945347273344662,0.12046730688561258,0.02719200458708654
1592167872.3894591,-0.00391992491567073,8.952804675403769,4.799997692989273,-0.3511111111111111,-0.44,-0.6044444444444445,-0.035995988007032444,0.10856926654111315,0.020759756277891936
1592167872.3994591,0.035369681954008914,8.957104311712902,4.826295982194099,-0.3511111111111111,-0.44,-0.6044444444444445,0.011366052001198466,0.07706865470189549,0.023539442318488986
1592167872.409459,0.103806474013614,8.966015556026555,4.8247535474255185,-0.3511111111111111,-0.44,-0.6044444444444445,0.06164249440589891,0.044539304236701036,0.01689345648796524
1592167872.419459,0.19137174151153893,9.012155488786007,4.730842012829482,-0.3511111111111111,-0.44,-0.6044444444444445,0.10681177362975833,0.011955981978603626,0.00444
1592167872.429459,0.4135338754518295,8.964957550480927,4.61301701470558,-0.35888888888888887,-0.43555555555555553,-0.6044444444444445,0.15200457338860496,-0.028011463239362128,0.023480148491542195
1592167872.439459,0.29268727760866114,8.930159480636194,4.176082021674056,-0.35888888888888887,-0.43555555555555553,-0.6044444444444445,0.16487669388413653,-0.03274472634637523,0.10531908538961646
1592167872.449459,0.6229912191733646,9.041335014970343,4.057122399196318,-0.35888888888888887,-0.43555555555555553,-0.6044444444444445,0.14941422910898855,0.022198752914047454,0.10565969884797216
1592167872.459459,1.034639729891228,9.006039595833094,4.237566542346473,-0.35888888888888887,-0.43555555555555553,-0.6044444444444445,0.13140514740214698,0.064763547637258,-0.028057496071312832
1592167872.469459,0.5568197356022753,9.062214787364974,4.474958101773066,-0.35888888888888887,-0.43555555555555553,-0.6044444444444445,0.14239501160237544,0.09773498335391077,-0.08158385949376887
1592167872.479459,0.5727393796846915,9.015800106512721,4.2943691954034495,-0.3511111111111111,-0.44,-0.6044444444444445,0.1558071724026243,0.12112253895757098,-0.09127504900032539
1592167872.489459,0.317305596025943,8.894709286027178,4.247394108077925,-0.3511111111111111,-0.44,-0.6044444444444445,0.15944096127323132,0.09353342428740026,-0.06098432220795087
1592167872.499459,0.2978707590795307,8.993322235872085,4.265995798518159,-0.3511111111111111,-0.44,-0.6044444444444445,0.16730440760622328,0.09163584837581579,0.01352996484294196
1592167872.509459,0.39695990345004734,9.032271471751596,4.0984291960782295,-0.3511111111111111,-0.44,-0.6044444444444445,0.172409,0.08785624018464602,0.03543817358004726
1592167872.519459,0.34726953219047907,9.082431693033792,3.967231137804399,-0.3511111111111111,-0.44,-0.6044444444444445,0.16550057224794154,0.09088514620569259,0.028431318639519913
1592167872.529459,0.2828198313500605,9.03288955417718,3.9202975732214123,-0.35888888888888887,-0.44,-0.5966666666666667,0.1486229703969986,0.0833459703969986,0.036147208639342183
1592167872.539459,0.4001862814995805,9.039344458436494,4.005455160139666,-0.35888888888888887,-0.44,-0.5966666666666667,0.13962217947058647,0.0892019383708106,0.04303417947058647
1592167872.549459,0.4196874399355939,9.071753319080578,4.009381626488202,-0.35888888888888887,-0.44,-0.5966666666666667,0.13120296410001028,0.10145797494649364,0.03000870448119167
1592167872.559459,0.36994142369547395,9.019754127507131,3.978776996209416,-0.35888888888888887,-0.44,-0.5966666666666667,0.12134972015534325,0.1148092226945115,0.022934386279730927
1592167872.569459,0.3320125398622808,9.067795580317114,4.0201985240239,-0.35888888888888887,-0.44,-0.5966666666666667,0.113815,0.1115890692793816,0.03280879809516648
1592167872.579459,0.3826068669411595,9.073441,4.089915418189091,-0.35888888888888887,-0.4477777777777778,-0.6322222222222222,0.11336451649244371,0.1143008764928867,0.033044639999557014
1592167872.589459,0.41825923525859215,9.06346023681993,4.177059155017259,-0.35888888888888887,-0.4477777777777778,-0.6322222222222222,0.11392644548859561,0.11020955451140439,0.036407
1592167872.599459,0.5099072748033872,9.062652376823488,4.244735576090034,-0.35888888888888887,-0.4477777777777778,-0.6322222222222222,0.12900150544297925,0.0994478263993457,0.03326596573188347
1592167872.609459,0.49028429120285355,9.06284967136897,4.193096104208009,-0.35888888888888887,-0.4477777777777778,-0.6322222222222222,0.1500330802172597,0.08315928643352875,0.03427072950245408
1592167872.619459,0.47117792787158497,9.105340126885029,4.1224229745153895,-0.35888888888888887,-0.4477777777777778,-0.6322222222222222,0.16169557146332397,0.0652408325714709,0.020707333967061044
1592167872.629459,0.4068493003596554,9.090027167140216,4.049850221052326,-0.3655555555555556,-0.4533333333333333,-0.6044444444444445,0.16340331784191275,0.051848412724134534,-0.006456952820940556
1592167872.639459,0.33205782044385973,9.123716900697321,4.050222941014046,-0.3655555555555556,-0.4533333333333333,-0.6044444444444445,0.16929936045418767,0.02954923881867131,-0.025375
1592167872.649459,0.3737557754639074,9.151056391723406,4.0325526379578385,-0.3655555555555556,-0.4533333333333333,-0.6044444444444445,0.17832625596987714,0.005979827508676146,-0.036339481491893394
1592167872.6594589,0.3080545650262356,9.097315565026236,3.8382058242393167,-0.3655555555555556,-0.4533333333333333,-0.6044444444444445,0.179664698372135,-0.01422127379772259,-0.05879427316455143
1592167872.6694589,0.1904290192372058,9.058872017790014,3.7569776296942647,-0.3655555555555556,-0.4533333333333333,-0.6044444444444445,0.16529378374580758,-0.03166828759735683,-0.0341769046345657
1592167872.6794589,0.4193201367895164,9.237425762735509,3.787321312595328,-0.35888888888888887,-0.4477777777777778,-0.6111111111111112,0.16182219951917218,-0.02437989853859885,-0.024345964459664395
1592167872.6894588,0.4325526084809321,9.180369979744047,3.6718107811517076,-0.35888888888888887,-0.4477777777777778,-0.6111111111111112,0.14911577485812996,-0.002737774858129968,-0.05094617292118039
1592167872.6994588,0.28291890790428975,9.139497766074221,3.575604899022702,-0.35888888888888887,-0.4477777777777778,-0.6111111111111112,0.12379172602274105,0.008847442095576454,-0.052160659621689975
1592167872.7094588,0.18090157621943742,9.102053775901966,3.456181095818753,-0.35888888888888887,-0.4477777777777778,-0.6111111111111112,0.08836707582017515,0.013307074169440374,-0.02978959303539682
1592167872.7194588,0.14478828742058705,9.150531302910055,3.3906450398398853,-0.35888888888888887,-0.4477777777777778,-0.6111111111111112,0.04752429442391015,0.0202129307092691,-0.016429926829938518
1592167872.7294588,0.06426547190772572,9.21493485633626,3.3625906155714653,-0.3511111111111111,-0.4533333333333333,-0.6177777777777778,0.011371000497286574,0.0326939226531725,-0.024190253136000612
1592167872.7394588,-0.1376541513625981,9.098145068122028,3.2988158498306204,-0.3511111111111111,-0.4533333333333333,-0.6177777777777778,-0.02709417485980846,0.0152000173436065,-0.017671680281581194
1592167872.7494588,-0.04730185819889212,9.106211617616324,3.313527659503859,-0.3511111111111111,-0.4533333333333333,-0.6177777777777778,-0.07085148925900196,0.0087496005705386,0.01397224231496844
1592167872.7594588,0.024869558448655602,9.071962315848896,3.428903173836436,-0.3511111111111111,-0.4533333333333333,-0.6177777777777778,-0.10912633263054862,0.001370591452199991,0.03836024141901405
1592167872.7694588,0.02198366096342822,9.101183064940415,3.5065482884947006,-0.3511111111111111,-0.4533333333333333,-0.6177777777777778,-0.13849877495976307,-0.0025238657675020243,0.07687012406216073
1592167872.7794588,0.08056568202476774,9.129908483273812,3.5982832023725555,-0.37333333333333335,-0.4533333333333333,-0.6177777777777778,-0.16788081367572621,0.010990327084304849,0.09839988306484494
1592167872.7894588,0.3552410761371803,9.202946563868661,3.885786570370388,-0.37333333333333335,-0.4533333333333333,-0.6177777777777778,-0.183395,0.05187270957346564,0.10126575811419361
1592167872.7994587,0.42257473860872247,9.192865456940927,3.9694359312118785,-0.37333333333333335,-0.4533333333333333,-0.6177777777777778,-0.18025004187350863,0.08658960144470226,0.07183871793079487
1592167872.8094587,0.18704688641803702,9.112121669652693,3.899294018551212,-0.37333333333333335,-0.4533333333333333,-0.6177777777777778,-0.17817705925469443,0.10563344109262454,0.07022716568104553
1592167872.8194587,0.09398607735998432,9.10330484624331,3.8652851048551384,-0.37333333333333335,-0.4533333333333333,-0.6177777777777778,-0.18117729805609725,0.11540204166750387,0.09090049711554653
1592167872.8294587,0.03758917360390736,9.129126710000113,3.8941604213138934,-0.38555555555555554,-0.4477777777777778,-0.6311111111111111,-0.185532,0.116714,0.09105748707602801
1592167872.8394587,0.006946217816963009,9.160653252446544,3.9888238844658814,-0.38555555555555554,-0.4477777777777778,-0.6311111111111111,-0.187510003781757,0.12339372490380453,0.07575103066820485
1592167872.8494587,-0.10991399682175756,9.1049574275474,4.139225069322031,-0.38555555555555554,-0.4477777777777778,-0.6311111111111111,-0.17943731651656228,0.10901402751439901,0.06265206720210877
1592167872.8594587,-0.1663851370144094,9.110742638312756,4.205335261388156,-0.38555555555555554,-0.4477777777777778,-0.6311111111111111,-0.15662050687581314,0.08720756115561669,0.05203818225296287
1592167872.8694587,-0.21680804830577977,9.074610274336894,4.204021288019306,-0.38555555555555554,-0.4477777777777778,-0.6311111111111111,-0.13833385734887169,0.06677887627465794,0.03244164875600064
1592167872.8794587,-0.20677293307630384,9.071025965254323,4.295015983972284,-0.36826081249589815,-0.44021132768917764,-0.6170591323751395,-0.1206987410376515,0.04925094494925562,0.03350988589611684
1592167872.8894587,-0.05043107179390263,9.089912336842925,4.440100237321961,-0.36777777777777776,-0.44,-0.6166666666666667,-0.09175273040682135,0.03901479677903345,0.033988308207656165
1592167872.8994586,0.046446485204037324,9.063557507600807,4.4216144725546105,-0.36777777777777776,-0.44,-0.6166666666666667,-0.0562549771025947,0.03379958140845726,0.04018464233463862
1592167872.9094586,0.028364600775703172,9.085321802822984,4.265123730666596,-0.36777777777777776,-0.44,-0.6166666666666667,-0.028723165971280225,0.037998758643906644,0.04991347182546664
1592167872.9194586,0.029958831516824165,9.062260479097295,4.175599336212368,-0.36777777777777776,-0.44,-0.6166666666666667,-0.015808146072029176,0.050579282861303566,0.0439242967408626
1592167872.9294586,0.04099855732601282,9.023716266057802,4.194119686136979,-0.37858740838555965,-0.45768848644909765,-0.6431993963403131,-0.015076,0.0671849747971976,0.030783818372819002
1592167872.9394586,-0.01440973443663749,9.052810651634742,4.294807023029846,-0.38,-0.46,-0.6466666666666666,-0.004648728042583732,0.06664845816616848,0.01424826987641526
1592167872.9494586,-0.11004153580503898,9.031446921008813,4.280259853309212,-0.38,-0.46,-0.6466666666666666,0.013691187671367233,0.05004312708259449,0.02287185134928432
1592167872.9594586,-0.017098413147931937,9.083489902770658,4.116886666189552,-0.38,-0.46,-0.6466666666666666,0.02327,0.043213,0.0041879991028302525
1592167872.9694586,-0.002396579165428214,9.116233782612925,4.138658237982279,-0.38,-0.46,-0.6466666666666666,0.025462637156131097,0.03511257541483433,-0.02448297095371208
1592167872.9794586,-0.10820704728611734,9.048932772284646,4.206041147874689,-0.4011095844732898,-0.42778010790918913,-0.6444446051431625,0.03437240801359231,0.011393442419878143,-0.02239650677135421
1592167872.9894586,-0.06087631867597857,9.009709690899522,4.183814501525778,-0.4011111111111111,-0.42777777777777776,-0.6444444444444445,0.04768906173126847,-0.005970049267663712,0.012655137472899442
1592167872.9994586,0.2016683029690438,9.097312993601788,3.9363728833688745,-0.4011111111111111,-0.42777777777777776,-0.6444444444444445,0.04498129638331768,-0.013520715892974091,0.00831557528213931
1592167873.0094585,0.13712583359055233,9.075793827374273,3.9446761664094474,-0.4011111111111111,-0.42777777777777776,-0.6444444444444445,0.03430092500232334,-0.011124,-0.01051982645392602
1592167873.0194585,0.12318050191857136,9.03120300413298,4.054297661659579,-0.4011111111111111,-0.42777777777777776,-0.6444444444444445,0.026459,-0.01472412225891988,-0.0019445740661657865
1592167873.0294585,0.2382559652081651,9.062126382963013,4.101614347938767,-0.39486609107838155,-0.44651283787596635,-0.6579753211820251,0.028213966900686033,-0.017883033099313966,0.012207933801372067
1592167873.0394585,0.26073082376994494,9.038871055416804,4.077626307047221,-0.39444444444444443,-0.4477777777777778,-0.6588888888888889,0.024348600284876305,-0.017876701224278032,0.006899827528064188
1592167873.0494585,0.2997102785251382,9.032963872125864,4.047705803093628,-0.39444444444444443,-0.4477777777777778,-0.6588888888888889,0.018369385617237652,-0.013670385617237652,0.01670832406488402
1592167873.0594585,0.4813898987070537,9.009153422359857,4.21444435251032,-0.39444444444444443,-0.4477777777777778,-0.6588888888888889,0.014931582048969851,0.001213704832713294,0.023621
1592167873.0694585,0.6488923463810183,9.06466083594786,4.271574485681417,-0.39444444444444443,-0.4477777777777778,-0.6588888888888889,0.01342128030423908,0.026157440294534352,0.006327712425447794
1592167873.0794585,0.5424279743714202,9.078770404070493,4.219850696655672,-0.416882981427432,-0.4309488750405371,-0.6486045594383528,0.020394668167989887,0.05709513879608485,-0.020512984669513463
1592167873.0894585,0.27986534038376776,8.968330095656295,4.311199809428962,-0.4211111111111111,-0.42777777777777776,-0.6466666666666666,0.0304700714692442,0.06705211383280878,-0.020569013257884943
1592167873.0994585,0.15055576305805132,9.04173741470641,4.256486667405715,-0.4211111111111111,-0.42777777777777776,-0.6466666666666666,0.04277590073048645,0.0759044797708422,-0.008352346562132976
1592167873.1094584,-0.015379443164247513,9.1116018316479,4.2443185937493455,-0.4211111111111111,-0.42777777777777776,-0.6466666666666666,0.06849460521182803,0.05592175249470509,0.002742042582175917
1592167873.1194584,0.10842623230104131,9.090542050975142,4.125407870891888,-0.4211111111111111,-0.42777777777777776,-0.6466666666666666,0.08455192579204823,0.07562053491994555,0.012697586619315027
1592167873.1294584,0.14375662686789334,9.154874138749788,3.9007643700166095,-0.4011111111111111,-0.4211111111111111,-0.6644444444444444,0.09127382003555207,0.08386497083548412,0.01564366923562002
1592167873.1394584,0.1257750613895141,9.105446345351982,3.7626530558344986,-0.4011111111111111,-0.4211111111111111,-0.6644444444444444,0.0812233789555989,0.08423909807269485,0.0053922262984148536
1592167873.1494584,-0.12304620624890583,9.046986205297282,3.7097160370816544,-0.4011111111111111,-0.4211111111111111,-0.6644444444444444,0.05485679841524522,0.0596181328498178,0.007918665565427415
1592167873.1594584,-0.2672942794969657,9.019805077341568,3.7643369652716436,-0.4011111111111111,-0.4211111111111111,-0.6644444444444444,0.02963327742780414,0.019783128751931712,0.028954126215659657
1592167873.1694584,-0.16920135774980793,9.173223335194276,3.8976580115097006,-0.4011111111111111,-0.4211111111111111,-0.6644444444444444,0.01483399028486992,0.016773569875611197,0.014569320861287142
1592167873.1794584,-0.0346865914645932,8.939892435488742,4.040521943609667,-0.4059714941583582,-0.4269435707678076,-0.6333379929420633,0.019947207879467275,0.0019587854002627485,0.0482954050411879
1592167873.1894584,0.3208776855230261,9.106539991947747,3.9077178840162903,-0.4066666666666667,-0.42777777777777776,-0.6288888888888889,0.024338,-0.00879992011612164,0.07989092011612163
1592167873.1994584,0.508143129674782,9.158656547100426,3.7988256795993296,-0.4066666666666667,-0.42777777777777776,-0.6288888888888889,0.0012160160150363336,0.015680249876897433,0.05718820849240534
1592167873.2094584,0.3537020503670811,9.028458740790386,3.740610193358332,-0.4066666666666667,-0.42777777777777776,-0.6288888888888889,-0.03247801060732367,0.031779387227959095,0.02390404628278233
1592167873.2194583,0.05212430864602175,9.140490937949197,3.738559663075201,-0.4066666666666667,-0.42777777777777776,-0.6288888888888889,-0.06647326835931261,0.03725575572105457,0.015990907123675756
1592167873.2294583,0.03651562488311363,9.129438915974257,3.9788838901072507,-0.4192380439538249,-0.42777777777777776,-0.6163175116017306,-0.06980856221977574,0.05307347475102757,0.0016872703909142917
1592167873.2394583,-0.03578443396109904,9.120172361957495,4.038405139965889,-0.4211111111111111,-0.42777777777777776,-0.6144444444444445,-0.07389528653822862,0.05554785028469941,-0.03746101749448952
1592167873.2494583,-0.38074901751027684,8.97512313116855,4.040317409330728,-0.4211111111111111,-0.42777777777777776,-0.6144444444444445,-0.07423002508448785,0.02884604449662611,-0.013498745966188636
1592167873.2594583,-0.18868781718052802,9.12216658619062,4.01352248650372,-0.4211111111111111,-0.42777777777777776,-0.6144444444444445,-0.058365975400517654,-0.007345386845406072,0.02030661303539505
1592167873.2694583,-0.05410325057055544,9.102167630064876,3.962702816606694,-0.4211111111111111,-0.42777777777777776,-0.6144444444444445,-0.052047606506548084,-0.03273915838225683,0.01882446755864368
1592167873.2794583,0.04713718617959046,9.100696852591284,3.8988989898827935,-0.4339104495062034,-0.43380099584605647,-0.6242321738053974,-0.05808400312162593,-0.043093320316337044,-0.00981521678226328
1592167873.2894583,0.024325636291104694,9.058521323139862,3.8425517245966265,-0.44,-0.43666666666666665,-0.6288888888888889,-0.07560406232274258,-0.045136574637089234,-0.01692673310215306
1592167873.2994583,0.06488052026497282,9.049346163933993,3.9129493858513884,-0.44,-0.43666666666666665,-0.6288888888888889,-0.09904864360178847,-0.04032232670797585,-0.007678006680945275
1592167873.3094583,0.18096356041800057,8.979695848144623,4.006871475049617,-0.44,-0.43666666666666665,-0.6288888888888889,-0.12486593630986441,-0.017883762947317444,-0.01974071999583727
1592167873.3194582,0.03374971352098635,9.036755881807128,4.278808326954762,-0.44,-0.43666666666666665,-0.6288888888888889,-0.120044765140716,0.0048959144634783975,-0.017989708638680393
1592167873.3294582,0.06477508177402957,9.001862620958914,4.324525868778742,-0.43430761972163245,-0.4309742863882991,-0.6288888888888889,-0.10975876394104492,0.011755903554127388,0.0022549069246116825
1592167873.3394582,-0.004351783104609541,9.21191750904084,4.274253498150472,-0.43333333333333335,-0.43,-0.6288888888888889,-0.08531218472687985,0.024595704217550994,-0.011066122213762181
1592167873.3494582,-0.20708221803184026,9.118215437419208,4.330459330310947,-0.43333333333333335,-0.43,-0.6288888888888889,-0.051629434194222855,0.013616748319270481,-0.047195289673221424
1592167873.3594582,-0.3529955162744573,9.02436164148551,4.250425328939059,-0.43333333333333335,-0.43,-0.6288888888888889,-0.028477122553875217,-0.015139094320738997,-0.021527235663071367
1592167873.3694582,-0.1765191560841434,9.10956238552287,4.115910931483628,-0.43333333333333335,-0.43,-0.6288888888888889,-0.005974733460355068,-0.038336840629957784,-0.029325097538202765
1592167873.3794582,-0.21562601139447374,9.10169127808509,4.005938886604957,-0.44676435643564355,-0.4247768243491016,-0.6244118811881189,-0.0018794795057714097,-0.04221295897378524,-0.026867917985328057
1592167873.3894582,-0.19628788687747642,9.059341834907512,3.9905994911326794,-0.4533333333333333,-0.4222222222222222,-0.6222222222222222,-0.007451734622759816,-0.048793850437015486,-0.024662162916992525
1592167873.3994582,-0.22065085737117782,9.004676054282948,3.9967678002703977,-0.4533333333333333,-0.4222222222222222,-0.6222222222222222,-0.01620821293482665,-0.05624944136969996,-0.00721378706517335
1592167873.4094582,-0.01316205315906746,9.070988063623039,4.024662235820422,-0.4533333333333333,-0.4222222222222222,-0.6222222222222222,-0.026074210313034422,-0.051037370147171995,-0.012368997407577142
1592167873.4194582,-0.04951017461502625,9.09508195717926,4.154408446879586,-0.4533333333333333,-0.4222222222222222,-0.6222222222222222,-0.02586993889740039,-0.04062953080665526,-0.031319938386689485
1592167873.4294581,-0.12900209442081667,8.962459814262836,4.159227618500753,-0.4333176194236883,-0.4270536014417917,-0.6222222222222222,-0.02365974566652054,-0.04279406081336377,-0.020668867697993407
1592167873.4394581,0.029477120430726186,9.069148697897015,4.100925951854487,-0.4211111111111111,-0.43,-0.6222222222222222,-0.0254894022297883,-0.04043782144937417,-0.011666945181002714
1592167873.4494581,0.06035109150067095,9.019562,4.244204102837676,-0.4211111111111111,-0.43,-0.6222222222222222,-0.0222901590124973,-0.04096947735245611,-0.0228146913265594
1592167873.459458,0.05661511598475081,8.977552128303788,4.214880486465982,-0.4211111111111111,-0.43,-0.6222222222222222,-0.014404026506585716,-0.04954946886214167,-0.01658867054896934
1592167873.469458,0.07514441742538468,8.98831067565786,4.086419497583741,-0.4211111111111111,-0.43,-0.6222222222222222,-0.018194096735309893,-0.05896525035594736,0.00034706684081197635
1592167873.479458,0.03824545665154193,9.0534994948826,4.03242839935362,-0.43828785001055165,-0.42230008256231977,-0.6257760302703824,-0.029726453813900895,-0.0758428522068903,-0.0026193654652477702
1592167873.489458,-0.032130540871136676,9.1144957795306,4.081391776436527,-0.4533333333333333,-0.41555555555555557,-0.6288888888888889,-0.024468908957234938,-0.0920221175384514,-0.01148558876659547
1592167873.499458,-0.009252604324126001,9.066369855151946,3.9557591181054357,-0.4533333333333333,-0.41555555555555557,-0.6288888888888889,-0.027608753306169895,-0.11162221600438217,-0.04262517822184116
1592167873.509458,0.001450148823688057,9.113529553460802,3.753041071851089,-0.4533333333333333,-0.41555555555555557,-0.6288888888888889,-0.05518220392701013,-0.11992613512627033,-0.07896363315983143
1592167873.519458,-0.03823628767661162,8.989970338867419,3.7412810568775186,-0.4533333333333333,-0.41555555555555557,-0.6288888888888889,-0.09201370695976858,-0.1250825386711775,-0.091431
1592167873.529458,0.20352138006981113,9.08230882487193,3.8568706270594144,-0.46026126082733265,-0.41240649760373765,-0.612513787539436,-0.1246156655928732,-0.10722780507454899,-0.10192580633175097
1592167873.539458,0.29294503587769827,9.021749376856732,4.032339686417073,-0.46555555555555556,-0.41,-0.6,-0.1467820064084921,-0.08501403418779173,-0.1314362521499811
1592167873.549458,0.16380794490519524,8.940039272010026,4.05749101431871,-0.46555555555555556,-0.41,-0.6,-0.16364779397790463,-0.060687206022095354,-0.11919247797047136
1592167873.559458,0.17412163367793834,8.886226850309619,4.026118803216637,-0.46555555555555556,-0.41,-0.6,-0.17950116904587526,-0.05295483298106576,-0.04674501007563911
1592167873.569458,0.17400973829753813,8.883263777418135,4.108516651650495,-0.46555555555555556,-0.41,-0.6,-0.19649135158043418,-0.04997417226999713,-0.0043408020020911375
1592167873.579458,0.10280534392619652,8.93687261096168,4.224176831469561,-0.46103554914270284,-0.4171028672201971,-0.5961257087889834,-0.2002789984108358,-0.043983998410835785,0.024479084685795138
1592167873.589458,0.040545421504970036,9.004872403523386,4.289374201114429,-0.4577777777777778,-0.4222222222222222,-0.5933333333333334,-0.200439,-0.03354813822510985,0.02581213822510985
1592167873.599458,-0.09491470253054603,8.963309869948276,4.3723853491882245,-0.4577777777777778,-0.4222222222222222,-0.5933333333333334,-0.19493481518586583,-0.033935841674705536,0.026543002513876864
1592167873.609458,0.02113841142214494,9.034142959271819,4.398421084201436,-0.4577777777777778,-0.4222222222222222,-0.5933333333333334,-0.18865259981560878,-0.023830356826896028,0.005435536592753851
1592167873.619458,-0.035581862772626094,8.954404172207683,4.579324675520441,-0.4577777777777778,-0.4222222222222222,-0.5933333333333334,-0.17524434314125029,-0.015423384445032608,-0.027423057712913285
1592167873.629458,-0.015329715295819005,8.843264405217097,4.729417033842559,-0.466555455458565,-0.41411975051688016,-0.5892820974806623,-0.14871379408806193,-0.024503462925232557,-0.01900155993463186
1592167873.639458,0.0816096709698326,9.050010722135857,4.7088066942595574,-0.4722222222222222,-0.4088888888888889,-0.5866666666666667,-0.110499249328164,-0.03574972280040445,-0.034894970968184516
1592167873.649458,-0.10971517744259547,8.994212158177543,4.597179148779394,-0.4722222222222222,-0.4088888888888889,-0.5866666666666667,-0.06996604864961309,-0.05464133377830307,-0.050911832675817864
1592167873.659458,-0.15956187971233354,8.8992359606475,4.4374778348267165,-0.4722222222222222,-0.4088888888888889,-0.5866666666666667,-0.05114491427977705,-0.07731871476249265,-0.05055281714404459
1592167873.669458,-0.09608457363232047,8.941411285779568,4.235837999127121,-0.4722222222222222,-0.4088888888888889,-0.5866666666666667,-0.05473111850155549,-0.07649730187656537,-0.06312112002170013
1592167873.679458,-0.15854344658565214,8.953044773286477,4.27384293062283,-0.4628927577180371,-0.39791304829573,-0.5795323702811134,-0.06761126368240321,-0.065445,-0.08856184067645592
1592167873.689458,-0.4443326952206206,8.675686348761625,4.412887475515482,-0.4533333333333333,-0.38666666666666666,-0.5722222222222222,-0.07377842277069185,-0.07940060725158513,-0.031516283867018824
1592167873.699458,-0.04117152657158217,9.042843141216908,4.447908244687843,-0.4533333333333333,-0.38666666666666666,-0.5722222222222222,-0.07195887984986432,-0.07429173954168189,-0.002270509965841638
1592167873.7094579,0.09779737842776391,8.934773872117315,4.636298708847573,-0.4533333333333333,-0.38666666666666666,-0.5722222222222222,-0.05671214561613087,-0.04959910579540215,-0.032256314691027965
1592167873.7194579,0.06697540101772877,8.857982905752355,4.75593188613839,-0.4533333333333333,-0.38666666666666666,-0.5722222222222222,-0.03017300737996772,-0.04602221057743639,-0.027193976642445054
1592167873.7294579,0.09213430426018192,8.82572109172943,4.7198605926982475,-0.4631812145357962,-0.39454497162863694,-0.5748483238762123,0.001592982820055682,-0.049933393471952275,0.0002788986722320041
1592167873.7394578,0.14638360361676753,8.939029371599668,4.564369792111315,-0.4866666666666667,-0.41333333333333333,-0.5811111111111111,0.020557875126483254,-0.04042125827224628,0.014418733122702657
1592167873.7494578,0.030061704401260755,8.896875973710053,4.418119599056158,-0.4866666666666667,-0.41333333333333333,-0.5811111111111111,0.026459,-0.018667711775915773,0.0024716762716628354
1592167873.7594578,-0.1269111644081126,8.85134764561369,4.309742541110862,-0.4866666666666667,-0.41333333333333333,-0.5811111111111111,0.020301933400761363,-0.012031921172449897,0.024988092853713225
1592167873.7694578,0.12950821664875758,8.92655560568833,4.274570655062631,-0.4866666666666667,-0.41333333333333333,-0.5811111111111111,0.00624562292328743,0.005892033150362479,0.03003564878937457
1592167873.7794578,0.23529982899172625,8.992306160682812,4.350837585641719,-0.48147141681659067,-0.4013442952177733,-0.5811111111111111,-0.00025972516998790346,0.03210496712992299,0.016117891716720092
1592167873.7894578,0.15914461906415422,8.924254456713935,4.468942519808145,-0.4722222222222222,-0.38,-0.5811111111111111,0.004982172266819416,0.04380826239061662,0.006694623248710476
1592167873.7994578,0.06275999797565249,8.827003500286224,4.354497730263604,-0.4722222222222222,-0.38,-0.5811111111111111,0.007277629484918753,0.048538,0.024695376415299182
1592167873.8094578,0.09441114570773487,8.948398596914902,4.317306213203501,-0.4722222222222222,-0.38,-0.5811111111111111,0.003256609875830908,0.055274350127515914,0.04315047949997681
1592167873.8194578,0.08792501824169587,8.92001039783564,4.401659664168017,-0.4722222222222222,-0.38,-0.5811111111111111,0.0034684703825306473,0.06492963225553922,0.030014
1592167873.8294578,-0.007799991887776657,8.800333352589995,4.343344331484961,-0.46836798801618706,-0.38385423420603515,-0.5674460989260774,-0.011007796816117597,0.06415648364419922,0.03945118937165184
1592167873.8394578,-0.02374244975095984,8.911463233502221,4.226797882690298,-0.46,-0.39222222222222225,-0.5377777777777778,-0.022684833551106322,0.06710454785398336,0.0490417713678099
1592167873.8494577,0.04469587358468597,8.962856580860521,4.218157212577294,-0.46,-0.39222222222222225,-0.5377777777777778,-0.03676355697134013,0.08030466533884287,0.05439556511590114
1592167873.8594577,0.15320293526996803,8.933858058507283,4.40649854221006,-0.46,-0.39222222222222225,-0.5377777777777778,-0.040360433853437315,0.09221642855803328,0.05624813076811044
1592167873.8694577,0.28770880723714937,8.96927435724714,4.47563757999737,-0.46,-0.39222222222222225,-0.5377777777777778,-0.027614163057155,0.11608207826855552,0.05513779832941129
1592167873.8794577,0.13608428171100861,8.854223548236668,4.472181943071674,-0.46585499316005474,-0.39222222222222225,-0.5420063839489284,-0.029999,0.12764150639921046,0.05396984170309344
1592167873.8894577,0.14355506570367454,8.9805717686592,4.42527564245869,-0.48,-0.39222222222222225,-0.5522222222222222,-0.02355081206419747,0.144490240606766,0.06937281206419747
1592167873.8994577,0.21166860634743329,8.971336053032301,4.484187137357355,-0.48,-0.39222222222222225,-0.5522222222222222,-0.010927245135344953,0.1654915610421966,0.04118410681621288
1592167873.9094577,0.013470759799021945,8.903835819403561,4.501749190739541,-0.48,-0.39222222222222225,-0.5522222222222222,0.0016376062333744307,0.16364424650970166,0.0030894536638282465
1592167873.9194577,-0.3107289258795755,8.702188600124796,4.383406784426483,-0.48,-0.39222222222222225,-0.5522222222222222,-0.012698601768322295,0.13148705341489383,0.015654801606340356
1592167873.9294577,-0.16453794507585157,8.975351154392278,4.375868458056697,-0.4827507778135393,-0.3894714444086829,-0.5462622036262204,-0.005972944416522241,0.11951413801881838,0.0487508706997666
1592167873.9394577,-0.06973420751463372,8.84277993458212,4.467504488754727,-0.4866666666666667,-0.38555555555555554,-0.5377777777777778,-0.002165423927179228,0.09239942182194893,0.043491934070946266
1592167873.9494576,-0.08333261077781241,8.821537445435558,4.352911591379959,-0.4866666666666667,-0.38555555555555554,-0.5377777777777778,-0.016951222310069534,0.07346865507912236,0.03819759701285551
1592167873.9594576,-0.10979945043612842,8.838091975455553,4.355954339812841,-0.4866666666666667,-0.38555555555555554,-0.5377777777777778,-0.029873236643176263,0.05345733189295093,0.050394639075668934
1592167873.9694576,-0.08908840574080043,8.968395163393973,4.408408334613709,-0.4866666666666667,-0.38555555555555554,-0.5377777777777778,-0.02665235682070253,0.041387931360686095,0.06287956456143792
1592167873.9794576,-0.016116805629892633,8.967868424006394,4.369278037159462,-0.48507017272492914,-0.3836929792901951,-0.5345847898943027,-0.01985677135625271,0.03098163054363235,0.04961289095494937
1592167873.9894576,0.05103297265255087,9.066011846438126,4.312982151580845,-0.48,-0.37777777777777777,-0.5244444444444445,-0.01603560381018032,0.035297779436884495,0.02076587877259111
1592167873.9994576,0.05162069469417513,8.951276991410655,4.292527003541259,-0.48,-0.37777777777777777,-0.5244444444444445,-0.015625439199088962,0.03777391593744974,-0.02617225285341239
1592167874.0094576,-0.1283653772206912,8.936185503230837,4.227264784882565,-0.48,-0.37777777777777777,-0.5244444444444445,-0.027897860311592693,0.024263601562522184,-0.03203027835733391
1592167874.0194576,-0.14568344931213392,8.926757605603232,4.20163726612183,-0.48,-0.37777777777777777,-0.5244444444444445,-0.03671241301421551,0.008110380478676734,-0.016487206507107756
1592167874.0294576,-0.056266168128765906,8.801595515009954,4.271455162397838,-0.485731866206821,-0.3749118446743673,-0.5213396835824164,-0.04862785763000488,-0.012297910659206027,-0.02550932804703261
1592167874.0394576,-0.1538072425868981,8.812546592725468,4.2226051088416305,-0.5066666666666667,-0.36444444444444446,-0.51,-0.07854649897666492,-0.024963,-0.016656636289738812
1592167874.0494576,-0.19857274271620015,8.781725362799632,4.343861908024028,-0.5066666666666667,-0.36444444444444446,-0.51,-0.09845656660106519,-0.0350096083497337,0.01738747984236025
1592167874.0594575,-0.10202169125086939,8.927664813753704,4.348653855863702,-0.5066666666666667,-0.36444444444444446,-0.51,-0.10784273569035117,-0.027904970985444373,0.042708902480470365
1592167874.0694575,0.009037020314807149,8.913186876863751,4.3451588967318715,-0.5066666666666667,-0.36444444444444446,-0.51,-0.12017294371485422,-0.00665235174494013,0.0007488785624303225
1592167874.0794575,-0.4091056896703602,8.760157233095278,4.290206376132305,-0.5039825829282852,-0.36299916858531595,-0.5085547241408716,-0.15018262391839543,0.018490131256388445,-0.03464848554083298
1592167874.0894575,-0.5308438552279154,8.835586869063693,4.489500576874576,-0.4922222222222222,-0.3566666666666667,-0.5022222222222222,-0.151443,0.04040951166682872,0.003788904963650838
1592167874.0994575,-0.18221803682389548,8.825160429979528,4.490466945727205,-0.4922222222222222,-0.3566666666666667,-0.5022222222222222,-0.16146551773319284,0.054458463522808656,0.011151445070910784
1592167874.1094575,-0.38110787426020587,8.798744644642143,4.464356712846359,-0.4922222222222222,-0.3566666666666667,-0.5022222222222222,-0.1697654423027044,0.05811784287510567,0.02421197324603561
1592167874.1194575,-0.3506368919549871,8.929589145839506,4.76546900948547,-0.4922222222222222,-0.3566666666666667,-0.5022222222222222,-0.148571559185992,0.061075342916858184,0.04903726449791944
1592167874.1294575,-0.21612727643376267,8.878244245834741,4.879714709720304,-0.48754868929830547,-0.3577219805527124,-0.5013176674627545,-0.11219658516998336,0.05738783657076558,0.0661886623404863
1592167874.1394575,-0.16826063466928315,8.93804032429149,4.737234381917842,-0.4577777777777778,-0.36444444444444446,-0.4955555555555556,-0.08377840403446417,0.06084724918843277,0.04620835713044884
1592167874.1494575,-0.27846664050096204,8.873405147399541,4.717560725587808,-0.4577777777777778,-0.36444444444444446,-0.4955555555555556,-0.06158241681150282,0.07273041326549648,0.027564413265496482
1592167874.1594574,-0.3762314566420912,8.857513133875017,4.733069298208639,-0.4577777777777778,-0.36444444444444446,-0.4955555555555556,-0.040988830432869904,0.06891119544550514,0.019205684002014303
1592167874.1694574,-0.3157036736067449,8.9866782934618,4.759283652923641,-0.4577777777777778,-0.36444444444444446,-0.4955555555555556,-0.008579642125996151,0.06322762739183577,-0.012642346185462703
1592167874.1794574,-0.31496163805922844,8.98329190118509,4.8474730635547045,-0.46120660403881764,-0.3633015023574312,-0.49641276212081553,0.027833899620562215,0.04982989005920095,-0.06122363236127988
1592167874.1894574,-0.5982285983463916,8.72671839277736,4.726821346138737,-0.48444444444444446,-0.35555555555555557,-0.5022222222222222,0.05659109440631012,0.0049149860060718545,-0.06154186972949491
1592167874.1994574,-0.6899006612961144,8.868904487185171,4.416987387812076,-0.48444444444444446,-0.35555555555555557,-0.5022222222222222,0.07231126060199242,-0.044243892936734266,0.01820600498946832
1592167874.2094574,-0.14394487635890946,9.065899168668482,4.405287408699478,-0.48444444444444446,-0.35555555555555557,-0.5022222222222222,0.08585296095169047,-0.056915,0.008026517074860254
1592167874.2194574,-0.25119226487197666,8.891553572437775,4.249190378038748,-0.48444444444444446,-0.35555555555555557,-0.5022222222222222,0.07717708794428373,-0.05255183672689127,-0.04316075125836832
1592167874.2294574,-0.2933620123343919,8.82218620373293,4.152176217812931,-0.48273569845476666,-0.35413160056415743,-0.4931089102772741,0.047500047472207,-0.05829655148097804,-0.049307569370934314
1592167874.2394574,-0.33968514065694866,8.695821782992466,4.238481366514245,-0.4777777777777778,-0.35,-0.4666666666666667,0.014235615540298186,-0.06190263253794996,0.006315128788954813
1592167874.2494574,-0.04780549747268102,8.942712086099055,4.488866964640913,-0.4777777777777778,-0.35,-0.4666666666666667,-0.0032741403762086376,-0.048303125068900055,0.0029791979919559387
1592167874.2594573,-0.0856164156542415,8.937372294234477,4.637860775274386,-0.4777777777777778,-0.35,-0.4666666666666667,0.010403031239850502,-0.0314711339179298,-0.0453842651883484
1592167874.2694573,-0.29186734296673866,8.85421780800071,4.518912784265273,-0.4777777777777778,-0.35,-0.4666666666666667,0.023074317921028292,-0.03230728212898511,-0.0689432821289851
1592167874.2794573,-0.35666577252027815,8.730818954247464,4.33492345144814,-0.4772880217207608,-0.35040813004751414,-0.46405463436257605,0.006827414392398047,-0.04880048980448428,-0.034375119505333604
1592167874.2894573,-0.20758486465896053,8.883097197912004,4.302581839145731,-0.4711111111111111,-0.35555555555555557,-0.4311111111111111,-0.0028043711217012363,-0.06390419790756438,-0.013751826785863145
1592167874.2994573,-0.09685630500536946,8.90468410384735,4.392902853831585,-0.4711111111111111,-0.35555555555555557,-0.4311111111111111,-0.013383394793785915,-0.064377,-0.036243064267703996
1592167874.3094573,-0.05789415929648722,8.861176102660304,4.464597561723316,-0.4711111111111111,-0.35555555555555557,-0.4311111111111111,-0.016898304210549678,-0.06528815210527485,-0.05154645631582451
1592167874.3194573,0.019107407190633856,8.876349873190685,4.535001278960899,-0.4711111111111111,-0.35555555555555557,-0.4311111111111111,-0.014389690004241134,-0.06687969000424114,-0.06865446013853248
1592167874.3294573,-0.06325734147354752,8.71375957761244,4.446878445230863,-0.4754982138202781,-0.3539392545574414,-0.432958312251813,-0.0210471128618599,-0.07120069382809954,-0.041124928978652914
1592167874.3394573,0.015615835792050649,8.870439531948772,4.290053089573848,-0.4922222222222222,-0.3477777777777778,-0.44,-0.040150002553500305,-0.056361997446499695,-0.023940373179130045
1592167874.3494573,-0.11784803959094628,8.833223897832662,4.316569663886975,-0.4922222222222222,-0.3477777777777778,-0.44,-0.06620300313650734,-0.03696625538365046,-0.038162
1592167874.3594573,-0.23548130518450214,8.74733269233679,4.367359266381783,-0.4922222222222222,-0.3477777777777778,-0.44,-0.0888318661311101,-0.03443488819079295,-0.019445878946705415
1592167874.3694572,-0.22385608445295577,8.783734322585785,4.441754678757638,-0.4922222222222222,-0.3477777777777778,-0.44,-0.10358379683644722,-0.04971460589476823,0.016176027830516988
1592167874.3794572,-0.07526358988298457,8.885925168259032,4.5468066656108475,-0.4922222222222222,-0.3477777777777778,-0.44,-0.10314216225683374,-0.04840651322949876,0.006956148282229355
1592167874.3894572,-0.04617479033535155,8.862551681982744,4.704332263218286,-0.4711111111111111,-0.36,-0.4266666666666667,-0.09208951115120054,-0.04239708249015168,-0.013748367969135816
1592167874.3994572,0.041977799237852505,8.97620345354971,4.809167930024421,-0.4711111111111111,-0.36,-0.4266666666666667,-0.07181245166359082,-0.03448631966111623,-0.04547890901417673
1592167874.4094572,-0.15047705172181924,8.682694391094138,4.742193503820752,-0.4711111111111111,-0.36,-0.4266666666666667,-0.059203218986837,-0.02834475892220854,-0.0487272943533422
1592167874.4194572,-0.11206130000753818,8.815234307066484,4.4679634369728145,-0.4711111111111111,-0.36,-0.4266666666666667,-0.06041703809993264,-0.028038561434038815,-0.006087199067942908
1592167874.4294572,-0.12642050107260658,8.879230688013394,4.445398534884784,-0.4711111111111111,-0.36,-0.4266666666666667,-0.06846703921967383,-0.021140652604976634,-0.03571438661469719
1592167874.4394572,-0.32606689608199046,8.7158855418565,4.410439649176141,-0.4711111111111111,-0.3411111111111111,-0.4177777777777778,-0.0811412552797294,-0.024975367403454362,-0.021645208099509025
1592167874.4494572,-0.11128807205745535,8.811992431558139,4.538950899460974,-0.4711111111111111,-0.3411111111111111,-0.4177777777777778,-0.09228473858472766,-0.01826189084208513,-0.02168326141527234
1592167874.4594572,-0.10050967989377747,8.79804248780362,4.813303187144861,-0.4711111111111111,-0.3411111111111111,-0.4177777777777778,-0.08160178245300187,-0.009333556848073053,-0.023481891226500937
1592167874.4694571,-0.03495335881060706,8.714944504698792,4.9024288859991465,-0.4711111111111111,-0.3411111111111111,-0.4177777777777778,-0.06523892749145689,0.005836488682314523,-0.006293927491456894
1592167874.4794571,-0.17764387916210334,8.773987260017497,4.888083993593988,-0.4718167034697615,-0.3418167034697615,-0.4169545866926856,-0.04825036170211824,0.022660053237445417,0.0070921012026855315
1592167874.4894571,-0.25530266147197467,8.806154510880031,4.84658563440703,-0.4777777777777778,-0.3477777777777778,-0.41,-0.03233575922824536,0.04897408292385957,0.009930806284523617
1592167874.4994571,-0.24018016535768927,8.866844921698187,4.835359857184276,-0.4777777777777778,-0.3477777777777778,-0.41,-0.014329424078429253,0.07414047120819847,-0.027928759168983845
1592167874.509457,-0.47772210772637325,8.64153195885605,4.78347757880317,-0.4777777777777778,-0.3477777777777778,-0.41,-0.005901915031540984,0.06556883292204854,-0.027002812893511363
1592167874.519457,-0.41363727731938615,8.743960416971026,4.585428556179671,-0.4777777777777778,-0.3477777777777778,-0.41,-0.004597387167253036,0.03962184249221216,0.019450215674807675
1592167874.529457,-0.291375190544729,8.811090319323451,4.647464733377141,-0.4777777777777778,-0.3477777777777778,-0.41,0.004091335146944554,0.011779967845107986,0.02415370718253674
1592167874.539457,-0.3717557206932348,8.736822187642247,4.773688273716473,-0.4711111111111111,-0.32666666666666666,-0.38222222222222224,0.015118630583945627,-0.013162355542681647,0.02220340671394571
1592167874.549457,-0.3341957716716525,8.789994222775528,4.801502719544407,-0.4711111111111111,-0.32666666666666666,-0.38222222222222224,0.02857238391293971,-0.04305258235274374,0.024700308043530142
1592167874.559457,-0.28310585685646333,8.863195679432543,4.8458203079797215,-0.4711111111111111,-0.32666666666666666,-0.38222222222222224,0.05154826112551487,-0.05247385986830326,0.005909057353880042
1592167874.569457,-0.2654101777320077,8.86656795140111,4.789218408665114,-0.4711111111111111,-0.32666666666666666,-0.38222222222222224,0.0735145751952957,-0.054794,-0.03624375452222349
1592167874.579457,-0.38224831266195597,8.77292079071753,4.727924860136988,-0.4711111111111111,-0.32666666666666666,-0.38222222222222224,0.0853076853447622,-0.06590692442839224,-0.055636880458184976
1592167874.589457,-0.36666898579756957,8.755479886904375,4.677370339651002,-0.48444444444444446,-0.31444444444444447,-0.38222222222222224,0.09610462039918226,-0.08309213817523425,-0.0411653878804199
1592167874.599457,-0.15671049268992016,8.862914101911887,4.683674973768383,-0.48444444444444446,-0.31444444444444447,-0.38222222222222224,0.107753722153377,-0.0914678470814083,-0.05021272215337701
1592167874.609457,-0.10030402562983408,8.76103632971858,4.646584025629834,-0.48444444444444446,-0.31444444444444447,-0.38222222222222224,0.1191797375682497,-0.102722,-0.05067838108922183
1592167874.619457,-0.028558098142142517,8.786296944562471,4.502769988500556,-0.48444444444444446,-0.31444444444444447,-0.38222222222222224,0.11907548053539727,-0.101669,-0.03483102749733017
1592167874.629457,-0.033499050126619606,8.732888023269814,4.492671779984016,-0.48444444444444446,-0.31444444444444447,-0.38222222222222224,0.10540371283464399,-0.09537686290736885,-0.0012042177701852043
1592167874.639457,-0.027908862773399157,8.844358504148046,4.425433091633957,-0.4711111111111111,-0.32,-0.3566666666666667,0.09269194768370703,-0.09008430400830203,0.0035203458094962303
1592167874.649457,-0.109406161407789,8.888455781888139,4.343168558402923,-0.4711111111111111,-0.32,-0.3566666666666667,0.079362459926998,-0.07763329138195744,-0.010831438966990837
1592167874.659457,-0.2931751729015632,8.823112149863402,4.243777810679873,-0.4711111111111111,-0.32,-0.3566666666666667,0.05437648310410251,-0.07162467043220085,-0.031237074308006423
1592167874.669457,-0.30486963311555704,8.869804648982633,4.263293893151765,-0.4711111111111111,-0.32,-0.3566666666666667,0.02860090569133701,-0.07954801137275394,-0.025375
1592167874.679457,-0.1475183991148275,8.898018839845564,4.373690574090289,-0.4711111111111111,-0.32,-0.3566666666666667,0.014655956030538191,-0.0873295219847309,-0.03761203485023021
1592167874.689457,-0.06716119428563538,8.899358758491575,4.416657965341053,-0.46555555555555556,-0.31222222222222223,-0.3411111111111111,0.00827363865901912,-0.07679274119235033,-0.06158005907135304
1592167874.699457,-0.13191383017418432,8.844361757826594,4.482222644518435,-0.46555555555555556,-0.31222222222222223,-0.3411111111111111,0.0032452733886699186,-0.06487576381354519,-0.07645757296998504
1592167874.709457,-0.25815815334144926,8.696081034918604,4.413248343214028,-0.46555555555555556,-0.31222222222222223,-0.3411111111111111,-0.006936834295825719,-0.05167102825399821,-0.04094565051209098
1592167874.719457,-0.1715982399995578,8.871253234989272,4.283182804935883,-0.46555555555555556,-0.31222222222222223,-0.3411111111111111,-0.029841199234238454,-0.02063538341949628,-0.010514774949938355
1592167874.729457,-0.17566691220680974,8.841111582441362,4.330572329765448,-0.46555555555555556,-0.31222222222222223,-0.3411111111111111,-0.054317441028307184,0.020340557887501214,-0.010001759764188774
1592167874.739457,-0.31364272480047395,8.843578468795867,4.440032391470688,-0.45111111111111113,-0.31222222222222223,-0.32,-0.07126391783219234,0.05058027967231028,-0.018997
1592167874.749457,-0.40515277612852757,8.836551425411672,4.540971390356264,-0.45111111111111113,-0.31222222222222223,-0.32,-0.07117832404788305,0.06439676237039467,-0.015834027856350852
1592167874.7594569,-0.5164908567766177,8.833904760062644,4.5618085340065235,-0.45111111111111113,-0.31222222222222223,-0.32,-0.0675342357596712,0.06501584368198271,-0.01591740909963812
1592167874.7694569,-0.6581313919054429,8.77935450144214,4.528605382189632,-0.45111111111111113,-0.31222222222222223,-0.32,-0.05725845113499564,0.03893005775938767,-0.005977268048054642
1592167874.7794569,-0.6688114354955567,8.750940061128842,4.345613301634992,-0.45111111111111113,-0.31222222222222223,-0.32,-0.06366427044081235,0.014387495679088232,0.02233069652619138
1592167874.7894568,-0.5654023154264682,8.821575946747757,4.357421531188303,-0.46,-0.29333333333333333,-0.2911111111111111,-0.08314528287568623,0.011533136545197676,0.034580035157246544
1592167874.7994568,-0.5867239585789232,8.960044132771106,4.4359324872003,-0.46,-0.29333333333333333,-0.2911111111111111,-0.10258284205450591,0.026789842722603235,0.0008357502850000562
1592167874.8094568,-0.8120204059871284,8.7538602379483,4.6086831433533275,-0.46,-0.29333333333333333,-0.2911111111111111,-0.114151,0.027219255895175723,-0.021160863602170857
1592167874.8194568,-0.6907340130364463,8.82976507781005,4.73941877263975,-0.46,-0.29333333333333333,-0.2911111111111111,-0.11003264823230646,0.030352668399293726,-0.02657517180305393
1592167874.8294568,-0.7338170487066035,8.854859804068102,4.8338611215242375,-0.46,-0.29333333333333333,-0.2911111111111111,-0.09318819784229763,0.040024,-0.05007864442599283
1592167874.8394568,-0.8389898741635681,8.703144710226908,4.950532834233161,-0.4722222222222222,-0.29333333333333333,-0.29777777777777775,-0.06652455097370537,0.03769003377845396,-0.032718237882741946
1592167874.8494568,-0.8255226130163857,8.742184766542305,5.0259535321726885,-0.4722222222222222,-0.29333333333333333,-0.29777777777777775,-0.03348499904414545,0.04803207737127007,-0.009503745299769571
1592167874.8594568,-0.8719931403864289,8.727650909346865,4.797543765360768,-0.4722222222222222,-0.29333333333333333,-0.29777777777777775,-0.006343136093803445,0.046644705249374176,0.007002416585352736
1592167874.8694568,-1.0313502578526368,8.617367764213261,4.6576742713469415,-0.4722222222222222,-0.29333333333333333,-0.29777777777777775,0.001968,0.024797385050064992,0.052662206033691046
1592167874.8794568,-0.9208403792853458,8.862169745480964,4.708936945428765,-0.4722222222222222,-0.29333333333333333,-0.29777777777777775,0.002930066325659154,0.023103078171946876,0.05970592182805313
1592167874.8894567,-1.0356410734547588,8.86526423474795,4.7323915179605125,-0.46,-0.28555555555555556,-0.28444444444444444,0.013286392650549789,0.037220335897447936,0.024986764723759457
1592167874.8994567,-1.081422422596951,8.831773348468527,4.843887,-0.46,-0.28555555555555556,-0.28444444444444444,0.033059722046386665,0.018249479544925708,0.01166309646697912
1592167874.9094567,-0.997912382843165,8.819013845034982,4.707017709510475,-0.46,-0.28555555555555556,-0.28444444444444444,0.05639032515583465,-0.0074201910446644375,-0.00015164839835697533
1592167874.9194567,-0.9553619864965652,8.792254819898178,4.600812320741458,-0.46,-0.28555555555555556,-0.28444444444444444,0.06309605898951981,-0.020051058989519813,-0.004560664737071869
1592167874.9294567,-0.7786238240624124,8.801026760450323,4.456473241955528,-0.46,-0.28555555555555556,-0.28444444444444444,0.06019866693893412,-0.022656332396911373,0.008713
1592167874.9394567,-0.6501438057120235,8.811012782606266,4.412613085688044,-0.43333333333333335,-0.2788888888888889,-0.25555555555555554,0.04249550199351306,-0.0012973503362658668,-0.0005959836500327552
1592167874.9494567,-0.7478591180794092,8.792640186372314,4.461743135824825,-0.43333333333333335,-0.2788888888888889,-0.25555555555555554,0.02812978153868853,0.014915218461311469,0.008692151349844138
1592167874.9594567,-0.6995430339931832,8.755021691109278,4.457187581914238,-0.43333333333333335,-0.2788888888888889,-0.25555555555555554,0.015364645490565581,0.025278841358150592,0.028144762037225893
1592167874.9694567,-0.6338479997905708,8.833784868438123,4.370152867607697,-0.43333333333333335,-0.2788888888888889,-0.25555555555555554,0.0066835319762330305,0.02818274613737425,0.031020873068687123
1592167874.9794567,-0.611263592328623,8.803174213006018,4.3533991460970025,-0.43333333333333335,-0.2788888888888889,-0.25555555555555554,-0.013186471169015133,0.018409726612853103,0.029947732419646652
1592167874.9894567,-0.6395301905041243,8.825681149060228,4.330333124456436,-0.45945294576233436,-0.2788888888888889,-0.2620854586628058,-0.0299909766821597,0.0027363533438663143,0.024691669973973988
1592167874.9994566,-0.6032429525203837,8.815096837522818,4.412816088475454,-0.46,-0.2788888888888889,-0.26222222222222225,-0.04470696350206439,0.0005667149949877539,0.019391714786664852
1592167875.0094566,-0.5940417763818296,8.837624461217727,4.4773759742722214,-0.46,-0.2788888888888889,-0.26222222222222225,-0.057379307209607266,0.005684279944911148,0.009089608076803892
1592167875.0194566,-0.6190011755826706,8.796007641154812,4.50723447860845,-0.46,-0.2788888888888889,-0.26222222222222225,-0.06256664389886844,0.01497501979824745,0.008531581931652831
1592167875.0294566,-0.6922252088864604,8.810402997467234,4.568555214397544,-0.46,-0.2788888888888889,-0.26222222222222225,-0.06929349721772307,0.02262438069550788,0.002791457721849436
1592167875.0394566,-0.8494945330766378,8.770890504004395,4.845317665243586,-0.42123632509495534,-0.2644909524955866,-0.24893181939763548,-0.05793769629941474,0.022202538333617725,0.005217461666382275
1592167875.0494566,-0.8903440925633542,8.732831906773681,4.954961595915548,-0.4211111111111111,-0.2644444444444444,-0.24888888888888888,-0.026383272186871528,0.0037473561636661695,0.015665077675744956
1592167875.0594566,-0.911350501743975,8.781442594201858,4.817190607456546,-0.4211111111111111,-0.2644444444444444,-0.24888888888888888,0.004876873558604673,-0.030672105506769184,0.02661095142388447
1592167875.0694566,-0.9180301973686598,8.82607543523298,4.69791902063179,-0.4211111111111111,-0.2644444444444444,-0.24888888888888888,0.020826944114817895,-0.06519829577390221,0.009935326114668349
1592167875.0794566,-0.8951861679141954,8.83145401770852,4.632319279564959,-0.4211111111111111,-0.2644444444444444,-0.24888888888888888,0.02967537861846785,-0.0889160083602695,-0.0065034542722861004
1592167875.0894566,-0.8128009343160549,8.824865805288582,4.560494116954917,-0.42777777777777776,-0.27111111111111114,-0.24888888888888888,0.03149639780395535,-0.11135020324341013,-0.017929
1592167875.0994565,-0.6687339455451735,8.812982966417874,4.553364285264521,-0.42777777777777776,-0.27111111111111114,-0.24888888888888888,0.028914492630377098,-0.1173255073696229,-0.02910772495375616
1592167875.1094565,-0.6296636703616402,8.820364928726011,4.65169023407325,-0.42777777777777776,-0.27111111111111114,-0.24888888888888888,0.028243397912135707,-0.10766620768678127,-0.040684730544789854
1592167875.1194565,-0.7528601321027077,8.77430526189196,4.6902860357533225,-0.42777777777777776,-0.27111111111111114,-0.24888888888888888,0.03209433044168977,-0.09968072535892375,-0.045319027900306764
1592167875.1294565,-0.7539495757870954,8.773801575787095,4.64263722866841,-0.42777777777777776,-0.27111111111111114,-0.24888888888888888,0.035238001357260226,-0.08797430634065558,-0.036604482088040804
1592167875.1394565,-0.7537988419943167,8.766533143346125,4.578928520705032,-0.42151519514331304,-0.26484852847664636,-0.24367007002683497,0.03418302047204528,-0.0823080701180308,-0.02572223691714994
1592167875.1494565,-0.660667522198294,8.711141728949912,4.529567695230607,-0.4211111111111111,-0.2644444444444444,-0.24333333333333335,0.024897451986718003,-0.060408867114993554,0.006641499518727864
1592167875.1594565,-0.4833633340339223,8.76450380370227,4.45332855180106,-0.4211111111111111,-0.2644444444444444,-0.24333333333333335,0.012472480069923055,-0.04078820485331729,0.04178948982255167
1592167875.1694565,-0.1749616141545046,8.790760917103968,4.444224836980407,-0.4211111111111111,-0.2644444444444444,-0.24333333333333335,-0.0007655542955630435,-0.04670660428250616,0.06198016739462771
1592167875.1794565,0.10360293027180656,8.855289000807224,4.470142296733652,-0.4211111111111111,-0.2644444444444444,-0.24333333333333335,-0.01755675534816397,-0.0130083455647148,0.05472879517595505
1592167875.1894565,0.23678337994336046,8.830468148155106,4.5206973682912635,-0.4274130571249215,-0.2644444444444444,-0.26328949571039967,-0.028710698071963144,0.0021836155311208668,0.029493833029158086
1592167875.1994565,0.16708647232055915,8.802341401268084,4.6467610869103915,-0.42777777777777776,-0.2644444444444444,-0.2644444444444444,-0.029261502944729217,0.014735805889325436,0.010154298621409243
1592167875.2094564,0.08186411397225674,8.81887750076837,4.702671183482411,-0.42777777777777776,-0.2644444444444444,-0.2644444444444444,-0.022985048152876254,0.015094525117987277,-0.00938982324119828
1592167875.2194564,-0.016826163248457184,8.785603075442928,4.750519238691387,-0.42777777777777776,-0.2644444444444444,-0.2644444444444444,-0.010981780110202188,0.012200513287914903,-0.01725668134478109
1592167875.2294564,-0.09646284522843204,8.8110646852017,4.816187546284204,-0.42777777777777776,-0.2644444444444444,-0.2644444444444444,0.002765111318926893,0.0073263917665949575,-0.018629112402981336
1592167875.2394564,-0.1868076057456215,8.764403134522851,4.820603634740704,-0.43203970718343393,-0.2601825150387883,-0.24824911270295105,0.018472906382548733,-0.0038569339414063434,-0.014796706160146788
1592167875.2494564,-0.1836444692631145,8.77995198711072,4.804578518305326,-0.43333333333333335,-0.2588888888888889,-0.24333333333333335,0.03179547219133592,-0.008987,-0.007111830765710853
1592167875.2594564,-0.16094377115527436,8.772407035444555,4.739006740958937,-0.43333333333333335,-0.2588888888888889,-0.24333333333333335,0.04516752966382525,-0.00949959457350312,-5.0782411560128726e-05
1592167875.2694564,-0.13023281941891474,8.800169700483796,4.6610327209844,-0.43333333333333335,-0.2588888888888889,-0.24333333333333335,0.05547078013453442,-0.010227639509859861,0.00444
1592167875.2794564,-0.04889953187036835,8.810157771872644,4.523367562223517,-0.43333333333333335,-0.2588888888888889,-0.24333333333333335,0.05436062645225545,-0.011769119831788957,0.005931677872873385
1592167875.2894564,0.04494046628803951,8.822153911827188,4.417842517496849,-0.428294071146245,-0.26392815107597717,-0.23023125164690383,0.04394996908117831,-0.023954078239923383,-0.0011321596415496324
1592167875.2994564,0.044134597846186244,8.834954227890472,4.26856185521221,-0.42777777777777776,-0.2644444444444444,-0.2288888888888889,0.022737717919398787,-0.035346065916740346,-0.016432601992030737
1592167875.3094563,-0.05127623529528602,8.827356373425319,4.306754604869828,-0.42777777777777776,-0.2644444444444444,-0.2288888888888889,-0.0034944291251731586,-0.045212,-0.022186
1592167875.3194563,-0.1045224129601893,8.801668672822093,4.515955478817564,-0.42777777777777776,-0.2644444444444444,-0.2288888888888889,-0.01838487642918477,-0.04382927251354197,-0.02122287642918477
1592167875.3294563,-0.101288,8.810146647354957,4.669111191110124,-0.42777777777777776,-0.2644444444444444,-0.2288888888888889,-0.015836751897769237,-0.03385434893970463,-0.021040917318961135
1592167875.3394563,-0.11003642911077181,8.806332719259794,4.845045722547366,-0.42777777777777776,-0.25460073735376504,-0.2405223609051464,-0.0039363924006117,-0.016155725341950106,-0.018850018613422205
1592167875.3494563,-0.1411679583216341,8.793798946070243,4.942745190765239,-0.42777777777777776,-0.25222222222222224,-0.24333333333333335,0.02134346713779707,-0.0014358280032783115,-0.014680026822404525
1592167875.3594563,-0.1445198404275555,8.802575523968681,4.966873380739626,-0.42777777777777776,-0.25222222222222224,-0.24333333333333335,0.04867575036104553,0.01118478576917736,-0.008369208448269445
1592167875.3694563,-0.1441964417958983,8.798365082785415,4.903247765866934,-0.42777777777777776,-0.25222222222222224,-0.24333333333333335,0.0802692634194883,0.015558525923347997,-0.00621
1592167875.3794563,-0.1504730811741286,8.815296457708671,4.714815936596236,-0.42777777777777776,-0.25222222222222224,-0.24333333333333335,0.09948368139160962,0.00839763881139924,-0.0010889994684605032
1592167875.3894563,-0.14623546217388747,8.809881474338702,4.550074228075114,-0.4223332583982403,-0.2622038410847075,-0.2315368746776689,0.10230209448624855,-0.004116156811522911,0.003181905513751437
1592167875.3994563,-0.14165025623975125,8.836677365385142,4.379980512330509,-0.4211111111111111,-0.2644444444444444,-0.2288888888888889,0.09222621531342574,-0.007788659009113297,0.00911600363533466
1592167875.4094563,-0.10143205131357885,8.819664187003273,4.450157604968202,-0.4211111111111111,-0.2644444444444444,-0.2288888888888889,0.07746958744033001,-3.531796237836232e-05,0.011902
1592167875.4194562,0.004133233581934358,8.844134311589894,4.52697622282879,-0.4211111111111111,-0.2644444444444444,-0.2288888888888889,0.0756533171316434,0.0012937543815615576,0.009082245618438442
1592167875.4294562,0.06652666067998372,8.880627326538841,4.523071976025024,-0.4211111111111111,-0.2644444444444444,-0.2288888888888889,0.07568072035174457,-0.001101557582098545,0.000394330682528996
1592167875.4394562,0.009246358524048152,8.861398253452576,4.461375883659906,-0.4251610842850208,-0.2610694667995197,-0.2329388620627986,0.074402,-0.002937452684632735,-0.009746618621716113
1592167875.4494562,-0.06061937341190413,8.847666426818106,4.4089487125331335,-0.42777777777777776,-0.2588888888888889,-0.23555555555555555,0.06540184544740084,-0.00950425512650992,-0.01630951331316106
1592167875.4594562,-0.08290716114657516,8.854365585837128,4.352359839718935,-0.42777777777777776,-0.2588888888888889,-0.23555555555555555,0.052781243598101234,-0.013406651887027709,-0.016861
1592167875.4694562,-0.12035370802158403,8.842559202501885,4.332152538753688,-0.42777777777777776,-0.2588888888888889,-0.23555555555555555,0.04016064174781079,-0.015712330839327795,-0.016861
1592167875.4794562,-0.1689266364354935,8.847160688113593,4.384004385982224,-0.42777777777777776,-0.2588888888888889,-0.23555555555555555,0.027579214957390612,-0.012908116400592265,-0.011559540356502215
1592167875.4894562,-0.15287502030576736,8.837357242335983,4.373813455999006,-0.4308151702515378,-0.26982350179442494,-0.23859294802931558,0.01913059409148396,-0.010571357993583786,-0.005266175437163563
1592167875.4994562,-0.22397709623370166,8.834941772162278,4.323788261657626,-0.43333333333333335,-0.2788888888888889,-0.2411111111111111,0.0049315931160822295,-0.003863088014930338,0.004675437514139171
1592167875.5094562,-0.17676158472440384,8.833232030139097,4.328798091116246,-0.43333333333333335,-0.2788888888888889,-0.2411111111111111,-0.01084135643788116,0.006084649156358341,0.012059253464394822
1592167875.5194561,-0.11258816482151243,8.82510132119919,4.3785445867746615,-0.43333333333333335,-0.2788888888888889,-0.2411111111111111,-0.022849331555647796,0.01348366596854296,0.017227
1592167875.5294561,-0.10432915990404662,8.854877413229435,4.413134657018649,-0.43333333333333335,-0.2788888888888889,-0.2411111111111111,-0.03430207847301812,0.017135215651726626,0.018295
1592167875.5394561,-0.08497501528311771,8.848697529743696,4.413628873639601,-0.4367167919799499,-0.27494152046783626,-0.2411111111111111,-0.042229798790726185,0.021885044279282784,0.017756245488556602
1592167875.5494561,-0.07853389307069197,8.859433853593588,4.49329914695267,-0.44,-0.27111111111111114,-0.2411111111111111,-0.04590990390303,0.02717190390303,0.018861548048485
1592167875.559456,-0.06035935968782919,8.857577631586954,4.538272500907009,-0.44,-0.27111111111111114,-0.2411111111111111,-0.0476373417964175,0.026884025389252494,0.015691994299276802
1592167875.569456,-0.042009945057115756,8.849614618457426,4.637309081570225,-0.44,-0.27111111111111114,-0.2411111111111111,-0.04314003137913264,0.025282610856229994,0.013151610856229994
1592167875.579456,-0.004987883904319205,8.866423886036124,4.5843752775531,-0.44,-0.27111111111111114,-0.2411111111111111,-0.036862289705638554,0.019775,0.008354638566561646
1592167875.589456,-0.052822259280675264,8.839647633918025,4.5297869427853925,-0.43661399742378704,-0.27506144745002625,-0.233774772195983,-0.03212,0.017254204458035015,0.0008607230400583059
1592167875.599456,-0.12693617578144423,8.82070092239406,4.555206017827943,-0.43333333333333335,-0.2788888888888889,-0.22666666666666666,-0.030700803141380774,0.014098803141380773,0.0012511481642038997
1592167875.609456,-0.10134646945982849,8.830721338249617,4.603386306721175,-0.43333333333333335,-0.2788888888888889,-0.22666666666666666,-0.027956712501625264,0.008383290074714398,0.006577
1592167875.619456,-0.15114024058725062,8.800813047561528,4.597212557795666,-0.43333333333333335,-0.2788888888888889,-0.22666666666666666,-0.022242971720794053,0.01000295522695484,0.00822892694774889
1592167875.629456,-0.07634157845316744,8.827129119450916,4.618143830224332,-0.43333333333333335,-0.2788888888888889,-0.22666666666666666,-0.016960515404072944,0.0149792805815775,0.0081837194184225
