time,acc_x,acc_y,acc_z,mag_x,mag_y,mag_z,gyr_x,gyr_y,gyr_z
1592167943.4893913,-0.10892668895260228,8.925521361328055,4.350633390909858,-0.4,-0.09,-0.31222222222222223,-0.007966188002708667,-0.008255872578945611,0.02827225484210878
1592167943.4993913,-0.18488101114541644,8.932722150834152,4.437303016533807,-0.4,-0.09,-0.31222222222222223,-0.006946543589242524,-0.008961659571641464,0.03670979008392849
1592167943.5093913,-0.28656306152871,8.927119648051038,4.457939810478726,-0.4,-0.09,-0.31222222222222223,0.001739751632150836,-0.02772613579232172,0.05379505594150455
1592167943.5193913,-0.17384734410505415,8.931247826560107,4.3099462745174995,-0.4,-0.07777777777777778,-0.3055555555555556,0.0034412538225864183,-0.03603425382258642,0.06968663462846343
1592167943.5293913,-0.049755023811245455,8.94994654685518,4.241051424256457,-0.4,-0.07777777777777778,-0.3055555555555556,-0.005376545988219349,-0.03959006556928291,0.07246117464018531
1592167943.5393913,-0.014975305173716454,8.946559467993323,4.2185423666706034,-0.4,-0.07777777777777778,-0.3055555555555556,-0.02033929914148228,-0.05063222366146545,0.05582252989815318
1592167943.5493913,-0.016648714922151597,8.936713643762154,4.212161352306659,-0.4,-0.07777777777777778,-0.3055555555555556,-0.03759575180977555,-0.057161999499932115,0.0038274438260716345
1592167943.5593913,-0.2085263682703569,8.952026507944698,4.209802132353503,-0.4,-0.07777777777777778,-0.3055555555555556,-0.05128437968482689,-0.0665286203151731,-0.0285492090781505
1592167943.5693913,-0.2986597168780574,8.890604505069737,4.3051981135279025,-0.4122222222222222,-0.08333333333333333,-0.31777777777777777,-0.05819280327957411,-0.05173567019537233,-0.0246682013744211
1592167943.5793912,-0.313302504942283,8.904807295447632,4.4780089715495475,-0.4122222222222222,-0.08333333333333333,-0.31777777777777777,-0.05478475374616025,-0.046871317359854156,-0.01320180166659778
1592167943.5893912,-0.3639858518321886,8.902364589148554,4.488230922786357,-0.4122222222222222,-0.08333333333333333,-0.31777777777777777,-0.050004427267967486,-0.040277538375584065,-0.01602666667715026
1592167943.5993912,-0.5047180202977437,8.898374353425575,4.502332869571421,-0.4122222222222222,-0.08333333333333333,-0.31777777777777777,-0.04131152461686338,-0.039871,-0.00976665733492476
1592167943.6093912,-0.5346287899128965,8.899953394510876,4.4691787268809735,-0.4122222222222222,-0.08333333333333333,-0.31777777777777777,-0.03487879441409962,-0.04691464592524574,-0.0023163013964750956
1592167943.6193912,-0.48134294903584124,8.87631457059249,4.386604333695601,-0.38666666666666666,-0.09,-0.30333333333333334,-0.03247050764858682,-0.08592380501866036,-0.007936543658910823
1592167943.6293912,-0.4010333763005305,8.919362320141742,4.150034286185367,-0.38666666666666666,-0.09,-0.30333333333333334,-0.043867376175034334,-0.12759346625063545,-0.02827519477307103
1592167943.6393912,-0.37874652145326276,8.906130210353119,4.0717438857097,-0.38666666666666666,-0.09,-0.30333333333333334,-0.06598197812190199,-0.1726835504648494,-0.044434624120192494
1592167943.6493912,-0.449351467143978,8.863985843601935,4.109064278151991,-0.38666666666666666,-0.09,-0.30333333333333334,-0.09357429787752461,-0.19354003137609094,-0.06653876147430922
1592167943.6593912,-0.5078350803570609,8.882390469754112,4.156916319665396,-0.38666666666666666,-0.09,-0.30333333333333334,-0.11540566640171325,-0.20918131664527598,-0.10639999152349462
1592167943.6693912,-0.4199995214043346,8.88391966227983,4.350660140888783,-0.39222222222222225,-0.09,-0.3088888888888889,-0.13160521059235983,-0.22232662167294753,-0.126587
1592167943.6793911,-0.42465584798946426,8.910789578244712,4.655408199411941,-0.39222222222222225,-0.09,-0.3088888888888889,-0.12516969915907286,-0.20199500865356565,-0.11434268639842478
1592167943.6893911,-0.48685019620540654,8.894495462901489,4.8418791047557255,-0.39222222222222225,-0.09,-0.3088888888888889,-0.09745521531739736,-0.16343263519941548,-0.0962539614986198
1592167943.6993911,-0.4689805730429957,8.881305131897571,4.8337591677614675,-0.39222222222222225,-0.09,-0.3088888888888889,-0.05938897681236497,-0.13661304597451537,-0.07239729741565468
1592167943.709391,-0.43867563122406655,8.870334048539895,4.6972895455332635,-0.39222222222222225,-0.09,-0.3088888888888889,-0.03347090751630483,-0.13147835304202804,-0.061425007039009404
1592167943.719391,-0.40206929434860794,8.864493693095998,4.584874917077089,-0.4115810594634124,-0.09,-0.3035114340996694,-0.018042027590595647,-0.148529,-0.05248875529276325
1592167943.729391,-0.363990306754012,8.889642497585736,4.568286168646841,-0.4122222222222222,-0.09,-0.30333333333333334,-0.0097187570579764,-0.15195461105834612,-0.034624961941469024
1592167943.739391,-0.30986121894574964,8.885935899819206,4.618221209030054,-0.4122222222222222,-0.09,-0.30333333333333334,-0.000186516618334822,-0.15281587769531235,-0.0136778328236998
1592167943.749391,-0.23426241186723723,8.869139995844447,4.767815645481498,-0.4122222222222222,-0.09,-0.30333333333333334,0.01871130168417271,-0.12137480585052819,-0.017778862303630537
1592167943.759391,-0.5363707634438026,8.845781676096667,4.639361502390159,-0.4122222222222222,-0.09,-0.30333333333333334,0.04080725031860542,-0.07317756557332744,-0.02350897855213358
1592167943.769391,-0.7173014348245546,8.813211099822006,4.924365985525033,-0.40444444444444444,-0.09777777777777778,-0.3322222222222222,0.06032893049261196,-0.03666006086316416,-0.012052408342484631
1592167943.779391,-0.4293908438176268,8.85861217371401,4.909986469782123,-0.40444444444444444,-0.09777777777777778,-0.3322222222222222,0.10195921588449275,-0.004499916789466896,-0.057431866505094825
1592167943.789391,-0.7482831402127241,8.917312088162234,4.335730913815328,-0.40444444444444444,-0.09777777777777778,-0.3322222222222222,0.11474085661507594,-0.008844856615075933,-0.00967887612855019
1592167943.799391,-0.5721664297099454,8.866986928470727,4.35802509816153,-0.40444444444444444,-0.09777777777777778,-0.3322222222222222,0.10510810729116064,-0.01876289270883936,0.005841815059831037
1592167943.809391,-0.4592289359265649,8.904251088608984,4.175654166662783,-0.40444444444444444,-0.09777777777777778,-0.3322222222222222,0.09458354112248617,-0.028817239003596787,-0.01778000610560785
1592167943.819391,-0.5161463435089546,8.934023343280606,3.9458139593668298,-0.38,-0.10444444444444445,-0.3233333333333333,0.06751908698731067,-0.022358089386289255,-0.014601453626483876
1592167943.829391,-0.4698069243058497,8.884362578968599,3.8522577448005793,-0.38,-0.10444444444444445,-0.3233333333333333,0.02323618159691071,-0.027371762932208298,0.007385238745507686
1592167943.839391,-0.34766868921025773,8.915620843956042,3.968568842353791,-0.38,-0.10444444444444445,-0.3233333333333333,-0.017565980276431796,-0.029043252975842482,0.0032990206038684836
1592167943.849391,-0.3475445761110241,8.925527692754164,4.001826988912468,-0.38,-0.10444444444444445,-0.3233333333333333,-0.05034079525730282,-0.029330756771962375,-0.0025798336579141946
1592167943.859391,-0.3716205723921029,8.91716100347553,4.024386054595738,-0.38,-0.10444444444444445,-0.3233333333333333,-0.08052041827566957,-0.03385347646650759,0.008746307650565548
1592167943.869391,-0.33619070384435196,8.895344557060351,4.070316838588668,-0.4024043561633923,-0.10953634357248815,-0.33759065089185575,-0.10820395519088254,-0.025834099148971962,0.01234001729946169
1592167943.879391,-0.26636121648663075,8.886451128205062,4.077629090436248,-0.40444444444444444,-0.11,-0.3388888888888889,-0.13758563817795005,-0.02225784112042824,0.0006794342360667491
1592167943.889391,-0.3434713880034406,8.845123983009113,4.072499364295576,-0.40444444444444444,-0.11,-0.3388888888888889,-0.16849713064335328,-0.02985047435551575,-0.011726948711031505
1592167943.899391,-0.27533919262479467,8.850816355661097,4.199851434953953,-0.40444444444444444,-0.11,-0.3388888888888889,-0.19411922432770004,-0.021361366924756178,-0.02725382952184307
1592167943.909391,-0.29197674221491937,8.83751658848688,4.252864602173255,-0.40444444444444444,-0.11,-0.3388888888888889,-0.2184551723880039,-0.01587511314016655,-0.04577548723062827
1592167943.919391,-0.43351592239674375,8.819942120518313,4.398394772769728,-0.40444444444444444,-0.11,-0.33234880850659826,-0.23620649325918616,-0.015927093111874943,-0.04188108805834041
1592167943.929391,-0.5094377381122285,8.862317850081727,4.655952485495367,-0.40444444444444444,-0.11,-0.3322222222222222,-0.23464029679259865,-0.017546844229711783,-0.037094
1592167943.939391,-0.48712759723002463,8.837456232290469,4.811141696553846,-0.40444444444444444,-0.11,-0.3322222222222222,-0.2115878774978232,-0.010639927996964806,-0.04194218001199155
1592167943.949391,-0.5404737772664833,8.805082361807093,4.797902688739452,-0.40444444444444444,-0.11,-0.3322222222222222,-0.18903932877239277,-0.017338687490650442,-0.03132875513512333
1592167943.9593909,-0.539851015649046,8.793242104263262,4.788935641054067,-0.40444444444444444,-0.11,-0.3322222222222222,-0.1671927588205381,-0.026248854724624238,-0.011091305298636051
1592167943.9693909,-0.47953984110888764,8.823728483247704,4.760737303558122,-0.41553860940384957,-0.11,-0.36180666211396917,-0.15255211099522914,-0.037579748411536315,0.011461725384469372
1592167943.9793909,-0.38143805592458546,8.769041790053489,4.797130037993317,-0.4177777777777778,-0.11,-0.36777777777777776,-0.13895048683512704,-0.040572536601561335,0.017928536601561334
1592167943.9893909,-0.3025876060147701,8.733328429635772,4.828247852470045,-0.4177777777777778,-0.11,-0.36777777777777776,-0.12665132139778146,-0.024681077993997103,0.003642151327697368
1592167943.9993908,-0.39124792650725193,8.78735298267609,4.807692922774621,-0.4177777777777778,-0.11,-0.36777777777777776,-0.11456148311181305,-0.02155209754133847,-0.005852725248929488
1592167944.0093908,-0.4808878530017857,8.795939717726732,4.968891895651157,-0.4177777777777778,-0.11,-0.36777777777777776,-0.08967945436620435,0.020575410113014378,0.01742332329653168
1592167944.0193908,-0.41910876912497136,8.753767273892404,5.041248083312395,-0.42390298800947196,-0.12327128883533733,-0.36063169917413457,-0.053721579107234844,0.08589020943587955,0.027383785982541955
1592167944.0293908,-0.5515067177201494,8.77536,4.865451262531045,-0.42444444444444446,-0.12444444444444444,-0.36,-0.024810662059091926,0.11561180061205015,0.021926328655783818
1592167944.0393908,-0.7658987775336744,8.776616886012983,4.697431257322638,-0.42444444444444446,-0.12444444444444444,-0.36,-0.014885447338153224,0.0986183099295514,0.03436006905968499
1592167944.0493908,-0.8502076952003177,8.805183644989688,4.4638964034582544,-0.42444444444444446,-0.12444444444444444,-0.36,-0.020998240204145993,0.0470193916918646,0.046815042633281144
1592167944.0593908,-0.6961108585999541,8.815937564007971,4.277898076870273,-0.42444444444444446,-0.12444444444444444,-0.36,-0.0430827093578325,-0.008240758261335893,0.053153240374587664
1592167944.0693908,-0.2534454337487837,8.81072625163649,4.260428509309547,-0.4272441265766041,-0.12444444444444444,-0.37119872852863867,-0.06460280817207172,-0.021589932175487717,0.00977150500623322
1592167944.0793908,-0.1139983927583236,8.74405176951523,4.310270400087318,-0.43,-0.12444444444444444,-0.38222222222222224,-0.08560307718566947,-0.006926658482458867,-0.03838904628865231
1592167944.0893908,-0.21239713859211273,8.73391902640278,4.357903912745565,-0.43,-0.12444444444444444,-0.38222222222222224,-0.12033049064990492,-0.018190711464819848,-0.029894800255913175
1592167944.0993907,-0.26419143683323754,8.721658394329289,4.521080082929627,-0.43,-0.12444444444444444,-0.38222222222222224,-0.15580971591648274,0.005922362626403152,0.01973027694453758
1592167944.1093907,-0.22527393643178031,8.772958217737793,4.7897045906682,-0.43,-0.12444444444444444,-0.38222222222222224,-0.16526884362583444,-0.0014412473254544183,0.07440005826319593
1592167944.1193907,-0.18617106416527762,8.782095407034298,4.972158269096631,-0.42520347836173367,-0.13020027041036406,-0.40044900444763426,-0.14349957342481515,-0.004520838577465746,0.09504236093482227
1592167944.1293907,-0.1609136405929373,8.924011846074825,5.049625438803212,-0.42444444444444446,-0.13111111111111112,-0.4033333333333333,-0.09573753468792381,0.0222836318781243,0.07964057930798674
1592167944.1393907,-0.13526512161155024,8.930573137547665,4.9678206268091865,-0.42444444444444446,-0.13111111111111112,-0.4033333333333333,-0.032917091727627495,0.04612665244932236,0.03738199298782634
1592167944.1493907,-0.3398311117418401,8.852805975418665,4.905522977575651,-0.42444444444444446,-0.13111111111111112,-0.4033333333333333,-0.00154324182907461,-0.02773095705464832,0.013720227921603718
1592167944.1593907,-0.47194988936192983,8.872642266747386,4.998715684885418,-0.42444444444444446,-0.13111111111111112,-0.4033333333333333,0.03772080962197516,-0.014948994753907277,0.02692273797122783
1592167944.1693907,-0.3988959897113576,8.905909617231496,5.08273363591541,-0.433480941161282,-0.12659286275269235,-0.40875523136343583,0.09367410617533979,-0.04302233982182778,0.02155085339636885
1592167944.1793907,-0.16992145252927587,8.890627521960734,5.011107134538726,-0.43555555555555553,-0.12555555555555556,-0.41,0.1510103301295709,0.017822615221946767,-0.02083029339660543
1592167944.1893907,-0.41523517128091836,8.819834792419519,4.859479573989747,-0.43555555555555553,-0.12555555555555556,-0.41,0.18294340723766517,-0.11493791280023646,-0.03947937379423705
1592167944.1993906,-0.5055925671460695,8.697290770088255,4.9599621180475655,-0.43555555555555553,-0.12555555555555556,-0.41,0.19501523785383118,-0.04947515732309126,0.034579047104520325
1592167944.2093906,-0.17142762964108266,8.804209657895743,4.770059005854548,-0.43555555555555553,-0.12555555555555556,-0.41,0.19037724355833263,-0.043125082546002405,0.10071226741667573
1592167944.2193906,-0.020050924319512258,8.796148995284218,4.608972319376367,-0.4463391828316856,-0.14173099646975068,-0.4261754409141951,0.18905861341617716,-0.06660839586592268,0.1020576948940927
1592167944.2293906,-0.13458170873511816,8.762101359891775,4.47092071032824,-0.4488888888888889,-0.14555555555555555,-0.43,0.18312008376255687,-0.08618180630751096,0.10278169158577041
1592167944.2393906,-0.08842164708469001,8.720455408892263,4.397396905771521,-0.4488888888888889,-0.14555555555555555,-0.43,0.1662006018689554,-0.08186711158141426,0.08373659418421872
1592167944.2493906,-0.11129622191318986,8.756901917250627,4.4091852717757,-0.4488888888888889,-0.14555555555555555,-0.43,0.14015634399002797,-0.106995,0.053156278960456785
1592167944.2593906,-0.11934084975374401,8.75415180237561,4.508443584118986,-0.4488888888888889,-0.14555555555555555,-0.43,0.1197224205626909,-0.10398239309341456,0.028442478088220608
1592167944.2693906,-0.04407144116560577,8.70435544020879,4.556296918171067,-0.4408538533575717,-0.1348421748471327,-0.43870462182559355,0.10111916255310725,-0.09787348245894076,0.008219753767415768
1592167944.2793906,-0.014515284360856275,8.792286093896081,4.5682247500524245,-0.43555555555555553,-0.12777777777777777,-0.4444444444444444,0.08926676992414188,-0.10857226323913002,0.00027665656972284715
1592167944.2893906,0.048118872030634544,8.6599352683742,4.702895562085892,-0.43555555555555553,-0.12777777777777777,-0.4444444444444444,0.08932235742004577,-0.10285331964686127,-0.019443437108607943
1592167944.2993906,0.10209314264773876,8.762291469052101,4.593763921201704,-0.43555555555555553,-0.12777777777777777,-0.4444444444444444,0.08205885634408853,-0.08745741590624363,-0.026943495943714903
1592167944.3093905,0.14959323773125965,8.766620409735673,4.416573658015574,-0.43555555555555553,-0.12777777777777777,-0.4444444444444444,0.06038765178626278,-0.09185119273549883,-0.01563365178626278
1592167944.3193905,0.13726718538474098,8.732385158346496,4.341884180251159,-0.44982737291947816,-0.15212381916329284,-0.4276540710751237,0.03187137812933526,-0.117804051288524,0.014635057721682707
1592167944.3293905,0.2677136822603364,8.673055185292986,4.382510134739672,-0.45444444444444443,-0.16,-0.4222222222222222,-0.0011413122833204888,-0.10226249154524043,0.03558657462920742
1592167944.3393905,0.3337075030029082,8.720766357012167,4.197276397696197,-0.45444444444444443,-0.16,-0.4222222222222222,-0.04957701006526789,-0.06577875325277822,0.024689
1592167944.3493905,0.15445618944453932,8.603361753094816,4.469997432937056,-0.45444444444444443,-0.16,-0.4222222222222222,-0.09212929051315248,-0.0654725668605492,0.011214752251301979
1592167944.3593905,0.09450612043184543,8.676225734851739,4.679351352025464,-0.45444444444444443,-0.16,-0.4222222222222222,-0.10808483144172555,-0.03863870434306473,-0.006117903995938916
1592167944.3693905,0.08534130462551136,8.775576787421295,4.806088300020717,-0.45839707093493753,-0.14577054463422495,-0.44910008235757515,-0.09905353989352936,-0.039219859240413706,-0.012720813512346364
1592167944.3793905,0.19911704305458078,8.744821747207467,4.779959194562182,-0.46,-0.14,-0.46,-0.06885634593107727,-0.022329908042654775,-0.039030484343048594
1592167944.3893905,0.22711495477872973,8.818747966687631,4.700546398883188,-0.46,-0.14,-0.46,-0.05468423652169569,-0.011495825848694075,-0.053654518752938286
1592167944.3993905,0.2799738979627884,8.793412625496742,4.564446018732893,-0.46,-0.14,-0.46,-0.04469646114332097,-0.0019731940112391244,-0.05860934888851576
1592167944.4093904,0.24737143122528105,8.856999102555564,4.526527651439729,-0.46,-0.14,-0.46,-0.050232,-0.021344440984180355,-0.03758420814620352
1592167944.4193904,0.26878623111386896,8.82222222861578,4.515542153250802,-0.4483808618504436,-0.1461153358681876,-0.46794993662864387,-0.052670291713374645,0.0009004307732201022,-0.017167567945975168
1592167944.4293904,0.29089453545534966,8.747392069066242,4.515601543749538,-0.4388888888888889,-0.1511111111111111,-0.47444444444444445,-0.07285656835373709,0.017908099119615956,0.003028776059007719
1592167944.4393904,0.2488305432243727,8.7201744224172,4.475570623948234,-0.4388888888888889,-0.1511111111111111,-0.47444444444444445,-0.09483156889185625,0.0777917181834927,-0.005661601321536438
1592167944.4493904,-0.0386250083155872,8.793771262552694,4.844313244123338,-0.4388888888888889,-0.1511111111111111,-0.47444444444444445,-0.10579820228344079,0.03801564096884487,0.016315063540560983
1592167944.4593904,-0.06082026813710506,8.836330599007807,5.172197247351755,-0.4388888888888889,-0.1511111111111111,-0.47444444444444445,-0.0609154315822055,0.06836161976191658,0.053523119045918346
1592167944.4693904,0.05242742322724009,8.802513322604847,5.0610482874335805,-0.45476717726717725,-0.16235823204573205,-0.4870147560772561,-0.004398086647469036,0.07726868915238208,0.03849391525652485
1592167944.4793904,-0.03310311934867967,8.900311745767414,4.838174938564018,-0.46555555555555556,-0.17,-0.4955555555555556,0.02922216302490458,0.04149184239197915,0.009973591572470674
1592167944.4893904,-0.05626476135381723,8.886289355739562,4.7822603046283865,-0.46555555555555556,-0.17,-0.4955555555555556,0.06386368475454943,0.030366138659813354,-0.0016993953884133365
1592167944.4993904,-0.0728759852820923,8.852928681557726,4.699502486709069,-0.46555555555555556,-0.17,-0.4955555555555556,0.07413795292415994,-0.02891277831518363,0.00417718909960863
1592167944.5093904,-0.07640417755402606,8.848598981808488,4.739539567928861,-0.46555555555555556,-0.17,-0.4955555555555556,0.08803924080119718,-0.05404456863854353,0.01676538877811216
1592167944.5193903,0.1197252150550511,8.720265444991684,4.737564935345674,-0.46150486626133047,-0.1684809915146656,-0.4955555555555556,0.10578160414868835,0.0034087358860992838,-0.019530267158509543
1592167944.5293903,0.03897571622410241,8.745800965868224,4.6312145377025535,-0.45666666666666667,-0.16666666666666666,-0.4955555555555556,0.10653076589003913,-0.010777560029304153,-0.05629460914238746
1592167944.5393903,-0.15796463059481342,8.777209823932054,4.701514461370454,-0.45666666666666667,-0.16666666666666666,-0.4955555555555556,0.100371441124843,-0.00554960920377009,-0.05148053242147865
1592167944.5493903,-0.249702199646415,8.842867885162143,4.800467411537017,-0.45666666666666667,-0.16666666666666666,-0.4955555555555556,0.11065279428679602,-0.02277298240798041,-0.024513842313852598
1592167944.5593903,-0.2736593260706661,8.825973205018768,4.689700654993207,-0.45666666666666667,-0.16666666666666666,-0.4955555555555556,0.11887978820772652,-0.04714833953001026,0.018176559557241664
1592167944.5693903,-0.09310516031618732,8.821842639953747,4.519747821769461,-0.44966421204487217,-0.16284714596386968,-0.5159263326371394,0.11050925031811601,-0.04207317650525613,0.06588381795470798
1592167944.5793903,0.12103837542761185,8.748804249749941,4.297612226172767,-0.4444444444444444,-0.16,-0.5311111111111111,0.08391393410529831,-0.03663446375890585,0.06023894487634122
1592167944.5893903,-0.00030240135884399,8.80241059144563,4.3380605553098155,-0.4444444444444444,-0.16,-0.5311111111111111,0.057318939318002,-0.072906,0.03334307096610364
1592167944.5993903,-0.10728080954456166,8.759012325645353,4.403000784120922,-0.4444444444444444,-0.16,-0.5311111111111111,0.04193229716362783,-0.05140284020759809,0.0031288248702921575
1592167944.6093903,-0.0883729557519528,8.718965846226116,4.369495700195103,-0.4444444444444444,-0.16,-0.5311111111111111,0.024635975257666514,-0.04003213219094299,-0.013722054404040424
1592167944.6193902,-0.02404594784142342,8.80831327411369,4.452357019400098,-0.4462484081502706,-0.16721585482330467,-0.5247972381407195,0.009260755486972057,-0.022343571972668272,-0.030112347383489127
1592167944.6293902,0.18212732351072133,8.779098761553481,4.633692836542668,-0.4488888888888889,-0.17777777777777778,-0.5155555555555555,0.017448369340101095,0.048877145681151965,-0.0391318644747547
1592167944.6393902,0.017874401756577167,8.821833930426607,4.532371833389122,-0.4488888888888889,-0.17777777777777778,-0.5155555555555555,0.019012,0.020945829512860725,-0.06306310420772765
1592167944.6493902,-0.21578266412336736,8.908329821990298,4.579396258498258,-0.4488888888888889,-0.17777777777777778,-0.5155555555555555,0.02327,0.022552781957398592,-0.02938696524360833
1592167944.6593902,-0.0914616122398885,8.824292068113525,4.604519524242014,-0.4488888888888889,-0.17777777777777778,-0.5155555555555555,0.027490966583889866,0.04218103341611013,0.00444
1592167944.6693902,-0.1637960865878263,8.912799605883537,4.492953772398401,-0.45157924353055234,-0.17777777777777778,-0.5259326377448289,0.02849753261679315,0.005831964393267476,0.011998765699490628
1592167944.6793902,-0.21150918656844353,8.877867822763896,4.56116554104065,-0.45666666666666667,-0.17777777777777778,-0.5455555555555556,0.04089482228349677,0.027928041792266427,0.028625848732420738
1592167944.6893902,-0.12518129560853092,8.920944265785069,4.421620823868354,-0.45666666666666667,-0.17777777777777778,-0.5455555555555556,0.04371350530536685,0.04151431177124011,0.02298605607324266
1592167944.6993902,-0.2125701253604763,8.92237299416416,4.518319189113781,-0.45666666666666667,-0.17777777777777778,-0.5455555555555556,0.05188265129670283,0.035751,-0.0003237107980082251
1592167944.7093902,-0.3228973128742132,8.989650954556094,4.502531755770006,-0.45666666666666667,-0.17777777777777778,-0.5455555555555556,0.059849580939464374,0.014641019242843108,-0.005839419060535624
1592167944.7193902,-0.26214163972718246,8.869223755614064,4.489094962247074,-0.45865912369431844,-0.17777777777777778,-0.5479465039887377,0.06379063842564539,0.0021301959334441944,-0.004759574382903072
1592167944.7293901,-0.15792025282183494,8.840896136346863,4.436073980128107,-0.4622222222222222,-0.17777777777777778,-0.5522222222222222,0.05860603134450591,-0.03709363224606941,-0.027624601664057814
1592167944.7393901,-0.35169899806544114,8.861035932857282,4.568912215378127,-0.4622222222222222,-0.17777777777777778,-0.5522222222222222,0.06515114890828454,-0.0797383325430496,-0.04382584492589077
1592167944.7493901,-0.41019173479499427,8.951032215959799,4.721767202225003,-0.4622222222222222,-0.17777777777777778,-0.5522222222222222,0.07773964504898241,-0.10227571897326815,-0.0011609753846682043
1592167944.75939,-0.1633247454100472,8.882308297806361,4.759800465307901,-0.4622222222222222,-0.17777777777777778,-0.5522222222222222,0.10372402864397201,-0.09135285005698818,0.014363896545336857
1592167944.76939,-0.184258627373035,8.900951156655461,4.564832201336162,-0.4622222222222222,-0.1791223904224795,-0.5629791233798357,0.11815413158641089,-0.12611794997220807,0.020595083296126998
1592167944.77939,-0.19459063733423623,9.003540604681536,4.614485754353197,-0.4622222222222222,-0.18222222222222223,-0.5877777777777777,0.13830161417442005,-0.16158989102379093,0.04418031453457678
1592167944.78939,0.04663254527603366,8.814363495042947,4.574708656749181,-0.4622222222222222,-0.18222222222222223,-0.5877777777777777,0.15469412491518492,-0.09327455297475729,0.05332310702026108
1592167944.79939,0.17518798269521374,8.853623041605314,4.333480236432278,-0.4622222222222222,-0.18222222222222223,-0.5877777777777777,0.13578178112118025,-0.12063314813481055,0.04833100009977458
1592167944.80939,0.2048095637842124,8.77328465280732,4.304886723816513,-0.4622222222222222,-0.18222222222222223,-0.5877777777777777,0.12942531803671767,-0.09747034241066395,0.015061885437483869
1592167944.81939,0.225314462396574,8.786307735173816,4.369236894424957,-0.4622222222222222,-0.17999362967370108,-0.5807205680407941,0.11886830510473748,-0.08033094544447686,-0.02536746324444468
1592167944.82939,0.15995737393284692,8.775972149341476,4.261387161281895,-0.4622222222222222,-0.17555555555555555,-0.5666666666666667,0.10722717804679668,-0.06572834716020115,-0.059464
1592167944.83939,0.01082038496902659,8.913935365420032,4.264839245702304,-0.4622222222222222,-0.17555555555555555,-0.5666666666666667,0.08515211574003317,-0.10043075342376483,-0.04575409124420796
1592167944.84939,0.06650053560506684,8.900576196902378,4.361463069091814,-0.4622222222222222,-0.17555555555555555,-0.5666666666666667,0.06830963336003301,-0.09675913110349113,-0.022412499554204476
1592167944.85939,0.26154650301360344,8.950674340125069,4.383075553997384,-0.4622222222222222,-0.17555555555555555,-0.5666666666666667,0.05242489770326153,-0.08641879007352712,0.003327977832980321
1592167944.86939,0.31647962694923537,8.874864120481979,4.456312491676112,-0.4622222222222222,-0.18595976073953235,-0.5723022778079875,0.048828,-0.09654230497965405,0.036180613157422506
1592167944.87939,0.42578092516791366,8.924821418888875,4.518383394517391,-0.4622222222222222,-0.20222222222222222,-0.5811111111111111,0.05271793816659575,-0.06867774755900714,0.06381795756543858
1592167944.88939,0.5077749389783962,8.898121518300929,4.621558277845622,-0.4622222222222222,-0.20222222222222222,-0.5811111111111111,0.0745987608572764,-0.04131704191135773,0.0653848763154002
1592167944.89939,0.44530156687082095,8.822533636135203,4.662020298564202,-0.4622222222222222,-0.20222222222222222,-0.5811111111111111,0.10759645006185192,-0.029490353528310604,0.041178390015646986
1592167944.90939,0.44737868701741074,8.838190890906864,4.5668440869544,-0.4622222222222222,-0.20222222222222222,-0.5811111111111111,0.14463455965520763,0.012680634033747185,-0.019051731183638974
1592167944.91939,0.4088054570344756,8.879799307118175,4.3420919775308064,-0.4524705067829258,-0.197346364502574,-0.5912378925288421,0.16470251410623532,0.032327746287792315,-0.050458487493843455
1592167944.92939,0.4601623894365729,8.808398226790304,4.1220502931632215,-0.43333333333333335,-0.18777777777777777,-0.6111111111111112,0.15406851503664193,0.050674,-0.08837887853485958
1592167944.93939,0.3680271287121119,8.821807759090632,4.042725897658712,-0.43333333333333335,-0.18777777777777777,-0.6111111111111112,0.11001720945638563,0.06435799999163608,-0.08063056259594896
1592167944.94939,0.3469195847474312,8.940788535910714,4.111910054139252,-0.43333333333333335,-0.18777777777777777,-0.6111111111111112,0.06367066057545907,0.08607293429181702,-0.020135178850926173
1592167944.95939,0.4312672226992451,8.986406771934295,4.395460050117276,-0.43333333333333335,-0.18777777777777777,-0.6111111111111112,0.05307598973363456,0.08687498973363457,0.04127870065449772
1592167944.96939,0.46793027308162094,8.97301440747571,4.600047310585973,-0.44084402086519986,-0.1911917266558989,-0.610428321335487,0.07668155685951822,0.10746375060963173,0.07163833892623783
1592167944.97939,0.3963271649654555,8.880572316001452,4.640808518450838,-0.4577777777777778,-0.1988888888888889,-0.6088888888888889,0.11010463770836275,0.1298702287920617,0.06752797243228607
1592167944.98939,0.37103780517984486,8.9052971522249,4.616859194785276,-0.4577777777777778,-0.1988888888888889,-0.6088888888888889,0.13842665074208677,0.15578912641435044,0.07083299857564979
1592167944.99939,0.35812851049757877,8.978703508754778,4.20801780128195,-0.4577777777777778,-0.1988888888888889,-0.6088888888888889,0.1476893437313049,0.15740223049381982,0.05201012973114154
1592167945.0093899,0.3522170366058254,8.849573903333228,4.016503121507665,-0.4577777777777778,-0.1988888888888889,-0.6088888888888889,0.13111113805099195,0.1744451394857799,0.031680345844873864
1592167945.0193899,0.2499448216568702,9.042569868923094,3.865720757404916,-0.45416352404191956,-0.20039482794549648,-0.6128043304360686,0.09307082946376913,0.13327178818287821,0.03212241743486721
1592167945.0293899,0.26059833324886494,8.920088308239992,4.076497477189746,-0.4444444444444444,-0.20444444444444446,-0.6233333333333333,0.0661702363993776,0.13088740841121438,0.02555009110546484
1592167945.0393898,0.23014313719997084,9.004011762737273,4.2271287210815,-0.4444444444444444,-0.20444444444444446,-0.6233333333333333,0.05155564845405213,0.11799636454203394,0.023406635457966053
1592167945.0493898,0.18362902128334344,9.004703446353462,4.478531822823517,-0.4444444444444444,-0.20444444444444446,-0.6233333333333333,0.06521460642712434,0.11697278589671119,0.06421609337683916
1592167945.0593898,0.40720908072574113,8.950770757646028,4.450592686275638,-0.4444444444444444,-0.20444444444444446,-0.6233333333333333,0.09066699400096345,0.1515499353356933,0.09375800932078111
1592167945.0693898,0.4395289459277561,8.923166485125915,4.155678301255874,-0.44147896701689565,-0.20444444444444446,-0.6270401801177693,0.09920513279248028,0.19431984030181196,0.07766308675975739
1592167945.0793898,0.2357522154569145,9.036393206985682,3.913968167219293,-0.4311111111111111,-0.20444444444444446,-0.64,0.08155054791771114,0.18244547527041077,0.06337523647026619
1592167945.0893898,0.19271612114206743,8.914045187280976,3.8375508741915625,-0.4311111111111111,-0.20444444444444446,-0.64,0.05462463900385281,0.1691921734210016,0.04800027800770563
1592167945.0993898,0.12086984112964792,9.013433661046342,3.7483758625423644,-0.4311111111111111,-0.20444444444444446,-0.64,0.016283681659870625,0.13150423841630118,0.0024968351346458307
1592167945.1093898,-0.03503894711835806,9.025735135872276,3.9285463252076798,-0.4311111111111111,-0.20444444444444446,-0.64,-0.019102615760249516,0.10097709573545344,0.010864832138472301
1592167945.1193898,0.1519031325613956,8.972794741790512,4.054102171301146,-0.4311111111111111,-0.2034184523402022,-0.64,-0.049206433702385435,0.08056580401309224,0.031216283914130918
1592167945.1293898,0.18342652354100025,9.005611119378015,4.202195417542094,-0.4311111111111111,-0.19555555555555557,-0.64,-0.05812561269475593,0.05088172675244181,0.040665
1592167945.1393898,0.19461503880832365,8.9184948400527,4.352941617981982,-0.4311111111111111,-0.19555555555555557,-0.64,-0.04757366094895686,0.046393507351532894,0.02822773338556165
1592167945.1493897,0.15704298279817103,9.079500115807967,4.3283295531058,-0.4311111111111111,-0.19555555555555557,-0.64,-0.03920421536204159,0.019831701129723416,0.02428669118925579
1592167945.1593897,0.21379960428431513,9.015110491829152,4.253031611686437,-0.4311111111111111,-0.19555555555555557,-0.64,-0.019348,0.005604433263245189,0.022687445875571425
1592167945.1693897,0.3385333098017921,9.122513465163028,4.12842185326214,-0.430156816786651,-0.19539650650147888,-0.6419881131759585,-0.016321445262298322,-0.021060870588878264,0.009675654961901927
1592167945.1793897,0.4229906231555046,8.94514791136906,4.0521974468615864,-0.4177777777777778,-0.19333333333333333,-0.6677777777777778,-0.004486504201713251,-0.018534211273253828,-0.06374671547496708
1592167945.1893897,0.0647610543758381,8.9858157640114,4.015455492581342,-0.4177777777777778,-0.19333333333333333,-0.6677777777777778,-0.007829612341131173,-0.082089320844297,-0.1178229104352237
1592167945.1993897,0.038452832723331325,9.065966328476396,4.134701100586463,-0.4177777777777778,-0.19333333333333333,-0.6677777777777778,-0.019345422724188027,-0.10378948309285123,-0.08398188734705078
1592167945.2093897,0.33789827140703094,8.944976509813543,4.235091707618232,-0.4177777777777778,-0.19333333333333333,-0.6677777777777778,-0.02867697284081092,-0.1213656615348145,-0.09210341956625497
1592167945.2193897,0.3570064800682519,9.042449616286659,4.375328137593557,-0.4177777777777778,-0.19333333333333333,-0.6677777777777778,-0.026242349466063658,-0.13703312599337195,-0.07920011790999562
1592167945.2293897,0.3677925088782247,9.05042001431071,4.509560767754606,-0.4266666666666667,-0.21333333333333335,-0.6677777777777778,0.007093627136292846,-0.1537585020753392,-0.076081013841103
1592167945.2393897,0.4173402949819554,9.033458232429117,4.56522482162489,-0.4266666666666667,-0.21333333333333335,-0.6677777777777778,0.05357952828272441,-0.1493543301213707,-0.09073032484979376
1592167945.2493896,0.39026934919591877,9.030185095589067,4.447677220588137,-0.4266666666666667,-0.21333333333333335,-0.6677777777777778,0.09748743366811169,-0.155991,-0.1372247007411837
1592167945.2593896,0.319068641761624,9.097217667921178,4.372928784824946,-0.4266666666666667,-0.21333333333333335,-0.6677777777777778,0.1378716233487698,-0.1426853007670985,-0.16800444782946064
1592167945.2693896,0.23255961062615965,9.211329208990328,4.298129363574396,-0.4266666666666667,-0.21333333333333335,-0.6677777777777778,0.1701633889955035,-0.17482017063192742,-0.16122042780258736
1592167945.2793896,0.28377537367380373,9.097783240200071,4.372428350537828,-0.41888888888888887,-0.21777777777777776,-0.6611111111111111,0.21242063878358025,-0.15159074171043677,-0.13252137971569816
1592167945.2893896,0.41906987689259156,9.085387202591752,4.23964306498688,-0.41888888888888887,-0.21777777777777776,-0.6611111111111111,0.23559854133609962,-0.12693329213892102,-0.1298437123851218
1592167945.2993896,0.2978595974336189,9.083718104911883,4.242766120203564,-0.41888888888888887,-0.21777777777777776,-0.6611111111111111,0.2636232097102756,-0.14079167817697602,-0.1455579654690719
1592167945.3093896,0.12726897231833853,9.10951247187619,4.176077806589765,-0.41888888888888887,-0.21777777777777776,-0.6611111111111111,0.2666889041058104,-0.15804018237829814,-0.1236730967423515
1592167945.3193896,0.25853650291411145,9.083864095025094,4.210682949435392,-0.4168338016149387,-0.2183771782326799,-0.6611111111111111,0.2872176005238655,-0.16773627247047745,-0.10746609243952338
1592167945.3293896,0.3445023676054746,9.184678082553008,4.094765982684581,-0.39222222222222225,-0.22555555555555556,-0.6611111111111111,0.3127388943580342,-0.1692028995883507,-0.13284633745904834
1592167945.3393896,0.2704798184570312,9.175654694228474,3.908224395030223,-0.39222222222222225,-0.22555555555555556,-0.6611111111111111,0.3513536802130063,-0.18592547336747595,-0.21479678338649677
1592167945.3493896,-0.03031886527783055,9.21463502546919,3.7003034842213127,-0.39222222222222225,-0.22555555555555556,-0.6611111111111111,0.351208072606606,-0.2099213390627609,-0.242691
1592167945.3593895,-0.007898701027818502,9.162624148053768,3.520218639814217,-0.39222222222222225,-0.22555555555555556,-0.6611111111111111,0.323621149332242,-0.1917009048688859,-0.230972
1592167945.3693895,-0.026389012966188802,9.100701392630281,3.4989468110506734,-0.39222222222222225,-0.22587326585751685,-0.6616935799980401,0.2871780124473899,-0.23184994565987432,-0.21994012680273356
1592167945.3793895,-0.10246574320901602,9.16812168047049,3.553339405872162,-0.39222222222222225,-0.23222222222222222,-0.6733333333333333,0.2522151709792492,-0.24403776815243405,-0.1936205999006025
1592167945.3893895,-0.1290425370711727,9.127773304968233,3.7041545115205694,-0.39222222222222225,-0.23222222222222222,-0.6733333333333333,0.22851494291311034,-0.268048061265912,-0.18300381540172003
1592167945.3993895,-0.10358454612815263,9.090180187689263,3.6942772379437088,-0.39222222222222225,-0.23222222222222222,-0.6733333333333333,0.21026271152934942,-0.2784181678743186,-0.18855974517619414
1592167945.4093895,-0.2790449631812219,9.111113250772481,3.644576723824784,-0.39222222222222225,-0.23222222222222222,-0.6733333333333333,0.17955320754995527,-0.3600694129428264,-0.19491014989158742
1592167945.4193895,-0.34461120182337945,9.031351404437618,3.5967337934751056,-0.39222222222222225,-0.2322661512329409,-0.6732454753118959,0.14955115151710266,-0.3956847894285327,-0.14135926913778768
1592167945.4293895,0.06779060308671397,9.110634117318911,3.6172062482811556,-0.39222222222222225,-0.24888888888888888,-0.64,0.11191234510499962,-0.3505487803167643,-0.05825151458659562
1592167945.4393895,0.46793832597401475,9.105848939424751,3.3204654801957045,-0.39222222222222225,-0.24888888888888888,-0.64,0.061579868164250734,-0.3054966021009112,-0.04859757660666115
1592167945.4493895,0.5199655729288823,9.193298695236193,3.635370487504997,-0.39222222222222225,-0.24888888888888888,-0.64,0.02403357862642572,-0.2828490186374549,0.010322493144522632
1592167945.4593894,0.721543582820385,9.182299878310879,3.7519399858859805,-0.39222222222222225,-0.24888888888888888,-0.64,0.015495322628489286,-0.16933900467856314,0.053764677371510715
1592167945.4693894,0.7668419072175072,9.179936215517369,3.9130707807847296,-0.39222222222222225,-0.24888888888888888,-0.64,0.01747504870827233,-0.13696842664163614,0.052063401091608
1592167945.4793894,0.6936875005512045,9.137413888331757,3.8956101672959456,-0.38,-0.24888888888888888,-0.6588888888888889,0.03120323750208802,-0.0374997933063473,0.043854
1592167945.4893894,0.5348856900455632,9.202084883239557,3.7143465403490565,-0.38,-0.24888888888888888,-0.6588888888888889,0.03370357130898168,-0.015919114963078372,0.055812492688497015
1592167945.4993894,0.6599863733430871,9.053799963228997,3.6191934202425204,-0.38,-0.24888888888888888,-0.6588888888888889,0.029413204764389318,0.08169051976747548,0.03220711517578042
1592167945.5093894,0.5737221371687115,9.120944523433245,3.534712829935203,-0.38,-0.24888888888888888,-0.6588888888888889,0.009039796654738738,0.1239288854503732,-0.009776462350810557
1592167945.5193894,0.44106506608960994,9.200521174788692,3.5551208472331624,-0.38,-0.24888888888888888,-0.6588888888888889,-0.0024296897382812595,0.16650654061642353,-0.02818073308169574
1592167945.5293894,0.38240170866679224,9.251994437415178,3.575813765786846,-0.38,-0.25555555555555554,-0.6377777777777778,-0.018804790215439744,0.1873244400816747,-0.011763350133765067
1592167945.5393894,0.2857357365323052,9.216201901438541,3.6053252875915507,-0.38,-0.25555555555555554,-0.6377777777777778,-0.03168450377018137,0.20246179573254716,0.011312007794830407
1592167945.5493894,0.19286996762624153,9.22367859648336,3.70480594282119,-0.38,-0.25555555555555554,-0.6377777777777778,-0.04505599861103046,0.18392233240735362,0.04780094688196711
1592167945.5593894,0.3280566831712517,9.153640270521885,3.8064936708840564,-0.38,-0.25555555555555554,-0.6377777777777778,-0.04815443771439867,0.20526962034061041,0.082214
1592167945.5693893,0.35689832990723647,9.147589591217333,3.778759832490539,-0.38,-0.25555555555555554,-0.6377777777777778,-0.05129407870776849,0.19245825614758127,0.07479436588140381
1592167945.5793893,0.22811033029996625,9.176726499997883,3.8379490302716097,-0.37777777777777777,-0.26222222222222225,-0.6577777777777778,-0.054504,0.1771524794451461,0.0860565254817866
1592167945.5893893,0.20738968373302535,9.155511911747478,3.8106928750304485,-0.37777777777777777,-0.26222222222222225,-0.6577777777777778,-0.054355247550130444,0.199887331615034,0.09980734139469727
1592167945.5993893,0.22078776975582734,9.143835599909512,3.7686084605337826,-0.37777777777777777,-0.26222222222222225,-0.6577777777777778,-0.06250948944313903,0.2005619250533553,0.11569041513518359
1592167945.6093893,0.15228676093132815,9.183956370392751,3.683221373311586,-0.37777777777777777,-0.26222222222222225,-0.6577777777777778,-0.07208297045120758,0.1958010491298495,0.14017682594425956
1592167945.6193893,0.25750793117236526,9.152698034738169,3.664736734471685,-0.37777777777777777,-0.26222222222222225,-0.6577777777777778,-0.0873330082327407,0.2217522932876097,0.15054875746863222
1592167945.6293893,0.32380190934486974,9.085220455197877,3.53602062885333,-0.35888888888888887,-0.24333333333333335,-0.6644444444444444,-0.10605037618621632,0.22569822262295225,0.119448899983667
1592167945.6393893,0.11976442245360054,9.138265706125566,3.551808501436637,-0.35888888888888887,-0.24333333333333335,-0.6644444444444444,-0.14269827006639216,0.18147803642332963,0.10713596152556468
1592167945.6493893,0.11724004182375888,9.121315648028638,3.6547632106439276,-0.35888888888888887,-0.24333333333333335,-0.6644444444444444,-0.16854874663245892,0.17258627709802005,0.11866436433416827
1592167945.6593893,0.2678231457756091,9.088589616861071,3.7487103807487476,-0.35888888888888887,-0.24333333333333335,-0.6644444444444444,-0.18817120283759736,0.15375690413149676,0.09741408777492072
1592167945.6693892,0.23699135858424328,9.097307608160296,3.8168385560159233,-0.35888888888888887,-0.24333333333333335,-0.6644444444444444,-0.19865204658779556,0.1459479512766356,0.07529952649725105
1592167945.6793892,0.16463757560408088,9.104117205933537,3.7612582683387434,-0.35888888888888887,-0.24884557778053865,-0.6578297511077981,-0.20910892681071816,0.12413262231160949,0.06755747593304584
1592167945.6893892,0.18822747661979755,9.104032449314067,3.722364253825902,-0.35888888888888887,-0.24888888888888888,-0.6577777777777778,-0.22487724813736001,0.10613175186264,0.05346722442515357
1592167945.6993892,0.16736054117422283,9.114693796914903,3.767416839906181,-0.35888888888888887,-0.24888888888888888,-0.6577777777777778,-0.2438936712405357,0.07409517755654633,0.058551190547808024
1592167945.7093892,0.25643130840155615,9.10464609542871,3.840027183462309,-0.35888888888888887,-0.24888888888888888,-0.6577777777777778,-0.25693506754113893,0.042536791215514756,0.07075104638100684
1592167945.7193892,0.40824271453283456,9.107972746502123,3.9585184499667085,-0.35888888888888887,-0.24888888888888888,-0.6577777777777778,-0.26267056217353674,0.0543125621735367,0.0817654378264633
1592167945.7293892,0.4262099020376129,9.052340055948424,4.110190622482023,-0.3388888888888889,-0.23555555555555555,-0.7066666666666667,-0.26045537737222524,0.03824851379052424,0.0824362667063146
1592167945.7393892,0.3568667682971395,9.122013949624064,4.335451151127806,-0.3388888888888889,-0.23555555555555555,-0.7066666666666667,-0.24370132515802495,0.052091974180420275,0.10769252517275246
1592167945.7493892,0.6405195215009228,9.010176627849873,4.586214870203424,-0.3388888888888889,-0.23555555555555555,-0.7066666666666667,-0.1998414153946706,0.11626801030743295,0.08105623566399711
1592167945.7593892,0.6286559700804333,8.956840271936029,4.619030794298225,-0.3388888888888889,-0.23555555555555555,-0.7066666666666667,-0.13866155865806537,0.12671573430944907,-0.017056057050839974
1592167945.7693892,0.34105119636985254,9.092134465343529,4.58275977120308,-0.3388888888888889,-0.23555555555555555,-0.7066666666666667,-0.08741785957606632,0.12310400261024444,-0.04041848543330282
1592167945.7793891,0.36847273143915144,9.04005700995956,4.417506382692126,-0.353111857590917,-0.23555555555555555,-0.670562207653826,-0.0464448068702154,0.11604665417663207,-0.04224573236865544
1592167945.7893891,0.38483510584565467,9.066902024053228,4.268690066185647,-0.35333333333333333,-0.23555555555555555,-0.67,-0.0345542460146649,0.08823226328728957,-0.04893985436686008
1592167945.7993891,0.2743639511882939,9.105778285794749,4.355481013312498,-0.35333333333333333,-0.23555555555555555,-0.67,-0.017253008479873044,0.04027030280151516,-0.060283052938802074
1592167945.809389,0.18259548237911075,9.12868413368861,4.570272900267554,-0.35333333333333333,-0.23555555555555555,-0.67,0.01652512290802128,0.01302929935852085,-0.014355142076194139
1592167945.819389,0.30143302241484793,9.045087354409805,4.574078572773231,-0.35333333333333333,-0.23555555555555555,-0.67,0.06136507692989265,0.020263755363596907,0.029434447654879018
1592167945.829389,0.46542262797844575,9.039582508790163,4.529142962911136,-0.3413710535452295,-0.24316791542071253,-0.6645626000963164,0.10446470026934437,0.05044664637158111,0.039731638334849204
1592167945.839389,0.354787425139933,9.02669727822522,4.306698725924139,-0.3411111111111111,-0.24333333333333335,-0.6644444444444444,0.12265873891815594,0.05570251726551128,0.04576148299607196
1592167945.849389,0.5074916249761088,9.101670373816773,4.278222905842836,-0.3411111111111111,-0.24333333333333335,-0.6644444444444444,0.14957642327709433,0.08502734872215366,0.047614444235827134
1592167945.859389,0.558609645878944,8.949497643566959,4.086471629978796,-0.3411111111111111,-0.24333333333333335,-0.6644444444444444,0.16582146269545037,0.09542968458968737,-0.005759428211264481
1592167945.869389,0.42354228059767574,9.098674719402323,3.848157334631571,-0.3411111111111111,-0.24333333333333335,-0.6644444444444444,0.14915833388866157,0.09629466611133845,-0.020059702694369748
1592167945.879389,0.4055571239937145,8.97049910665542,3.774393945176262,-0.31444444444444447,-0.24888888888888888,-0.67,0.11971018183197915,0.09877807481963866,-0.0007770939024788464
1592167945.889389,0.3813881772463997,9.049040750149395,3.6992387006474923,-0.31444444444444447,-0.24888888888888888,-0.67,0.060869851908057396,0.07393671649071891,0.0236412961558879
1592167945.899389,0.2782526069744186,9.030138945820521,3.990606003043176,-0.31444444444444447,-0.24888888888888888,-0.67,0.04187712982746839,0.05877359789232649,0.041173730341303366
1592167945.909389,0.29160470846766307,9.054004644780228,4.071916822390114,-0.31444444444444447,-0.24888888888888888,-0.67,0.03850228994904978,0.04989308424923949,0.031563794042249384
1592167945.919389,0.31696192546511426,9.028909903507616,4.179684165688125,-0.31444444444444447,-0.24888888888888888,-0.67,0.04573274221298902,0.04220778876354486,0.00623251426967126
1592167945.929389,0.2956609659057158,9.031411432601947,4.0806417488596205,-0.3201665224188019,-0.24412049057692436,-0.67,0.04990320126801743,0.043184242127252505,-0.007259996829956431
1592167945.939389,0.2552562305532547,9.105256329183037,3.854676658366076,-0.3211111111111111,-0.24333333333333335,-0.67,0.04787143266561471,0.020112706877844513,0.0042955208970423715
1592167945.949389,0.3510006087830238,9.038954731357922,3.6201239686705304,-0.3211111111111111,-0.24333333333333335,-0.67,0.01360387844268603,0.03395732571425081,0.030511556147391015
1592167945.959389,0.4187422084516482,9.04257208126349,3.4439114623366978,-0.3211111111111111,-0.24333333333333335,-0.67,-0.03317461807048855,0.019446027510407637,0.01719122965269522
1592167945.969389,0.3544404665876487,9.08288238759306,3.6168403179827644,-0.3211111111111111,-0.24333333333333335,-0.67,-0.08703071610119789,0.015819569425431473,0.010493577323263375
1592167945.979389,0.470372962645142,9.05613856732363,3.919198059937683,-0.31444444444444447,-0.24333333333333335,-0.68,-0.11133584272914211,0.059558247467567375,0.02121353575450815
1592167945.989389,0.5269487739070732,9.029895538301428,4.161467936649981,-0.31444444444444447,-0.24333333333333335,-0.68,-0.11073959537454178,0.056389459336071916,0.009166595282414905
1592167945.999389,0.49153339518991984,9.08432708100539,4.365526424002591,-0.31444444444444447,-0.24333333333333335,-0.68,-0.08814608918254221,0.08839791081745779,0.008781641426910153
1592167946.009389,0.43101007670816555,9.055770078201753,4.280927526755835,-0.31444444444444447,-0.24333333333333335,-0.68,-0.06486867992707467,0.08743328017538178,0.018439786557678875
1592167946.019389,0.38315709350492233,9.0925169021798,4.1158093687484465,-0.31444444444444447,-0.24333333333333335,-0.68,-0.052333997889755374,0.07006829451002665,0.03620059389719615
1592167946.029389,0.35058433951430196,9.112061484890502,3.9141921885028435,-0.32069067476104873,-0.24645644849163548,-0.6716716929111943,-0.05441221748082081,0.06402040814211105,0.054351166043972096
1592167946.039389,0.36504483580726305,9.110673961010079,3.843683695253842,-0.3211111111111111,-0.24666666666666667,-0.6711111111111111,-0.06358443503066705,0.05543456496933297,0.06347200436159715
1592167946.049389,0.37515703628391006,9.04948903628391,3.874774730931853,-0.3211111111111111,-0.24666666666666667,-0.6711111111111111,-0.07911836941973872,0.05965548195258925,0.07159311882152183
1592167946.0593889,0.314724541100924,9.02061538617152,4.148042998857386,-0.3211111111111111,-0.24666666666666667,-0.6711111111111111,-0.08501741468527373,0.0922787661151832,0.0817996587410949
1592167946.0693889,0.3935058051193408,9.005344202382277,4.373228233932004,-0.3211111111111111,-0.24666666666666667,-0.6711111111111111,-0.06746094964392102,0.131819731297402,0.07398150617193687
1592167946.0793889,0.3902194658029184,9.005297096268219,4.504503427679791,-0.30780491216291817,-0.24666666666666667,-0.6844173100593041,-0.03456350173819621,0.15314178673099488,0.03550103454286306
1592167946.0893888,0.17357724610086356,9.03624992157212,4.449296631786216,-0.30666666666666664,-0.24666666666666667,-0.6855555555555556,-0.003123390191596089,0.13430646182803713,-0.010981020775404245
1592167946.0993888,0.05310748625449182,9.09620183864171,4.297800904123778,-0.30666666666666664,-0.24666666666666667,-0.6855555555555556,0.023129851401774468,0.08204885713059194,-0.031349811768944344
1592167946.1093888,0.03191905569827192,9.01641305123859,4.208014815221298,-0.30666666666666664,-0.24666666666666667,-0.6855555555555556,0.03021188509127093,0.005853132867732397,-0.018232850811748046
1592167946.1193888,0.16405273892792113,9.079959073899708,4.084132798443379,-0.30666666666666664,-0.24666666666666667,-0.6855555555555556,0.024903080008338338,-0.04403280543395233,0.029235212327150217
1592167946.1293888,0.34655752361665365,9.053800046500951,4.108749204396727,-0.33159968899255804,-0.2414722870154393,-0.6606225332296641,0.019407091142644526,-0.06176600898703532,0.05278543183197733
1592167946.1393888,0.6064806904490179,9.09606350893639,4.169090377095896,-0.3333333333333333,-0.2411111111111111,-0.6588888888888889,0.03167379231757304,-0.058445630034177166,0.03939467465246892
1592167946.1493888,0.6983212138396485,9.039770369321928,4.246618681109522,-0.3333333333333333,-0.2411111111111111,-0.6588888888888889,0.059560245601423104,-0.0430097543985769,-0.004441833605383656
1592167946.1593888,0.558634901634423,8.973932732349782,4.234897993792583,-0.3333333333333333,-0.2411111111111111,-0.6588888888888889,0.08198990801738672,-0.03961273186104648,-0.07731006370436388
1592167946.1693888,0.32446086402308527,9.087108888384721,4.215088055746931,-0.3333333333333333,-0.2411111111111111,-0.6588888888888889,0.08616426580799316,-0.016517070743808086,-0.06579328039514407
1592167946.1793888,0.43299461168173153,9.125283257166178,4.234475224275445,-0.32309192815216914,-0.2504990658605117,-0.6520612854347794,0.10052947671759246,-0.0011128153870790904,-0.014895998055477873
1592167946.1893888,0.483347827835865,9.061551067841892,4.25775852881892,-0.32,-0.25333333333333335,-0.65,0.12132230921614837,-0.010676098759878128,-0.014337407976026504
1592167946.1993887,0.42016412527153074,9.110268756152399,4.214163325165935,-0.32,-0.25333333333333335,-0.65,0.14332416423533775,-0.01760094565297463,-0.028090002329047174
1592167946.2093887,0.3454546751181654,9.052388412315734,4.010631569892493,-0.32,-0.25333333333333335,-0.65,0.15031747372657311,-0.024674172948693777,-0.023564790397512053
1592167946.2193887,0.3190264404157257,9.079715601560467,3.8864927247284307,-0.32,-0.25333333333333335,-0.65,0.14144628847042928,-0.02884575174982179,-0.001906733323803195
1592167946.2293887,0.4404523781198793,9.134967338106264,3.888349862141955,-0.3236711523956969,-0.25975785002580287,-0.6573423047913938,0.1332540523289076,-0.01718129096571439,0.027805931539495725
1592167946.2393887,0.49066058214444785,9.092708835348999,3.8149401553737428,-0.3244444444444444,-0.2611111111111111,-0.6588888888888889,0.11832833575632748,-0.016135513436737647,0.031082
1592167946.2493887,0.5283695033812225,9.091579533489481,3.7973265240658027,-0.3244444444444444,-0.2611111111111111,-0.6588888888888889,0.10443344230743613,0.006647689875043517,0.02162853565123967
1592167946.2593887,0.5303793108269467,9.048593881363459,3.9326225130701324,-0.3244444444444444,-0.2611111111111111,-0.6588888888888889,0.09485374248072087,0.015672754003391992,-0.0007756287596395616
1592167946.2693887,0.5635220850725551,9.05508643963299,4.013515450348157,-0.3244444444444444,-0.2611111111111111,-0.6588888888888889,0.09646966463412059,0.06055833536587941,0.004515599288409493
1592167946.2793887,0.5803711738443715,9.052342425430101,3.9751509645778302,-0.30729262916013467,-0.2611111111111111,-0.6531716171274523,0.09139221625554789,0.06387556492525892,0.0074835984073323755
1592167946.2893887,0.5967475515664875,9.045199480471911,4.038294239169692,-0.29777777777777775,-0.2611111111111111,-0.65,0.087189,0.07077916679830151,-0.002928859729587596
1592167946.2993886,0.4580683448539774,9.112313490038112,3.9916357334690646,-0.29777777777777775,-0.2611111111111111,-0.65,0.08929364096526213,0.08037501627068733,0.005466928873182854
1592167946.3093886,0.40994839599813404,9.11039584559892,3.9398286205947612,-0.29777777777777775,-0.2611111111111111,-0.65,0.08622858728157075,0.092209,0.029546573914655806
1592167946.3193886,0.42850200976162783,9.144010132282169,3.9930207565624647,-0.29777777777777775,-0.2611111111111111,-0.65,0.085052,0.10668606263592406,0.04573559697683312
1592167946.3293886,0.33541152923544215,9.136295628915788,4.022292935913739,-0.29777777777777775,-0.2518190586419753,-0.6421374940645774,0.0901947627839045,0.10934461860804776,0.04785114417585674
1592167946.3393886,0.273052550415193,9.111871645783554,4.139980100661882,-0.29777777777777775,-0.24666666666666667,-0.6377777777777778,0.10646994362359197,0.11623802771645696,0.06409696593724158
1592167946.3493886,0.37719216936012184,9.106390402177633,4.102043643042781,-0.29777777777777775,-0.24666666666666667,-0.6377777777777778,0.12918337278866276,0.1250912802644045,0.06638857479548883
1592167946.3593886,0.3785618400297904,9.131932258987982,4.0201022544856,-0.29777777777777775,-0.24666666666666667,-0.6377777777777778,0.1407868143639985,0.11939275217129638,0.05578493780729787
1592167946.3693886,0.4079946844795816,9.125770215875429,4.060814254956651,-0.29777777777777775,-0.24666666666666667,-0.6377777777777778,0.15173122264285951,0.10542557663650835,0.0470588373662253
1592167946.3793886,0.4099901155275057,9.117483733753444,4.051722479065456,-0.3116244511989193,-0.2556670043904087,-0.6336237757514352,0.16561762925906767,0.08506865166744923,0.03361270137404855
1592167946.3893886,0.33934717816494675,9.125593847517187,3.7786224423488064,-0.32,-0.2611111111111111,-0.6311111111111111,0.1674005106958583,0.06279132782931766,0.017597599248527693
1592167946.3993886,0.20985249200769168,9.14361108427484,3.556976726834964,-0.32,-0.2611111111111111,-0.6311111111111111,0.15049241595812587,0.019182493310416538,0.0012493268850813583
1592167946.4093885,0.1846004215572264,9.167951516691055,3.488273276399271,-0.32,-0.2611111111111111,-0.6311111111111111,0.12060373271365224,-0.01784168559513597,-0.008806020498228227
1592167946.4193885,0.20675336375631798,9.212885952955121,3.5329047187711797,-0.32,-0.2611111111111111,-0.6311111111111111,0.09078949165865802,-0.041982352707468605,-0.01684580983339528
1592167946.4293885,0.23124061214023253,9.202662973903383,3.61952101098703,-0.31505130626377087,-0.26181806735914387,-0.6353528485993075,0.07459368134314591,-0.05430657145347735,-0.024893032930115418
1592167946.4393885,0.2230418436126248,9.18301486241765,3.716267219833404,-0.31222222222222223,-0.26222222222222225,-0.6377777777777778,0.061145603539106266,-0.06012,-0.03608459741438651
1592167946.4493885,0.19567722480122413,9.186942280401066,3.7351286746980654,-0.31222222222222223,-0.26222222222222225,-0.6377777777777778,0.05717888926507798,-0.05949644463253899,-0.04491380532318436
1592167946.4593885,0.05625827849947723,9.165519340187565,3.8621496597099743,-0.31222222222222223,-0.26222222222222225,-0.6377777777777778,0.06139644066001403,-0.05727252475015122,-0.047629844199081735
1592167946.4693885,-0.05734482084429874,9.161979404884965,4.035270461545995,-0.31222222222222223,-0.26222222222222225,-0.6377777777777778,0.07902494454354309,-0.048278732278271855,-0.044998299208703886
1592167946.4793885,-0.038777124656260334,9.177021168667563,3.9207768335280373,-0.31222222222222223,-0.26222222222222225,-0.6340315353068043,0.09674422674787445,-0.039905179244920055,-0.037128179244920054
1592167946.4893885,-0.06766775753295894,9.217741375296033,3.783786389145032,-0.31222222222222223,-0.26222222222222225,-0.6311111111111111,0.103165,-0.03043396387505878,-0.028709496166314373
1592167946.4993885,-0.0800920220958564,9.216317488952072,3.7171881405896237,-0.31222222222222223,-0.26222222222222225,-0.6311111111111111,0.10376128080893972,-0.015877497010592434,-0.02183884242681914
1592167946.5093884,-0.08332792563862515,9.236846989736831,3.688690042297276,-0.31222222222222223,-0.26222222222222225,-0.6311111111111111,0.102097,-0.0010046822481243013,-0.01313526658759687
1592167946.5193884,-0.12283629318537795,9.20185261919886,3.6842001343318667,-0.31222222222222223,-0.26222222222222225,-0.6311111111111111,0.09954971285112826,0.010131813929479584,0.00013681392947958266
1592167946.5293884,-0.12849351911224627,9.196902682624724,3.6671726784485355,-0.3165998538682435,-0.2547177108290428,-0.6386156225042905,0.09502333794738954,0.019682158822117907,0.012090573499682887
1592167946.5393884,-0.11714229369071566,9.230769249426007,3.6857815054211405,-0.32,-0.24888888888888888,-0.6444444444444445,0.09534245580037289,0.028674112975479997,0.024710538962936127
1592167946.5493884,-0.0821103875953413,9.228566219291078,3.618700719279902,-0.32,-0.24888888888888888,-0.6444444444444445,0.09078049896561093,0.038075891722196296,0.035195141205001765
1592167946.5593884,0.0007909281003608895,9.222006380760298,3.6053066131967,-0.32,-0.24888888888888888,-0.6444444444444445,0.08460931962354969,0.05004968037645031,0.041429869199765504
1592167946.5693884,0.11367367467471667,9.239437530714689,3.5909188918415413,-0.32,-0.24888888888888888,-0.6444444444444445,0.07626524785140393,0.060257,0.03853689621620243
1592167946.5793884,0.1620077434550568,9.264453866854607,3.5635044165324206,-0.31644035325943937,-0.2585507871846963,-0.6383421928891977,0.06859090134250101,0.06253626595750217,0.03247760523221138
1592167946.5893884,0.15938294788950536,9.227999435299314,3.5018080772013143,-0.31222222222222223,-0.27,-0.6311111111111111,0.056077681743715524,0.07197426442206988,0.02255453534047996
1592167946.5993884,0.14236315314751266,9.212698067876072,3.5828037890656366,-0.31222222222222223,-0.27,-0.6311111111111111,0.04705134205602098,0.076233,0.013495256542015737
1592167946.6093884,0.08185291999779959,9.224226473012145,3.659744633508373,-0.31222222222222223,-0.27,-0.6311111111111111,0.04228402983393385,0.0745692116425308,0.005508
1592167946.6193883,0.06949039188880836,9.237801441341695,3.6708136244311267,-0.31222222222222223,-0.27,-0.6311111111111111,0.04055011648527359,0.08428690730814103,0.003268106833440739
1592167946.6293883,0.026522785834476762,9.235402079888114,3.7402539640013455,-0.31605598905513,-0.26616623316709226,-0.6311111111111111,0.04511631702452202,0.08554298123084612,0.0024100994184560478
1592167946.6393883,-0.07493576654306448,9.233426552825055,3.854585128318312,-0.32,-0.26222222222222225,-0.6311111111111111,0.058930667116372216,0.0745969679379616,0.008775416546105232
1592167946.6493883,-0.06776637471607552,9.228710231636624,3.946642297828409,-0.32,-0.26222222222222225,-0.6311111111111111,0.08121968003699857,0.055610333122957545,0.015247548928711472
1592167946.6593883,0.01252284373407072,9.249749068002295,3.93628180624109,-0.32,-0.26222222222222225,-0.6311111111111111,0.10433301829497056,0.03356836300304885,0.019347563650429396
1592167946.6693883,0.07161089970056687,9.235863563063877,3.8545149934269656,-0.32,-0.26222222222222225,-0.6311111111111111,0.12644167737647763,0.017779265847898205,0.01617907557297712
1592167946.6793883,0.09295004404777549,9.258230174592224,3.7576051391247383,-0.31177782048134034,-0.2666495496553467,-0.6266837836779866,0.1422435885475023,0.005201739133534099,0.01311293501166267
1592167946.6893883,0.11939662595545254,9.259294239659646,3.54078505745124,-0.3055555555555556,-0.27,-0.6233333333333333,0.14379626303535287,-0.006473748390733577,0.005809659596667873
1592167946.6993883,0.08368843377710723,9.28343694836464,3.384339022849305,-0.3055555555555556,-0.27,-0.6233333333333333,0.13066868292556302,-0.013984872116105447,-0.00044543828159374944
1592167946.7093883,0.07845012468562566,9.278675110244645,3.25811156077969,-0.3055555555555556,-0.27,-0.6233333333333333,0.11291635275095521,-0.013382684177747465,-0.002457197055551536
1592167946.7193882,0.07501242585960126,9.256073586034077,3.2635337964046323,-0.3055555555555556,-0.27,-0.6233333333333333,0.0822831921233495,-0.014313,-0.004244882147454761
1592167946.7293882,0.06434273601699145,9.275184533512515,3.3128181078721517,-0.3123711051581513,-0.2726213652317676,-0.6191391489625052,0.06234172971992306,-0.013844115859828452,-0.007934394276312064
1592167946.7393882,0.02826897499219109,9.291985305247007,3.326895025007809,-0.32,-0.27555555555555555,-0.6144444444444445,0.04346825659194611,-0.016807669769180116,-0.011536
1592167946.7493882,0.014939023926678757,9.302712528222285,3.3999566136488224,-0.32,-0.27555555555555555,-0.6144444444444445,0.028037585564268656,-0.026589175397545822,-0.011536
1592167946.7593882,0.045004367641997896,9.298066982986546,3.428699045693562,-0.32,-0.27555555555555555,-0.6144444444444445,0.018287721779281375,-0.024963,-0.011536
1592167946.7693882,-0.021289877899946963,9.270780531625586,3.446835314344481,-0.32,-0.27555555555555555,-0.6144444444444445,0.007154274538088036,-0.02589593192053062,-0.009710171364445314
1592167946.7793882,-0.03893095857178472,9.289458577208833,3.414502691097267,-0.31682704476133283,-0.2707961226975548,-0.6176173996831116,0.00013958437833156388,-0.023517215699346068,-0.0029733235490191053
