time,acc_x,acc_y,acc_z,mag_x,mag_y,mag_z,gyr_x,gyr_y,gyr_z
1592167953.4393818,-0.031202107649349366,8.985923859260646,4.155599655533978,-0.36444444444444446,-0.07444444444444444,-0.29777777777777775,-0.014741089489395532,0.009125,0.009183101084363132
1592167953.4493818,-0.04630153449024005,8.974843562941206,4.124324031893046,-0.36444444444444446,-0.07444444444444444,-0.29777777777777775,-0.01979700393324406,0.012152701631470643,0.011283003933244058
1592167953.4593818,-0.07294747990400383,8.998894120125996,4.112215192260527,-0.36882654084465416,-0.07444444444444444,-0.29777777777777775,-0.026773529444821798,0.01700129431194092,0.014459210185330394
1592167953.4693818,-0.04311601837374829,8.986972548612808,4.141911934808511,-0.38222222222222224,-0.07444444444444444,-0.29777777777777775,-0.03357732820744716,0.02162265641489431,0.018005656414894308
1592167953.4793818,-0.00026269643612276267,8.989595375117556,4.163456738258533,-0.38222222222222224,-0.07444444444444444,-0.29777777777777775,-0.037820487747261405,0.024735377099643706,0.020089110647617696
1592167953.4893818,0.04589703764604188,8.971711177701344,4.202021124390098,-0.38222222222222224,-0.07444444444444444,-0.29777777777777775,-0.03917579065694743,0.023043468443349556,0.017963604671526284
1592167953.4993818,-0.0052025556991802495,8.978439511139836,4.206203177502829,-0.38222222222222224,-0.07444444444444444,-0.29777777777777775,-0.042482398419288706,0.01810406090572224,0.013577203161422585
1592167953.5093818,-0.006348206581227785,8.969575062724267,4.289433671462859,-0.3791748942890621,-0.0759681084110245,-0.29777777777777775,-0.03850728646733428,0.011779034906557672,0.01297
1592167953.5193818,0.020105269083071697,8.978172141656955,4.364595476064694,-0.3688888888888889,-0.0811111111111111,-0.29777777777777775,-0.029379103482266595,0.007335651568607366,0.011418839056301453
1592167953.5293818,-0.04790843628134698,8.998375453337442,4.39096310774042,-0.3688888888888889,-0.0811111111111111,-0.29777777777777775,-0.013799284900995936,0.004012986898845303,0.01297
1592167953.5393817,0.0026471918372794603,8.969954721936103,4.458232915842166,-0.3688888888888889,-0.0811111111111111,-0.29777777777777775,0.0027548793883399253,0.006119380715042901,0.01315599297594095
1592167953.5493817,-0.005063249507093919,8.969145149503117,4.372706988978692,-0.3688888888888889,-0.0811111111111111,-0.29777777777777775,0.01750657501344193,0.011416977328906355,0.013128199228178527
1592167953.5593817,-0.08481241223236652,8.977416595302529,4.28219559530253,-0.3688888888888889,-0.08246966265086607,-0.29777777777777775,0.025779873795502752,0.016294048392148753,0.016677619765350583
1592167953.5693817,-0.1455377263850003,8.989169169628369,4.209195207444562,-0.3688888888888889,-0.08888888888888889,-0.29777777777777775,0.028304717561232418,0.02762268425150861,0.024977923438586083
1592167953.5793817,-0.10471047770323075,9.000609798688393,4.229475939321985,-0.3688888888888889,-0.08888888888888889,-0.29777777777777775,0.026527384174144686,0.035956216552559664,0.0356116402748203
1592167953.5893817,-0.078828782965088,8.991430647862215,4.329696459467121,-0.3688888888888889,-0.08888888888888889,-0.29777777777777775,0.0320269736474237,0.0445239736474237,0.04189479240060733
1592167953.5993817,-0.1321141155103463,9.018674889412813,4.41116510343681,-0.3688888888888889,-0.08888888888888889,-0.29777777777777775,0.0446603983981208,0.05710621089553776,0.0514044103802141
1592167953.6093817,-0.1728335669934634,9.006488246712548,4.482009401996632,-0.37156963890935885,-0.0862081388684189,-0.2956555173449057,0.06358644162515434,0.060257,0.06613323252540973
1592167953.6193817,-0.1342064859058807,9.00385847179089,4.407733467802719,-0.39555555555555555,-0.06222222222222222,-0.27666666666666667,0.08354500728292351,0.06767002450275988,0.08080417943413612
1592167953.6293817,-0.010946614577440096,8.995845426521207,4.300571464990176,-0.39555555555555555,-0.06222222222222222,-0.27666666666666667,0.09554896361621411,0.0441351269847707,0.084335
1592167953.6393816,0.07092513099752767,9.005351973139636,4.192111139800506,-0.39555555555555555,-0.06222222222222222,-0.27666666666666667,0.0997518481984934,0.03159881193965537,0.07846605969827684
1592167953.6493816,0.04862880394731133,9.001979225362843,4.11211872847022,-0.39555555555555555,-0.06222222222222222,-0.27666666666666667,0.09703621137560253,0.034683,0.07022089585000126
1592167953.6593816,0.031164608903264262,9.021154560581722,3.9572872353318904,-0.39117878563441233,-0.06422824176941286,-0.2742959162927141,0.08451563894025178,0.044549255623242814,0.05701434211901196
1592167953.6693816,0.006190310084204481,9.016290848562274,3.9824998859400713,-0.3688888888888889,-0.07444444444444444,-0.26222222222222225,0.06526052872620672,0.036695186728805285,0.04374500945003532
1592167953.6793816,-0.05771478650450442,9.007603302120184,4.021505779894652,-0.3688888888888889,-0.07444444444444444,-0.26222222222222225,0.050121089292113535,0.03874001323678804,0.03705212900247767
1592167953.6893816,-0.10384655436145505,8.997939761448274,4.010045364026074,-0.3688888888888889,-0.07444444444444444,-0.26222222222222225,0.03939270671748432,0.029520478458618854,0.03935299127281436
1592167953.6993816,-0.13261880742069013,9.014221896525495,4.039314797340568,-0.3688888888888889,-0.07444444444444444,-0.26222222222222225,0.025434965242502054,0.018725551148838532,0.03801533418831887
1592167953.7093816,-0.092385710919685,9.014936861385653,4.0559207533867525,-0.3688888888888889,-0.07444444444444444,-0.26222222222222225,0.01488026725067484,-0.0008463453704252045,0.03777088305090673
1592167953.7193816,-0.1446490168263534,9.010215512865939,4.04342558049252,-0.37666666666666665,-0.06666666666666667,-0.29777777777777775,0.0017967600479893405,-0.026918246867250917,0.035676993084759745
1592167953.7293816,-0.1794119086137477,9.010645476834487,3.9973018153658764,-0.37666666666666665,-0.06666666666666667,-0.29777777777777775,-0.012879394722096277,-0.04222893583384232,0.019827241269199207
1592167953.7393816,-0.15832100246399533,8.99430156781875,3.9418113642047996,-0.37666666666666665,-0.06666666666666667,-0.29777777777777775,-0.03378226950399754,-0.08150043249754398,-0.0009201796693316952
1592167953.7493815,-0.17582417038679307,9.006215631805565,3.8477224603199494,-0.37666666666666665,-0.06666666666666667,-0.29777777777777775,-0.05794957238428107,-0.1001934311931606,-0.018804663632246286
1592167953.7593815,-0.22414752871642737,8.991133922854765,3.898702212391507,-0.37666666666666665,-0.06666666666666667,-0.29777777777777775,-0.08531180211027536,-0.11080079585937078,-0.029518893957873354
1592167953.7693815,-0.291665620256869,9.017620772581118,4.051381738954067,-0.37777777777777777,-0.0811111111111111,-0.28444444444444444,-0.10273077306349444,-0.10631474966085398,-0.03671252272434842
1592167953.7793815,-0.31805880895815775,8.986265687297497,4.136914386137414,-0.37777777777777777,-0.0811111111111111,-0.28444444444444444,-0.11103730638113647,-0.10221598276235298,-0.04037330638113646
1592167953.7893815,-0.2806483979197321,8.989215891570014,4.177099024581973,-0.37777777777777777,-0.0811111111111111,-0.28444444444444444,-0.114151,-0.10379,-0.04878609435775675
1592167953.7993815,-0.2936461811976425,9.00131536687631,4.1113334976429945,-0.37777777777777777,-0.0811111111111111,-0.28444444444444444,-0.11718309302950132,-0.10994459989137938,-0.04693140010862063
1592167953.8093815,-0.16294844973811737,8.998915500657073,4.212040137006474,-0.376849787546096,-0.0811111111111111,-0.2847537745216717,-0.12221604031702996,-0.11579169160074579,-0.0341811612681198
1592167953.8193815,-0.015060666941982298,8.970573370158117,4.264420164052709,-0.36444444444444446,-0.0811111111111111,-0.28888888888888886,-0.12180625879818474,-0.10887864216537724,-0.02663725879818474
1592167953.8293815,0.0035164003052197274,8.966051918535987,4.327341645954881,-0.36444444444444446,-0.0811111111111111,-0.28888888888888886,-0.11358726086017931,-0.08955590528927787,-0.035696855701715324
1592167953.8393815,-0.11447706037084704,8.948193309165847,4.484166637291379,-0.36444444444444446,-0.0811111111111111,-0.28888888888888886,-0.09612435566319362,-0.058745779188454424,-0.05292862554983431
1592167953.8493814,-0.28464646778322994,8.963273731083456,4.602809184960107,-0.36444444444444446,-0.0811111111111111,-0.28888888888888886,-0.06804415601689723,-0.03600960905181852,-0.06724572468805042
1592167953.8593814,-0.3883045628341,8.976447091916526,4.555375828111355,-0.3653090377426337,-0.08166130684632242,-0.29006787975005593,-0.038640431822838425,-0.01975421919857532,-0.07311295963202064
1592167953.8693814,-0.5112273091791167,8.986039049829559,4.501665263261358,-0.37666666666666665,-0.08888888888888889,-0.3055555555555556,-0.013526050175306002,0.0017623275175746064,-0.05995099584460656
1592167953.8793814,-0.9935121703081967,9.045842651979271,4.3056889744064435,-0.37666666666666665,-0.08888888888888889,-0.3055555555555556,-0.004704797937047279,0.004807642195348437,-0.010528185906881187
1592167953.8893814,-0.6599961494789526,8.908108772214282,4.947486891331929,-0.37666666666666665,-0.08888888888888889,-0.3055555555555556,0.026025822195617557,0.058061226931736105,-0.014211110881124676
1592167953.8993814,-0.8477545589019131,9.037022898442874,4.368872029604108,-0.37666666666666665,-0.08888888888888889,-0.3055555555555556,0.06181694851513616,0.04006990468949892,-0.010877441922792646
1592167953.9093814,-0.8780508091206803,8.992307138590553,4.148915562040015,-0.37666666666666665,-0.08888888888888889,-0.3055555555555556,0.05772921786449368,0.05314347260088393,0.042427173075321886
1592167953.9193814,-0.6014598844378009,8.983838290835333,4.102380568102295,-0.38222222222222224,-0.0811111111111111,-0.29777777777777775,0.044762888254402236,0.0452026387698579,0.03523816579411805
1592167953.9293814,-0.602352288019595,8.980702595157503,3.9328396928161435,-0.38222222222222224,-0.0811111111111111,-0.29777777777777775,0.028124842258632484,0.06191205995007628,0.02350232149942101
1592167953.9393814,-0.5643200591351301,8.978271465965888,3.8247465251508195,-0.38222222222222224,-0.0811111111111111,-0.29777777777777775,0.00043780443288419656,0.08450362147303836,0.02726115085735415
1592167953.9493814,-0.5014158328016878,8.974050461560761,3.809575843699254,-0.38222222222222224,-0.0811111111111111,-0.29777777777777775,-0.0351584089844683,0.10096439046273653,0.031754971049453296
1592167953.9593813,-0.5533037262834081,8.99316315344865,3.7188853888685975,-0.38222222222222224,-0.0811111111111111,-0.29777777777777775,-0.07220734025432327,0.11260038516983895,0.02692500965932257
1592167953.9693813,-0.6676350788612451,8.986481287153872,3.594362460558743,-0.36444444444444446,-0.09333333333333334,-0.31222222222222223,-0.1225452414789859,0.11142158163739074,0.028956884325534348
1592167953.9793813,-0.8018862854890624,8.973618415725696,3.6446980752124443,-0.36444444444444446,-0.09333333333333334,-0.31222222222222223,-0.18354031481426408,0.05799122072669041,0.02056381347711031
1592167953.9893813,-0.8017912108600722,8.958427179015187,3.765514764077001,-0.36444444444444446,-0.09333333333333334,-0.31222222222222223,-0.23732367513169922,0.013288483393533324,0.02349881794109477
1592167953.9993813,-0.6701022636791893,8.947464854731784,3.815053114905231,-0.36444444444444446,-0.09333333333333334,-0.31222222222222223,-0.2826419893449768,-0.029318133155047443,0.032671110840619376
1592167954.0093813,-0.4625632690658114,8.892291633089716,4.074756393769901,-0.36444444444444446,-0.09333333333333334,-0.31222222222222223,-0.3162170065503748,-0.04258872056942559,0.0418496499376918
1592167954.0193813,-0.4060536533906021,8.868916637470491,4.337047907527494,-0.4088888888888889,-0.08888888888888889,-0.3333333333333333,-0.3267756689424869,-0.03532714133177737,0.030734189725735737
1592167954.0293813,-0.46562813498419653,8.855398167221614,4.521176434319509,-0.4088888888888889,-0.08888888888888889,-0.3333333333333333,-0.32241430966394424,0.002568724871368288,0.026464911018943413
1592167954.0393813,-0.5540466792444392,8.90132897741942,4.635697839357509,-0.4088888888888889,-0.08888888888888889,-0.3333333333333333,-0.307748476684285,0.0029374647946255874,0.02684838249421734
1592167954.0493813,-0.5171912015588114,8.860538686206795,4.766514701234511,-0.4088888888888889,-0.08888888888888889,-0.3333333333333333,-0.28527223206534086,0.013881480350833282,0.02954548291507571
1592167954.0593812,-0.4866234059755324,8.839743927813068,4.956044395217872,-0.4088888888888889,-0.08888888888888889,-0.3333333333333333,-0.25069033813936104,0.01680135495994571,0.03346505229022457
1592167954.0693812,-0.5256065118708624,8.864488410897362,5.135201246107235,-0.39555555555555555,-0.08888888888888889,-0.32666666666666666,-0.2100918560429008,-0.007919,0.04265254758964958
1592167954.0793812,-0.5250452975974169,8.89724999936488,5.258603696990743,-0.39555555555555555,-0.08888888888888889,-0.32666666666666666,-0.14825672643557106,0.012186036325640127,0.08788928352285587
1592167954.0893812,-0.39807709137698305,8.825151221901761,5.3326595225022215,-0.39555555555555555,-0.08888888888888889,-0.32666666666666666,-0.07957476263242926,0.00587585384243349,0.1170188031784186
1592167954.0993812,-0.2579940513860519,8.821705229194007,5.29707824453808,-0.39555555555555555,-0.08888888888888889,-0.32666666666666666,-0.016367545915388457,0.015273650634831671,0.10079731770872481
1592167954.1093812,-0.2672448106546722,8.82135068260391,5.263773841924229,-0.39555555555555555,-0.08888888888888889,-0.32666666666666666,0.04775056070415064,0.027818740826239575,0.06885569846960979
1592167954.1193812,-0.38226130857592777,8.874973948316454,5.202129759227034,-0.38222222222222224,-0.09333333333333334,-0.35555555555555557,0.11889814886336238,0.0008902442448155707,0.012049415342344764
1592167954.1293812,-0.4643460603584823,8.83126557489885,5.233670842748211,-0.38222222222222224,-0.09333333333333334,-0.35555555555555557,0.19070254876143303,0.015138452597467046,-0.004043726305783747
1592167954.1393812,-0.4246263198904548,8.923718117186791,4.955426407272406,-0.38222222222222224,-0.09333333333333334,-0.35555555555555557,0.2471333622714661,-0.02821433921280619,-0.032493635573664414
1592167954.1493812,-0.4902738147110943,8.87459988932797,4.974023982878169,-0.38222222222222224,-0.09333333333333334,-0.35555555555555557,0.29395947336835315,-0.06330520909109227,-0.053134779271291746
1592167954.1593812,-0.5390943271870529,9.024048606671826,4.715127747460708,-0.38222222222222224,-0.09333333333333334,-0.35555555555555557,0.33387380719901544,-0.11039419603634695,-0.056274
1592167954.1693811,-0.4406115511277449,8.966844186435994,4.476983528106228,-0.4088888888888889,-0.09555555555555556,-0.35333333333333333,0.35823891543290687,-0.1446467462987205,-0.046152904236057335
1592167954.1793811,-0.23140212097524016,8.867830039967778,4.25932612097524,-0.4088888888888889,-0.09555555555555556,-0.35333333333333333,0.3545920880028327,-0.15944091298335952,-0.03619412069874138
1592167954.1893811,-0.07513780089060168,8.826347803222713,4.016611072119975,-0.4088888888888889,-0.09555555555555556,-0.35333333333333333,0.3175957773957165,-0.16369340867345786,-0.033281875886786445
1592167954.199381,-0.019026709969844166,8.825987374380443,3.9752038856382086,-0.4088888888888889,-0.09555555555555556,-0.35333333333333333,0.27170183076334326,-0.15861790847894142,-0.030530008844341802
1592167954.209381,-0.15545561882413958,8.812249251447131,4.103556298853007,-0.4088888888888889,-0.09555555555555556,-0.35333333333333333,0.22557558907611583,-0.1609134222324994,-0.0356798688303309
1592167954.219381,-0.17643541352597453,8.822788506597119,4.148925333183541,-0.38222222222222224,-0.11,-0.37444444444444447,0.19059498134075278,-0.15272771053260248,-0.031842289467397505
1592167954.229381,-0.23497186467485734,9.080844673851642,4.1595621954922555,-0.38222222222222224,-0.11,-0.37444444444444447,0.1625139460295083,-0.17383266536724198,0.027911311249877568
1592167954.239381,0.228674188177611,8.783771110833904,4.32013008560885,-0.38222222222222224,-0.11,-0.37444444444444447,0.16144738237256298,-0.1142155754354719,0.02814030722367971
1592167954.249381,0.09970132475535917,9.026072331554612,3.8212574725438957,-0.38222222222222224,-0.11,-0.37444444444444447,0.136766652196248,-0.11582148109232243,-0.00261986014456868
1592167954.259381,-0.028062166592438244,9.047535086001798,3.986231212656537,-0.38222222222222224,-0.11,-0.37444444444444447,0.10932163486398531,-0.12442268275720864,0.040535347280169144
1592167954.269381,0.2304200463915131,8.89605899135879,4.136751763549103,-0.4088888888888889,-0.12222222222222222,-0.35333333333333333,0.09939233854023312,-0.100308520041166,0.037028178006829615
1592167954.279381,0.21457985148189324,8.926922588842622,3.9294346372554396,-0.4088888888888889,-0.12222222222222222,-0.35333333333333333,0.08736660624646927,-0.059472860670795824,-0.026426278810910427
1592167954.289381,-0.04170224908502408,9.006383398723827,3.9519812283739797,-0.4088888888888889,-0.12222222222222222,-0.35333333333333333,0.06467229852611142,-0.06571041898318862,-0.040299012776845174
1592167954.299381,-0.03346045095867237,9.028898627617988,4.155707385425185,-0.4088888888888889,-0.12222222222222222,-0.35333333333333333,0.05562177399484079,-0.06870186068943987,-0.021017704339560732
1592167954.309381,0.06856994249388251,9.026100398044932,4.180933985318976,-0.4088888888888889,-0.12222222222222222,-0.35333333333333333,0.06061950191232938,-0.06196592446499678,-0.014508512548297388
1592167954.319381,0.09606051846543572,9.034842776830923,4.120148075150298,-0.4351952199129646,-0.12879880497824114,-0.3675825959713743,0.062683,-0.054616862374272275,-0.0018497432689291724
1592167954.329381,0.17251283931787506,8.926619928723527,4.101152800441097,-0.43555555555555553,-0.1288888888888889,-0.36777777777777776,0.059426734421385616,-0.0343997034836682,-0.02135848446667743
1592167954.339381,0.13491675805407513,9.028949315915193,3.8902927016894084,-0.43555555555555553,-0.1288888888888889,-0.36777777777777776,0.04367564522750875,-0.018587313155209326,-0.045624
1592167954.349381,-0.05095304545903501,9.101467614554629,4.057539061261529,-0.43555555555555553,-0.1288888888888889,-0.36777777777777776,0.022517114796884105,-0.026875056774131517,0.0022166701485513245
1592167954.359381,-0.10342774749909442,9.001884643161352,4.4075622832732515,-0.43555555555555553,-0.1288888888888889,-0.36777777777777776,0.033265941914480485,-0.03128409934926583,0.016377701952202516
1592167954.369381,-0.18250536814997378,9.011371047246794,4.30699610344274,-0.42777777777777776,-0.14666666666666667,-0.3977777777777778,0.0551215395613614,-0.015268387654495697,0.0028500368031563438
1592167954.379381,-0.20245069978131996,8.997513761225381,4.110507257243086,-0.42777777777777776,-0.14666666666666667,-0.3977777777777778,0.061749113833767806,-0.013912542119957377,-0.005407200618653971
1592167954.389381,-0.22989949633828544,9.02934715442402,4.080291654821307,-0.42777777777777776,-0.14666666666666667,-0.3977777777777778,0.056964221633338426,-0.028940398353799218,-0.011705149331549317
1592167954.399381,-0.2305746114733821,9.040281425212912,4.120961487856276,-0.42777777777777776,-0.14666666666666667,-0.3977777777777778,0.047492005422309545,-0.04769909583196452,-0.013265880314606873
1592167954.409381,-0.22425050718855977,9.036618248079266,3.9834659572857523,-0.42777777777777776,-0.14666666666666667,-0.3977777777777778,0.041434526669463664,-0.058999262902992775,-0.02554720994705975
1592167954.419381,-0.122155605824581,9.064949844447007,3.9904856976597247,-0.4159520864174998,-0.14666666666666667,-0.40960346913805573,0.024781635411418774,-0.06219457468268571,-0.01380167972973795
1592167954.429381,0.06309393635088495,9.047077054159109,3.9439992733716043,-0.41333333333333333,-0.14666666666666667,-0.4122222222222222,0.013509331648496391,-0.05927876518785271,-0.02236440587574319
1592167954.439381,-0.056369841391405676,9.035222139164633,3.9237418854625696,-0.41333333333333333,-0.14666666666666667,-0.4122222222222222,-0.0025806203363884115,-0.05709043244293104,-0.015060287886123739
1592167954.4493809,-0.05010462950193785,9.032645699250015,4.033304253756923,-0.41333333333333333,-0.14666666666666667,-0.4122222222222222,-0.0130699660711032,-0.05192591160803728,-0.0061450169644484
1592167954.4593809,-0.0643232983896318,9.013145061997514,4.102681889999635,-0.41333333333333333,-0.14666666666666667,-0.4122222222222222,-0.011563759105795154,-0.04348016981739456,-0.01466041947100603
1592167954.4693809,-0.1129742987141829,9.126469026095053,4.118149463109471,-0.4179608320462596,-0.1503686656370077,-0.4001907255686138,0.0005187815409086255,-0.04014872308998823,-0.029784551710173173
1592167954.4793808,-0.2032802246129237,9.13539205705485,4.15946339677148,-0.41888888888888887,-0.1511111111111111,-0.3977777777777778,0.016619857025710012,-0.05456551913441096,-0.027768142974289988
1592167954.4893808,-0.13173561523592706,9.1965456312668,4.128289250584575,-0.41888888888888887,-0.1511111111111111,-0.3977777777777778,0.033739040950506664,-0.06054608691399623,-0.01762635611743905
1592167954.4993808,0.004811259987013735,9.158486234745014,4.135861159804726,-0.41888888888888887,-0.1511111111111111,-0.3977777777777778,0.06265647515164367,-0.060053477109914405,-0.019173859252478845
1592167954.5093808,0.11710234297556195,9.137167380160431,3.901991076295884,-0.41888888888888887,-0.1511111111111111,-0.3977777777777778,0.08244461615525546,-0.05262108306440086,-0.02377002424899088
1592167954.5193808,0.16988448084698018,9.118742997176744,3.805911457646061,-0.42632362360054316,-0.1638563706168041,-0.44663460588293424,0.078659,-0.037356275716197075,-0.028467730124256643
1592167954.5293808,0.14822301449173608,9.038267976572394,3.6831090563729485,-0.4266666666666667,-0.16444444444444445,-0.4488888888888889,0.05887004015208487,-0.021692763418896376,-0.048175634390787626
1592167954.5393808,-0.06853941915192104,9.115152989308426,3.976857839500539,-0.4266666666666667,-0.16444444444444445,-0.4488888888888889,0.04542961387935588,-0.012880858020449049,-0.05115179795738388
1592167954.5493808,-0.10128652684286527,9.125290774535255,4.032208113466176,-0.4266666666666667,-0.16444444444444445,-0.4488888888888889,0.04111734737368021,-0.003284936102302709,-0.0486779498550245
1592167954.5593808,-0.07997492744212206,9.126299202868587,4.12641957776437,-0.4266666666666667,-0.16444444444444445,-0.4488888888888889,0.05420939590027794,-0.008733493369218318,-0.04247539590027795
1592167954.5693808,-0.02163428505715328,9.12604097899908,4.057958926323196,-0.4290422370003678,-0.16998744188974707,-0.4393866075540844,0.06155202608792064,-0.013998982608052908,-0.05120004347986773
1592167954.5793808,0.06371733517137791,9.09601224532234,4.031133874137621,-0.43,-0.17222222222222222,-0.43555555555555553,0.05487871011039445,-0.004004968757809849,-0.04094034794390942
1592167954.5893807,0.021156791191452445,9.086691648461276,3.9643163518444777,-0.43,-0.17222222222222222,-0.43555555555555553,0.057668807434774406,-0.030234212608678653,-0.052152577695676786
1592167954.5993807,-0.1676541744719582,9.145525387552718,3.920289162292624,-0.43,-0.17222222222222222,-0.43555555555555553,0.05566362779746944,-0.05860937220253057,-0.02960739969395701
1592167954.6093807,0.041094866562352575,9.187062553537523,3.9145948421699304,-0.43,-0.17222222222222222,-0.43555555555555553,0.04781070479423886,-0.0738728293815025,0.003933144671971016
1592167954.6193807,0.12894641133744852,9.071752534021261,3.940461868062582,-0.4413794697547558,-0.16521947160391096,-0.440807618519289,0.043209424096072424,-0.08833500209494957,-0.01806087353406767
1592167954.6293807,0.053858284566097286,9.11062046977018,3.9442538105661145,-0.4444444444444444,-0.16333333333333333,-0.44222222222222224,0.04170862327425825,-0.10133018055218779,-0.037759629643833524
1592167954.6393807,0.07199608943132049,9.075696734203564,3.997361418653801,-0.4444444444444444,-0.16333333333333333,-0.44222222222222224,0.04140879475846832,-0.08991077960400651,-0.03905816130480467
1592167954.6493807,0.10776318124512188,9.074348441936202,3.9882897433996303,-0.4444444444444444,-0.16333333333333333,-0.44222222222222224,0.03435011173895001,-0.09844626022531659,-0.04363204494738119
1592167954.6593807,0.11681168400040605,9.075627534469872,3.941740955682235,-0.4444444444444444,-0.16333333333333333,-0.44222222222222224,0.027782765497116432,-0.07739650239857401,-0.028962021385946415
1592167954.6693807,0.05492097306045009,9.064643898818279,3.9835594895457844,-0.43403409273998644,-0.16813811104308318,-0.45343337021163854,0.021939369282884792,-0.06935152383612557,-0.012252206566071072
1592167954.6793807,0.09408224295580848,9.121270166101757,3.981171379765104,-0.43,-0.17,-0.4577777777777778,0.010861848974401535,-0.055645079638300045,0.0014671587031265705
1592167954.6893806,0.12535319839036632,9.07692923783674,4.062547762737634,-0.43,-0.17,-0.4577777777777778,0.019117398826832593,-0.04099189743845497,0.009950683101690458
1592167954.6993806,0.10142914606092435,8.96520868867446,4.062034992653825,-0.43,-0.17,-0.4577777777777778,0.011565894597720236,-0.02180107438524076,0.023612873363100674
1592167954.7093806,-0.04055276417455544,9.066231398760388,4.117289815251853,-0.43,-0.17,-0.4577777777777778,-0.00957591193314471,-0.04920702175201049,0.037214021752010495
1592167954.7193806,-0.037247,9.015465362340732,4.29872619630302,-0.43370418781633735,-0.1722225126898024,-0.4755578792961971,-0.0002818898020163622,-0.04217788802222024,0.0635341505657892
1592167954.7293806,0.10939647095784384,9.02635442199647,4.351416637865059,-0.43555555555555553,-0.17333333333333334,-0.48444444444444446,0.014064471108957942,-0.0360678045724908,0.06264279838390753
1592167954.7393806,0.18369137214540993,9.001146666630172,4.20278902981451,-0.43555555555555553,-0.17333333333333334,-0.48444444444444446,0.028120806831444346,-0.014195057208036453,0.03262365690693217
1592167954.7493806,0.1283522445391099,8.983001069240965,4.087481316509294,-0.43555555555555553,-0.17333333333333334,-0.48444444444444446,0.033292416688401265,0.015926672119680865,0.008523497313244711
1592167954.7593806,0.07266882339513842,8.965976191304273,4.0579142670337385,-0.43555555555555553,-0.17333333333333334,-0.48444444444444446,0.021133,0.024428204690967167,0.023667097679410116
1592167954.7693806,0.24067896160098454,8.982165410744235,4.129666605667317,-0.43555555555555553,-0.17333333333333334,-0.48444444444444446,0.0073197587139699795,0.06062167496060382,0.059973768096868815
1592167954.7793806,0.390631842732014,8.988746443182256,4.16398252181625,-0.43555555555555553,-0.17333333333333334,-0.48444444444444446,-0.0029676981327020737,0.08572458695188022,0.07694498013530882
1592167954.7893806,0.34056336045022756,9.029781486638022,4.269430649256753,-0.43555555555555553,-0.17333333333333334,-0.48444444444444446,-0.014815344468442843,0.09354136857331723,0.10595436298940442
1592167954.7993805,0.2843118272372753,8.95275588420829,4.319738557889723,-0.43555555555555553,-0.17333333333333334,-0.48444444444444446,-0.007921435881305384,0.11941279022833905,0.11494183767892036
1592167954.8093805,0.25013709305086246,9.028022222039759,4.239979735558375,-0.43555555555555553,-0.17333333333333334,-0.48444444444444446,-0.0018624852960812573,0.13034666948964352,0.12652491213768416
1592167954.8193805,0.33272555390609815,8.929616942147694,4.229335015133252,-0.4141261043222082,-0.1813693775458386,-0.5031952142736233,0.019729694255388414,0.16259204780657863,0.10739061148922317
1592167954.8293805,0.3179513148535377,8.944724957618284,4.117080072894277,-0.4,-0.18666666666666668,-0.5155555555555555,0.018702589507406726,0.1837504333148892,0.08358335409297964
1592167954.8393805,0.2648928151502757,8.945729093960873,4.005546695532115,-0.4,-0.18666666666666668,-0.5155555555555555,0.009337099419617263,0.19062577092585,0.06088851161678452
1592167954.8493805,0.2034915154917388,9.026683794242263,3.9890809455349316,-0.4,-0.18666666666666668,-0.5155555555555555,-0.00564078315122109,0.18150298377596624,0.038965974378362994
1592167954.8593805,0.256383344102824,8.990914267328783,4.004556322052314,-0.4,-0.18666666666666668,-0.5155555555555555,-0.016648290016279085,0.17481208369110093,0.024068109513027493
1592167954.8693805,0.20996628379073423,9.035405162111317,4.054710185943275,-0.4145416084951559,-0.1787899620651239,-0.5337325661745004,-0.03390108774187605,0.15315572316497159,0.025455448399977286
1592167954.8793805,0.15998465654586555,9.036047387641332,4.149915342688981,-0.4266666666666667,-0.17222222222222222,-0.5488888888888889,-0.034783379530236865,0.1363884906353102,0.040730524928321354
1592167954.8893805,0.24639051289305675,9.022426765813591,4.223457438993462,-0.4266666666666667,-0.17222222222222222,-0.5488888888888889,-0.032821889862064815,0.13904830210009686,0.04723598812451706
1592167954.8993804,0.19383226001219458,9.058844888889693,4.232253652005357,-0.4266666666666667,-0.17222222222222222,-0.5488888888888889,-0.01646576389012851,0.15337170958222568,0.036365423271012665
1592167954.9093804,0.09980055243221322,9.012055932721607,4.195207891454655,-0.4266666666666667,-0.17222222222222222,-0.5488888888888889,-0.0026122123114694284,0.166779,0.04447450809050373
1592167954.9193804,0.09862471474091505,9.113032121438513,4.090663441378871,-0.4266666666666667,-0.17556793847347904,-0.5488888888888889,0.006226,0.16934964133006733,0.03916715241954607
1592167954.9293804,0.10619779927448368,9.041461771488116,4.007331192691269,-0.4266666666666667,-0.17888888888888888,-0.5488888888888889,0.01233670275325851,0.1631434507931102,0.014219419161734885
1592167954.9393804,-0.0042423431919116,9.046311797451335,3.945225298012594,-0.4266666666666667,-0.17888888888888888,-0.5488888888888889,0.004786769903920552,0.15682510791004928,-0.009028769903920552
1592167954.9493804,-0.0025084715562846936,9.134279157185428,4.028756681461745,-0.4266666666666667,-0.17888888888888888,-0.5488888888888889,-0.000168,0.14208598187842403,0.0037707076857746978
1592167954.9593804,0.03564057918356275,9.135593280469124,4.1132665107652695,-0.4266666666666667,-0.17888888888888888,-0.5488888888888889,-0.001236,0.12979816043920087,0.04128115260486373
1592167954.9693804,0.06874871492479728,9.140632044933248,4.125403970635525,-0.43364209783423757,-0.17830760295825798,-0.5523766044726743,-8.676465860843561e-05,0.12436153290128937,0.070298626039562
1592167954.9793804,0.04606981984462942,9.115285269499447,4.204045171895968,-0.44,-0.17777777777777778,-0.5555555555555556,0.022310065248326325,0.13074680303319297,0.07801424643028494
1592167954.9893804,-0.040985952621629775,9.122281901572407,4.134228385538797,-0.44,-0.17777777777777778,-0.5555555555555556,0.044588055867443244,0.1286485881929898,0.055980207477646156
1592167954.9993804,-0.19282801860560125,9.188385330014892,4.007787425339173,-0.44,-0.17777777777777778,-0.5555555555555556,0.06881284516185114,0.10852369106887165,0.04317395132741397
1592167955.0093803,-0.14082033886446516,9.213727864236924,4.0685127888813755,-0.44,-0.17777777777777778,-0.5555555555555556,0.088242,0.07953449021865218,0.0487139979085233
1592167955.0193803,0.09908641132838467,9.119980405136806,3.9033908718059913,-0.4411237787487105,-0.18452045027004066,-0.5521842193094241,0.08173722687451665,0.061879712505676726,0.037273801698129425
1592167955.0293803,0.07419651714930449,9.093682182466548,3.8159886940673347,-0.44222222222222224,-0.19111111111111112,-0.5488888888888889,0.07138684609226814,0.03467597907849297,0.031187092039879703
1592167955.0393803,0.10117336156790792,9.036860241027748,3.912199575511689,-0.44222222222222224,-0.19111111111111112,-0.5488888888888889,0.059917235122986585,0.010193,0.046480379370998026
1592167955.0493803,0.1891621594359265,9.057029478289143,3.9934153388188047,-0.44222222222222224,-0.19111111111111112,-0.5488888888888889,0.046104159609843494,0.0020439712377573055,0.04948628800045647
1592167955.0593803,0.25995764642457003,9.040348114935544,3.9834831623599176,-0.44222222222222224,-0.19111111111111112,-0.5488888888888889,0.050993210358114285,0.024999002951685185,0.015867839570335857
1592167955.0693803,0.21621429272517156,9.088527461929132,4.044421950696826,-0.44222222222222224,-0.18804508936059508,-0.558597957765523,0.06563868190026934,0.02183393499020052,-0.028151802550975852
1592167955.0793803,0.1571551252013764,9.04285161301795,3.919718359231681,-0.44222222222222224,-0.18444444444444444,-0.57,0.06606173630413538,0.038124448822728974,-0.05779578902555682
1592167955.0893803,-0.018722611343672806,9.141293500049564,3.853184975550522,-0.44222222222222224,-0.18444444444444444,-0.57,0.05347378149720523,0.010714264042852615,-0.04766088186315877
1592167955.0993803,-0.01716635464249771,9.03243305247699,3.881018069969319,-0.44222222222222224,-0.18444444444444444,-0.57,0.037084211154202885,0.0015207439115529874,-0.027368743911552987
1592167955.1093802,0.0752174737231803,9.078338167028805,3.9484885435991335,-0.44222222222222224,-0.18444444444444444,-0.57,0.016460183956199692,-0.006566110650880911,-0.01511741265646269
1592167955.1193802,0.20668182769213633,9.032223337077328,3.921161851037889,-0.4395513635378559,-0.18177358576007815,-0.579348005395282,0.002955239566959863,-0.0016446397000307506,-0.01381559796658332
1592167955.1293802,0.222956426954588,9.063695479839357,3.904240923797652,-0.43555555555555553,-0.17777777777777778,-0.5933333333333334,-0.01151404204659801,0.0010587102903613166,-0.01648821657067541
1592167955.1393802,0.1847139278037549,9.033906920691596,3.8773503072587534,-0.43555555555555553,-0.17777777777777778,-0.5933333333333334,-0.04138618396826749,0.0008628224423197443,0.006875044399897109
1592167955.1493802,0.22998721500797017,9.068384641470336,3.8725458290571058,-0.43555555555555553,-0.17777777777777778,-0.5933333333333334,-0.06668620423673058,0.005190528934100309,0.03769079141352283
1592167955.1593802,0.37193861377910914,9.00516102149156,3.9043747912311093,-0.43555555555555553,-0.17777777777777778,-0.5933333333333334,-0.07339279342864634,0.016228899469371914,0.015322819803985869
1592167955.1693802,0.3253584193125248,9.04134077458799,3.833834844132098,-0.425030266890732,-0.18830306644260134,-0.6038586219981569,-0.09316325054180398,0.034539268390938974,-0.020826267114474637
1592167955.1793802,0.2959555295509102,8.990479237238613,3.846367123817332,-0.4088888888888889,-0.20444444444444446,-0.62,-0.11558075841530802,0.05048176158990884,-0.030373865962150685
1592167955.1893802,0.2914996833284732,9.124339695763616,3.820510087118951,-0.4088888888888889,-0.20444444444444446,-0.62,-0.15980775811481446,0.039742373390124736,0.028591185695460347
1592167955.1993802,0.455233323983692,8.963139114148978,4.105513198594554,-0.4088888888888889,-0.20444444444444446,-0.62,-0.15900344552722157,0.05554191137435009,0.02598299242704034
1592167955.2093801,0.5664141364484478,9.017776,4.1305123392430625,-0.4088888888888889,-0.20444444444444446,-0.62,-0.15780312314578207,0.09551871788705178,-0.009261453645516695
1592167955.2193801,0.3510661861138828,9.070859622566,4.080729455105864,-0.4188991339982989,-0.19723706796566923,-0.617997950978118,-0.15452787768801332,0.1154768053432977,-0.0015988556848564994
1592167955.2293801,0.2120429007928956,9.153581780796761,4.1267275453773635,-0.43666666666666665,-0.18444444444444444,-0.6144444444444445,-0.16043873421400934,0.11724571150429443,0.06590864778251444
1592167955.2393801,0.3342507021332466,9.06970770070626,4.15212963247331,-0.43666666666666665,-0.18444444444444444,-0.6144444444444445,-0.1529705679144627,0.13111775892980274,0.11324063897267707
1592167955.24938,0.39770137350419743,8.942332751215567,4.156158,-0.43666666666666665,-0.18444444444444444,-0.6144444444444445,-0.14506329767389647,0.13534534678243731,0.08023124005402998
1592167955.25938,0.23813560055120875,8.997779113432816,4.1933472340172955,-0.43666666666666665,-0.18444444444444444,-0.6144444444444445,-0.13102319906749052,0.13608463618685224,0.024344929044612995
1592167955.26938,-0.023199270124275792,9.07656153259621,4.392081719802056,-0.43096657269432137,-0.18133530227771066,-0.6279173938336242,-0.10724223579734027,0.1201651609313868,0.007301475636620781
1592167955.27938,-0.055308833894286466,9.080629768122533,4.531806724950537,-0.42444444444444446,-0.17777777777777778,-0.6433333333333333,-0.07562640846407272,0.11326726305996672,0.011393310901006558
1592167955.28938,0.060382572295662046,9.143127043644848,4.498064237183235,-0.42444444444444446,-0.17777777777777778,-0.6433333333333333,-0.03818541518473803,0.10360234798058691,0.028218267025353124
1592167955.29938,0.0797380137699364,9.049805346979344,4.41510518149156,-0.42444444444444446,-0.17777777777777778,-0.6433333333333333,-0.00021823113751916635,0.09289362009172032,0.029329379908279676
1592167955.30938,0.12625967377584582,9.120972651106989,4.32987310702979,-0.42444444444444446,-0.17777777777777778,-0.6433333333333333,0.030012728951176106,0.07872454060960564,0.03462658616051726
1592167955.31938,0.07412716695111385,9.087278022179557,4.338869298918484,-0.4229200869368819,-0.18296059330349043,-0.6411992328227457,0.059448937633605856,0.06649934517359588,0.030931345173595873
1592167955.32938,0.002616102006879298,9.160826029562278,4.336517539917699,-0.41888888888888887,-0.19666666666666666,-0.6355555555555555,0.08886037433584577,0.03738576276611708,0.020432
1592167955.33938,0.05392044608442539,9.031542916769906,4.286647905751158,-0.41888888888888887,-0.19666666666666666,-0.6355555555555555,0.11486968653458297,0.024312084768926365,0.011655569962913484
1592167955.34938,0.17484001906018648,8.936736045012143,4.156494474717557,-0.41888888888888887,-0.19666666666666666,-0.6355555555555555,0.124466,0.017057777087682916,-0.04193864416952283
1592167955.35938,-0.0567175522580919,9.053064419143785,4.112270033202499,-0.41888888888888887,-0.19666666666666666,-0.6355555555555555,0.124466,-0.0029855420923429405,-0.07313618748982163
1592167955.36938,-0.11957718531176112,9.089898582471106,4.058334364808204,-0.4227741484435887,-0.1951723360687052,-0.6409351457082169,0.11366934677024997,-0.011473441176492228,-0.02368202666567734
1592167955.37938,0.09837799515548354,9.03720912324709,3.9931822245374047,-0.43333333333333335,-0.19111111111111112,-0.6555555555555556,0.09114967502358359,-0.022807114278732676,0.03185367502358359
1592167955.38938,0.17112251046945393,9.05408564983896,4.05579511830173,-0.43333333333333335,-0.19111111111111112,-0.6555555555555556,0.09341684171400083,-0.04060083201480519,0.014854946170955523
1592167955.39938,0.07678139002712121,9.027417836582046,4.164110979279303,-0.43333333333333335,-0.19111111111111112,-0.6555555555555556,0.10340300317829594,-0.01916087415526938,-0.02194799682170406
1592167955.40938,-0.0006367887606674102,9.108826006871915,4.033275159561013,-0.43333333333333335,-0.19111111111111112,-0.6555555555555556,0.10511177659445635,-0.020569158270331143,-0.00947843946547125
1592167955.41938,0.048254545270542126,9.05111327225965,4.031618888985615,-0.42667071443027726,-0.19249915671591447,-0.6555555555555556,0.09536773692474369,-0.04353415248952654,0.031234340291470243
1592167955.42938,0.3504176239710552,8.904491148447095,3.923235296038936,-0.4066666666666667,-0.19666666666666666,-0.6555555555555556,0.0700954286869002,0.009116758358924183,0.02892123372642535
1592167955.43938,0.2993733006643559,9.005598284129372,3.7928784389734194,-0.4066666666666667,-0.19666666666666666,-0.6555555555555556,0.03743375720549173,-0.010724118518535625,0.00999095091310748
1592167955.44938,0.15557344984249943,9.029099656440088,3.9311246143455834,-0.4066666666666667,-0.19666666666666666,-0.6555555555555556,0.014265924554254404,0.009454851407797464,0.015053172639786082
1592167955.45938,0.27955163092539514,8.97864186724971,3.995856428669967,-0.4066666666666667,-0.19666666666666666,-0.6555555555555556,0.013513933109961178,0.02938994835068989,-0.02943851172369541
1592167955.46938,0.17346728266949643,9.006942116258402,3.9852453649228567,-0.40709019941489044,-0.2006902277747925,-0.6610614812824647,0.005386804473442243,0.04241056622329152,-0.05915693692002529
1592167955.47938,0.0646182901529293,9.092748274611923,4.035141699491811,-0.4088888888888889,-0.21777777777777776,-0.6844444444444444,-0.005350357783142672,0.03448398345934996,-0.041791816817921726
1592167955.48938,0.1630890611379595,8.998924664918206,4.063116150774569,-0.4088888888888889,-0.21777777777777776,-0.6844444444444444,-0.01013864990506903,0.04934791820173105,-0.014133136154481692
1592167955.4993799,0.12662171824108756,8.977940920286908,3.893963937432872,-0.4088888888888889,-0.21777777777777776,-0.6844444444444444,-0.030989815251079363,0.04739007801928853,0.005648604299460808
1592167955.5093799,0.13552025759456984,9.090300813074085,3.8996599114975194,-0.4088888888888889,-0.21777777777777776,-0.6844444444444444,-0.0651901979633884,0.046590369485833893,0.05436967396020574
1592167955.5193799,0.3663992758969977,8.991258014298813,4.014842749541978,-0.4101890436941272,-0.21366062089452323,-0.6801105950936501,-0.07021974917875581,0.08535655852334094,0.0301092381708313
1592167955.5293798,0.1309585146805196,9.025677865723205,3.9975867703639008,-0.41555555555555557,-0.19666666666666666,-0.6622222222222223,-0.08181582272284434,0.06526562425896432,-0.00857919746347531
1592167955.5393798,-0.024281590100540443,9.064376205085853,4.018468133553597,-0.41555555555555557,-0.19666666666666666,-0.6622222222222223,-0.09083892097996314,0.06470964899737144,-0.019308402385731834
1592167955.5493798,0.026466569034489434,9.08423718030568,4.103271042095931,-0.41555555555555557,-0.19666666666666666,-0.6622222222222223,-0.08359434689939026,0.03887428513096153,-0.03864202107025796
1592167955.5593798,0.11502226132352868,9.030433433123731,4.086866104038069,-0.41555555555555557,-0.19666666666666666,-0.6622222222222223,-0.07724655261955621,0.03500058774351499,-0.0754302604405426
1592167955.5693798,0.009291396280383585,9.092330671123227,4.089252682166828,-0.4118998504230572,-0.19898194658391563,-0.6646593589772212,-0.07701726277507519,-0.008564125703722544,-0.10813186754705326
1592167955.5793798,-0.132539083383734,9.093628312435774,4.16265945008976,-0.38222222222222224,-0.21777777777777776,-0.6844444444444444,-0.07134835245122728,-0.0567242194419649,-0.0948261899651314
1592167955.5893798,-0.09454063257572602,9.109440083203596,4.284241,-0.38222222222222224,-0.21777777777777776,-0.6844444444444444,-0.058356916396797215,-0.07143347849933133,-0.050350636799372524
1592167955.5993798,0.17547823823675474,9.072667533570645,4.276293199778296,-0.38222222222222224,-0.21777777777777776,-0.6844444444444444,-0.03807295129939836,-0.07804970570984375,-0.058046881365441415
1592167955.6093798,0.07197422900732815,9.101505774778472,4.280649027919873,-0.38222222222222224,-0.21777777777777776,-0.6844444444444444,-0.01877643114536666,-0.09100295207871903,-0.05886400615264453
1592167955.6193798,0.17347822860378748,9.091810579464603,4.387878175532096,-0.3806851291071601,-0.2170092312202467,-0.6859815375595065,0.01061847510572942,-0.049380026010425536,-0.022883767108511838
1592167955.6293797,0.1795061802651444,9.08618608361974,4.324494355579472,-0.3688888888888889,-0.2111111111111111,-0.6977777777777778,0.03554506153744743,-0.051187955483324485,0.0006082737805545597
1592167955.6393797,0.10091326664071047,9.169352088827608,4.326987257558996,-0.3688888888888889,-0.2111111111111111,-0.6977777777777778,0.05908537594832146,-0.0467621569554445,0.05349515156673859
1592167955.6493797,0.3943194102531984,9.176548316686985,4.466628218622473,-0.3688888888888889,-0.2111111111111111,-0.6977777777777778,0.11065181224847205,-0.005624568563756933,0.04686153173907764
1592167955.6593797,0.47202439404734536,9.010230034757626,4.282108304511712,-0.3688888888888889,-0.2111111111111111,-0.6977777777777778,0.15647188360979977,0.049111113458985646,-0.04907957381957434
1592167955.6693797,0.09395775183085833,9.082243441024207,4.016519797723631,-0.37302292336753967,-0.21235132145470634,-0.6955040588145199,0.157801587490685,-0.020504795562199613,-0.09313702945643035
1592167955.6793797,-0.1372643410747526,9.11915912504779,3.9410295424823603,-0.39111111111111113,-0.21777777777777776,-0.6855555555555556,0.15255437132277427,-0.008767221353249822,-0.030600419017814684
1592167955.6893797,0.18431855600527672,9.089349132431497,3.816316560999925,-0.39111111111111113,-0.21777777777777776,-0.6855555555555556,0.13894918615967963,-0.013851173955026535,0.014322722769839114
1592167955.6993797,0.39318074098037575,9.099120483726912,3.8680593267141634,-0.39111111111111113,-0.21777777777777776,-0.6855555555555556,0.12233,-0.005250748990308543,0.014481800658383422
1592167955.7093797,0.5802224541075918,8.97279048704499,3.942968075977121,-0.39111111111111113,-0.21777777777777776,-0.6855555555555556,0.12068222619065459,0.08835874800193401,-0.02622404606438946
1592167955.7193797,0.2688213446707776,9.153345656028483,3.7446962682660567,-0.38752504359603235,-0.21777777777777776,-0.6869501373669751,0.09655129426615748,-0.0036528918564714004,-0.06097141146768504
1592167955.7293797,-0.05661216076848028,9.138758633947706,3.9431151423760245,-0.3711111111111111,-0.21777777777777776,-0.6933333333333334,0.102097,-0.011904131797631376,-0.05297404423020843
1592167955.7393796,-0.06556052498145834,9.092725509762259,3.889715148583073,-0.3711111111111111,-0.21777777777777776,-0.6933333333333334,0.09621222765239566,-0.04107550732714961,-0.06602013548049215
1592167955.7493796,-0.07033760616259535,9.095405565209628,3.7964229843266595,-0.3711111111111111,-0.21777777777777776,-0.6933333333333334,0.07975769729232865,-0.07729389087721808,-0.05036264288796864
1592167955.7593796,0.03441017311499309,9.06139535326336,3.665020058540003,-0.3711111111111111,-0.21777777777777776,-0.6933333333333334,0.054253602012281375,-0.0987872569603846,-0.021827412488464697
1592167955.7693796,0.1212685899330776,9.062296231071407,3.567751787741145,-0.367591526384091,-0.21777777777777776,-0.6956392681544845,0.005663360813541178,-0.1217108341332738,0.011323309819510807
1592167955.7793796,0.33768264828505823,9.076303373121409,3.67681569768793,-0.3388888888888889,-0.21777777777777776,-0.7144444444444444,-0.03815572837598518,-0.07795439965638669,0.06312621503461426
1592167955.7893796,0.5690941633108993,9.063140652502216,3.8353123568944696,-0.3388888888888889,-0.21777777777777776,-0.7144444444444444,-0.07269969002090428,-0.038756391047911454,0.09606635649968649
1592167955.7993796,0.6921246665966385,9.081652807848291,4.068377033743675,-0.3388888888888889,-0.21777777777777776,-0.7144444444444444,-0.067476025732556,-0.007235632664507902,0.09082129624743634
1592167955.8093796,0.5993679698242519,9.058320855492038,4.159657580822828,-0.3388888888888889,-0.21777777777777776,-0.7144444444444444,-0.05760638913201725,0.013597918947569353,0.060233532461147335
1592167955.8193796,0.4475184764932751,9.107884676885746,4.177098565647286,-0.33919715993290667,-0.21777777777777776,-0.7132730144771768,-0.032413956696317414,0.012247342265999403,0.044421794872875564
1592167955.8293796,0.45990437047829963,9.043069593355787,4.057019152034261,-0.34444444444444444,-0.21777777777777776,-0.6933333333333334,-0.016242892929899697,0.06487400150236307,0.0467613212103009
1592167955.8393795,0.5024928370431891,9.096696858035044,3.832029236858045,-0.34444444444444444,-0.21777777777777776,-0.6933333333333334,-0.028172541733749567,0.04122935825347036,0.03190907808283029
1592167955.8493795,0.4789829582219363,9.051611638223203,3.8119418119825395,-0.34444444444444444,-0.21777777777777776,-0.6933333333333334,-0.04534791232365172,0.048220017397835206,0.023929960429787518
1592167955.8593795,0.39945523145867334,9.042186176935116,3.7473297874052935,-0.34444444444444444,-0.21777777777777776,-0.6933333333333334,-0.06998263894415184,0.055119577784253145,0.022179654585564923
1592167955.8693795,0.425883737725712,9.050929671364988,3.8312906551293215,-0.34444444444444444,-0.21777777777777776,-0.6933333333333334,-0.0913373272950877,0.04918446385097364,0.024689
1592167955.8793795,0.4161380125225767,9.03339216531712,3.8934691800938217,-0.34444444444444444,-0.2311111111111111,-0.7066666666666667,-0.11597190940270996,0.03590470515306348,0.03207920468514243
1592167955.8893795,0.5389094667076724,9.059637797150863,4.0966692826158,-0.34444444444444444,-0.2311111111111111,-0.7066666666666667,-0.12376553464563636,0.05353823079274328,0.055304732444948296
1592167955.8993795,0.611940890988974,9.019309932348582,4.16496961059339,-0.34444444444444444,-0.2311111111111111,-0.7066666666666667,-0.12008891959568943,0.06695660320439495,0.035955832138243875
1592167955.9093795,0.454197863314902,9.051616211737118,4.0849896405824015,-0.34444444444444444,-0.2311111111111111,-0.7066666666666667,-0.117355,0.0473442757180758,0.028277779721886186
1592167955.9193795,0.4228523562326401,9.088479144263802,4.0461163699121565,-0.34444444444444444,-0.2311111111111111,-0.7066666666666667,-0.11346261554727732,0.057313626741788956,0.03780927514612004
1592167955.9293795,0.6170472493846714,8.981536999661529,3.967832855310722,-0.3244444444444444,-0.2222222222222222,-0.6788888888888889,-0.10950430236503478,0.10325922435357526,-0.00519670758714086
1592167955.9393795,0.400040870815526,8.998151599755593,3.9295556892942143,-0.3244444444444444,-0.2222222222222222,-0.6788888888888889,-0.12856545701831013,0.06849896694561212,-0.03274318654124487
1592167955.9493794,0.27309088389699643,9.053355952043447,3.937690639475983,-0.3244444444444444,-0.2222222222222222,-0.6788888888888889,-0.16339968391663603,0.06631453145009565,0.03132428998218713
1592167955.9593794,0.45509223288473094,9.049636662746536,4.075540269040618,-0.3244444444444444,-0.2222222222222222,-0.6788888888888889,-0.18643869764150872,0.05955953775885903,0.10732727663368398
1592167955.9693794,0.5976672916788383,9.004516599310557,4.144775932754517,-0.3244444444444444,-0.2222222222222222,-0.6788888888888889,-0.1881603062393521,0.05986359389087088,0.10482459346345244
1592167955.9793794,0.46093625644815545,9.02575821672495,4.16744314082075,-0.31777777777777777,-0.21666666666666667,-0.6788888888888889,-0.1871227950672161,0.06080387314813886,0.08329160392997102
1592167955.9893794,0.41604681510214314,9.042622011271133,4.211129756512253,-0.31777777777777777,-0.21666666666666667,-0.6788888888888889,-0.17565429674031538,0.05486134488174324,0.07510481632235615
1592167955.9993794,0.46423411401088766,9.040917470630932,4.193068713240089,-0.31777777777777777,-0.21666666666666667,-0.6788888888888889,-0.16340609869235406,0.07854890220680892,0.060686219999244874
1592167956.0093794,0.4661362676135616,8.960351206128967,4.110694673157771,-0.31777777777777777,-0.21666666666666667,-0.6788888888888889,-0.159958,0.0916486219707921,0.024545858433514436
1592167956.0193794,0.31726091771808784,9.016546185421994,4.254759589723669,-0.31777777777777777,-0.21666666666666667,-0.6788888888888889,-0.15685107163511192,0.06338488170782379,-0.019717643533382453
1592167956.0293794,0.20629743890993643,9.029034841969937,4.4857421948645815,-0.31222222222222223,-0.23444444444444446,-0.6933333333333334,-0.12998841775596495,0.04070174171764606,-0.02971783948813387
1592167956.0393794,0.25472969495925385,9.013195879175047,4.486411699267179,-0.31222222222222223,-0.23444444444444446,-0.6933333333333334,-0.09748762156812449,0.008118844001824114,-0.046297896261111714
1592167956.0493793,0.222397884300926,9.015384984222168,4.481687211885292,-0.31222222222222223,-0.23444444444444446,-0.6933333333333334,-0.07403469305070955,-0.026723878246208657,-0.058817618615765344
1592167956.0593793,0.18659685284057315,8.985076333411437,4.561858681372618,-0.31222222222222223,-0.23444444444444446,-0.6933333333333334,-0.05199735169669448,-0.054562923718037476,-0.049285634815138944
1592167956.0693793,0.3344619808471332,9.007280606522734,4.599694539661546,-0.31222222222222223,-0.23444444444444446,-0.6933333333333334,-0.019418453747131123,-0.06250157489303444,-0.046396484934634746
1592167956.0793793,0.31855605403137566,8.911762107125302,4.620716283555493,-0.31222222222222223,-0.21666666666666667,-0.7066666666666667,0.016269567422456693,-0.06013813584067504,-0.058288781776144535
1592167956.0893793,0.19910118076164462,9.021339653206619,4.472480346165317,-0.31222222222222223,-0.21666666666666667,-0.7066666666666667,0.036187242469286715,-0.05248916399810991,-0.039534984001223905
1592167956.0993793,0.26743887581931364,9.055077639296892,4.413076255330491,-0.31222222222222223,-0.21666666666666667,-0.7066666666666667,0.06173160718600602,-0.03578764016417571,-0.024264967021830314
1592167956.1093793,0.2701192452833522,8.991177131802301,4.328351353864412,-0.31222222222222223,-0.21666666666666667,-0.7066666666666667,0.080795,-0.02584046599208289,-0.027028773159361058
1592167956.1193793,0.32142782822653826,8.982141364235012,4.2301083759591815,-0.31222222222222223,-0.21666666666666667,-0.7066666666666667,0.08351344737002411,-0.007087105336534765,-0.004905894663465235
1592167956.1293793,0.34123210561936024,8.96611198625058,4.160806418211219,-0.3055555555555556,-0.2411111111111111,-0.6711111111111111,0.07101874984045785,-0.018300490919952887,-0.0016684909199528861
1592167956.1393793,0.28139433832703487,8.958823861855281,4.164968857261937,-0.3055555555555556,-0.2411111111111111,-0.6711111111111111,0.061241086285682166,-0.01242686068943623,0.0031909389415063906
1592167956.1493793,0.32448567558986363,9.031057035068361,4.177677041627153,-0.3055555555555556,-0.2411111111111111,-0.6711111111111111,0.05529134284919327,-0.017606014273789904,0.03558124547784653
1592167956.1593792,0.428662748241442,8.978403613581923,4.244201753045868,-0.3055555555555556,-0.2411111111111111,-0.6711111111111111,0.055263169464420524,-0.02709311588339347,0.039494118197468744
1592167956.1693792,0.521834677241443,8.985411214855187,4.282961608128513,-0.3055555555555556,-0.2411111111111111,-0.6711111111111111,0.07199487902659167,-0.013570467351985622,-0.006491466626857206
1592167956.1793792,0.3309554264906671,8.979601066486225,4.268726088096285,-0.3055555555555556,-0.21666666666666667,-0.6855555555555556,0.07954337442576057,-0.029250976778831234,-0.010773182953441016
1592167956.1893792,0.30162456476069804,9.014506556573652,4.24468323794594,-0.3055555555555556,-0.21666666666666667,-0.6855555555555556,0.07457948679659084,-0.02870171560049805,0.044116120782202964
1592167956.1993792,0.49671888724887436,9.000011645469785,4.216810622130322,-0.3055555555555556,-0.21666666666666667,-0.6855555555555556,0.0768896581855509,-0.028168,0.0632683291280562
1592167956.2093792,0.5873507837285981,8.855986350076495,4.279890662728416,-0.3055555555555556,-0.21666666666666667,-0.6855555555555556,0.07666795828865224,0.019363915050306036,0.040408521619173104
1592167956.2193792,0.4982947749817076,8.996839045402456,4.2111523051116855,-0.3055555555555556,-0.21666666666666667,-0.6855555555555556,0.08491400028222117,0.02832634036451442,0.013418163426860707
1592167956.2293792,0.5512412026437329,8.990869863302436,4.243941761892304,-0.31222222222222223,-0.23444444444444446,-0.6644444444444444,0.10009698768599751,0.060714708933507444,-0.015327350332315803
1592167956.2393792,0.5569316906687874,9.002262061854305,4.135311999984358,-0.31222222222222223,-0.23444444444444446,-0.6644444444444444,0.10932966046737552,0.06367268574270486,-0.06259916314270483
1592167956.2493792,0.3962626177684764,8.959923131014595,4.038201608644424,-0.31222222222222223,-0.23444444444444446,-0.6644444444444444,0.0990692445943197,0.0391172445943197,-0.08461526457284571
1592167956.2593791,0.27501652617282174,8.993146583705357,3.975199317776014,-0.31222222222222223,-0.23444444444444446,-0.6644444444444444,0.056720768573379314,0.01217230772873041,-0.03516464142196346
1592167956.2693791,0.3746953952035681,8.989405183558091,4.067299185983347,-0.31222222222222223,-0.23444444444444446,-0.6644444444444444,0.016310211509074864,-0.023290783827832985,0.02208188151902001
1592167956.2793791,0.6895698042466383,9.055487099571813,4.347374172559857,-0.31777777777777777,-0.2288888888888889,-0.6766666666666666,0.017337285822141293,-0.018514972437820687,0.03816303787090274
1592167956.2893791,0.7554731738790276,8.91372568422046,4.572358527601203,-0.31777777777777777,-0.2288888888888889,-0.6766666666666666,0.04675167180393064,-0.003097987178909972,0.031142390177394973
1592167956.299379,0.6727152989344432,8.969288993063817,4.422874269547171,-0.31777777777777777,-0.2288888888888889,-0.6766666666666666,0.07048356171614127,0.028274179044272867,0.026723117376246008
1592167956.309379,0.620355601645959,9.019847867952935,4.103737028100584,-0.31777777777777777,-0.2288888888888889,-0.6766666666666666,0.07357328961389613,0.03221503632021431,0.014510458958064288
1592167956.319379,0.511942031882344,8.989044,4.110109620784454,-0.31777777777777777,-0.2288888888888889,-0.6766666666666666,0.06847199099448473,0.02357595367895939,-0.00524000869115751
1592167956.329379,0.49408496165062243,8.999163759249251,4.144998097212021,-0.31234859180706764,-0.23431807485959905,-0.6647224575311043,0.06579480040809563,0.0163232032102571,-0.02793683491436753
1592167956.339379,0.4369178777072344,8.98174008604264,4.159964729003133,-0.31222222222222223,-0.23444444444444446,-0.6644444444444444,0.06213414444830279,0.0058687725289075735,-0.033326433344908375
1592167956.349379,0.5245777382714079,8.950688548453986,4.30665650425917,-0.31222222222222223,-0.23444444444444446,-0.6644444444444444,0.061576256381195224,0.008416679728929696,-0.026122063889875077
1592167956.359379,0.6203611064095718,8.967838072682735,4.4771884937749356,-0.31222222222222223,-0.23444444444444446,-0.6644444444444444,0.07694016951249455,0.036074294235658215,-0.011630331114329621
1592167956.369379,0.6519943210996713,9.01148353072493,4.608954591911889,-0.31222222222222223,-0.23444444444444446,-0.6644444444444444,0.12061214912165442,0.0672257900197975,-0.0065159954397198
1592167956.379379,0.6399046653089239,9.051221203623653,4.447519329440429,-0.31755848178644,-0.24831871931141059,-0.6644444444444444,0.16090437237288197,0.09093771184953453,-0.0015166148535638844
1592167956.389379,0.6575443348929477,9.048799437476227,4.256437763051948,-0.31777777777777777,-0.24888888888888888,-0.6644444444444444,0.1843685401369573,0.10140998062470351,0.0010945207616608358
1592167956.399379,0.6388215574767366,9.063858,4.0474080189103985,-0.31777777777777777,-0.24888888888888888,-0.6644444444444444,0.19231245125506813,0.097534,0.015549739356422437
1592167956.409379,0.6989986603596144,9.091843163785564,4.0311451071895466,-0.31777777777777777,-0.24888888888888888,-0.6644444444444444,0.19225686389363186,0.09507156805318406,0.0313312282352001
1592167956.419379,0.7204222883481197,9.078107760689687,4.212198258685911,-0.31777777777777777,-0.24888888888888888,-0.6644444444444444,0.20535727206135923,0.10279786702845838,0.047740633718819224
1592167956.429379,0.8071996716339066,9.096981057755475,4.439208772455638,-0.29864212848083815,-0.24888888888888888,-0.6421195202646816,0.23466954748521682,0.13423973341436327,0.05872735691789544
1592167956.439379,0.8163787250654023,9.070518323566674,4.299916600410146,-0.29777777777777775,-0.24888888888888888,-0.6411111111111111,0.2690795433157685,0.16710294692366737,0.044945273274421466
1592167956.449379,0.7460588931737728,9.07653727118883,4.104232083331365,-0.29777777777777775,-0.24888888888888888,-0.6411111111111111,0.29066509863263085,0.17315610491574174,0.014624226959171753
1592167956.459379,0.5322130178104196,9.107466844448906,3.925972543779518,-0.29777777777777775,-0.24888888888888888,-0.6411111111111111,0.2968534040860983,0.164198558416705,-0.008899965265969048
1592167956.469379,0.36291563431792095,9.12650092856338,3.6799309271358203,-0.29777777777777775,-0.24888888888888888,-0.6411111111111111,0.2887119190109955,0.1509023080053422,-0.007041127675552623
1592167956.479379,0.30441173276916067,9.188134532365735,3.409210350125759,-0.3319701530753474,-0.23455015086087583,-0.6642736879255937,0.26014810083285417,0.13814769773870175,0.018031479046549732
1592167956.489379,0.41686540383164605,9.181523213247228,3.2554286561929295,-0.3322222222222222,-0.23444444444444446,-0.6644444444444444,0.21663675038032765,0.12757615729100613,0.04033456767237674
1592167956.499379,0.4923508846653319,9.18064354531416,3.24349449103885,-0.3322222222222222,-0.23444444444444446,-0.6644444444444444,0.16450818034110978,0.129501,0.04988807556175278
1592167956.509379,0.4598248756692586,9.168151934510663,3.234852673088321,-0.3322222222222222,-0.23444444444444446,-0.6644444444444444,0.11803918694517189,0.12928065394085103,0.0362308472913057
1592167956.519379,0.3655973344080054,9.164182135665184,3.30262412228816,-0.3322222222222222,-0.23444444444444446,-0.6644444444444444,0.07195529816397483,0.11446366344415126,0.025675232318037262
1592167956.529379,0.25332026338845537,9.194934885494865,3.369329235490824,-0.3058592149360253,-0.23444444444444446,-0.6501644821644211,0.03411322750579243,0.09974960819612538,0.0151628203233133
1592167956.539379,0.13017644883985238,9.194530305827572,3.4334803087634294,-0.3055555555555556,-0.23444444444444446,-0.65,0.0014470130784227098,0.07670218810261545,0.014038
1592167956.5493789,0.08506910412266391,9.185234316593448,3.530559042315404,-0.3055555555555556,-0.23444444444444446,-0.65,-0.025993045090495905,0.05865591069009164,0.015958996460229538
1592167956.5593789,0.08397668465536316,9.19167254713305,3.5973218495713346,-0.3055555555555556,-0.23444444444444446,-0.65,-0.04517290811654903,0.03376650368921756,0.01625960295144165
1592167956.5693789,0.21879776357377978,9.176296661580116,3.693024095186339,-0.3055555555555556,-0.23444444444444446,-0.65,-0.05931386821154631,0.020289319952079533,0.01348419916298792
1592167956.5793788,0.3759754671677989,9.165775035626673,3.6973136464481047,-0.3303594535205885,-0.24787988917550396,-0.6355310595203975,-0.06646214200494935,0.009938857995050648,-0.00031013117271653547
1592167956.5893788,0.37999496438172625,9.159498464783432,3.684306639427056,-0.3322222222222222,-0.24888888888888888,-0.6344444444444445,-0.07891936090585763,-0.007959924531708743,-0.025797972249113822
1592167956.5993788,0.2570219849693209,9.175500166826867,3.923507695298046,-0.3322222222222222,-0.24888888888888888,-0.6344444444444445,-0.08156556193194024,-0.030023948005465456,-0.04769876561193042
1592167956.6093788,0.0953249181896123,9.153652188378022,4.187256563344614,-0.3322222222222222,-0.24888888888888888,-0.6344444444444445,-0.06220416803133673,-0.046924564607743545,-0.06012356460774354
1592167956.6193788,-0.0230223482274496,9.16352771140371,4.336444341049408,-0.3322222222222222,-0.24888888888888888,-0.6344444444444445,-0.025889199897711393,-0.06164040005114431,-0.06001281020474658
1592167956.6293788,-0.12615690273616387,9.167758538889071,4.343991747265484,-0.2945811533232252,-0.23668097465137633,-0.6476696848684164,0.016174434545326882,-0.07442684666560127,-0.04925599425067855
1592167956.6393788,-0.1177001835219245,9.142169509562242,4.315957155239205,-0.2911111111111111,-0.23555555555555555,-0.6488888888888888,0.06002838536675008,-0.06602232826331333,-0.03555032826331333
1592167956.6493788,-0.09022871091385021,9.124434632997952,4.15144813954416,-0.2911111111111111,-0.23555555555555555,-0.6488888888888888,0.09426549267374522,-0.05551024164703233,-0.025749120295046307
1592167956.6593788,-0.0816923084099517,9.155104254434793,3.9395165108687973,-0.2911111111111111,-0.23555555555555555,-0.6488888888888888,0.1114684235699273,-0.04328594348410525,-0.016969041120280453
1592167956.6693788,-0.05750244276344327,9.166984686748355,3.709299789696781,-0.2911111111111111,-0.23555555555555555,-0.6488888888888888,0.11123133364750475,-0.033869948557316856,-0.011307614909812106
1592167956.6793787,-0.024209097881609538,9.150923966810604,3.5531981943170203,-0.3105818829715577,-0.25605110488234145,-0.6406906691581745,0.09749605662544988,-0.025417035026536434,-0.005436105079609304
1592167956.6893787,-0.013868852197263082,9.187924687930213,3.4672062163834183,-0.31222222222222223,-0.2577777777777778,-0.64,0.07550217102646502,-0.022743667157120014,-0.001938
1592167956.6993787,0.029574122753893005,9.214640733047576,3.454497285440094,-0.31222222222222223,-0.2577777777777778,-0.64,0.04861366086455058,-0.013145088832960965,-0.001938
1592167956.7093787,0.02272598435583433,9.21144209730281,3.560357874016735,-0.31222222222222223,-0.2577777777777778,-0.64,0.0291903108410705,0.0021558797025142107,0.00016330023367824886
1592167956.7193787,-0.026430307031564605,9.210597675605491,3.5374090501268016,-0.31222222222222223,-0.2577777777777778,-0.64,0.012994378907693997,0.012096166914846223,0.0006793563686932217
1592167956.7293787,-0.010356173481528317,9.196900278895649,3.606671526246231,-0.29537970422395127,-0.24625394967369768,-0.6470915865255877,-0.0029727947898975657,0.02284254430617437,0.005846126591838214
1592167956.7393787,-0.03120831506266603,9.181174153423035,3.686801495779815,-0.2911111111111111,-0.24333333333333335,-0.6488888888888888,-0.013203116045443778,0.028923421700892977,0.009588347172275401
1592167956.7493787,-0.029005050549381878,9.172351125177125,3.7637784105105223,-0.2911111111111111,-0.24333333333333335,-0.6488888888888888,-0.015901950250044948,0.03616397512502247,0.015926150037614856
1592167956.7593787,0.0033722520148756624,9.186832533503232,3.8798986153333717,-0.2911111111111111,-0.24333333333333335,-0.6488888888888888,-0.012867095211499565,0.04117413428097594,0.016929362754520103
1592167956.7693787,0.020107640775222417,9.19402485030384,3.9182586692434507,-0.2911111111111111,-0.24333333333333335,-0.6488888888888888,-0.002285693712192561,0.0513882532909217,0.018648224741004738
1592167956.7793787,0.03143642245991396,9.190411501782865,3.955187992035036,-0.2911111111111111,-0.24801646862622473,-0.6270342575220623,0.013009620509928134,0.057068,0.017967379697507828
1592167956.7893786,-0.023719242171166128,9.183295191777898,3.961503577508825,-0.2911111111111111,-0.25,-0.6177777777777778,0.029295050717624962,0.05782978188555309,0.018295
1592167956.7993786,0.02056219667364842,9.177853896987806,4.028651763202831,-0.2911111111111111,-0.25,-0.6177777777777778,0.04510722021664347,0.058656145544979416,0.018295
1592167956.8093786,0.0700296685521271,9.164244937345652,4.002518732477866,-0.2911111111111111,-0.25,-0.6177777777777778,0.06590250036887789,0.06108522097527271,0.015682809633476992
1592167956.8193786,0.08027435445125401,9.195604639972759,3.9345483071444303,-0.2911111111111111,-0.25,-0.6177777777777778,0.08203307259561568,0.06406639171040861,0.011938918271558728
1592167956.8293786,0.106584538291246,9.20186842862725,3.8121154742917844,-0.2947081874891393,-0.2406476014171268,-0.6379214054947354,0.08842619152881896,0.06628161694236208,0.0035216293155796207
1592167956.8393786,0.06563962052557032,9.188632722954795,3.7372464392188793,-0.2966666666666667,-0.23555555555555555,-0.6488888888888888,0.08915453874546962,0.06039441591740384,-0.000885
1592167956.8493786,0.07877302901461479,9.203168180385706,3.734275970985385,-0.2966666666666667,-0.23555555555555555,-0.6488888888888888,0.088242,0.051727,-0.003468946385723627
1592167956.8593786,0.06570369481122931,9.19913736170437,3.7309878756693915,-0.2966666666666667,-0.23555555555555555,-0.6488888888888888,0.08922205715167345,0.04491052091073133,-0.012690707695962424
1592167956.8693786,-0.04868930037373012,9.21304841328012,3.7769257581361284,-0.2966666666666667,-0.23555555555555555,-0.6488888888888888,0.09055760251095415,0.037167844055324306,-0.012483701798871724
1592167956.8793786,-0.07467726935313737,9.202793301901053,3.7254409322575794,-0.2966666666666667,-0.25271462397278854,-0.639594393496221,0.094635,0.012088421391286346,-0.006112933942745293
1592167956.8893785,-0.03641927130752313,9.21007983396687,3.6881173460570755,-0.2966666666666667,-0.26222222222222225,-0.6344444444444445,0.096771,-0.004748182351142132,0.000183
1592167956.8993785,0.011727864521720793,9.229881111213379,3.6012973343621653,-0.2966666666666667,-0.26222222222222225,-0.6344444444444445,0.09363669642931982,-0.013152375968775335,0.000183
1592167956.9093785,0.04189515356344178,9.237882827616453,3.5272681052094246,-0.2966666666666667,-0.26222222222222225,-0.6344444444444445,0.0790155123599153,-0.023691613090839,-0.0028536389820731896
1592167956.9193785,0.04660619114772589,9.228850525718093,3.4246538203215717,-0.2966666666666667,-0.26222222222222225,-0.6344444444444445,0.06339023651749075,-0.031199360721970135,-0.0061311803609850665
1592167956.9293785,0.018086675361090293,9.240741441546303,3.4078339874847607,-0.291538416980729,-0.24976790155637377,-0.6439683367183285,0.0407037598533259,-0.032312629915312016,-0.01215441444581295
1592167956.9393785,-0.01760587985729778,9.218933908860912,3.462798593953531,-0.28888888888888886,-0.24333333333333335,-0.6488888888888888,0.02318590713474714,-0.025665357512352667,-0.00968081336911334
1592167956.9493785,-0.007517621697281654,9.234056646838939,3.5092195617052053,-0.28888888888888886,-0.24333333333333335,-0.6488888888888888,0.008469704545440812,-0.02462573100872125,-0.007996099470738656
1592167956.9593785,-0.010037841637723414,9.232056,3.5267772315181016,-0.28888888888888886,-0.24333333333333335,-0.6488888888888888,-0.0051804444027102724,-0.02369738126552668,-0.006800080659396454
1592167956.9693785,0.00011432152635668276,9.257427163019209,3.606049836650557,-0.28888888888888886,-0.24333333333333335,-0.6488888888888888,-0.01143834607121963,-0.0251872219915477,-0.0042982219915477
1592167956.9793785,-0.00427907687400037,9.232227286338206,3.631176528499157,-0.2931549960148994,-0.25125610371021,-0.6360905675108574,-0.015643508068280177,-0.02735201573931012,-0.0032580157393101226
1592167956.9893785,0.04403638785920855,9.237034874325532,3.561212583718499,-0.2966666666666667,-0.2577777777777778,-0.6255555555555555,-0.020328047866625308,-0.030502290967035026,-0.004569513799180563
1592167956.9993784,0.0392312183353349,9.210732039319634,3.598384608088168,-0.2966666666666667,-0.2577777777777778,-0.6255555555555555,-0.027993300085373634,-0.031042963151827863,-0.007278
1592167957.0093784,0.04446672362814995,9.214969317838165,3.6442949469486243,-0.2966666666666667,-0.2577777777777778,-0.6255555555555555,-0.0328461694038047,-0.032766830596195305,-0.010852018741508084
1592167957.0193784,0.004750536944701325,9.215974419890022,3.683264732471013,-0.2966666666666667,-0.2577777777777778,-0.6255555555555555,-0.03287211633589685,-0.034546,-0.012227941832051574
1592167957.0293784,-0.03136615379608015,9.207332295769143,3.788831608447803,-0.29233454929949776,-0.2454002995858666,-0.6385519076570623,-0.028807965639584245,-0.026312817555295093,-0.011275703831421695
