time,acc_x,acc_y,acc_z,mag_x,mag_y,mag_z,gyr_x,gyr_y,gyr_z
1592167959.3893762,0.030232307929661893,9.141596120933954,3.915362330176512,-0.29438944135967066,-0.2493153893611904,-0.6670931671389682,0.013850081998705363,-0.016449,-0.01595840510410003
1592167959.3993762,-0.021321304692797926,9.143374860434896,3.903003654168092,-0.30333333333333334,-0.23555555555555555,-0.6533333333333333,0.020340351561492474,-0.01829671003185515,-0.016723388644045878
1592167959.4093761,-0.019702780697641503,9.143793863785804,3.8810950496470324,-0.30333333333333334,-0.23555555555555555,-0.6533333333333333,0.026678635216383403,-0.019117545658820984,-0.0178191823918083
1592167959.4193761,-0.016665270551745937,9.178127447191766,3.862766904731276,-0.30333333333333334,-0.23555555555555555,-0.6533333333333333,0.02958097613960017,-0.024059047720799653,-0.016861
1592167959.4293761,-0.020033461732246127,9.161787082089553,3.7719881230353662,-0.30333333333333334,-0.23555555555555555,-0.6533333333333333,0.02731084120974688,-0.028113769887716623,-0.01648210009563806
1592167959.439376,0.03525606156045914,9.110304975174015,3.6800897648017648,-0.30333333333333334,-0.2398588488472597,-0.6520092430897321,0.013344045102586313,-0.031093354196149177,0.003782456329201087
1592167959.449376,0.21210179624871073,9.168004227564495,3.55060610473921,-0.30333333333333334,-0.25,-0.6488888888888888,-0.014967895328491057,-0.009071979785713263,0.019363
1592167959.459376,0.18529333933473668,9.196173785097537,3.600381946908497,-0.30333333333333334,-0.25,-0.6488888888888888,-0.03714023519139943,-0.0027002550770685845,-0.00688756506958618
1592167959.469376,0.05768782177763227,9.164058145297721,3.748346411515395,-0.30333333333333334,-0.25,-0.6488888888888888,-0.054088608922669014,0.015033214636639067,-0.014863788572059906
1592167959.479376,0.006046284446671124,9.179357098130403,3.843029734117059,-0.30333333333333334,-0.25,-0.6488888888888888,-0.055557,0.002734016352977991,-0.012506393935917699
1592167959.489376,-0.044297022036883356,9.147698670161873,3.8470668517050357,-0.29840993448141134,-0.24356170919364048,-0.6488888888888888,-0.055433361421433146,-0.00779360018812023,-0.008707316851193508
1592167959.499376,0.015007259510348214,9.144643533401942,3.8276242774126277,-0.28888888888888886,-0.2311111111111111,-0.6488888888888888,-0.05845546944105303,0.0010523773563700218,-0.0013424290839877855
1592167959.509376,-0.032934767363002486,9.16266347194157,3.7736291904134847,-0.28888888888888886,-0.2311111111111111,-0.6488888888888888,-0.05983,0.006810554648846035,-0.00478002538455378
1592167959.519376,-0.09743636956631768,9.12687553416425,3.674090647766396,-0.28888888888888886,-0.2311111111111111,-0.6488888888888888,-0.06923024598489283,0.007848218944449481,0.0023460270404433415
1592167959.529376,-0.11385130227525463,9.151254697724745,3.6000194795624,-0.28888888888888886,-0.2311111111111111,-0.6488888888888888,-0.09320652620790021,0.02274167581452609,0.008239850393374118
1592167959.539376,-0.10465102052593915,9.17001983016958,3.65250005714615,-0.28766883053237124,-0.23629635912631095,-0.6488888888888888,-0.1154543223353314,0.04876838046157986,0.008713
1592167959.549376,-0.031382526482559125,9.161253447908262,3.89354341418364,-0.28444444444444444,-0.25,-0.6488888888888888,-0.12816740602628657,0.07952176517098604,0.007816932679287692
1592167959.559376,0.09466344261093329,9.119392330468063,4.152511937029898,-0.28444444444444444,-0.25,-0.6488888888888888,-0.11782125464104329,0.09485363582342272,0.015510804804033728
1592167959.569376,0.1471934115442594,9.112092707934474,4.270953330433328,-0.28444444444444444,-0.25,-0.6488888888888888,-0.0929184015895628,0.09825523446390248,0.014754169615139126
1592167959.579376,0.10312116002758623,9.112234263245131,4.2752016937770945,-0.28444444444444444,-0.25,-0.6488888888888888,-0.06137261795561913,0.0857281963080127,0.010834
1592167959.589376,0.11036438705545355,9.12356129186498,4.169422968836221,-0.2875727950559475,-0.24516527632767707,-0.6523016350105286,-0.03391415529328592,0.05961813252003962,0.0050463630436233245
1592167959.599376,0.0732892141366491,9.122826126017184,3.9982448962839308,-0.2966666666666667,-0.2311111111111111,-0.6622222222222223,-0.0168519930588309,0.013542849558258113,-0.0056732463424377455
1592167959.609376,0.008577777955681723,9.160750447180655,3.77978525569283,-0.2966666666666667,-0.2311111111111111,-0.6622222222222223,-0.01626841597463155,-0.030461223162746565,-0.014253207987315776
1592167959.619376,0.027000160482881036,9.129788118237856,3.642017648238874,-0.2966666666666667,-0.2311111111111111,-0.6622222222222223,-0.029273707924792555,-0.07997939919564387,-0.019126673611477036
1592167959.629376,0.0827737034696083,9.114187787967882,3.70746343445724,-0.2966666666666667,-0.2311111111111111,-0.6622222222222223,-0.04920528447007282,-0.10435563804178935,-0.022723383198690838
1592167959.639376,0.25518763098466263,9.12201790806973,3.882800197020799,-0.2947531802930456,-0.2311111111111111,-0.6641357085958434,-0.061951,-0.1227977194094202,-0.03373224525874623
1592167959.649376,0.3139878517884761,9.076399216128047,4.1534073883142435,-0.28888888888888886,-0.2311111111111111,-0.67,-0.05482812686740952,-0.12388407956899888,-0.03508380165630951
1592167959.659376,0.35826308645402505,9.08521806862531,4.301770773007184,-0.28888888888888886,-0.2311111111111111,-0.67,-0.03643169356827535,-0.10737338130634216,-0.03058930441644099
1592167959.669376,0.34211704527099285,9.077088100344028,4.308089990074135,-0.28888888888888886,-0.2311111111111111,-0.67,-0.015428374820817891,-0.08768207712711688,-0.02307287575668424
1592167959.679376,0.27495194502921994,9.04002457414375,4.259116726203177,-0.28888888888888886,-0.2311111111111111,-0.67,0.006107583961862503,-0.07494169720535271,-0.015406543766556959
1592167959.6893759,0.17241574987341382,9.087531083284217,4.114284025294027,-0.2883351179467212,-0.23018815954083158,-0.67,0.020416269727125277,-0.06509044325653689,-0.015075226973852449
1592167959.6993759,0.11345287723183259,9.089033839429444,4.004140687439522,-0.28555555555555556,-0.22555555555555556,-0.67,0.028268237004555483,-0.07058998860475356,-0.031838451218618086
1592167959.7093759,0.0038704099611557435,9.121049588991884,3.967132001031614,-0.28555555555555556,-0.22555555555555556,-0.67,0.028718678219779605,-0.07882573960633134,-0.03458248639973648
1592167959.7193758,-0.004700929149549483,9.080060482422553,3.920397922487775,-0.28555555555555556,-0.22555555555555556,-0.67,0.032313457226717766,-0.07796082428954954,-0.012304676185525148
1592167959.7293758,0.16276884699875355,9.16725277382377,3.943927606790058,-0.28555555555555556,-0.22555555555555556,-0.67,0.031784,-0.06843726120862026,-0.010856101375868262
1592167959.7393758,0.2869528239903734,9.114614997355295,4.066978768307556,-0.28555555555555556,-0.2299904727530492,-0.6650433278380954,0.03648494664370617,-0.02747126588283074,-0.019406263279821232
1592167959.7493758,0.4511126896687478,9.030256007970996,4.065703968732448,-0.28555555555555556,-0.24444444444444444,-0.6488888888888888,0.037616254162396535,0.027530360302008734,0.0007958199976255591
1592167959.7593758,0.5914960780627126,9.040404127286044,3.920654803238508,-0.28555555555555556,-0.24444444444444444,-0.6488888888888888,0.03387024216798877,0.08315583799067454,0.05307066332037791
1592167959.7693758,0.46757832020187695,9.121046881836278,3.7858894275153507,-0.28555555555555556,-0.24444444444444444,-0.6488888888888888,0.014929354445396281,0.1499322781245231,0.05921790074007978
1592167959.7793758,0.38951300035653597,9.070757300016803,3.771926842301175,-0.28555555555555556,-0.24444444444444444,-0.6488888888888888,-0.0015356749849109498,0.19060654148180614,0.05374456208256513
1592167959.7893758,0.32913711055964556,9.066917906251039,3.66489040849558,-0.28656016446377663,-0.24323891375457912,-0.6488888888888888,-0.03416869333053828,0.19207224314761767,0.06495944304556425
1592167959.7993758,0.5468577059612227,9.012083905918889,3.700814636177294,-0.2911111111111111,-0.23777777777777778,-0.6488888888888888,-0.06991955175339316,0.16473792348161426,0.05016281158450404
1592167959.8093758,0.34274432749848316,9.09877569575845,3.963849277925413,-0.2911111111111111,-0.23777777777777778,-0.6488888888888888,-0.08535880326703096,0.1271466259335611,0.042684404432478486
1592167959.8193758,0.23726925551880595,9.154194604227225,4.064259286535854,-0.2911111111111111,-0.23777777777777778,-0.6488888888888888,-0.07802428427668574,0.08838017870285143,0.02904328427668575
1592167959.8293757,0.32772657478856404,9.10286614283772,4.279977187712928,-0.2911111111111111,-0.23777777777777778,-0.6488888888888888,-0.05196196759145466,0.079437,0.02478317985386875
1592167959.8393757,0.4051890606931854,9.107096640870452,4.3308266479524296,-0.2911111111111111,-0.2395822125663839,-0.6515261397337747,-0.023737368401467708,0.06944696432276971,0.019587593688821903
1592167959.8493757,0.3361772033645871,9.182627929033746,4.318831151155543,-0.2911111111111111,-0.25222222222222224,-0.67,0.021974353877621953,0.06578811734936432,0.0020722864903309005
1592167959.8593757,0.23315133874994812,9.19802776965252,4.20656321841446,-0.2911111111111111,-0.25222222222222224,-0.67,0.06140191339162835,0.07451269367694538,-0.00621
1592167959.8693757,0.15433454312121242,9.111802202775237,4.061405286439881,-0.2911111111111111,-0.25222222222222224,-0.67,0.08226213052629043,0.07312199956385884,-0.0007989562004757558
1592167959.8793757,0.10814883115697657,9.113960300528692,3.9696766259503944,-0.2911111111111111,-0.25222222222222224,-0.67,0.09086752408252642,0.05850665061164905,0.022187506917416826
1592167959.8893757,0.20311353400891485,9.094164646223053,3.9235532731300258,-0.2911111111111111,-0.25222222222222224,-0.67,0.08808860319365777,0.038844110971299604,0.04212392021788126
1592167959.8993757,0.32493532094309474,9.07864416901659,3.9917625509316594,-0.28555555555555556,-0.23777777777777778,-0.6755555555555556,0.08799073268131662,0.016736699634323674,0.035593846625217335
1592167959.9093757,0.395017414623384,9.11427611806176,4.038263028571368,-0.28555555555555556,-0.23777777777777778,-0.6755555555555556,0.0937910485480755,0.008904921120089702,0.023533104770665145
1592167959.9193757,0.4254014335421936,9.080048221504018,4.058714482082258,-0.28555555555555556,-0.23777777777777778,-0.6755555555555556,0.1070785963921331,0.002905027153155365,0.007503942333585879
1592167959.9293756,0.465432505075936,9.096803717325137,3.9663575823033828,-0.28555555555555556,-0.23777777777777778,-0.6755555555555556,0.10568229507198668,-0.004053544683528304,0.008036544683528305
1592167959.9393756,0.3814960803948877,9.118683242534667,3.8451068587215476,-0.28555555555555556,-0.23777777777777778,-0.6755555555555556,0.10389190206215348,-0.006484978593880284,0.0009399662805126274
1592167959.9493756,0.2775093537361125,9.163809587802772,3.782744855168932,-0.2788888888888889,-0.23222222222222222,-0.6844444444444444,0.09727272950381671,-0.011000716909284626,-0.004920640188419
1592167959.9593756,0.2562958452176493,9.20397279369502,3.7931881547823507,-0.2788888888888889,-0.23222222222222222,-0.6844444444444444,0.09208852043941507,-0.017082496275940134,-0.014522537154770273
1592167959.9693756,0.17618357491297507,9.074117293440585,3.7729225706429856,-0.2788888888888889,-0.23222222222222222,-0.6844444444444444,0.08458564125980064,-0.029695956542535627,-0.006336257904087425
1592167959.9793756,0.2858579152949744,9.13270321605152,3.668883470211402,-0.2788888888888889,-0.23222222222222222,-0.6844444444444444,0.06918993708740134,-0.028554546423011886,0.0169341948251683
1592167959.9893756,0.4927011666473546,9.258986921585834,3.6999092759183267,-0.2788888888888889,-0.23222222222222222,-0.6844444444444444,0.059454441884387504,-0.01683044496203059,0.008551514149274545
1592167959.9993756,0.5020260616896579,9.187642036493257,3.7822232221605394,-0.29777777777777775,-0.25222222222222224,-0.6755555555555556,0.055251072257417405,0.005839518477338837,-0.014614473896343908
1592167960.0093756,0.4497347191232715,9.17607648135201,3.707319734833549,-0.29777777777777775,-0.25222222222222224,-0.6755555555555556,0.044853129045928704,0.02145395675454613,-0.027238015320673666
1592167960.0193756,0.4360108384688848,9.177775981927615,3.69688330277183,-0.29777777777777775,-0.25222222222222224,-0.6755555555555556,0.03481382852206457,0.04185884412799458,-0.03801465469988171
1592167960.0293756,0.22858072083044634,9.140767981435701,3.693391630271206,-0.29777777777777775,-0.25222222222222224,-0.6755555555555556,0.02197199419945518,0.040218007705786096,-0.02509588290809974
1592167960.0393755,0.10606466828052777,9.003221079921317,3.6139868757304647,-0.29777777777777775,-0.25222222222222224,-0.6755555555555556,0.0016386321673395477,0.017028183168844538,0.022285270679617906
1592167960.0493755,0.33966577943276344,9.111724985939851,3.608148169663207,-0.28555555555555556,-0.23777777777777778,-0.6622222222222223,-0.03607215621310054,0.024167294427827897,0.05689756260392624
1592167960.0593755,0.3631425179798706,9.175500236830226,3.735930089201152,-0.28555555555555556,-0.23777777777777778,-0.6622222222222223,-0.059804553879669285,0.04851745770788974,0.039247520508822055
1592167960.0693755,0.28578326839366,9.037117371815864,3.8483401452101687,-0.28555555555555556,-0.23777777777777778,-0.6622222222222223,-0.06930807646382814,0.06068735710361741,0.05932714281714055
1592167960.0793755,0.4525990914433742,9.268071554962376,3.880253512372035,-0.28555555555555556,-0.23777777777777778,-0.6622222222222223,-0.06519335288895362,0.08344500811771308,0.05767086063264126
1592167960.0893755,0.4483484069131723,9.262800142749208,3.9927217390953,-0.28555555555555556,-0.23777777777777778,-0.6622222222222223,-0.04387304954810642,0.10942834558736157,0.016895951205919982
1592167960.0993755,0.24593645076477433,9.186329981964763,3.8919872943998395,-0.2911111111111111,-0.24444444444444444,-0.6888888888888889,-0.041718,0.1306556835509411,-0.024640227304678415
1592167960.1093755,-0.12775024322786704,9.139270144914702,3.819699777700569,-0.2911111111111111,-0.24444444444444444,-0.6888888888888889,-0.038016467510183914,0.13386303247786624,-0.017155426553370632
1592167960.1193755,-0.23514100253008358,8.98287921470534,3.76545657865597,-0.2911111111111111,-0.24444444444444444,-0.6888888888888889,-0.05501482848199948,0.12275608748434197,0.061042448468777565
1592167960.1293755,0.045917048724452125,9.167971434222949,3.731728422401944,-0.2911111111111111,-0.24444444444444444,-0.6888888888888889,-0.0686274577942258,0.11068234608883316,0.07780226167728475
1592167960.1393754,0.06922498672245614,9.069917490675822,3.893150176753065,-0.2911111111111111,-0.24444444444444444,-0.6888888888888889,-0.07316918221462804,0.09887405416760424,0.08883427008584793
1592167960.1493754,0.18734059879854784,9.187207390291924,3.9963584430213235,-0.2788888888888889,-0.25222222222222224,-0.6888888888888889,-0.07086007864150393,0.08530057129505358,0.07823706643469716
1592167960.1593754,0.2490112609106965,8.989187068471761,4.049813868114808,-0.2788888888888889,-0.25222222222222224,-0.6888888888888889,-0.06644139061376861,0.07038445546541561,0.06882501637065688
1592167960.1693754,0.2298755896106997,9.097752978932652,3.9359264423126734,-0.2788888888888889,-0.25222222222222224,-0.6888888888888889,-0.07269750375391361,0.05143857279634198,0.0744642114436477
1592167960.1793754,0.2694610943262794,9.059109175520268,3.9740071744067196,-0.2788888888888889,-0.25222222222222224,-0.6888888888888889,-0.08218068431637565,0.030455339489448945,0.05348128445640894
1592167960.1893754,0.26242398136060435,8.986681389739301,4.013230922408036,-0.2788888888888889,-0.25222222222222224,-0.6888888888888889,-0.08951957314237172,0.01892685793084855,0.05448853279681771
1592167960.1993754,0.23806087900722891,9.179607087428566,3.99550388481008,-0.2733333333333333,-0.22555555555555556,-0.7055555555555556,-0.101364,0.01640821714601542,0.004269783956783964
1592167960.2093754,-0.13436978917019682,9.06755051216556,4.246972801597232,-0.2733333333333333,-0.22555555555555556,-0.7055555555555556,-0.08191212844699004,-0.0033407113377336654,-0.023426886719823216
1592167960.2193754,-0.07118294846158106,8.9883439765482,4.294646546072207,-0.2733333333333333,-0.22555555555555556,-0.7055555555555556,-0.0700168215111049,-0.039003480316321476,0.0241836237258058
1592167960.2293754,0.23038171261438148,9.195115182287768,4.217429377591741,-0.2733333333333333,-0.22555555555555556,-0.7055555555555556,-0.04516507459322793,-0.0634844980668212,-0.030984698775810334
1592167960.2393754,0.11382819010246976,9.033593301261789,4.275091730572552,-0.2733333333333333,-0.22555555555555556,-0.7055555555555556,-0.030912942412246777,-0.08684222273933788,-0.07149011517550645
1592167960.2493753,0.04629131379006701,9.077370127384658,4.210269722289254,-0.3055555555555556,-0.24444444444444444,-0.7122222222222222,-0.009088433493727014,-0.11107166363392611,-0.06839991270275991
1592167960.2593753,0.07600492634116679,9.20582299484894,4.160185852186709,-0.3055555555555556,-0.24444444444444444,-0.7122222222222222,0.024895024436354486,-0.12769489539989104,-0.059941781750982685
1592167960.2693753,0.08340654620761746,9.096773866553292,4.012369362323278,-0.3055555555555556,-0.24444444444444444,-0.7122222222222222,0.041382,-0.13975307274957907,-0.07065864490856501
1592167960.2793753,-0.0181875186361804,9.15513342556163,3.9442691454498253,-0.3055555555555556,-0.24444444444444444,-0.7122222222222222,0.05592155312719675,-0.1344810880731073,-0.046987514345182085
1592167960.2893753,0.1988594123887595,9.157018564024211,3.804189557820194,-0.3055555555555556,-0.24444444444444444,-0.7122222222222222,0.05161778087679178,-0.12557572175245915,-0.008907404281606463
1592167960.2993753,0.34602431280735874,9.15046683182282,3.7409683838638252,-0.31222222222222223,-0.23222222222222222,-0.6977777777777778,0.04671792331738927,-0.0946061213741436,-0.03315553467610837
1592167960.3093753,0.2303650354377837,9.086788700340874,3.755470685552177,-0.31222222222222223,-0.23222222222222222,-0.6977777777777778,0.027486430754668983,-0.06560936199134655,-0.04851358645604822
1592167960.3193753,0.17825720008111776,9.185023921061006,3.816036014612037,-0.31222222222222223,-0.23222222222222222,-0.6977777777777778,0.01753191302421347,-0.050786381256803875,-0.01646985408181867
1592167960.3293753,0.41993034108379595,9.077834734178058,3.898380904045977,-0.31222222222222223,-0.23222222222222222,-0.6977777777777778,0.012048106243539356,-0.04119105404513431,-0.013477583347809633
1592167960.3393753,0.36235289064772763,9.239653490920631,3.9343036770699635,-0.31222222222222223,-0.23222222222222222,-0.6977777777777778,0.013741498216427426,-0.028363241794238568,-0.010271758205761433
1592167960.3493752,0.34993227174706026,9.202275100641085,4.014029378050592,-0.3240935605225223,-0.23222222222222222,-0.6977777777777778,0.035868239749944686,-0.016210850493436672,-0.017510595341628174
1592167960.3593752,0.265941885875228,9.017887111203317,3.842505163780628,-0.3244444444444444,-0.23222222222222222,-0.6977777777777778,0.0376048789978164,-0.013774695791471137,-0.00618534361825153
1592167960.3693752,0.22614191500643843,9.294182075365855,3.8214853873143664,-0.3244444444444444,-0.23222222222222222,-0.6977777777777778,0.04276490206220626,-0.019961253965415753,-0.02399926802853484
1592167960.3793752,0.169543210041898,9.085838570311155,3.8725465540430952,-0.3244444444444444,-0.23222222222222222,-0.6977777777777778,0.03828011417037175,-0.030771716923744957,0.03809773433706731
1592167960.3893752,0.49738911413770487,9.21231138052094,3.8284244436937183,-0.3244444444444444,-0.23222222222222222,-0.6977777777777778,0.04501948935190442,-0.022449384192516096,0.017038463965828917
1592167960.3993752,0.5136882302765039,9.097616168265683,3.8652428851092537,-0.31222222222222223,-0.22555555555555556,-0.7055555555555556,0.0480250394171316,0.0020222282630525156,-0.03739136701222133
1592167960.4093752,0.2303140125012106,9.175568485606824,3.8290601977668395,-0.31222222222222223,-0.22555555555555556,-0.7055555555555556,0.045356803712476995,0.025604607424953997,-0.050961683813695334
1592167960.4193752,0.30351302719765916,9.21075134759534,3.8295666654236866,-0.31222222222222223,-0.22555555555555556,-0.7055555555555556,0.05174407880452551,0.03975727520635807,-0.025124275206358074
1592167960.4293752,0.37318213111110476,9.181219684874197,3.8793265773330314,-0.31222222222222223,-0.22555555555555556,-0.7055555555555556,0.06598885139841507,0.057737891159699926,-0.06513865280187091
1592167960.4393752,0.06879882514639468,9.207368225669201,3.8361176790532476,-0.31222222222222223,-0.22555555555555556,-0.7055555555555556,0.05598047938767465,0.05212842198832093,-0.08724990137599559
1592167960.4493752,-0.22313873846685753,9.07539822431011,3.780775456621805,-0.3244444444444444,-0.22,-0.6977777777777778,0.05529561305636799,0.0036009123439564366,-0.016041579262622924
1592167960.4593751,0.07573191792237235,9.165844277591058,3.790397977022335,-0.3244444444444444,-0.22,-0.6977777777777778,0.06858176925137573,-0.036452797436326255,0.026496022394648013
1592167960.4693751,0.20110771905907296,9.134351346316391,3.722208347799559,-0.3244444444444444,-0.22,-0.6977777777777778,0.06071181970868343,-0.05932579751971811,0.03662691147270063
1592167960.4793751,0.30665600883507643,9.171058023649264,3.574644945673079,-0.3244444444444444,-0.22,-0.6977777777777778,0.03842199047818535,-0.08133244493275034,0.02728173273600388
1592167960.489375,0.26680319314532563,9.072259656322446,3.5128472241578885,-0.3244444444444444,-0.22,-0.6977777777777778,0.0009440223065609664,-0.10047703959306366,0.01372263112749703
1592167960.499375,0.26485200674531506,9.116287282304976,3.5369078655928265,-0.3553043960860835,-0.23095030542122677,-0.7047461539549221,-0.042851915594543113,-0.11483067269722941,0.011124357295229466
1592167960.509375,0.38793569718249643,9.057957548234484,3.6741323355125073,-0.35888888888888887,-0.23222222222222222,-0.7055555555555556,-0.07870610852456095,-0.11754290284872261,-0.005855341706771394
1592167960.519375,0.4676838057325584,9.146170534941326,3.805706524593626,-0.35888888888888887,-0.23222222222222222,-0.7055555555555556,-0.105637,-0.11454611694770872,-0.02215623004258257
1592167960.529375,0.504429196989845,9.217178937330079,4.029786326298489,-0.35888888888888887,-0.23222222222222222,-0.7055555555555556,-0.09674740571757831,-0.09223230332615104,-0.05834211899861836
1592167960.539375,0.37012178569343857,9.175863837307508,4.10205737356895,-0.35888888888888887,-0.23222222222222222,-0.7055555555555556,-0.07879899266311638,-0.09960653150152744,-0.09016698116303795
1592167960.549375,0.3362354135505173,9.149516554785192,4.1154324135652365,-0.3453507641857469,-0.20722876123180625,-0.7055555555555556,-0.04410205923696599,-0.11117465953860182,-0.06491287545450987
1592167960.559375,0.40517933319657945,9.140833251367567,3.864100252474237,-0.34444444444444444,-0.20555555555555555,-0.7055555555555556,-0.03216330541213299,-0.1291480811614156,-0.0565332647988561
1592167960.569375,0.33379218564918645,9.273555022542435,3.7020396523505226,-0.34444444444444444,-0.20555555555555555,-0.7055555555555556,-0.030229123118608276,-0.13970773620601,-0.09468041791767644
1592167960.579375,0.20513595152788308,9.156211623846016,3.679727711024181,-0.34444444444444444,-0.20555555555555555,-0.7055555555555556,-0.04215542155876211,-0.141188326520995,-0.13480261521686723
1592167960.589375,-0.026983722523282704,9.07018006712092,3.646164403096417,-0.34444444444444444,-0.20555555555555555,-0.7055555555555556,-0.06760158618602553,-0.1592750414104039,-0.11260548058882135
1592167960.599375,0.03173224015500316,9.094604188322977,3.691548033985048,-0.35647863739086316,-0.2175897485019743,-0.6916699483096878,-0.08708906313134566,-0.16760791550562304,-0.0626367144943231
1592167960.609375,0.19073489614059327,9.139679526990927,3.817434813373017,-0.35888888888888887,-0.22,-0.6888888888888889,-0.1005861743985131,-0.17003821811904257,-0.06256789122144567
1592167960.619375,0.19554418513991992,9.127601221357438,3.8800771106787186,-0.35888888888888887,-0.22,-0.6888888888888889,-0.1064694047263849,-0.17405945548288929,-0.08178945548288931
1592167960.629375,0.06252551982499827,9.075755726592883,3.8937837607948023,-0.35888888888888887,-0.22,-0.6888888888888889,-0.11478614823177619,-0.18832718459338554,-0.06704227315366999
1592167960.639375,0.11286794714073171,9.087017338329977,3.8424452180372866,-0.35888888888888887,-0.22,-0.6888888888888889,-0.12313451531785627,-0.20383438190984457,-0.05099117865059209
1592167960.649375,0.2080268462232569,9.111867891134347,3.7514871038173565,-0.347106204230326,-0.22,-0.6961397717556969,-0.13544880079706725,-0.21517772034901947,-0.06539352114608674
1592167960.659375,0.21387657278511082,9.079230829205375,3.6944736851552955,-0.34444444444444444,-0.22,-0.6977777777777778,-0.16168722319550982,-0.2152475276765712,-0.09421322319550982
1592167960.669375,0.12191573740287744,9.039260230872525,3.768190684156287,-0.34444444444444444,-0.22,-0.6977777777777778,-0.18890444731735836,-0.20260287311396116,-0.103149
1592167960.679375,0.17311722566341498,9.069587905204815,3.841089338138682,-0.34444444444444444,-0.22,-0.6977777777777778,-0.21699817913427263,-0.18444655799177773,-0.13000875257946973
1592167960.689375,-0.0019245254202987887,8.956944712374456,3.9911326515894467,-0.34444444444444444,-0.22,-0.6977777777777778,-0.2345503280817175,-0.17536882154880806,-0.13804963713432944
1592167960.699375,-0.05454784903812573,8.972347453259566,4.212299561353298,-0.3574418322662897,-0.2070026121781547,-0.6857801890191513,-0.23650042214172887,-0.176239,-0.10921470846618526
1592167960.709375,-0.002457571124013753,9.012845422220426,4.339357313862637,-0.35888888888888887,-0.20555555555555555,-0.6844444444444444,-0.22513579896680144,-0.17903816111920226,-0.10294996008600374
1592167960.719375,-0.1101358301269426,8.940838218401549,4.441110717569462,-0.35888888888888887,-0.20555555555555555,-0.6844444444444444,-0.2034264505435797,-0.18313074004136165,-0.0697581554244539
1592167960.729375,0.06144046851976666,9.00446247218246,4.509242762421238,-0.35888888888888887,-0.20555555555555555,-0.6844444444444444,-0.17817576848391523,-0.18206800444312768,-0.05043760136852271
1592167960.7393749,0.10072540089450441,9.017260875945292,4.4282879047403165,-0.35888888888888887,-0.20555555555555555,-0.6844444444444444,-0.15434483349255582,-0.18425432753726997,-0.047183668636006273
1592167960.7493749,0.08828865085644977,8.992216363970675,4.275419930556367,-0.3842669909471693,-0.21693194613340538,-0.6669423050939063,-0.142914,-0.17814821989025992,-0.05009939357483793
1592167960.7593749,0.05808413542300526,9.008724209490335,4.321684300026292,-0.39111111111111113,-0.22,-0.6622222222222223,-0.13903711847867986,-0.169846,-0.06184195406160397
1592167960.7693748,-0.07311790637229423,8.980490138863813,4.432233011473218,-0.39111111111111113,-0.22,-0.6622222222222223,-0.12752676630926635,-0.16338162391537192,-0.06636331195768595
1592167960.7793748,-0.18515844046297314,8.908340252913776,4.6045000886973995,-0.39111111111111113,-0.22,-0.6622222222222223,-0.10274467753271112,-0.14503458094407282,-0.026235387796100868
1592167960.7893748,-0.026588436375812097,8.977205095799034,4.610922411876746,-0.39111111111111113,-0.22,-0.6622222222222223,-0.06878250849940012,-0.11593263016620978,0.03561800801282086
1592167960.7993748,0.2688894584645885,9.01487453167306,4.4902142655654345,-0.39111111111111113,-0.20701214686349403,-0.6817040019269812,-0.03896615267728984,-0.07720101199223937,0.049613395857396714
1592167960.8093748,0.37472888950892813,8.991008964689522,4.407298493023224,-0.39111111111111113,-0.20444444444444446,-0.6855555555555556,-0.02001684662079438,-0.004725515238923566,0.0344627886528041
1592167960.8193748,0.3315142615428508,9.04812927308082,4.397302230146025,-0.39111111111111113,-0.20444444444444446,-0.6855555555555556,-0.009512290568311578,0.05326149600142929,0.0010466266995049658
1592167960.8293748,0.16774378256488767,8.964149409749664,4.406723792842039,-0.39111111111111113,-0.20444444444444446,-0.6855555555555556,-0.003022787995277051,0.08374403635034265,-0.00879972001471812
1592167960.8393748,0.16817925943465967,9.028804508017028,4.417843486488777,-0.39111111111111113,-0.20444444444444446,-0.6855555555555556,0.01209164234208848,0.12705143575615357,-0.023932605425136172
1592167960.8493748,-0.03809366253062427,9.00320498210001,4.391700970929617,-0.4181446554421622,-0.20444444444444446,-0.6684343108125564,0.03052876216351269,0.12900867709235092,-0.042419
1592167960.8593748,-0.28104362230691093,8.973602248782859,4.284880912087128,-0.42444444444444446,-0.20444444444444446,-0.6644444444444444,0.04330803022428466,0.10121396151078312,-0.027986961510783108
1592167960.8693748,-0.2810842678898955,8.955317234172782,4.210116475360371,-0.42444444444444446,-0.20444444444444446,-0.6644444444444444,0.05959705269012577,0.0551840205519629,0.025630105434204874
1592167960.8793747,-0.08670234657698765,9.07260590051282,4.007049744307179,-0.42444444444444446,-0.20444444444444446,-0.6644444444444444,0.05788886520608869,0.02074809593843585,0.02814715543942631
1592167960.8893747,-0.14475545944773116,9.01340737475291,3.944010613692822,-0.42444444444444446,-0.20444444444444446,-0.6644444444444444,0.04524751342753735,0.0034635974728284983,0.044134157906318756
1592167960.8993747,0.029131836320122832,8.984517052041591,3.8981410443390963,-0.4084956119322799,-0.18672351943092833,-0.64849561193228,0.024999732355221405,-0.006851,0.04904167816865677
1592167960.9093747,0.20556967225993897,8.999692956645589,3.76425231523252,-0.40444444444444444,-0.18222222222222223,-0.6444444444444445,-0.017080551046564866,0.0026772606079095715,0.02372257877995636
1592167960.9193747,0.17170664102500427,8.975334385848988,3.8831179904203377,-0.40444444444444444,-0.18222222222222223,-0.6444444444444445,-0.05501785604862329,0.03202285604862328,-0.013185423021173193
1592167960.9293747,0.07392192184676404,8.943208963770322,4.1724926698118345,-0.40444444444444444,-0.18222222222222223,-0.6444444444444445,-0.0701114014445684,0.05425632246658799,-0.010775021321394226
1592167960.9393747,0.04769741706471355,8.953484656566093,4.30391172920263,-0.40444444444444444,-0.18222222222222223,-0.6444444444444445,-0.06950723092570466,0.06743321805535263,-0.007467124338407824
1592167960.9493747,0.0031475043800711644,8.94453622053644,4.420673380566459,-0.3992567560105578,-0.1925975990899955,-0.6548198213122177,-0.0684675983428994,0.08528231360886926,0.05045132308865725
1592167960.9593747,0.22149223394288609,9.087381086005445,4.513624298164441,-0.3977777777777778,-0.19555555555555557,-0.6577777777777778,-0.045802844591787295,0.09495882372801455,0.040646870483159375
1592167960.9693747,0.042034586803170224,8.969091468291651,4.537386248984038,-0.3977777777777778,-0.19555555555555557,-0.6577777777777778,-0.022379662038769257,0.10109008886776648,0.013328371677615443
1592167960.9793746,-0.10085077282164179,8.984241949987192,4.531145571922472,-0.3977777777777778,-0.19555555555555557,-0.6577777777777778,0.004815865193377882,0.10904892743009517,0.026638835696133432
1592167960.9893746,-0.07831871914100111,8.935280744276454,4.532599742035181,-0.3977777777777778,-0.19555555555555557,-0.6577777777777778,0.03406683878855021,0.10902152404395862,0.04803784562899823
1592167960.9993746,-0.024170725078666307,8.98503901421866,4.492659620374688,-0.39395564585824594,-0.19937768747508738,-0.6584147997643665,0.0624694452982191,0.11727903939572347,0.06759271816257317
1592167961.0093746,0.010456687818519791,8.974827692520366,4.43350614290475,-0.39111111111111113,-0.20222222222222222,-0.6588888888888889,0.07905691312010299,0.1306656303914104,0.0829955543667694
1592167961.0193746,0.013698598698969947,9.04432142357217,4.291692770560753,-0.39111111111111113,-0.20222222222222222,-0.6588888888888889,0.08941459776710654,0.14354566400912894,0.11404801942313639
1592167961.0293746,0.1851914661102622,9.095281645908342,4.172037496564124,-0.39111111111111113,-0.20222222222222222,-0.6588888888888889,0.09747173694811652,0.16780454622731966,0.09185064477308831
1592167961.0393746,0.15481409467523802,9.03300404733762,4.208370712381371,-0.39111111111111113,-0.20222222222222222,-0.6588888888888889,0.10442602036126826,0.19828778507165257,0.04266358505634588
1592167961.0493746,-0.10182556828808673,8.92904278013396,4.174664813266077,-0.3994277275911123,-0.19568773784507845,-0.6440377880317439,0.10285539055969714,0.19961897608975093,0.048030840585525036
1592167961.0593746,-0.3414840746191466,8.91228648649342,4.066220588859401,-0.4066666666666667,-0.19,-0.6311111111111111,0.088242,0.1770705773944507,0.14750659982051254
1592167961.0693746,0.0628996725297533,9.093098638348497,4.155798731605628,-0.4066666666666667,-0.19,-0.6311111111111111,0.09643990106133625,0.16771173262577585,0.1819990985627922
1592167961.0793746,0.21781765613709114,9.137484848719241,4.220423304984817,-0.4066666666666667,-0.19,-0.6311111111111111,0.10776199655590038,0.18025363205294412,0.1382273817713302
1592167961.0893745,0.11260847832262512,8.926941838056086,4.10997633874674,-0.4066666666666667,-0.19,-0.6311111111111111,0.10843840653087986,0.20090547061484368,0.10618360121342568
1592167961.0993745,0.1234013981951142,9.006967805739293,3.863772429692474,-0.41037788131710967,-0.18035084190884815,-0.6222041959500478,0.08637785539794744,0.21883202877109398,0.10844316561769507
1592167961.1093745,0.1831127987031389,9.038075022636542,3.7495545102487178,-0.4122222222222222,-0.17555555555555555,-0.6177777777777778,0.05677092681102553,0.22787490453579937,0.10128105408163963
1592167961.1193745,0.18665876963116898,8.954452928026512,3.7388172117515146,-0.4122222222222222,-0.17555555555555555,-0.6177777777777778,0.013337228127701137,0.2358602137861264,0.09777085853226587
1592167961.1293745,0.1449759706157602,9.08479141310639,3.7686224449357497,-0.4122222222222222,-0.17555555555555555,-0.6177777777777778,-0.01739803569553286,0.23858671389708527,0.0781782744623334
1592167961.1393745,-0.12721772616714586,9.067121632511244,3.840726608004098,-0.4122222222222222,-0.17555555555555555,-0.6177777777777778,-0.05127600294698181,0.2166355089290804,0.07833901939715487
1592167961.1493745,-0.20854075797060098,9.009444006842841,3.880399743687363,-0.41935124332218765,-0.17555555555555555,-0.6210182419141257,-0.06913586130477452,0.17836006942675947,0.08009837610892546
1592167961.1593745,-0.28909360202745854,8.985901118789332,3.893371491483143,-0.42444444444444446,-0.17555555555555555,-0.6233333333333333,-0.09399088135233845,0.13627183223833622,0.08686968975460505
1592167961.1693745,-0.2885240814016862,8.87876523651673,3.7664086110137145,-0.42444444444444446,-0.17555555555555555,-0.6233333333333333,-0.134243152822048,0.08931001821258128,0.08175672993421848
1592167961.1793745,-0.3232522573315037,9.029709020490952,3.7286615753973953,-0.42444444444444446,-0.17555555555555555,-0.6233333333333333,-0.19037510179563824,0.03965163777252584,0.10437433436085301
1592167961.1893744,-0.03667188868509247,9.017790511147023,4.021985000619771,-0.42444444444444446,-0.17555555555555555,-0.6233333333333333,-0.20993473372667365,0.0045438232858611895,0.10059217300090374
1592167961.1993744,0.10688121750346727,8.94937593270556,4.058577077689963,-0.41211820598145704,-0.17966430170988468,-0.613746258973232,-0.22756366849577855,-0.0064351690514837965,0.0448273204853909
1592167961.2093744,-0.11795648743806211,9.114899208226241,4.00716852934178,-0.40444444444444444,-0.18222222222222223,-0.6077777777777778,-0.2537485929108872,-0.023328875056986033,0.012401212192719741
1592167961.2193744,-0.011822380151239334,8.953592117166005,4.227723260691073,-0.40444444444444444,-0.18222222222222223,-0.6077777777777778,-0.23230526812270513,-0.023549430562869497,-0.013533303061569975
1592167961.2293744,-0.03908030557120151,8.976743431091489,4.16279592855415,-0.40444444444444444,-0.18222222222222223,-0.6077777777777778,-0.24238914317854615,-0.03108898312029648,-0.03923
1592167961.2393744,-0.040921205752532344,9.03389620187632,4.258211465889584,-0.40444444444444444,-0.18222222222222223,-0.6077777777777778,-0.2414625895102971,-0.03401941048970294,-0.05368682882860522
1592167961.2493744,-0.050940305286337376,9.036245371221936,4.417594011657725,-0.4219125329232471,-0.1719823082863724,-0.6077777777777778,-0.22812515895463267,-0.045641900612628496,-0.10465682011672929
1592167961.2593744,-0.21091282638401768,8.881760450009054,4.430287888227712,-0.43666666666666665,-0.16333333333333333,-0.6077777777777778,-0.20181611221932866,-0.06318161942441078,-0.15325819337231306
1592167961.2693744,-0.5179816199409587,8.901338158802591,4.274661890861387,-0.43666666666666665,-0.16333333333333333,-0.6077777777777778,-0.22271140513875168,-0.1061708345180547,-0.11866967433439185
1592167961.2793744,-0.23518492366218544,9.066602647458403,4.574619944635204,-0.43666666666666665,-0.16333333333333333,-0.6077777777777778,-0.19441939759390048,-0.13447555125248312,-0.08405788829127453
1592167961.2893744,-0.08445639537407522,8.852266511949926,4.655844846080648,-0.43666666666666665,-0.16333333333333333,-0.6077777777777778,-0.17491162148431139,-0.15762640245819742,-0.10078553332962722
1592167961.2993743,-0.13093788728404832,8.993889720018805,4.596007324855313,-0.42842197875166,-0.16333333333333333,-0.6077777777777778,-0.1382045633681655,-0.1571324152320738,-0.096756
1592167961.3093743,-0.3314135063789544,8.934353240739751,4.6813743582202365,-0.41555555555555557,-0.16333333333333333,-0.6077777777777778,-0.11449717753379783,-0.16492341444490902,-0.06828051914825072
1592167961.3193743,-0.09388919644954717,9.01268785623229,4.845283286333924,-0.41555555555555557,-0.16333333333333333,-0.6077777777777778,-0.06691793346040943,-0.1541121262450354,-0.056441671951121083
1592167961.3293743,0.04190489225669953,8.87685626869336,4.8170442867894705,-0.41555555555555557,-0.16333333333333333,-0.6077777777777778,-0.02422061101705975,-0.13417112107678353,-0.1129439251910207
1592167961.3393743,-0.24890256225643365,8.874462930400062,4.650410718753759,-0.41555555555555557,-0.16333333333333333,-0.6077777777777778,-0.0036358010197954666,-0.1233530476736883,-0.10793914673897499
1592167961.3493743,-0.28447171113450015,8.849167753404087,4.672424278783273,-0.42282495891271027,-0.15485236274998615,-0.5948543940317249,0.02021249549149446,-0.11509745275381972,-0.05959655626319135
1592167961.3593743,-0.0745274960049725,8.829470714228899,4.578548021647541,-0.43555555555555553,-0.14,-0.5722222222222222,0.034494777335262,-0.116330388667631,-0.03168744532947599
1592167961.3693743,0.05356561722017107,8.969269162070505,4.556525022214153,-0.43555555555555553,-0.14,-0.5722222222222222,0.04760155892289924,-0.10631386873058678,-0.04282323673166495
1592167961.3793743,0.0441567475854084,8.859006226168,4.405641228540115,-0.43555555555555553,-0.14,-0.5722222222222222,0.04760935211926627,-0.09617835211926627,-0.08158446771483287
1592167961.3893743,-0.13620742266159117,8.818931485270593,4.360484983010817,-0.43555555555555553,-0.14,-0.5722222222222222,0.043754970305218945,-0.086746,-0.08380832073063313
1592167961.3993742,-0.13979216918898063,8.816428819643367,4.530481815442252,-0.4336144047737006,-0.14232938093822595,-0.5753280634731901,0.038887878669892836,-0.08213657264837129,-0.04779208246445031
1592167961.4093742,0.02506257404240364,8.875297577331592,4.731253244372665,-0.43,-0.14666666666666667,-0.5811111111111111,0.0587489289355426,-0.0713280060832177,-0.023639941101977983
1592167961.4193742,0.04046725717906052,8.860490981315351,4.691691413699371,-0.43,-0.14666666666666667,-0.5811111111111111,0.08195939437459268,-0.057709585501529374,-0.030940273539433957
1592167961.4293742,-0.22161577171582086,8.8432709768307,4.397622393154253,-0.43,-0.14666666666666667,-0.5811111111111111,0.07849907000935609,-0.05066479812725712,-0.005220959526892414
1592167961.4393742,-0.11051584923551122,8.94895615122262,4.374947043080609,-0.43,-0.14666666666666667,-0.5811111111111111,0.08882817124755953,-0.04045717124755953,-0.002362137238235239
1592167961.4493742,-0.17397409223926297,8.797922672158235,4.250387239338253,-0.42672294087553897,-0.14292145623871122,-0.572216236344717,0.07466853226766958,-0.05179217761469928,-0.010468
1592167961.4593742,-0.18262872067241928,8.90737256736767,4.209364953841042,-0.4222222222222222,-0.13777777777777778,-0.56,0.06223503434432921,-0.06274962591962807,-0.012082187407005836
1592167961.4693742,-0.15427260485047273,8.917845429840359,4.310024208609428,-0.4222222222222222,-0.13777777777777778,-0.56,0.041299741483483116,-0.06099127032710106,0.015144719184310599
1592167961.4793742,0.07838378597879325,8.965582492816235,4.495011720021165,-0.4222222222222222,-0.13777777777777778,-0.56,0.04817546455590341,-0.04985320507925911,0.008090283501084376
1592167961.4893742,0.13038801619116702,9.003112609149536,4.575144544926714,-0.4222222222222222,-0.13777777777777778,-0.56,0.07147088682670152,-0.02529420295801922,-0.03321401893984111
1592167961.4993742,0.005618824068589073,8.957882852334048,4.435121240761435,-0.42809864835942774,-0.14202186332131508,-0.5472677433693881,0.08601137742169168,0.007598456832739687,-0.07275145359776189
1592167961.5093741,-0.11793211056690622,9.027151248143586,4.391851819998241,-0.44222222222222224,-0.15222222222222223,-0.5166666666666667,0.10587383677567191,0.03520826817089802,-0.09049352059564754
1592167961.5193741,-0.3501277127489193,8.903167300188597,4.266584779912123,-0.44222222222222224,-0.15222222222222223,-0.5166666666666667,0.10852520490009322,0.027994317876739058,-0.08378448025981179
1592167961.5293741,-0.5572947052989088,8.940847441613572,4.14143370572199,-0.44222222222222224,-0.15222222222222223,-0.5166666666666667,0.1044531023929041,0.019977274442041615,0.013720329799421359
1592167961.539374,-0.12081441197965448,8.995211761887925,4.127976029209266,-0.44222222222222224,-0.15222222222222223,-0.5166666666666667,0.10488985937972448,0.010380206431212397,0.05110706581093687
1592167961.549374,0.023387610302155283,8.95293968015439,4.046637076702022,-0.43796031796189794,-0.14679798043635495,-0.5193787875596003,0.08699028423219449,0.017861159884726113,0.03377583385755463
1592167961.559374,-0.04486496412213223,8.895056434701221,4.02062866366841,-0.43,-0.13666666666666666,-0.5244444444444445,0.06075129589434919,0.034793667281081034,0.028179564867170603
1592167961.569374,-0.14379252004485396,8.834664134828941,4.12303165485104,-0.43,-0.13666666666666666,-0.5244444444444445,0.0165166251155918,0.050730712710072824,0.07796444629263195
1592167961.579374,0.15971414392456829,8.934156782122782,4.222401818057084,-0.43,-0.13666666666666666,-0.5244444444444445,0.001143548550061316,0.08289074137361954,0.09236723271825768
1592167961.589374,0.1514183930538165,9.02265260381294,4.358730747441136,-0.43,-0.13666666666666666,-0.5244444444444445,-0.0013462497176563002,0.1271577034190028,0.062051200038771896
1592167961.599374,-0.005377186029659212,8.99860587624122,4.4582819263981435,-0.42807499919321007,-0.1389766676348146,-0.5194394423467906,0.013577697205576354,0.1500620107267114,0.026133658400602423
1592167961.609374,-0.4912191370098439,8.808793766875532,4.284060681194908,-0.42444444444444446,-0.14333333333333334,-0.51,-0.000911108604708405,0.14138187330265764,0.03801148676876588
1592167961.619374,-0.39741134779273224,9.006288466242765,4.379407036566937,-0.42444444444444446,-0.14333333333333334,-0.51,0.01837226382695893,0.14649128470144543,0.11293760853268679
1592167961.629374,-0.00794770901449543,9.004894855503705,4.380328144496295,-0.42444444444444446,-0.14333333333333334,-0.51,0.03191324368718971,0.15442067688346692,0.08901473302182154
1592167961.639374,-0.03224391124346799,9.011458425624147,4.299335125436704,-0.42444444444444446,-0.14333333333333334,-0.51,0.039242254273585,0.17955007668942569,0.04388761863951321
1592167961.649374,-0.2697269376473201,8.833187930665561,4.1683489077327724,-0.4200901326648722,-0.1413376071010294,-0.5029242433581952,0.025859314023462643,0.1913200995580699,0.0580570031025783
1592167961.659374,-0.29442195714474184,9.054408592570608,4.253678071419217,-0.3977777777777778,-0.13111111111111112,-0.4666666666666667,0.031019912633906462,0.20255658440919275,0.11102533940904336
1592167961.669374,-0.18694223041778124,9.00529763295239,4.419526567290607,-0.3977777777777778,-0.13111111111111112,-0.4666666666666667,0.04304576662032969,0.2021183741079564,0.1207433741079564
1592167961.679374,-0.25228808850058715,8.984352398519102,4.331638238108991,-0.3977777777777778,-0.13111111111111112,-0.4666666666666667,0.061803367555657206,0.19216375034173516,0.0985036395409802
1592167961.689374,-0.45419945747648316,9.052832490481459,4.231742268567365,-0.3977777777777778,-0.13111111111111112,-0.4666666666666667,0.06846418224965015,0.17029405582053836,0.10274947408680993
1592167961.699374,-0.38346053253078244,9.080848355745148,4.317789621720695,-0.40216268141803474,-0.12794423625981444,-0.463743397573162,0.08731840740603714,0.1520709641900808,0.08226955678404366
1592167961.709374,-0.30941164927675135,9.005579346819346,4.287706351699582,-0.4177777777777778,-0.11666666666666667,-0.4533333333333333,0.1042422652823083,0.14247303037644024,0.04400510787238779
1592167961.719374,-0.48054173571255676,8.99293497088602,4.085249834128362,-0.4177777777777778,-0.11666666666666667,-0.4533333333333333,0.10387293831213809,0.13233349021335922,0.050969874729472515
1592167961.729374,-0.4289742756838637,8.995493544210609,3.9758411863038527,-0.4177777777777778,-0.11666666666666667,-0.4533333333333333,0.09142534496516641,0.1303041168457266,0.08302649214958091
1592167961.739374,-0.34401837528033163,8.981116661607025,3.990239005395694,-0.4177777777777778,-0.11666666666666667,-0.4533333333333333,0.073063547762889,0.11769090172832654,0.09043632309758072
1592167961.749374,-0.2050773373846908,9.134015001924906,4.0494666707055,-0.41755358354609295,-0.11610618108745449,-0.4533333333333333,0.0606580890417327,0.116821287983303,0.08519232749222576
1592167961.759374,-0.23507755755420046,8.977948137217048,4.031573848492912,-0.41555555555555557,-0.1111111111111111,-0.4533333333333333,0.05869486127163393,0.10634786127163393,0.02556643231556489
1592167961.769374,-0.38590824365072146,9.107384692063702,3.919757139979661,-0.41555555555555557,-0.1111111111111111,-0.4533333333333333,0.03834120640372745,0.08865063478011727,-0.003155438002917621
1592167961.779374,-0.474908967765455,8.92571219460359,3.9932278959518963,-0.41555555555555557,-0.1111111111111111,-0.4533333333333333,0.026540759180662538,0.060163620136749835,-0.017847240819337466
1592167961.7893739,-0.6063991482920943,8.935309234698448,3.9446595055435676,-0.41555555555555557,-0.1111111111111111,-0.4533333333333333,-0.005058059461066137,0.025900131385509378,-0.022362060674917594
1592167961.7993739,-0.5252664160800838,9.029811859784274,4.007183929117007,-0.4166220910741981,-0.11152131707981977,-0.4538255804957837,-0.021250099389933073,0.021316306826582438,-0.004197386346835125
1592167961.8093739,-0.3519709948288138,9.00496171799547,4.14219926522479,-0.43,-0.11666666666666667,-0.46,-0.025800822735781416,0.019775,-0.025085851605092375
1592167961.8193738,-0.5486857799553946,9.013361932996427,4.1748751877166725,-0.43,-0.11666666666666667,-0.46,-0.024641163043860652,0.024573105677509234,-0.0018236322776550452
1592167961.8293738,-0.5105081177016514,8.95981439796039,4.106611775684225,-0.43,-0.11666666666666667,-0.46,-0.02513474039696872,0.01917641548205856,0.034438000929427066
1592167961.8393738,-0.340061571637297,9.014630276715902,4.110904028186061,-0.43,-0.11666666666666667,-0.46,-0.02708923954798584,0.026653518181984394,0.057709
1592167961.8493738,-0.2685671722543509,9.03077276887993,4.1052703081075865,-0.4288243481455576,-0.11633601458260473,-0.4593019567114248,-0.03578072452403486,0.03620339449640149,0.04143515645552881
1592167961.8593738,-0.423331833679825,8.927462086027152,4.177376175945586,-0.39444444444444443,-0.10666666666666667,-0.4388888888888889,-0.043856630174600675,0.04747,0.030871861793980666
1592167961.8693738,-0.4374650685446476,9.013571107084877,4.244651923757682,-0.39444444444444443,-0.10666666666666667,-0.4388888888888889,-0.04838013693607201,0.04668613693607201,0.034271
1592167961.8793738,-0.43045201023043417,9.043446703838699,4.240878009739073,-0.39444444444444443,-0.10666666666666667,-0.4388888888888889,-0.043110334069970974,0.04823139466167117,0.03823673820996444
1592167961.8893738,-0.3567138335108261,8.94713760808331,4.331447228325412,-0.39444444444444443,-0.10666666666666667,-0.4388888888888889,-0.03326262585390359,0.06717109672819141,0.03900594992094403
1592167961.8993738,-0.3926632503938139,9.051634164225518,4.37315629678699,-0.39444444444444443,-0.10666666666666667,-0.4388888888888889,-0.019801568067650602,0.0885549995498528,0.03929182605555401
1592167961.9093738,-0.39865442309981186,9.021906180023539,4.32040463775625,-0.39444444444444443,-0.11333333333333333,-0.42444444444444446,-0.00943641817683552,0.10373887948456013,0.03917042309831453
1592167961.9193738,-0.4494837845779883,8.98045103432957,4.238549326083206,-0.39444444444444443,-0.11333333333333333,-0.42444444444444446,-0.00024229752837747766,0.1127063009724437,0.05632090291733111
1592167961.9293737,-0.34586613163606406,9.026580546885471,4.2236910726380135,-0.39444444444444443,-0.11333333333333333,-0.42444444444444446,0.003464014449362566,0.11072758938248257,0.045473928013109025
1592167961.9393737,-0.3616257885791608,8.988061753475455,4.109982982370292,-0.39444444444444443,-0.11333333333333333,-0.42444444444444446,0.0025447335744502057,0.1116848667872251,0.02410767818958338
1592167961.9493737,-0.45067420767012256,8.852721489604889,4.0249093310035695,-0.39444444444444443,-0.11333333333333333,-0.42444444444444446,-0.025184880016110762,0.09957973687630729,0.03159388001611076
1592167961.9593737,-0.4325776950984745,8.96495551056463,4.129229355427422,-0.4122222222222222,-0.09333333333333334,-0.4122222222222222,-0.05036929886796395,0.090088,0.07107085826278564
1592167961.9693737,-0.32072342862417264,8.920814837706159,4.323376314816589,-0.4122222222222222,-0.09333333333333334,-0.4122222222222222,-0.053642337990229716,0.08698789862025712,0.07849196614899893
1592167961.9793737,-0.3813045746625846,8.915759448717314,4.232326456023138,-0.4122222222222222,-0.09333333333333334,-0.4122222222222222,-0.06118741948859407,0.08917220974429704,0.07133101581632614
1592167961.9893737,-0.43943354366306364,9.013311390709614,4.209776371604145,-0.4122222222222222,-0.09333333333333334,-0.4122222222222222,-0.06285207896226058,0.08967036411252935,0.09576203522503929
1592167961.9993737,-0.3626964804537567,8.983172614157855,4.326174524696389,-0.4122222222222222,-0.09333333333333334,-0.4122222222222222,-0.058747903260402204,0.05897832693001452,0.07458437978555932
1592167962.0093737,-0.32053377024107127,8.973144676511325,4.174876963341319,-0.38555555555555554,-0.09333333333333334,-0.4122222222222222,-0.06295062874471148,0.027442088091342385,0.05250601947792527
1592167962.0193737,-0.2615890174988292,9.045302855262038,4.09156929853228,-0.38555555555555554,-0.09333333333333334,-0.4122222222222222,-0.06822007109109206,-0.003123575718745846,0.0032707538125005785
1592167962.0293736,-0.32313532542980594,9.071017713072287,4.121278204392275,-0.38555555555555554,-0.09333333333333334,-0.4122222222222222,-0.069412,-0.03862746980031913,-0.044103214149745884
1592167962.0393736,-0.2766227265099372,9.094918094990927,4.179918585488588,-0.38555555555555554,-0.09333333333333334,-0.4122222222222222,-0.05934318499055859,-0.059344541221732404,-0.08416717124061524
1592167962.0493736,-0.2669127358548912,8.959237463663497,4.056541505724415,-0.38555555555555554,-0.09333333333333334,-0.4122222222222222,-0.06330551625298077,-0.08011921967633688,-0.12195068720185823
1592167962.0593736,-0.5186857301320074,8.8030790310988,3.8057557800020447,-0.3977777777777778,-0.08,-0.43333333333333335,-0.10863872432856772,-0.09885508244465438,-0.09342005057558637
1592167962.0693736,-0.47898750518296795,8.866150221130095,3.9817046450043634,-0.3977777777777778,-0.08,-0.43333333333333335,-0.14530701221409648,-0.10768918740862925,-0.01712778835181572
1592167962.0793736,-0.2296130678595799,8.885871300791019,4.16738713571916,-0.3977777777777778,-0.08,-0.43333333333333335,-0.17102772930129748,-0.11636229995624581,-0.008119315406298538
1592167962.0893736,-0.24129587775075834,8.935743502625046,4.1743336131270254,-0.3977777777777778,-0.08,-0.43333333333333335,-0.19017450016825693,-0.12115871381098192,-0.01888464526084314
1592167962.0993736,-0.2375746255894392,8.836163747303837,4.195692161025085,-0.3973773124556039,-0.08,-0.43032984341702957,-0.21203800577139637,-0.11160260383775031,-0.028303278847690183
1592167962.1093736,-0.07187349550718054,8.911785771603496,4.173494176712448,-0.39111111111111113,-0.08,-0.38333333333333336,-0.23895240478478144,-0.0858217226505063,-0.02797068507277727
1592167962.1193736,-0.030301199072985265,8.943545826644348,4.209033892142562,-0.39111111111111113,-0.08,-0.38333333333333336,-0.25417212401520445,-0.05337193910480624,-0.038565382703563716
1592167962.1293736,-0.13648220921003815,8.874458691195436,4.301764208310835,-0.39111111111111113,-0.08,-0.38333333333333336,-0.26926284244396737,-0.032799910592059986,-0.06150993314100299
1592167962.1393735,-0.13119070139131456,8.94109665457216,4.323090316917765,-0.39111111111111113,-0.08,-0.38333333333333336,-0.27209455883327627,-0.01711553203745399,-0.09010860423776512
1592167962.1493735,-0.44955039688375814,8.959935794798481,4.580538198905057,-0.39111111111111113,-0.08,-0.38333333333333336,-0.26259870610922575,-0.029526090344590764,-0.120193
1592167962.1593735,-0.9021998184903572,8.802353701862694,4.709384795124652,-0.38333333333333336,-0.057777777777777775,-0.37666666666666665,-0.248683971667319,-0.06867836646898208,-0.05673764026699911
1592167962.1693735,-0.4700640160900903,8.941358123887289,4.764178998333632,-0.38333333333333336,-0.057777777777777775,-0.37666666666666665,-0.2079193633849437,-0.10431120165065275,-0.012804614442477583
1592167962.1793735,-0.2991754475188806,8.960418217603825,4.615431426757542,-0.38333333333333336,-0.057777777777777775,-0.37666666666666665,-0.17726808580000844,-0.114441,-0.04368218248958254
1592167962.1893735,-0.42133122508294457,8.990955013408035,4.5567620019566855,-0.38333333333333336,-0.057777777777777775,-0.37666666666666665,-0.16058000887862992,-0.11179580938033572,-0.05993646292503273
1592167962.1993735,-0.4575457121401605,8.858800638222624,4.65361655049993,-0.38333333333333336,-0.057777777777777775,-0.37666666666666665,-0.14222051022608392,-0.11372701249141894,-0.05805652271750286
1592167962.2093735,-0.42828079920092177,8.882521014301416,4.714240134472858,-0.39111111111111113,-0.06555555555555556,-0.3622222222222222,-0.12025948423180874,-0.12363947726767928,-0.06273764183518223
1592167962.2193735,-0.4334939953881133,8.849603457581898,4.715236194750481,-0.39111111111111113,-0.06555555555555556,-0.3622222222222222,-0.1013021432132565,-0.12961223761369484,-0.07790109440043834
1592167962.2293735,-0.5063436230842534,8.850988389434374,4.614715326583038,-0.39111111111111113,-0.06555555555555556,-0.3622222222222222,-0.08841175326796655,-0.14437552514159072,-0.09964169680603123
1592167962.2393734,-0.6530477333824515,8.789551759636321,4.520451504039182,-0.39111111111111113,-0.06555555555555556,-0.3622222222222222,-0.08760625585037206,-0.16243623870095536,-0.10625674414962795
1592167962.2493734,-0.6359278211315005,8.787338,4.57470553496121,-0.39111111111111113,-0.06555555555555556,-0.3622222222222222,-0.08894507361112544,-0.18867500632013215,-0.10599872129157141
1592167962.2593734,-0.5107091642917729,8.799102816813068,4.553379258413601,-0.37666666666666665,-0.056666666666666664,-0.36444444444444446,-0.09210966070812066,-0.202866,-0.12715270156436562
1592167962.2693734,-0.4084992935583941,8.77539538791366,4.516070779131944,-0.37666666666666665,-0.056666666666666664,-0.36444444444444446,-0.09844948744002101,-0.19389903510164005,-0.12964087594886042
1592167962.2793734,-0.3304196651757556,8.73575056920389,4.559808118644394,-0.37666666666666665,-0.056666666666666664,-0.36444444444444446,-0.11019238651980207,-0.1849752626834248,-0.11079292326280557
1592167962.2893734,-0.2149436450206264,8.761262969886015,4.651055410135312,-0.37666666666666665,-0.056666666666666664,-0.36444444444444446,-0.117355,-0.16558239308620804,-0.09519549329715916
1592167962.2993734,-0.27506947474887855,8.71328622639941,4.728814456594458,-0.37666666666666665,-0.056666666666666664,-0.36444444444444446,-0.11607497417841413,-0.14450254697042955,-0.08442242157483865
1592167962.3093734,-0.33310098656122356,8.717173456149933,4.775751629657961,-0.38333333333333336,-0.042222222222222223,-0.3333333333333333,-0.10936043826600858,-0.13006760698808018,-0.056282246835398314
1592167962.3193734,-0.3085697013280471,8.755167347745774,4.833105449467054,-0.38333333333333336,-0.042222222222222223,-0.3333333333333333,-0.10046607878160788,-0.11035393832779615,-0.04395794766965217
1592167962.3293734,-0.37308732194604627,8.744249649979789,4.936584376492234,-0.38333333333333336,-0.042222222222222223,-0.3333333333333333,-0.0831012092335653,-0.09974723998606992,-0.03472857815443578
1592167962.3393734,-0.3594610573268885,8.758337483142316,4.874444326470412,-0.38333333333333336,-0.042222222222222223,-0.3333333333333333,-0.06129264353710523,-0.08841124020882038,-0.0322717346282061
1592167962.3493733,-0.3292929861405434,8.719265629817503,4.828757356428569,-0.38333333333333336,-0.042222222222222223,-0.3333333333333333,-0.05117962037215981,-0.07549573622840552,-0.017688240744319635
1592167962.3593733,-0.27459749602485944,8.733613575462947,4.820388397514374,-0.37666666666666665,-0.02666666666666667,-0.3422222222222222,-0.04158884040290322,-0.055603286471667825,-0.008105137538754675
1592167962.3693733,-0.2770306371732818,8.721986337450216,4.8768431212554715,-0.37666666666666665,-0.02666666666666667,-0.3422222222222222,-0.031039446419644935,-0.037699499466972,0.0023510912594470086
1592167962.3793733,-0.3297096567227154,8.68149414720029,5.000040260915518,-0.37666666666666665,-0.02666666666666667,-0.3422222222222222,-0.016329205715610785,-0.0072674902832002425,0.01602017714387387
1592167962.3893733,-0.36149334831509894,8.723356961918176,4.982437203340359,-0.37666666666666665,-0.02666666666666667,-0.3422222222222222,0.005717532653846636,0.01409381984136229,0.0266577605514146
1592167962.3993733,-0.374546019468544,8.745266632775454,4.876153084123974,-0.37666666666666665,-0.02666666666666667,-0.3422222222222222,0.024711611836183,0.02991592031341373,0.03197957450171308
1592167962.4093733,-0.43037145593728726,8.737684944551162,4.884313436750049,-0.38333333333333336,-0.04,-0.31555555555555553,0.035493448872334236,0.03267500649724878,0.035001567678158825
1592167962.4193733,-0.38663594862517026,8.756918592517914,4.804499974901556,-0.38333333333333336,-0.04,-0.31555555555555553,0.050261977219242596,0.023682022780757404,0.03441180006194346
1592167962.4293733,-0.35599785297725,8.761337724280132,4.791577636410895,-0.38333333333333336,-0.04,-0.31555555555555553,0.05878552544384896,0.017986959044383043,0.026798433600534077
1592167962.4393733,-0.3346047013323009,8.787169165431203,4.893252221570003,-0.38333333333333336,-0.04,-0.31555555555555553,0.07364726652166229,0.008608722216789164,0.00880233766400931
1592167962.4493732,-0.36609395013964247,8.755204845901098,4.951267365074781,-0.38333333333333336,-0.04,-0.31555555555555553,0.09525369663221239,-0.001890421536109006,0.0018477414239977535
1592167962.4593732,-0.39118573457936584,8.759033401235214,4.867258905690247,-0.37777777777777777,-0.03111111111111111,-0.31555555555555553,0.11968876678742951,-0.0071281923091834325,0.005508
1592167962.4693732,-0.4200076597721163,8.757363910431678,4.7520633344119805,-0.37777777777777777,-0.03111111111111111,-0.31555555555555553,0.1292098376380603,0.003598746370888371,0.0026116362105382436
1592167962.4793732,-0.5286513275559858,8.755540174395978,4.6835468256040205,-0.37777777777777777,-0.03111111111111111,-0.31555555555555553,0.131927,0.01647299113342064,0.003803640504161318
1592167962.4893732,-0.5677713353406655,8.745140260199673,4.7289921083505355,-0.37777777777777777,-0.03111111111111111,-0.31555555555555553,0.1337369831016331,0.025135445775271954,0.0037282770770268527
1592167962.4993732,-0.604827106507403,8.74190441366975,4.687418568647575,-0.37777777777777777,-0.03111111111111111,-0.31555555555555553,0.136876982545791,0.03111798254579101,0.010027193872974832
1592167962.5093732,-0.6276823117666948,8.771874499870156,4.642382886710274,-0.37777777777777777,-0.030040263828178006,-0.32090979197022107,0.14135922426941683,0.028194587005416778,0.011902
1592167962.5193732,-0.6688836820675081,8.828454360678906,4.53441622295926,-0.37777777777777777,-0.03,-0.3211111111111111,0.144714,0.011503777733661603,0.009766
1592167962.5293732,-0.6874690404860888,8.804449494546411,4.534897417015887,-0.37777777777777777,-0.03,-0.3211111111111111,0.144714,-0.0034742880782396737,0.01584437421248945
1592167962.5393732,-0.527678178163914,8.861166853162716,4.47826099620803,-0.37777777777777777,-0.03,-0.3211111111111111,0.14299087846885797,-0.01668317601391732,0.014937571673510711
1592167962.5493731,-0.5182426102868433,8.833197652870671,4.274639193849788,-0.37777777777777777,-0.03,-0.3211111111111111,0.12917349652155766,-0.022827,0.0038675859396593657
1592167962.5593731,-0.45290758277917753,8.828109305285148,4.226908536479708,-0.37333333333333335,-0.022222222222222223,-0.33,0.10819351308966733,-0.026962399496899388,-0.007184214522724537
1592167962.5693731,-0.5115919472120828,8.83969618522589,4.2472955209232905,-0.37333333333333335,-0.022222222222222223,-0.33,0.08244725661787305,-0.031357,-0.00795212898170977
1592167962.5793731,-0.41881738905807264,8.8331681683017,4.188604480840753,-0.37333333333333335,-0.022222222222222223,-0.33,0.05752957602737474,-0.03227053025143908,0.00458377871027688
1592167962.589373,-0.259911552880224,8.800072073252203,4.13305518078617,-0.37333333333333335,-0.022222222222222223,-0.33,0.025367102311065454,-0.023463196612083216,0.0259781478021164
1592167962.599373,-0.13637207814429275,8.847454501998428,4.232392504662999,-0.37333333333333335,-0.022222222222222223,-0.33,-0.002834862523189272,0.002885374687509233,0.03507335525962242
1592167962.609373,0.0019660019299010748,8.827989007286305,4.345433361809714,-0.36,-0.03666666666666667,-0.3088888888888889,-0.024139700119570832,0.028998565489185998,0.038160209883974415
1592167962.619373,0.035771414684123884,8.836199970686586,4.506398109034585,-0.36,-0.03666666666666667,-0.3088888888888889,-0.03673552077116375,0.022406875838717567,0.03180647922883625
1592167962.629373,0.010523474875326948,8.841886493186191,4.578901528683184,-0.36,-0.03666666666666667,-0.3088888888888889,-0.033944637226813235,0.043386078020089966,0.029391274453626458
1592167962.639373,0.0336276864477609,8.827470771300193,4.451551934029198,-0.36,-0.03666666666666667,-0.3088888888888889,-0.036170724364937776,0.057977017755198076,0.025189861949354943
1592167962.649373,-0.01708963210446944,8.82891644587493,4.3517290373937785,-0.36,-0.03666666666666667,-0.3088888888888889,-0.04933779279670605,0.06685752352695225,0.024433224722721553
1592167962.659373,-0.038366486913080575,8.810300504362306,4.457136131027544,-0.37186232634177885,-0.03849163995001725,-0.3088888888888889,-0.05966528277098637,0.07797766637460078,0.025757
1592167962.669373,-0.06678567303354035,8.819094983443138,4.592476106118789,-0.37444444444444447,-0.03888888888888889,-0.3088888888888889,-0.065155,0.07759670459274463,0.022745935586177116
1592167962.679373,-0.06625645831939478,8.812166049405388,4.649375574760473,-0.37444444444444447,-0.03888888888888889,-0.3088888888888889,-0.05703545041897441,0.0699203626917835,0.02591964968494713
1592167962.689373,-0.06966403359497364,8.81136939226363,4.748026833702324,-0.37444444444444447,-0.03888888888888889,-0.3088888888888889,-0.0450545968919342,0.05866391878436932,0.02615034836660705
1592167962.699373,-0.057427414489919865,8.808306586854139,4.7926619210894685,-0.37444444444444447,-0.03888888888888889,-0.3088888888888889,-0.02672249220675468,0.042176431307632406,0.028946
1592167962.709373,-0.07372919514378823,8.823953084535203,4.749899960382449,-0.37444444444444447,-0.027037759454640382,-0.3088888888888889,-0.00610519733851489,0.02700856394065411,0.0310058546468847
1592167962.719373,-0.013507541032673293,8.80929517433681,4.6873188451087895,-0.37444444444444447,-0.024444444444444446,-0.3088888888888889,0.0031661000890452454,0.026072296789328972,0.027878
1592167962.729373,0.055575702432687404,8.81219327104046,4.608569594104676,-0.37444444444444447,-0.024444444444444446,-0.3088888888888889,0.009435557857206973,0.018727557857206974,0.02355961516232862
1592167962.739373,0.09771474142968596,8.818951942834905,4.62211213858514,-0.37444444444444447,-0.024444444444444446,-0.3088888888888889,0.01471115806545454,0.01660760604399001,0.016187950337400222
1592167962.749373,0.07684589235638066,8.816153338099435,4.621967482055421,-0.37444444444444447,-0.024444444444444446,-0.3088888888888889,0.016793570053248708,0.018665785026624356,0.0056723196223160055
1592167962.759373,0.02808746750540872,8.810559618753901,4.677034781940472,-0.3908404421989602,-0.024444444444444446,-0.31435422147372744,0.0221326781532048,0.016654284288751493,-0.0015926877135786339
1592167962.769373,-0.020074034385705,8.825821765274538,4.724827756000448,-0.39444444444444443,-0.024444444444444446,-0.31555555555555553,0.03227105858921251,0.015518,-0.003103050747179891
1592167962.779373,-0.05536248664513974,8.817694614477773,4.790691671283813,-0.39444444444444443,-0.024444444444444446,-0.31555555555555553,0.049966997471674754,0.015518,-0.0028811555047190338
1592167962.789373,-0.10508554925973378,8.813006498848774,4.919336530863368,-0.39444444444444443,-0.024444444444444446,-0.31555555555555553,0.0753838434095118,0.013382,0.0007788627336284652
1592167962.799373,-0.07363513418023614,8.818427997660995,4.899606705030602,-0.39444444444444443,-0.024444444444444446,-0.31555555555555553,0.10606582121246019,0.006680837899571053,0.006203093823964449
1592167962.809373,-0.048306229232913334,8.83892267825604,4.74714286947931,-0.36556362999418984,-0.04237046720667145,-0.3095802146348132,0.13102095765270713,-0.0014982404147390604,0.009549317400323049
1592167962.819373,-0.02326870874473882,8.837670400246084,4.585141915521268,-0.3622222222222222,-0.044444444444444446,-0.3088888888888889,0.14289933922925815,-0.005537608679278662,0.009766
1592167962.829373,0.027337711270013457,8.86311050399616,4.443948081456132,-0.3622222222222222,-0.044444444444444446,-0.3088888888888889,0.1423400420148815,-0.01479280193472611,0.007130361343254345
1592167962.8393729,0.057554105183579195,8.859823244884094,4.323895767100521,-0.3622222222222222,-0.044444444444444446,-0.3088888888888889,0.13298632969871393,-0.025881817233636473,0.0018599488389778817
1592167962.8493729,0.12296780409190142,8.86259652881423,4.289184822081242,-0.3622222222222222,-0.044444444444444446,-0.3088888888888889,0.1160606594095452,-0.03469305768423411,-0.007742325851485477
1592167962.8593729,0.1714266388929519,8.861851169074537,4.335228350316594,-0.3770000309914154,-0.027819409579102145,-0.33105560204267864,0.09927452774832496,-0.046245348421139074,-0.02462909589417091
1592167962.8693728,0.07638314994435513,8.860019421562345,4.387525057830061,-0.38,-0.024444444444444446,-0.33555555555555555,0.09260411917741058,-0.05963621472402777,-0.03739173635143059
1592167962.8793728,-0.01101191151614533,8.8687016507895,4.351580028568605,-0.38,-0.024444444444444446,-0.33555555555555555,0.0867247223926966,-0.07039455935732518,-0.04371649606547848
1592167962.8893728,-0.05925443923455136,8.862844047116683,4.26675107656067,-0.38,-0.024444444444444446,-0.33555555555555555,0.07311325396021723,-0.076096,-0.045624
1592167962.8993728,-0.1206031817487205,8.883144678415741,4.2986214895224935,-0.38,-0.024444444444444446,-0.33555555555555555,0.06175627592725901,-0.08613589744030091,-0.04124663218395331
1592167962.9093728,-0.06450705539026033,8.87378923919777,4.380803090884482,-0.3761526320089727,-0.03829496921214282,-0.31708818919862436,0.05085033035214373,-0.09319707146450293,-0.036539365050504875
1592167962.9193728,-0.021701578086320956,8.861537506945751,4.463560613927994,-0.37444444444444447,-0.044444444444444446,-0.3088888888888889,0.04883845751610227,-0.1000631995004098,-0.037628741984307545
1592167962.9293728,-0.011236012034536697,8.8936627363356,4.520735700808383,-0.37444444444444447,-0.044444444444444446,-0.3088888888888889,0.05146791267557405,-0.10234551404734847,-0.03973391267557405
1592167962.9393728,0.015328403348796033,8.870256520960018,4.538600594806273,-0.37444444444444447,-0.044444444444444446,-0.3088888888888889,0.0587695232881983,-0.09266727912455447,-0.04230580241275277
1592167962.9493728,0.028574281237071973,8.895682710367597,4.48418340313912,-0.37444444444444447,-0.044444444444444446,-0.3088888888888889,0.06659287613265417,-0.08390454046577998,-0.04544585425536621
1592167962.9593728,-0.03964664746825715,8.892345251643622,4.539029122457241,-0.36978439299277227,-0.040561068234717626,-0.2886953325983095,0.07564754152442829,-0.07146791695114342,-0.047984591855342616
1592167962.9693727,-0.07931797092332214,8.905377387932532,4.398574684360786,-0.36777777777777776,-0.03888888888888889,-0.28,0.08002918838418636,-0.06246784885102639,-0.04310473566605581
1592167962.9793727,-0.09122085880726302,8.893367883278112,4.298353087427531,-0.36777777777777776,-0.03888888888888889,-0.28,0.07298653928835702,-0.05088742722821262,-0.0378068879398556
1592167962.9893727,-0.15273365180692433,8.888635093418403,4.313482349922179,-0.36777777777777776,-0.03888888888888889,-0.28,0.06350972649237999,-0.04316173839140399,-0.03227300528368993
1592167962.9993727,-0.14545342277869613,8.885150946812997,4.250926247759597,-0.36777777777777776,-0.03888888888888889,-0.28,0.0529591077080384,-0.03170005815773772,-0.023124620445489328
1592167963.0093727,-0.14515146667386505,8.914051857447703,4.287614143263605,-0.35452857905982904,-0.04698562143874644,-0.307234464031339,0.042419892337851116,-0.021502268972709654,-0.014438161310560768
1592167963.0193727,-0.029704768749713874,8.909993381977287,4.24710260200475,-0.3477777777777778,-0.051111111111111114,-0.3211111111111111,0.03294767696841456,-0.019150125441515974,-0.007846551526898586
1592167963.0293727,0.0019131860527516389,8.918385880662045,4.240099632171595,-0.3477777777777778,-0.051111111111111114,-0.3211111111111111,0.023498964812149338,-0.01877970970761163,-0.006626474054161303
