time,acc_x,acc_y,acc_z,mag_x,mag_y,mag_z,gyr_x,gyr_y,gyr_z
1592167963.739372,-0.06505824481287054,8.974023959489342,4.259363449235608,-0.37444444444444447,-0.051111111111111114,-0.3,0.015540198487241733,0.009392801512758266,0.020695789505076494
1592167963.749372,-0.04165310720821683,8.986391468071124,4.237052209392125,-0.37444444444444447,-0.051111111111111114,-0.3,0.012148625232841728,0.013617187383579135,0.022552
1592167963.759372,-0.04787793959928134,8.972467465441689,4.238854959690062,-0.3706431753304606,-0.0524527355042819,-0.3031304569173985,0.007294,0.014035212729133533,0.023621
1592167963.769372,-0.05076118376319591,8.96448006068009,4.263588482564819,-0.35555555555555557,-0.057777777777777775,-0.31555555555555553,0.008347,0.01445,0.02291136794003045
1592167963.779372,-0.08289574564305642,8.971725665274983,4.31099277661655,-0.35555555555555557,-0.057777777777777775,-0.31555555555555553,0.01033119386014612,0.016586,0.030317612279707758
1592167963.789372,-0.11602713909512745,8.976421632987789,4.258264953168495,-0.35555555555555557,-0.057777777777777775,-0.31555555555555553,0.010731024783524971,0.017080423936446314,0.034519024783524976
1592167963.799372,-0.08092197382188003,8.995266192662454,4.308771857376475,-0.35555555555555557,-0.057777777777777775,-0.31555555555555553,0.01474,0.023171085902550688,0.039980523190550815
1592167963.809372,-0.07906178452591,8.98265207469099,4.275871574262944,-0.3578308679193635,-0.05697472635525733,-0.3136817689030078,0.015876424896213073,0.025032575103786925,0.04719484979242615
1592167963.819372,-0.12618844524227646,8.992764509139265,4.241738310032467,-0.37444444444444447,-0.051111111111111114,-0.3,0.01474,0.02101450737323042,0.05145134185825636
1592167963.829372,-0.17961306147245362,8.99523304917954,4.325017227529423,-0.37444444444444447,-0.051111111111111114,-0.3,0.019031127417348536,0.026149878578707063,0.0641403387794754
1592167963.839372,-0.16994633909094053,8.986658047031076,4.37890325681258,-0.37444444444444447,-0.051111111111111114,-0.3,0.028466960656221625,0.02298,0.07571435061698423
1592167963.849372,-0.06612268897330448,8.956353096157555,4.492402375842755,-0.37444444444444447,-0.051111111111111114,-0.3,0.04098917506200005,0.0261198162914673,0.08318363258293458
1592167963.859372,0.00045197077092031315,8.974408331331535,4.559583683326755,-0.37444444444444447,-0.05145702306079665,-0.30080712788259956,0.06700333097328423,0.01483613226757571,0.08236780028911325
1592167963.869372,0.011765831195580626,8.9651694387644,4.536792101013581,-0.37444444444444447,-0.057777777777777775,-0.31555555555555553,0.08933313286657174,0.02629543256533241,0.0663196383378693
1592167963.879372,-0.06554798114257385,8.97035281434155,4.389252195139083,-0.37444444444444447,-0.057777777777777775,-0.31555555555555553,0.10952260904675806,0.04024981255070595,0.045233853195835214
1592167963.8893719,-0.1363103240765665,8.971816666919764,4.235337583442754,-0.37444444444444447,-0.057777777777777775,-0.31555555555555553,0.1157786116661336,0.04338622613710881,0.033184490919925064
1592167963.8993719,-0.19548041798664464,9.020085637329574,4.114959573128508,-0.37444444444444447,-0.057777777777777775,-0.31555555555555553,0.1084242761116765,0.02863849256855272,0.02914701988493343
1592167963.9093719,-0.2468586697135114,8.986978468617643,4.04224534533875,-0.37444444444444447,-0.054357601713062094,-0.31555555555555553,0.09585213689731642,0.005699364120787458,0.027496440898087553
1592167963.9193718,-0.4055385040063543,9.016123589460161,4.0336094396857485,-0.37444444444444447,-0.03888888888888889,-0.31555555555555553,0.07834958921905112,-0.025854851235028287,0.023621
1592167963.9293718,-0.5824810451407706,9.001288940872453,4.004584748584028,-0.37444444444444447,-0.03888888888888889,-0.31555555555555553,0.061035343158808514,-0.069713430081804,0.02546616525844213
1592167963.9393718,-0.550000134897155,9.026483140297735,3.9067304755484145,-0.37444444444444447,-0.03888888888888889,-0.31555555555555553,0.0369855184674725,-0.11779584853382309,0.022121555320461114
1592167963.9493718,-0.3550224537181525,8.973143000596874,3.7973663390762935,-0.37444444444444447,-0.03888888888888889,-0.31555555555555553,0.0035709059597263133,-0.16543252396841512,-0.0024609595211369777
1592167963.9593718,-0.2714016489539825,8.97513805787519,3.7138275901240334,-0.37367077419019396,-0.039533614100764315,-0.31375032496230437,-0.03744300288638579,-0.22650153084704602,-0.03714139499958247
1592167963.9693718,-0.2111878107942347,8.966215941559561,3.806970444794475,-0.36777777777777776,-0.044444444444444446,-0.3,-0.07950036753414388,-0.2575825780715072,-0.06398419507593509
1592167963.9793718,-0.13251998800940837,8.971743209760403,3.9279472574533094,-0.36777777777777776,-0.044444444444444446,-0.3,-0.111349421957859,-0.2659249906000097,-0.0873530289201329
1592167963.9893718,-0.028809776260751846,8.988000794684151,4.020044634370945,-0.36777777777777776,-0.044444444444444446,-0.3,-0.12934539307899767,-0.2501484105128481,-0.10175690684169804
1592167963.9993718,-0.024498439990185104,8.962102666201423,4.102927509878999,-0.36777777777777776,-0.044444444444444446,-0.3,-0.13391066721872588,-0.20776846846170577,-0.10585020997829399
1592167964.0093718,-0.10922509498047196,9.018147701703377,4.287699436186286,-0.36972867133869325,-0.044444444444444446,-0.30160661822663626,-0.13214835149942084,-0.1626167682689739,-0.09983813604534408
1592167964.0193717,-0.1887636697214029,9.0264565368483,4.4343542637376085,-0.38666666666666666,-0.044444444444444446,-0.31555555555555553,-0.11428277106192342,-0.12371893364610628,-0.08045993364610629
1592167964.0293717,-0.17361144043544816,8.995430341465733,4.4392708639797025,-0.38666666666666666,-0.044444444444444446,-0.31555555555555553,-0.0979731394101362,-0.10495382392149624,-0.06042496333163245
1592167964.0393717,-0.20575736012676318,8.981155333673966,4.489371461530444,-0.38666666666666666,-0.044444444444444446,-0.31555555555555553,-0.08020578173182158,-0.09755430735266057,-0.041509352362350885
1592167964.0493717,-0.3375639099263268,8.942735413152922,4.660652698184326,-0.38666666666666666,-0.044444444444444446,-0.31555555555555553,-0.05166265976169925,-0.08030215449419267,-0.028540968547674392
1592167964.0593717,-0.6817992342911252,8.964806372899771,4.852951644677752,-0.38666666666666666,-0.04494604823845039,-0.314385146702875,-0.012490444302973061,-0.053426894752074,-0.005807020901208414
1592167964.0693717,-0.35344580959649485,8.932626117731106,5.0810086644360375,-0.38666666666666666,-0.051111111111111114,-0.3,0.05564142331814723,-0.0015564806534913052,-0.019398827854857
1592167964.0793717,-0.6571226587511125,9.013690651227765,4.556968067285204,-0.38666666666666666,-0.051111111111111114,-0.3,0.10162804954676283,0.0321477073842915,-0.001076620163246782
1592167964.0893717,-0.6026995143743568,8.96166279188502,4.497906361703208,-0.38666666666666666,-0.051111111111111114,-0.3,0.11600304454592812,0.04139016424216715,0.022552
1592167964.0993717,-0.6491167289809585,8.948037320359921,4.374079924851691,-0.38666666666666666,-0.051111111111111114,-0.3,0.1277394739646486,0.045349,0.016586785046746884
1592167964.1093717,-0.8503287166204725,8.98501948168096,4.23490083337489,-0.38593091431562454,-0.05085143381074331,-0.3003462364004904,0.12983231066589532,0.024478271248076115,0.009224535841587039
1592167964.1193717,-0.8264147739473325,9.023387670821123,4.100998953628849,-0.36777777777777776,-0.044444444444444446,-0.3088888888888889,0.11776531414570603,-0.008167278262152107,0.022859685854293977
1592167964.1293716,-0.6395547814525142,8.95033739362922,3.99922260177994,-0.36777777777777776,-0.044444444444444446,-0.3088888888888889,0.09868682754606951,-0.049603256742838844,0.019533938476899756
1592167964.1393716,-0.45610829002632686,9.024756851831018,3.777576605561336,-0.36777777777777776,-0.044444444444444446,-0.3088888888888889,0.06696427855505005,-0.10294275491635704,0.0073093191403102355
1592167964.1493716,-0.3358574384169857,8.988121536529711,3.7338449018872755,-0.36777777777777776,-0.044444444444444446,-0.3088888888888889,0.027797435499497265,-0.12627272379139423,-0.006447691933215937
1592167964.1593716,-0.2561250833798223,8.98369394552757,3.695143533900321,-0.36777777777777776,-0.044444444444444446,-0.3088888888888889,-0.014008751737375556,-0.16195279446303187,-0.04199581974384144
1592167964.1693716,-0.23574341917347186,8.984440087935308,3.652230001263487,-0.3622222222222222,-0.057777777777777775,-0.33555555555555555,-0.056523367912157736,-0.17322923333325374,-0.07875503780872217
1592167964.1793716,-0.22175638738533496,8.951156118403782,3.600923793816241,-0.3622222222222222,-0.057777777777777775,-0.33555555555555555,-0.1091129595011048,-0.21430588527910183,-0.10589091934436504
1592167964.1893716,-0.18524442560870774,9.000111951595704,3.7222234806704915,-0.3622222222222222,-0.057777777777777775,-0.33555555555555555,-0.1573144792182294,-0.24051652911424745,-0.1236701227042032
1592167964.1993716,-0.11927705049870392,9.0136940935511,3.8852071366034964,-0.3622222222222222,-0.057777777777777775,-0.33555555555555555,-0.19298996569018645,-0.27104798237720823,-0.1457490158296704
1592167964.2093716,-0.07466504295563527,9.021022122358016,4.007059565451771,-0.3622222222222222,-0.057777777777777775,-0.33555555555555555,-0.21303881590417828,-0.2670521908082698,-0.13841280105829154
1592167964.2193716,-0.010387698845300733,8.973286437821585,4.048019030722452,-0.3713386421225519,-0.0635791358961694,-0.33555555555555555,-0.22668541671810807,-0.23670257245655457,-0.14138582381276912
1592167964.2293715,-0.07963332433298935,8.957974957961508,4.124548471322281,-0.37444444444444447,-0.06555555555555556,-0.33555555555555555,-0.23928616761695456,-0.22173277180313558,-0.13169353936920933
1592167964.2393715,-0.16607347947896994,8.979963085098928,4.479257760013547,-0.37444444444444447,-0.06555555555555556,-0.33555555555555555,-0.23219684491963294,-0.17102275146701618,-0.10888006005136004
1592167964.2493715,-0.24040421077183047,8.955031371614444,4.823793003745064,-0.37444444444444447,-0.06555555555555556,-0.33555555555555555,-0.1953709130613414,-0.11408118504731765,-0.0771099675271495
1592167964.2593715,-0.2653298133193597,8.97351651924454,4.93698006178021,-0.37444444444444447,-0.06555555555555556,-0.33555555555555555,-0.1383179359925878,-0.06722772904003442,-0.05716608528632735
1592167964.2693715,-0.297476508867214,8.931071416847042,4.834793153102402,-0.37777777777777777,-0.07777777777777778,-0.31555555555555553,-0.0887782565394689,-0.046266599675682585,-0.04668529983784129
1592167964.2793715,-0.3808164205297511,8.9457756047462,4.764911803804354,-0.37777777777777777,-0.07777777777777778,-0.31555555555555553,-0.05300451160505712,-0.04977671497923813,-0.025894633390029592
1592167964.2893715,-0.41221118456182165,8.938503170130844,4.723399208965837,-0.37777777777777777,-0.07777777777777778,-0.31555555555555553,-0.020255863428366636,-0.07706577417957569,0.006419601221354676
1592167964.2993715,-0.30930122907182145,8.9565962467426,4.791268222080115,-0.37777777777777777,-0.07777777777777778,-0.31555555555555553,0.01250835656296415,-0.06097371351714051,0.043896797340412616
1592167964.3093715,-0.134217285000041,8.890225586758843,4.704432367170736,-0.37777777777777777,-0.07777777777777778,-0.31555555555555553,0.048152663446863635,-0.02605645234463528,0.04362991751201555
1592167964.3193715,-0.06490003745503037,8.891479,4.527942066275649,-0.38555555555555554,-0.08444444444444445,-0.33555555555555555,0.07330838402807766,0.02892357936790699,0.010874263691687626
1592167964.3293715,-0.23250800780179373,8.919351821815308,4.470432575093753,-0.38555555555555554,-0.08444444444444445,-0.33555555555555555,0.08981668127624903,0.07034668127624903,-0.019214037747572833
1592167964.3393714,-0.4810033701278836,8.93887745896643,4.577798195364784,-0.38555555555555554,-0.08444444444444445,-0.33555555555555555,0.11319063490220158,0.0835844539085825,-0.061869091076376365
1592167964.3493714,-0.7011937670843162,8.98224231123985,4.516945464310201,-0.38555555555555554,-0.08444444444444445,-0.33555555555555555,0.1436842943874626,0.0646891328328312,-0.09547457277970618
1592167964.3593714,-0.88685581539345,8.939944530308974,4.380577677847413,-0.38555555555555554,-0.08444444444444445,-0.33555555555555555,0.15902986905080377,-0.0017295860549606593,-0.1271666766001311
1592167964.3693714,-0.9063635645672552,8.936280413482317,4.225977938315505,-0.4122222222222222,-0.10444444444444445,-0.35,0.14709728895187407,-0.07618491627363394,-0.1297153255975376
1592167964.3793714,-0.7691882762817182,8.901873948378782,4.152573480147163,-0.4122222222222222,-0.10444444444444445,-0.35,0.1249670065525741,-0.12725795237564855,-0.10576886608057039
1592167964.3893714,-0.4957284771823178,8.968100032006129,4.080596976875953,-0.4122222222222222,-0.10444444444444445,-0.35,0.1023491109300439,-0.14953363218478288,-0.08083542281651475
1592167964.3993714,-0.27026466287253054,8.986635672691186,4.081339824210766,-0.4122222222222222,-0.10444444444444445,-0.35,0.08493322855904523,-0.14865543608062368,-0.07532856391937633
1592167964.4093714,-0.2881373222092568,9.004028687993959,4.158880497523197,-0.4122222222222222,-0.10444444444444445,-0.35,0.07378072859666347,-0.1479678715237807,-0.05883411570758491
1592167964.4193714,-0.283051771714347,9.004734064287126,4.308770696108079,-0.39222222222222225,-0.09777777777777778,-0.35888888888888887,0.08116672517608876,-0.10947236705939001,-0.03969086834390313
1592167964.4293714,-0.17349191012827408,8.958323339251738,4.372060018112337,-0.39222222222222225,-0.09777777777777778,-0.35888888888888887,0.09165135304974505,-0.08053878805101011,-0.053005001488241076
1592167964.4393713,-0.26198793139059506,8.99238900473105,4.2387268128639075,-0.39222222222222225,-0.09777777777777778,-0.35888888888888887,0.098907,-0.07681834318089362,-0.06123882840955319
1592167964.4493713,-0.3806674252451573,8.998693613501734,4.229444561375865,-0.39222222222222225,-0.09777777777777778,-0.35888888888888887,0.10061854772707753,-0.07109143003158298,-0.051768520875023295
1592167964.4593713,-0.48152789116998496,9.040073051106145,4.130273018140045,-0.39222222222222225,-0.09777777777777778,-0.35888888888888887,0.10012825382987214,-0.07210865877428368,-0.038213131025996855
1592167964.4693713,-0.4319435608711497,8.99902199252422,4.16701320986171,-0.4,-0.10444444444444445,-0.3711111111111111,0.09622721089074543,-0.05550873963673782,-0.009049812963398901
1592167964.4793713,-0.3834369973221702,9.012230035215275,4.11088708107709,-0.4,-0.10444444444444445,-0.3711111111111111,0.08942414132680074,-0.05602443220734081,0.019488387665834918
1592167964.4893713,-0.45521307893987434,9.060344854072651,4.173140591503124,-0.4,-0.10444444444444445,-0.3711111111111111,0.086332511176592,-0.08124953511813279,0.034467908998907164
1592167964.4993713,-0.265614979010543,8.967775038415793,4.187396487748556,-0.4,-0.10444444444444445,-0.3711111111111111,0.09375071742876362,-0.03775,0.03093993089347189
1592167964.5093713,-0.3021562778494248,9.023481341873564,4.111284185470675,-0.4,-0.10444444444444445,-0.3711111111111111,0.08853242553996134,-0.08486412903506095,-0.008486923680683682
1592167964.5193713,-0.40921354724474834,9.064837049579518,4.233910749439334,-0.4175074542987948,-0.10444444444444445,-0.3798648382605085,0.08977596003963599,-0.09246409984287594,0.004280430346876987
1592167964.5293713,-0.281411769075062,9.032793456098005,4.311434505503841,-0.4177777777777778,-0.10444444444444445,-0.38,0.10877038885911919,-0.08708398878838973,0.007082815501659439
1592167964.5393713,-0.19295127884240837,9.000637089031843,4.169247503109089,-0.4177777777777778,-0.10444444444444445,-0.38,0.10842389117594076,-0.07931096479912787,0.0067743979774577915
1592167964.5493712,-0.09698288661302358,8.980244473273512,3.9638939382555574,-0.4177777777777778,-0.10444444444444445,-0.38,0.09738025947525139,-0.050462573068969466,0.005393592904244678
1592167964.5593712,-0.12516990776000023,8.962188380675299,3.96872390454688,-0.4177777777777778,-0.10444444444444445,-0.38,0.0732297007275404,-0.08440595292219992,-0.00401139693466959
1592167964.5693712,-0.08829048135882539,9.035073723988642,3.977291630894061,-0.410186497391989,-0.11528913070985701,-0.4081961842900727,0.05226841872593613,-0.03933824993883118,0.017940383009524403
1592167964.5793712,-0.05633650251128388,8.949566079542109,4.055606138627087,-0.41,-0.11555555555555555,-0.4088888888888889,0.04269249995620944,-0.05402362185385731,0.012620878154900803
1592167964.5893712,-0.1822687333282058,9.05285550224359,4.141052056819375,-0.41,-0.11555555555555555,-0.4088888888888889,0.030731,-0.08110493955925861,0.017266337231272768
1592167964.5993712,-0.1892619314912131,9.057403667252446,4.317854008922884,-0.41,-0.11555555555555555,-0.4088888888888889,0.04286188010837767,-0.052351567825881955,0.03799406765359886
1592167964.6093712,-0.05091432384188185,9.01055041997435,4.2746222396222455,-0.41,-0.11555555555555555,-0.4088888888888889,0.05451727820083499,-0.03902708042901343,0.03973831484819907
1592167964.6193712,-0.1360934018804586,8.99238086946973,4.206449521000693,-0.40264764293927036,-0.11555555555555555,-0.42635073690812164,0.06431167421196331,-0.0680156642813387,0.030518950667306186
1592167964.6293712,-0.1071584201612869,9.04506892248395,4.233610382197755,-0.4011111111111111,-0.11555555555555555,-0.43,0.07554125376348311,-0.05319926696778329,0.027878
1592167964.6393712,0.15856489628366882,8.86664239518374,4.2788255979804175,-0.4011111111111111,-0.11555555555555555,-0.43,0.09368704686069029,0.04776042658313059,-0.03576198753859918
1592167964.6493711,-0.09356389433737289,9.062210709893499,3.9848493748978515,-0.4011111111111111,-0.11555555555555555,-0.43,0.07554151191835924,-0.01781865190530575,-0.06610948983968298
1592167964.6593711,-0.3182304428173535,9.117190192499733,4.1807915914377745,-0.4011111111111111,-0.11555555555555555,-0.43,0.07453600308318156,-0.03235352909095977,-0.026019263232918543
1592167964.6693711,-0.07880375424533982,8.97652602522229,4.246435790646223,-0.4189748323708522,-0.13143441889754764,-0.4230529972878785,0.09272534313286085,0.014246388974908278,-0.03445779945105348
1592167964.679371,-0.19299715082410102,9.130155840625632,4.0764071200011465,-0.4211111111111111,-0.13333333333333333,-0.4222222222222222,0.09109726147982462,-0.016901130209197406,-0.043836738520175375
1592167964.689371,-0.24472490476898998,9.043935431837966,4.196373010283651,-0.4211111111111111,-0.13333333333333333,-0.4222222222222222,0.10372849831350023,-0.008170163027430179,-0.03716530843000507
1592167964.699371,-0.13548030306809847,9.03460359383284,4.233868374626363,-0.4211111111111111,-0.13333333333333333,-0.4222222222222222,0.11433431787763929,0.02330976934546342,-0.03243267411498216
1592167964.709371,-0.1550226691451003,9.060572606555288,4.0945785134554376,-0.4211111111111111,-0.13333333333333333,-0.4222222222222222,0.12041276089367964,0.03258052867095315,-0.039406301317574235
1592167964.719371,-0.30934286344957396,9.103768659078366,4.037785538671395,-0.4211111111111111,-0.1436518248560714,-0.4184700434866811,0.12354617339784446,0.01203512739890377,-0.039847450980422486
1592167964.729371,-0.3530967778721196,9.14133748632877,4.06125222620811,-0.4211111111111111,-0.14555555555555555,-0.4177777777777778,0.12349058590231962,0.01509734429790067,-0.01523824160441896
1592167964.739371,-0.3180269533015672,9.069313944567849,4.030457352886879,-0.4211111111111111,-0.14555555555555555,-0.4177777777777778,0.12387650239040297,0.008313514271202844,-0.0023872638042746006
1592167964.749371,-0.3938594161641878,9.131670501375247,3.99726608079088,-0.4211111111111111,-0.14555555555555555,-0.4177777777777778,0.1270815357982042,-0.013119100132238541,0.016489458289156194
1592167964.759371,-0.276996481872821,9.047099121958274,3.9361912948994378,-0.4211111111111111,-0.14555555555555555,-0.4177777777777778,0.12521761058189446,0.011192899800455609,0.02888906149985415
1592167964.769371,-0.19812936955599986,9.152878709419591,3.6726564635710526,-0.4146863282883803,-0.14555555555555555,-0.44072343071610204,0.10497135205122737,0.009961315281663788,0.02561719378577782
1592167964.779371,-0.321022416500926,9.105718796028583,3.7699595538070136,-0.41333333333333333,-0.14555555555555555,-0.44555555555555554,0.08634032654896849,-0.024986179125328405,0.045979948066803486
1592167964.789371,-0.15057992564454076,9.024102062909298,3.851751679747575,-0.41333333333333333,-0.14555555555555555,-0.44555555555555554,0.07989185398506422,0.010302150681953217,0.04305796531683552
1592167964.799371,0.05699869809940533,9.036994814137728,3.809654975070704,-0.41333333333333333,-0.14555555555555555,-0.44555555555555554,0.06511296929046495,0.02995333685246443,-0.0053872077624300425
1592167964.809371,-0.15966384972786418,9.138488840813542,3.703368151556049,-0.41333333333333333,-0.14555555555555555,-0.44555555555555554,0.042652494840611385,0.01725131560392611,-0.013973157004795279
1592167964.819371,-0.2988891296969791,9.143805498185143,3.9396147174895124,-0.4272229949003245,-0.13861072477205996,-0.4516322824911142,0.029841535348136338,-0.00845854270804728,0.020480023905988576
1592167964.829371,-0.11600364596525374,9.116367804007847,3.8386742976599537,-0.4311111111111111,-0.13666666666666666,-0.4533333333333333,0.0300615138579124,0.02264478135370858,0.03645446403972963
1592167964.839371,-0.16297413302537395,9.119546750105897,3.8918307885015277,-0.4311111111111111,-0.13666666666666666,-0.4533333333333333,0.021133,0.005434675463823613,0.05791371825003016
1592167964.849371,-0.049668786871418756,9.098275588755975,3.9910828056611427,-0.4311111111111111,-0.13666666666666666,-0.4533333333333333,0.027368867705271995,0.0467074120375058,0.06326146692631801
1592167964.859371,-0.07445073343381017,9.115847627112846,3.9827315106883843,-0.4311111111111111,-0.13666666666666666,-0.4533333333333333,0.03431953331701616,0.04739756149420266,0.059106363230245235
1592167964.869371,0.020779189675705745,9.026933056682894,4.019684,-0.4311111111111111,-0.15295402032460373,-0.47153684624514536,0.03972080266624738,0.09629167682225678,0.0312585564922599
1592167964.879371,-0.053885582119818594,9.146571805505166,3.9147225044137666,-0.4311111111111111,-0.15555555555555556,-0.47444444444444445,0.036057,0.08854570110717598,0.014561030030411586
1592167964.889371,-0.15761681635983624,9.107727416551516,4.062630365646926,-0.4311111111111111,-0.15555555555555556,-0.47444444444444445,0.04012332193713753,0.07930151808028486,0.02479885811101687
1592167964.899371,-0.07916542394597344,9.10928605757625,3.992418117444293,-0.4311111111111111,-0.15555555555555556,-0.47444444444444445,0.050964,0.11299393235496302,0.028406353019787244
1592167964.909371,-0.22384662748386355,9.162697811366936,3.980717391137728,-0.4311111111111111,-0.15555555555555556,-0.47444444444444445,0.05424871879551022,0.06378023193827669,0.04967107107673345
1592167964.919371,-0.14451974371843646,9.110009703177369,3.950767794797148,-0.4224621772088195,-0.1492654218084344,-0.4956736458409783,0.059479,0.09894190957249561,0.06629784825677389
1592167964.9293709,-0.11545692058209209,9.143959624356699,3.855325603202858,-0.41888888888888887,-0.14666666666666667,-0.5044444444444445,0.054191650870534645,0.104020788214543,0.0768348481419584
1592167964.9393709,-0.11697603793538994,9.145434600441229,3.866306125451701,-0.41888888888888887,-0.14666666666666667,-0.5044444444444445,0.046813133507672466,0.0889844557584841,0.11363430074676222
1592167964.9493709,0.07628620839570813,9.087356948573644,3.948373759932987,-0.41888888888888887,-0.14666666666666667,-0.5044444444444445,0.048765551589222786,0.13016961483387074,0.10140018750372702
1592167964.9593709,0.1594590358742987,9.057303682976078,3.9161831385194006,-0.41888888888888887,-0.14666666666666667,-0.5044444444444445,0.05273638772096096,0.17738415267313834,0.04844432786847649
1592167964.9693708,-0.13381760777823437,9.178662839455985,3.77204747608186,-0.4224691908574179,-0.14237030430443184,-0.5087408068066792,0.047453017309813876,0.1489575196072971,0.025757
1592167964.9793708,-0.27241858367498134,9.169042112554719,3.809497841731525,-0.42444444444444446,-0.14,-0.5111111111111111,0.042435,0.12463330751557251,0.04856647733615731
1592167964.9893708,-0.1237711666513025,9.131336230546438,3.798587002480118,-0.42444444444444446,-0.14,-0.5111111111111111,0.03641618237769959,0.12683983978214597,0.03591228556688405
1592167964.9993708,-0.12998823127979287,9.101372547301287,3.7440156426387174,-0.42444444444444446,-0.14,-0.5111111111111111,0.026002059241741173,0.10987922102543325,0.01164173132992601
1592167965.0093708,-0.15452010668126115,9.121960082928108,3.682931528065427,-0.42444444444444446,-0.14,-0.5111111111111111,-0.0025496653208792516,0.08888352042729782,0.014273371496354128
1592167965.0193708,-0.0679253382058306,9.13705696141225,3.7989363807152348,-0.42062570796909543,-0.14840122024576782,-0.5263860570125071,-0.02601988257725052,0.08340482989238038,0.02815672895647266
1592167965.0293708,-0.04842621345911341,9.154259114382922,3.960283905356896,-0.41888888888888887,-0.15222222222222223,-0.5333333333333333,-0.03562255540934979,0.04614014192335526,0.04497230532850301
1592167965.0393708,0.074859206533211,9.028622830027869,4.1240979028874,-0.41888888888888887,-0.15222222222222223,-0.5333333333333333,-0.018423859073449473,0.07760104624534128,0.01785178911103455
1592167965.0493708,0.05143703315911754,9.101160385916513,3.9918684118091257,-0.41888888888888887,-0.15222222222222223,-0.5333333333333333,-0.01046373955747285,0.0972071892907712,0.002657356540443645
1592167965.0593708,0.010641045283251082,9.159870343634662,3.839729796763149,-0.41888888888888887,-0.15222222222222223,-0.5333333333333333,-0.0036583326477202006,0.09218764735219928,-0.0069766673522798
1592167965.0693707,-0.04956049502956709,9.132770089763024,3.8405728778777717,-0.42661353991729417,-0.16345807826353903,-0.5417602253643209,-0.012122282305079841,0.09806697920643721,-0.006029507957639596
1592167965.0793707,-0.06598796279918884,9.093069860062721,3.800577806449439,-0.4311111111111111,-0.17,-0.5466666666666666,-0.01987948879052885,0.0874879184575786,-0.03765063499000999
1592167965.0893707,-0.30096076517372033,9.22263909534627,3.8336763460152063,-0.4311111111111111,-0.17,-0.5466666666666666,-0.032238345837223646,0.027406261457029794,-0.03205660729425344
1592167965.0993707,-0.2907760122927588,9.198426440131355,4.112076555587887,-0.4311111111111111,-0.17,-0.5466666666666666,-0.022377240542641216,0.014282660334839797,0.009881544433956311
1592167965.1093707,-0.034092053554066006,9.11712265246764,4.222073373142286,-0.4311111111111111,-0.17,-0.5466666666666666,0.0014299465891463798,0.0117863662870517,0.02468718733670576
1592167965.1193707,0.09030270277035059,9.087295383747083,4.316166973144192,-0.4265734270518017,-0.16016835120482958,-0.5617922801976981,0.031858507459908855,0.010637188068112265,0.0042160943401737365
1592167965.1293707,0.008985890934197606,9.182737967012812,4.241031842877018,-0.42444444444444446,-0.15555555555555556,-0.5688888888888889,0.06547515880871692,0.03266556088864425,0.010649321736681365
1592167965.1393707,0.0864650158990082,9.10356849869189,4.050356276760605,-0.42444444444444446,-0.15555555555555556,-0.5688888888888889,0.09229328312827707,0.06977342053617226,0.015596255284039247
1592167965.1493707,-0.009576225959156706,9.242487850627136,3.8082244379248427,-0.42444444444444446,-0.15555555555555556,-0.5688888888888889,0.09485689522064729,0.03294708890881757,0.012943320201335741
1592167965.1593707,0.07865901173853429,9.146725542484761,3.787440319596409,-0.42444444444444446,-0.15555555555555556,-0.5688888888888889,0.091924146849627,0.07410248266596546,0.016838174971179377
1592167965.1693707,-0.014013282950669184,9.19763297404841,3.720123235212718,-0.41693642265502573,-0.16081117080814863,-0.5816525259309007,0.079727,0.03540628556013339,0.022919204965443706
1592167965.1793706,-0.09330950361446674,9.127600851267815,3.856860208026117,-0.41333333333333333,-0.16333333333333333,-0.5877777777777777,0.08339049263717095,0.0524743711276775,0.03514008921276822
1592167965.1893706,-0.10015097380602236,9.155862378984425,3.8856850665122367,-0.41333333333333333,-0.16333333333333333,-0.5877777777777777,0.08240997046748469,0.03217981073463301,0.06316203984525666
1592167965.1993706,0.08515850148195693,9.204228775390582,3.9308260154917414,-0.41333333333333333,-0.16333333333333333,-0.5877777777777777,0.09947579764756433,0.0534220277216799,0.04267554737938876
1592167965.2093706,0.2281069549919287,9.066535506500735,3.930980461492663,-0.41333333333333333,-0.16333333333333333,-0.5877777777777777,0.11865392714531674,0.11676111773437692,-0.042550650407529714
1592167965.2193706,-0.13653812388468858,9.134127031498412,3.73604932477578,-0.4063100570926658,-0.16508915239350022,-0.5918746889181671,0.1046348253479564,0.02249776329809392,-0.07669193795013754
1592167965.2293706,-0.3356817424768506,9.187291532782368,3.7924035162664538,-0.4,-0.16666666666666666,-0.5955555555555555,0.0880568031619907,0.03261218951837405,0.0003981122912904908
1592167965.2393706,-0.015593558758451989,9.187990516363543,3.8590963990367775,-0.4,-0.16666666666666666,-0.5955555555555555,0.08915091709082253,0.04833557103710236,0.0898761946523755
1592167965.2493706,0.32836291079164004,9.147510660538247,3.9519983760983615,-0.4,-0.16666666666666666,-0.5955555555555555,0.088191976788731,0.07894170142718218,0.08503055537308576
1592167965.2593706,0.2750002298537558,9.12752396552313,3.9074956129573457,-0.4,-0.16666666666666666,-0.5955555555555555,0.09261064342600038,0.12356051340016408,0.054233407529883385
1592167965.2693706,0.05360763062172649,9.18363287847568,4.0582763787332174,-0.42003374719480685,-0.17480537646455696,-0.6130850843510116,0.10499896893821459,0.09141045494725622,0.07783961802950927
1592167965.2793705,0.22075285443759807,9.14626641378473,4.081689172580227,-0.43555555555555553,-0.1811111111111111,-0.6266666666666667,0.13228601254013603,0.15144949896909296,0.12978302116679666
1592167965.2893705,0.46201419900523094,9.15643651726199,3.81996436548769,-0.43555555555555553,-0.1811111111111111,-0.6266666666666667,0.142578,0.16261103501797886,0.10664778600743335
1592167965.2993705,0.4418359666305107,9.093556245613781,3.61308471160598,-0.43555555555555553,-0.1811111111111111,-0.6266666666666667,0.1383990788478929,0.2024754496354372,0.07625086468359552
1592167965.3093705,0.24915437826691428,9.193938685419234,3.47408499651531,-0.43555555555555553,-0.1811111111111111,-0.6266666666666667,0.11336168251778792,0.1610806175933665,0.0578504812377644
1592167965.3193705,0.1893009339571736,9.16775048504105,3.5469905648950673,-0.43555555555555553,-0.18711105006477696,-0.6086668498056692,0.08983517606868478,0.16734038685746166,0.07392810543507346
1592167965.3293705,0.3364785880660274,9.141358735082536,3.5456957861678267,-0.43555555555555553,-0.19111111111111112,-0.5966666666666667,0.06856674631513528,0.18032481353302074,0.036766308287350086
1592167965.3393705,0.23423420066913048,9.136418982876112,3.6771011130733484,-0.43555555555555553,-0.19111111111111112,-0.5966666666666667,0.05364786229989376,0.16839386229989375,-0.0026781007958744957
1592167965.3493705,0.03811475209069453,9.240201963555082,3.7821356617269366,-0.43555555555555553,-0.19111111111111112,-0.5966666666666667,0.04865999504058322,0.13110450639963006,-0.013623995921701292
1592167965.3593705,0.012991467427330945,9.219364033730967,3.859858771442118,-0.43555555555555553,-0.19111111111111112,-0.5966666666666667,0.06681548751574169,0.1131265631680939,-0.006281907920234735
1592167965.3693705,0.2244281810704175,9.233901657100938,3.626193456565676,-0.42309632746663106,-0.18903457309629038,-0.6044536842222444,0.06868606067626626,0.11519516404565494,-0.023952242945301558
1592167965.3793705,0.23870084089047677,9.262851291817867,3.34976664838806,-0.4088888888888889,-0.18666666666666668,-0.6133333333333333,0.04756939696794506,0.100952537199439,-0.04805216099913302
1592167965.3893704,0.05749807525442333,9.305655039400836,3.324542583689353,-0.4088888888888889,-0.18666666666666668,-0.6133333333333333,0.01812352232922241,0.03969972164847001,-0.003794503402372959
1592167965.3993704,0.17402793979598602,9.234665395871668,3.3751932295168645,-0.4088888888888889,-0.18666666666666668,-0.6133333333333333,-0.0008932121988791267,0.06657528003996835,0.05986306488204394
1592167965.4093704,0.34798042170545046,9.20422641994631,3.2983118543772636,-0.4088888888888889,-0.18666666666666668,-0.6133333333333333,-0.026240172337504516,0.06417144279003796,0.0693418528094544
1592167965.4193704,0.3535748273589322,9.237180874654808,3.409234786937791,-0.41250718283249566,-0.18304837272305993,-0.6097150393897266,-0.053261184067082766,0.09117620605066973,0.06279607780798196
1592167965.4293704,0.3557573383214891,9.226697380691933,3.5298582207187876,-0.4177777777777778,-0.17777777777777778,-0.6044444444444445,-0.06688374652433379,0.12230900778032708,0.031202848137246463
1592167965.4393704,0.09247262965770059,9.236542750722265,3.5104250255382565,-0.4177777777777778,-0.17777777777777778,-0.6044444444444445,-0.08154600321558941,0.06326679830561145,0.001690400356238575
1592167965.4493704,-0.17187483352940663,9.193041117681302,3.568933321746784,-0.4177777777777778,-0.17777777777777778,-0.6044444444444445,-0.09133701039727511,0.011529176591210336,0.004471637463602734
1592167965.4593704,-0.0021955104763785836,9.20648784970484,3.8011264659889266,-0.4177777777777778,-0.17777777777777778,-0.6044444444444445,-0.09585951494275231,0.012209039956402655,0.014817692983090321
1592167965.4693704,0.15191510811495032,9.19249100317235,3.8137361112873007,-0.4177777777777778,-0.1804768933362776,-0.6134414963061106,-0.08855236144759708,-0.0244840395711658,-0.009075438540095503
1592167965.4793704,0.1125949363355504,9.200446321704517,3.8580138633510095,-0.4177777777777778,-0.18444444444444444,-0.6266666666666667,-0.08228422354624221,-0.049623073235710975,-0.014748221654915392
1592167965.4893703,0.32780045486315523,9.276342951898437,3.8560542620915155,-0.4177777777777778,-0.18444444444444444,-0.6266666666666667,-0.06095000798654767,-0.028136475404216196,-0.014946276474882069
1592167965.4993703,0.3974330035271106,9.231857014976468,3.762028372312509,-0.4177777777777778,-0.18444444444444444,-0.6266666666666667,-0.046582631936319716,-0.03872456730293092,-0.02429545834158961
1592167965.5093703,0.37863299257507493,9.25126859188403,3.7603348959503475,-0.4177777777777778,-0.18444444444444444,-0.6266666666666667,-0.049164,-0.040784413354639754,0.00751894195420521
1592167965.5193703,0.4435636481874955,9.150142824535052,3.714605365924894,-0.4065698177535737,-0.18152062878595643,-0.6364127188616268,-0.05118790283885981,-0.014120373866915933,0.02402578056777196
1592167965.5293703,0.2354985481754781,9.149384409420573,3.7924132879759678,-0.39222222222222225,-0.17777777777777778,-0.6488888888888888,-0.05625027054368706,-0.04951992531477712,0.03332546455399339
1592167965.5393703,0.31058706553778803,9.259625322960597,3.9146913941791985,-0.39222222222222225,-0.17777777777777778,-0.6488888888888888,-0.047623210374740745,-0.00714215004204212,0.027176243860329796
1592167965.5493703,0.4407510842274196,9.128377537191492,3.8611556764360553,-0.39222222222222225,-0.17777777777777778,-0.6488888888888888,-0.020726542035429157,0.022680047668964816,-0.04495103789924367
1592167965.5593703,0.19562745147694446,9.188838906340237,3.8743565816885135,-0.39222222222222225,-0.17777777777777778,-0.6488888888888888,-0.022678842732744415,-0.05010970492019367,-0.06975874742686825
1592167965.5693703,0.21796716053384985,9.202753070511907,3.958352193246222,-0.39471241536490825,-0.18097945467551696,-0.6549365008068406,-0.009870313209245246,-0.04066918504598157,-0.04121836881787401
1592167965.5793703,0.5298183629692985,9.203921061603557,4.002810983169282,-0.4,-0.18777777777777777,-0.6677777777777778,0.01042800761645561,-0.02324714079996283,-0.05061614242315277
1592167965.5893703,0.5008247652656309,9.206613767117764,4.069471635630633,-0.4,-0.18777777777777777,-0.6677777777777778,0.0366748657324172,-0.044257369508139466,-0.08333750883664168
1592167965.5993702,0.35710904374868946,9.226872200320745,4.081365746547973,-0.4,-0.18777777777777777,-0.6677777777777778,0.06803133318815627,-0.04643456318118672,-0.10370915168941626
1592167965.6093702,0.3001115844309867,9.291374834620001,4.035734613679586,-0.4,-0.18777777777777777,-0.6677777777777778,0.10599256037423335,-0.05116668231381483,-0.08703123038919858
1592167965.6193702,0.25207482790086533,9.267526628798793,3.9048660554043018,-0.39591958406761535,-0.18777777777777777,-0.6684055340750678,0.1405122645614483,-0.04858363963956615,-0.08455785157713384
1592167965.6293702,0.1315698272352398,9.248859572003171,3.7449745257005804,-0.38555555555555554,-0.18777777777777777,-0.67,0.15864018211494402,-0.057676556040055615,-0.0114944652800072
1592167965.6393702,0.17269200445280625,9.228671531439222,3.5469974929788455,-0.38555555555555554,-0.18777777777777777,-0.67,0.1538334509560131,-0.030687805124369468,0.09633192375571895
1592167965.6493702,0.5047532915025494,9.193491615475613,3.489509273255459,-0.38555555555555554,-0.18777777777777777,-0.67,0.1336624226658814,0.04868264805646294,0.10238342879281191
1592167965.6593702,0.3823048135451417,9.23971202287435,3.4889317745669888,-0.38555555555555554,-0.18777777777777777,-0.67,0.1116971137383584,0.005038299755338052,-0.019799972582756925
1592167965.6693702,-0.24163388123581575,9.195474408993011,3.729956081061583,-0.3773195921670611,-0.1905230989072759,-0.6649015464737892,0.11171042670072932,-0.04386157165393259,-0.07444941201521244
1592167965.6793702,-0.1633613203242071,9.205386634330623,3.642824193813792,-0.3622222222222222,-0.19555555555555557,-0.6555555555555556,0.10262131038404901,-0.03607271779643261,0.02087072185813473
1592167965.6893702,0.3996860296491821,9.209338549343041,3.4779813574767933,-0.3622222222222222,-0.19555555555555557,-0.6555555555555556,0.09121640534451105,-0.08250978677526606,-0.003091310576152629
1592167965.6993701,0.4949753083869757,9.215582579967947,3.5284021359189874,-0.3622222222222222,-0.19555555555555557,-0.6555555555555556,0.07819550495596334,-0.03750386332860924,-0.05550778690257152
1592167965.7093701,0.264872843131169,9.24348925372303,3.46618218352408,-0.3622222222222222,-0.19555555555555557,-0.6555555555555556,0.061588153943404514,-0.06172930424192039,-0.04509563500716284
1592167965.7193701,0.25976322614892705,9.267073797107283,3.45737415037652,-0.36820159835009025,-0.19555555555555557,-0.6652720417633411,0.04793983626200197,-0.04519298152645141,-0.01258498152645141
1592167965.72937,0.27370715193243506,9.28386337740516,3.403464802669908,-0.38,-0.19555555555555557,-0.6844444444444444,0.035176005671061335,-0.07063294450172489,-0.00023363872823288956
1592167965.73937,0.23936862086743707,9.294722927375933,3.4224987731203598,-0.38,-0.19555555555555557,-0.6844444444444444,0.025528896171656275,-0.07728689617165627,-0.002292804151847538
1592167965.74937,0.2230330922238268,9.33324496530221,3.382273501951422,-0.38,-0.19555555555555557,-0.6844444444444444,0.02432791969256098,-0.08116586950221523,-0.030717682771256312
1592167965.75937,0.05245207904581838,9.216458452101586,3.4052229102976423,-0.38,-0.19555555555555557,-0.6844444444444444,0.017970819204232446,-0.14049369339331383,-0.06436212786782679
1592167965.76937,-0.09327369433049858,9.255907506249988,3.3384313002912913,-0.3819687910783191,-0.1991650058658073,-0.6821475215197388,-0.011227562075705211,-0.185573231617124,-0.05446877269500418
1592167965.77937,0.20394385213988905,9.337770783161705,3.5231817947093744,-0.38666666666666666,-0.20777777777777778,-0.6766666666666666,-0.019337996922465416,-0.17298453862233143,-0.018253596851915438
1592167965.78937,0.8241634953614949,9.213303796587084,3.6420013426236406,-0.38666666666666666,-0.20777777777777778,-0.6766666666666666,-0.004046144082739249,-0.04416979820158303,-0.03864392021537917
1592167965.79937,0.5991884230166196,9.37419737050005,3.423498948979347,-0.38666666666666666,-0.20777777777777778,-0.6766666666666666,-0.01164247875722699,-0.1396154201882287,-0.08517109534710049
1592167965.80937,0.12091835496925984,9.322256715575769,3.657727330763999,-0.38666666666666666,-0.20777777777777778,-0.6766666666666666,0.016935860573690474,-0.16839418335323372,-0.15890865364611576
1592167965.81937,-0.1834529886106609,9.317800260919402,3.570467543003326,-0.38336742646705746,-0.20717791592330337,-0.6787661831573271,0.012619,-0.16593925276161342,-0.08701071320539314
1592167965.82937,0.2204073998319669,9.306821640289945,3.4602807026353695,-0.37444444444444447,-0.20555555555555555,-0.6844444444444444,0.022567727943273778,-0.19754403332546475,-0.01529113867003072
1592167965.83937,0.5905162333888849,9.327979722318213,3.4730929419037775,-0.37444444444444447,-0.20555555555555555,-0.6844444444444444,0.008371818664884022,-0.21877966024799544,-0.04464215841688855
1592167965.84937,0.5935685205293401,9.215172466267317,3.6639641205926567,-0.37444444444444447,-0.20555555555555555,-0.6844444444444444,0.028408068070920417,-0.15311726795216046,-0.08790668249956327
1592167965.85937,0.41445232677975435,9.24015122649138,3.576005899965761,-0.37444444444444447,-0.20555555555555555,-0.6844444444444444,0.030731,-0.20131713328219036,-0.09499160015342893
1592167965.86937,0.2936859268230912,9.30607279438183,3.553221176598487,-0.3727227271921898,-0.20555555555555555,-0.6829252821630433,0.03196123944828594,-0.19274510673325507,-0.0813542883338056
1592167965.87937,0.6067806520887818,9.247297694543487,3.5777169482891322,-0.35555555555555557,-0.20555555555555555,-0.6677777777777778,0.025849963947024206,-0.10950327156314545,-0.06198250868843652
1592167965.88937,0.5468882454733045,9.316896596199472,3.436364555635019,-0.35555555555555557,-0.20555555555555555,-0.6677777777777778,0.026937034983470283,-0.17667537752912402,-0.12359766317661366
1592167965.89937,0.12320947038430657,9.139236965096092,3.6734465484442818,-0.35555555555555557,-0.20555555555555555,-0.6677777777777778,0.027874463141470116,-0.20921805354894396,-0.15916983483756875
1592167965.90937,-0.12005449950729435,9.280980151204295,3.5665239052634354,-0.35555555555555557,-0.20555555555555555,-0.6677777777777778,0.020551731669210725,-0.215652,-0.06280068038116465
1592167965.91937,0.3638545202398858,9.20052750619218,3.4962078838140553,-0.35396742292030253,-0.20850494473531123,-0.6711809191390343,0.00456982606171806,-0.20216327682988086,0.003685870093458104
1592167965.92937,0.6856747651710999,9.220054538681723,3.458336383954832,-0.3477777777777778,-0.22,-0.6844444444444444,-0.007416727037068821,-0.16581886578380964,-0.02211046596668071
1592167965.93937,0.4695402947003579,9.22188453432728,3.445508143296404,-0.3477777777777778,-0.22,-0.6844444444444444,-0.031151908577937155,-0.1649339963940023,-0.041203600139963985
1592167965.94937,0.445651334019023,9.241294230093782,3.468541206767023,-0.3477777777777778,-0.22,-0.6844444444444444,-0.04685089955094338,-0.14963645883689558,-0.05320680840828916
1592167965.95937,0.5206807717758599,9.258145138273031,3.6353406676089084,-0.3477777777777778,-0.22,-0.6844444444444444,-0.04861004890926635,-0.09837981072523953,-0.027283799611459873
1592167965.96937,0.5218957162827597,9.249911679969744,3.787294144610943,-0.3477777777777778,-0.22,-0.6824291810116643,-0.037379345944576994,-0.07520771170674996,-0.02072547860643083
1592167965.9793699,0.4439776939870561,9.259907138914594,3.834868117171454,-0.3477777777777778,-0.22,-0.6611111111111111,-0.005523373664027111,-0.022956931401901637,-0.042419
1592167965.9893699,0.165280532754961,9.182221451792387,3.746093063438466,-0.3477777777777778,-0.22,-0.6611111111111111,0.002543823953866238,-0.03147055829720738,-0.03237767821027158
1592167965.9993699,0.23811974295937346,9.17762330515316,3.6208186580828925,-0.3477777777777778,-0.22,-0.6611111111111111,-0.011360392134483081,0.011344677179338519,0.0005895715484038476
1592167966.0093699,0.35302895872762213,9.189061245973297,3.4955483446013873,-0.3477777777777778,-0.22,-0.6611111111111111,-0.03268054232673841,0.012701671472097704,0.004239980708310528
1592167966.0193698,0.3392208696775929,9.196814821143851,3.5416706851768476,-0.3477777777777778,-0.22,-0.6611111111111111,-0.05884791343393221,0.013836755059302989,0.005618743639387767
1592167966.0293698,0.33331820437874404,9.197024190800796,3.543808629980631,-0.35555555555555557,-0.22,-0.6666666666666666,-0.07250839158484568,0.07169814578271935,0.021391608873478133
1592167966.0393698,0.24253355936400486,9.208333970795717,3.658191727233784,-0.35555555555555557,-0.22,-0.6666666666666666,-0.0831533009684301,0.07172815886744867,0.0215834435787199
1592167966.0493698,0.16385730603718715,9.243499172267478,3.7863571042439648,-0.35555555555555557,-0.22,-0.6666666666666666,-0.07823696908162965,0.0978292540450946,0.030618134752139883
1592167966.0593698,0.2769760485852853,9.23285575599589,3.859616106454968,-0.35555555555555557,-0.22,-0.6666666666666666,-0.06662914322902229,0.12239047889418267,0.03160695030302989
1592167966.0693698,0.2723879203116294,9.21999232863342,3.9284586374745722,-0.35408937198067636,-0.2193232998885173,-0.6682456335934597,-0.04958011171890606,0.11365833950015161,0.025757
1592167966.0793698,0.21845400691903996,9.204054162418469,4.10241830385852,-0.3411111111111111,-0.21333333333333335,-0.6822222222222222,-0.017581063921691394,0.12317450705700875,0.042020514405635916
1592167966.0893698,0.1937461694569785,9.232670468471573,4.066343886527139,-0.3411111111111111,-0.21333333333333335,-0.6822222222222222,0.0150255247418414,0.1131396101902187,0.05393451469689545
1592167966.0993698,0.16093441164808317,9.24138010213164,3.853680742804315,-0.3411111111111111,-0.21333333333333335,-0.6822222222222222,0.03982465947904529,0.10841976408048316,0.04816934257224388
1592167966.1093698,0.1351456108861162,9.225505276321115,3.6995819344178638,-0.3411111111111111,-0.21333333333333335,-0.6822222222222222,0.045954934887892186,0.11252224651718959,0.043298855837322306
1592167966.1193697,0.13293913262932974,9.214241291935974,3.601017937296197,-0.34097359838806834,-0.21408965331006835,-0.6802282877381026,0.04327044635624554,0.11166748211874851,0.057846169739857116
1592167966.1293697,0.20104418765755916,9.220014700497774,3.6170589267734514,-0.3388888888888889,-0.22555555555555556,-0.65,0.036985145320761255,0.12759421602570867,0.07035543636664422
1592167966.1393697,0.29973999151241065,9.215543926116444,3.607106768334983,-0.3388888888888889,-0.22555555555555556,-0.65,0.03142000139099682,0.15865518745541818,0.04375049919155366
1592167966.1493697,0.14442731779747756,9.238635187779915,3.7441141932625084,-0.3388888888888889,-0.22555555555555556,-0.65,0.033170538401318186,0.16724793795610662,0.04518960907631992
1592167966.1593697,0.11749186899889062,9.226882166814082,3.781391510314739,-0.3388888888888889,-0.22555555555555556,-0.65,0.03977152491594333,0.183823,0.05051560434044367
1592167966.1693697,0.05445494032265767,9.225093880566236,3.7977189434975043,-0.3388888888888889,-0.22555555555555556,-0.65,0.048388134027081704,0.1678900459539094,0.05174531829486575
1592167966.1793697,0.014877094078156388,9.220546689315297,3.8323101794413827,-0.3333333333333333,-0.22,-0.6588888888888889,0.06221997365311127,0.13482769212819087,0.05452
1592167966.1893697,0.05159644601512653,9.270737492183931,3.679741616290734,-0.3333333333333333,-0.22,-0.6588888888888889,0.07130101335685145,0.10693856511595536,0.05944710777699164
1592167966.1993697,0.08038658833528033,9.262277115903993,3.443057943540627,-0.3333333333333333,-0.22,-0.6588888888888889,0.062052321580019415,0.0857677143819128,0.06407426630337383
1592167966.2093697,0.23685322709263418,9.237994578188495,3.4656843250335885,-0.3333333333333333,-0.22,-0.6588888888888889,0.04414179269492968,0.0758239508916789,0.04457596288770029
1592167966.2193696,0.17192878966850753,9.24209811004561,3.5855273693902876,-0.3333333333333333,-0.22,-0.6588888888888889,0.03400344129479703,0.05976472064739852,0.03411220337455479
1592167966.2293696,0.13479852444831295,9.255616929579993,3.7226169189315517,-0.3,-0.24666666666666667,-0.6522222222222223,0.03516790434805802,0.07771655407631455,0.04358441874360244
1592167966.2393696,0.22235869659860358,9.246887940449726,3.849916277974121,-0.3,-0.24666666666666667,-0.6522222222222223,0.0501373829077168,0.10094608064899696,0.030825325873585874
1592167966.2493696,0.07749213797688144,9.220922730965043,3.8917926117892176,-0.3,-0.24666666666666667,-0.6522222222222223,0.06776471661527368,0.08593488989722872,0.012031330112070943
1592167966.2593696,-0.11944366229600495,9.251451667257399,3.740374826085057,-0.3,-0.24666666666666667,-0.6522222222222223,0.08441503380663153,0.05076478317426583,0.012276670747831139
1592167966.2693696,-0.0389870413969013,9.275579703552717,3.4605794413289126,-0.3001888502476552,-0.24591126567604596,-0.6530090982541188,0.08300365407616148,0.023430771944002532,0.012248877000068718
1592167966.2793696,0.08541149228737338,9.269776236789287,3.216745463507744,-0.30666666666666664,-0.22,-0.68,0.05897789697310966,-0.006402722777655581,0.0024375819706080578
1592167966.2893696,0.09716009670106134,9.254017039475546,3.288626148225534,-0.30666666666666664,-0.22,-0.68,0.027522899581386914,-0.049960389728335275,-0.015081278682736224
1592167966.2993696,0.05967038759943054,9.273073213372058,3.368273062689883,-0.30666666666666664,-0.22,-0.68,0.003361175419897862,-0.07120125170504885,-0.022657003131640943
1592167966.3093696,0.1011241242229633,9.287582413913732,3.5113117403137157,-0.30666666666666664,-0.22,-0.68,-0.006406853519461776,-0.09132339031005852,-0.0367255851241634
1592167966.3193696,0.03397726691748488,9.267688197598726,3.535236435682469,-0.30666666666666664,-0.22,-0.68,-0.010818,-0.10660517431196535,-0.034883249630642495
1592167966.3293695,0.010582490483771308,9.272535359353181,3.720653326861621,-0.3288888888888889,-0.23222222222222222,-0.6588888888888889,-0.006963467718802152,-0.1214125879569924,-0.009428191317646818
1592167966.3393695,0.15395917973534348,9.273190770830052,3.790416953437869,-0.3288888888888889,-0.23222222222222222,-0.6588888888888889,0.011161684464290689,-0.10791711284837238,-0.009836798053339459
1592167966.3493695,0.20854192721748324,9.288269158978558,3.680202419559805,-0.3288888888888889,-0.23222222222222222,-0.6588888888888889,0.029180282556833848,-0.09872765616926268,-0.018864792617630688
1592167966.3593695,0.223797973510249,9.26606898385565,3.4646512955903477,-0.3288888888888889,-0.23222222222222222,-0.6588888888888889,0.03473640250444597,-0.07578069312182507,-0.03292086583185134
1592167966.3693695,0.20986451725010233,9.252889013484808,3.2891370050112974,-0.3288888888888889,-0.23222222222222222,-0.6588888888888889,0.017346084374419393,-0.09366002367903502,-0.02589507043868354
1592167966.3793695,0.39230798174981085,9.246527904356588,3.3501895138843034,-0.29444444444444445,-0.23222222222222222,-0.6466666666666666,-0.006702020991830453,-0.05011359281254961,-0.0107782673643014
1592167966.3893695,0.5531821327653909,9.26331837862002,3.484336444278608,-0.29444444444444445,-0.23222222222222222,-0.6466666666666666,-0.01612042944324831,-0.019720544012227885,-0.032778026544523796
1592167966.3993695,0.41933003185308426,9.310636754560093,3.7607053519482494,-0.29444444444444445,-0.23222222222222222,-0.6466666666666666,-0.007864283171415756,0.012843505791109154,-0.021555739806628883
1592167966.4093695,0.38965989099369497,9.315312278338704,3.8693432517335093,-0.29444444444444445,-0.23222222222222222,-0.6466666666666666,0.018029950887679634,0.049752623131007104,0.009851950887679633
1592167966.4193695,0.3286968892782233,9.279034273422578,3.8104173942403365,-0.29444444444444445,-0.23222222222222222,-0.6466666666666666,0.046882868311589825,0.07028385911692137,0.03400272624657408
1592167966.4293694,0.22066757021390002,9.290196655061857,3.5420564080871073,-0.3022222222222222,-0.23222222222222222,-0.6611111111111111,0.05724087598379373,0.07493239696781508,0.06577332279000137
1592167966.4393694,0.15092280824876805,9.27165051751399,3.389320423499537,-0.3022222222222222,-0.23222222222222222,-0.6611111111111111,0.049429921260839234,0.06267492076822427,0.08725596623881701
1592167966.4493694,0.17573393826398542,9.257890061736015,3.3286168760772985,-0.3022222222222222,-0.23222222222222222,-0.6611111111111111,0.03127044169806123,0.06362079045787582,0.09108729025013658
1592167966.4593694,0.20075674029091134,9.254720758333663,3.334740397663368,-0.3022222222222222,-0.23222222222222222,-0.6611111111111111,0.009564514711451548,0.06018457583862084,0.07492372679214113
1592167966.4693694,0.2872856663101862,9.255833217047236,3.463813855169926,-0.3022222222222222,-0.23222222222222222,-0.6611111111111111,-0.0013451107417792704,0.05552055537088964,0.053945436146322266
1592167966.4793694,0.3895759934041098,9.281953455615072,3.5213839622258303,-0.3088888888888889,-0.22,-0.6111111111111112,-0.004687526368739035,0.06881491757508157,0.03503724322427966
1592167966.4893694,0.4411440035738284,9.267707346934717,3.4816410333091636,-0.3088888888888889,-0.22,-0.6111111111111112,-0.006738738178891751,0.07286209392868732,0.01977487966892089
1592167966.4993694,0.42385962235464475,9.292102407021416,3.520902707772889,-0.3088888888888889,-0.22,-0.6111111111111112,-0.01263045231148468,0.067719,0.02167796823935679
1592167966.5093694,0.4508527826195639,9.263295615100732,3.6117577497017033,-0.3088888888888889,-0.22,-0.6111111111111112,-0.010102341225363475,0.07446526616198883,0.02682592493662535
1592167966.5193694,0.4696506393956219,9.25961652111197,3.601598349577776,-0.3088888888888889,-0.22,-0.6111111111111112,-0.008009490905132515,0.07448679599916233,0.018434470866709227
1592167966.5293694,0.4469071015146484,9.28851900925554,3.5827039011257296,-0.3088888888888889,-0.21344554095780108,-0.6395137669606399,-0.004425,0.08343248976249504,0.015512096448510345
1592167966.5393693,0.43034005020713095,9.272953051720734,3.5163443323919896,-0.3088888888888889,-0.21333333333333335,-0.64,-0.005050843707097818,0.10066380453146952,0.004265102525510794
1592167966.5493693,0.3600099712325789,9.304965858241427,3.3664851583655424,-0.3088888888888889,-0.21333333333333335,-0.64,-0.010611410188556086,0.1124976504744169,0.002917049958951915
1592167966.5593693,0.29053304974089694,9.266657418569624,3.3122909783959784,-0.3088888888888889,-0.21333333333333335,-0.64,-0.028721821415570142,0.12595127183949817,0.00885001562830868
1592167966.5693693,0.269806,9.269740297531314,3.378412604367599,-0.3088888888888889,-0.21333333333333335,-0.64,-0.0443619035402112,0.1358775679012837,0.01829077510459381
1592167966.5793693,0.24984223241127612,9.274286640200481,3.4472594094581837,-0.3088888888888889,-0.22555555555555556,-0.6533333333333333,-0.0591443363191522,0.13964680826345202,0.030396863293181652
1592167966.5893693,0.33613705022422025,9.26042893490718,3.676649166934356,-0.3088888888888889,-0.22555555555555556,-0.6533333333333333,-0.061603634817047725,0.143341,0.04457038777504355
1592167966.5993693,0.3799606573521189,9.231453289927739,3.9066600727449,-0.3088888888888889,-0.22555555555555556,-0.6533333333333333,-0.04507139038363938,0.13863778621744882,0.04830157243489762
1592167966.6093693,0.364937582277781,9.241308910382697,3.976092642391865,-0.3088888888888889,-0.22555555555555556,-0.6533333333333333,-0.012020937756755288,0.12744955302387603,0.041314579965211234
1592167966.6193693,0.32096000961454296,9.246984141010145,3.939592414408644,-0.3088888888888889,-0.22555555555555556,-0.6533333333333333,0.017681048513524925,0.12214387886107902,0.039597
1592167966.6293693,0.36168959098180625,9.241192053021408,3.689892516144441,-0.31444444444444447,-0.24,-0.6311111111111111,0.03786606778338654,0.12376736268261104,0.03566659248557433
1592167966.6393692,0.3336937614639477,9.244339378180937,3.4089491089367403,-0.31444444444444447,-0.24,-0.6311111111111111,0.0337680211875994,0.10418862947660408,0.02995111700609686
1592167966.6493692,0.3865283156837434,9.27622130069056,3.2220550170130213,-0.31444444444444447,-0.24,-0.6311111111111111,0.011519224489758239,0.09082766845356867,0.03609975474611362
1592167966.6593692,0.5027264993583533,9.274601150891023,3.170196779365119,-0.31444444444444447,-0.24,-0.6311111111111111,-0.02184205267885834,0.06387176415689487,0.020375527577970412
1592167966.6693692,0.5852913469238626,9.284896280168486,3.1400035044018733,-0.31444444444444447,-0.24,-0.6311111111111111,-0.06051504652090771,0.03429189020135162,0.011809022221152177
1592167966.6793692,0.7342492703983875,9.249076093823833,3.208791030060076,-0.30666666666666664,-0.22,-0.64,-0.09322490586268346,0.022151097068504953,0.008952097068504954
1592167966.6893692,0.7993799038286266,9.266923848400719,3.4475974613521263,-0.30666666666666664,-0.22,-0.64,-0.11396436229811908,0.001496099698353713,-0.013475493598001768
1592167966.6993692,0.7466305571265256,9.24762,3.708058240075461,-0.30666666666666664,-0.22,-0.64,-0.11539524082538617,-0.006229925761843064,-0.028281910002166472
1592167966.7093692,0.6511078648107035,9.23658917493881,3.8947222945412223,-0.30666666666666664,-0.22,-0.64,-0.10204922590462025,-0.01586402403597932,-0.021943636988289446
1592167966.7193692,0.7022198448194896,9.240154430843205,4.025539338576489,-0.30666666666666664,-0.22,-0.64,-0.0719931794158712,-0.01917237283535164,-0.016861
1592167966.7293692,0.761632400817282,9.238510845588952,4.143733108108762,-0.29333333333333333,-0.22,-0.6311111111111111,-0.03288214942270169,-0.007591951212655306,-0.015597139233269067
1592167966.7393692,0.7458620954439322,9.233193004214936,4.231514384483903,-0.29333333333333333,-0.22,-0.6311111111111111,0.017743353378306435,0.014023047269561993,-0.009323930363364565
1592167966.7493691,0.6821810920772884,9.219370895054482,4.16596064102596,-0.29333333333333333,-0.22,-0.6311111111111111,0.06607173161415623,0.038956,-0.023483470702364333
1592167966.7593691,0.3476430945003339,9.223421338957532,4.035198398070803,-0.29333333333333333,-0.22,-0.6311111111111111,0.10289892745654958,0.04837841643018641,-0.06765577936531145
1592167966.7693691,0.012917746901062607,9.259916204810159,3.899791583370375,-0.29333333333333333,-0.22,-0.6311111111111111,0.12721203090692673,0.09245410691273681,-0.079712
1592167966.779369,-0.277358055239518,9.275073993528133,3.777532318842202,-0.28555555555555556,-0.22,-0.64,0.1430884625082663,0.08433029965716561,-0.06764110799936794
1592167966.789369,-0.43350540438567675,9.237893502412415,3.7095637599514983,-0.28555555555555556,-0.22,-0.64,0.1558847134276901,0.06793131315179286,-0.036786875379845416
1592167966.799369,-0.41865532572195313,9.237278432378352,3.611338755217097,-0.28555555555555556,-0.22,-0.64,0.16254210995071844,0.073044,0.00029364053403006796
1592167966.809369,-0.33332566551033166,9.254829480467693,3.512302362618866,-0.28555555555555556,-0.22,-0.64,0.16297418958619797,0.0810707232299763,0.026992156143526784
1592167966.819369,-0.24300069522796644,9.27239728086809,3.3959668054753767,-0.28555555555555556,-0.22,-0.64,0.15718193333607594,0.0893238878405776,0.04660081567804503
1592167966.829369,-0.17240262816497673,9.27581194519199,3.224894585412999,-0.2930530508743928,-0.2253553537991695,-0.6314314339213288,0.1366673844051862,0.09369174146647855,0.0604407058511757
1592167966.839369,-0.07744320853285634,9.286415177525987,3.027419739560192,-0.29333333333333333,-0.22555555555555556,-0.6311111111111111,0.105318889020509,0.096481,0.06998975421869223
1592167966.849369,0.04640042236876158,9.311593123856612,2.922007780900692,-0.29333333333333333,-0.22555555555555556,-0.6311111111111111,0.06166484612520331,0.09938920180935656,0.06863979819064343
1592167966.859369,0.15450401097638125,9.322801034077985,2.9260960135896004,-0.29333333333333333,-0.22555555555555556,-0.6311111111111111,0.012850705565479865,0.0999788808821684,0.06138362553559096
1592167966.869369,0.1857307260389839,9.334055536524362,2.9742778417889424,-0.29333333333333333,-0.22555555555555556,-0.6311111111111111,-0.03445150095608425,0.09218643923102436,0.04376116453799795
1592167966.879369,0.14194890602634885,9.313074947538249,3.1276722376715904,-0.2998047874061779,-0.2201626771615184,-0.646211170614415,-0.06809147296845396,0.08762971843636595,0.030064577654548917
1592167966.889369,-0.006379005853062973,9.29501649791234,3.3000434938694014,-0.3,-0.22,-0.6466666666666666,-0.09527012324798068,0.0938249684194041,0.02295077983548438
1592167966.899369,-0.08230814048615874,9.279827762474925,3.4162665696486587,-0.3,-0.22,-0.6466666666666666,-0.1056325841826251,0.08921901744690347,0.025963584876332678
1592167966.909369,-0.05456172394785572,9.308764753180547,3.488935027970996,-0.3,-0.22,-0.6466666666666666,-0.11050800570906139,0.07604919596982565,0.029560005709061386
1592167966.919369,-0.02084518118928891,9.296852536045765,3.6085223085181073,-0.3,-0.22,-0.6466666666666666,-0.1060070485437075,0.05605677677821459,0.03215
1592167966.929369,0.07679763767012529,9.283784810542407,3.752564240949656,-0.28220969207154717,-0.22494175220234802,-0.6595152223927715,-0.09260598090983778,0.033840569222810514,0.02621058831297274
1592167966.939369,0.15212577858268414,9.24942285816718,3.8100870403020863,-0.28,-0.22555555555555556,-0.6611111111111111,-0.07374795770681923,0.0059934438023722435,0.015137725785539635
1592167966.949369,0.09605173603670011,9.262236118599931,3.8716210447311044,-0.28,-0.22555555555555556,-0.6611111111111111,-0.04699631932796325,-0.00982287428487932,0.0025365905062193473
1592167966.959369,-0.02176558620359648,9.252909053441869,3.8475822560107384,-0.28,-0.22555555555555556,-0.6611111111111111,-0.024857087326630237,-0.01843920671305724,-0.0024066033565286206
1592167966.969369,-0.07369283923787623,9.264328559491918,3.7994509317232605,-0.28,-0.22555555555555556,-0.6611111111111111,-0.0026060958169258396,-0.021774,0.0013128568957284396
1592167966.979369,-0.09080330380580003,9.260175344343615,3.8076206025738086,-0.29082965111703263,-0.2156283753649423,-0.642159221656304,0.017150959616675322,-0.019059737342078092,0.008465230936681317
1592167966.989369,-0.01749307538680339,9.275452446591675,3.7962586643529646,-0.29333333333333333,-0.21333333333333335,-0.6377777777777778,0.03443055263337335,-0.013934211711010086,0.010834
1592167966.999369,0.052305522227802596,9.263287344101405,3.728895743774207,-0.29333333333333333,-0.21333333333333335,-0.6377777777777778,0.05092936619303053,-0.01289400545915599,0.008362005459155988
1592167967.009369,0.04989693779038918,9.266877901183678,3.646098742292817,-0.29333333333333333,-0.21333333333333335,-0.6377777777777778,0.060771803172326354,-0.008663799206918411,0.0019957992069184107
1592167967.019369,0.047637198480408816,9.256404509864034,3.5989131406142905,-0.29333333333333333,-0.21333333333333335,-0.6377777777777778,0.06570107216028517,-0.009464909311216867,-0.0026532932959244626
1592167967.0293689,0.07509704721575552,9.279640675753203,3.5614056061520887,-0.29333333333333333,-0.2180145515019229,-0.6440194020025638,0.06747547716859481,-0.006851,-0.007809467980622184
1592167967.0393689,0.005413129985489325,9.292511,3.6115800011315207,-0.29333333333333333,-0.22,-0.6466666666666666,0.0732161860417745,-0.003423616468730286,-0.010229393263176663
1592167967.0493689,-0.04094856183721339,9.283052671203244,3.6987060575959605,-0.29333333333333333,-0.22,-0.6466666666666666,0.08370774713538078,0.0003614812225102728,-0.010468
1592167967.0593688,-0.11088626840252669,9.285334003086732,3.735220638778037,-0.29333333333333333,-0.22,-0.6466666666666666,0.10226281961746056,0.008233733764600359,-0.005142
1592167967.0693688,-0.0657711623038359,9.282462285092656,3.608411427155312,-0.29333333333333333,-0.22,-0.6466666666666666,0.11303414173783688,0.010830287393244676,-2.559123127753092e-05
1592167967.0793688,-0.10268836690191863,9.316226024349863,3.3611133650864087,-0.2827226901280566,-0.20850513652761687,-0.6466666666666666,0.11278247629534856,0.006760448259490116,0.01106416808945267
1592167967.0893688,-0.052860448171445945,9.299435141238392,3.098299247968816,-0.28,-0.20555555555555555,-0.6466666666666666,0.0880017521530403,0.0006824567288778766,0.014038
1592167967.0993688,0.07751964470921811,9.362116692516047,2.9928981622258046,-0.28,-0.20555555555555555,-0.6466666666666666,0.049998606446227785,-0.0016335120245493978,0.012701974938798903
1592167967.1093688,0.12332688099296985,9.33237834201253,2.988436856153738,-0.28,-0.20555555555555555,-0.6466666666666666,0.011007226697819473,-0.001603886792444294,0.0021376287895047198
1592167967.1193688,0.09275715159607595,9.299790060062001,3.007875967968879,-0.28,-0.20555555555555555,-0.6466666666666666,-0.0288999385180653,-0.00473,-0.008325531272241497
1592167967.1293688,-0.009664659563659472,9.301483,3.1418528847166924,-0.2957311022473003,-0.2212866578028559,-0.6344313649187664,-0.06049909250242105,-0.00048762523174959,-0.01043834702926937
1592167967.1393688,-0.06275174883234368,9.295487815375608,3.2865903100055314,-0.3,-0.22555555555555556,-0.6311111111111111,-0.08067240084707097,0.003626743061432051,-0.006438923234838429
1592167967.1493688,-0.08327066919672475,9.303118046698364,3.4334377916306162,-0.3,-0.22555555555555556,-0.6311111111111111,-0.09340784065705922,0.003713787272714928,-0.0021936381818552157
1592167967.1593688,-0.06050644188478283,9.278987976176996,3.5601091931550393,-0.3,-0.22555555555555556,-0.6311111111111111,-0.09119008282420743,0.002731,0.0010121198232306639
1592167967.1693687,-0.012531250409273047,9.291213671817188,3.621759058331294,-0.3,-0.22555555555555556,-0.6311111111111111,-0.08675060553169132,0.0025837661638529095,0.0032397661638529094
1592167967.1793687,0.005893559313161026,9.288724467178417,3.6152423750436733,-0.2856452329473092,-0.22156812026314143,-0.6422759299298706,-0.07759729701583211,0.002549538592222528,-0.0003406157766675847
1592167967.1893687,-0.003489367474037392,9.279270054694699,3.655677672261938,-0.28,-0.22,-0.6466666666666666,-0.06852859195863122,0.003149706243640685,-0.0010913161790143382
1592167967.1993687,-0.027501061096332484,9.280767311243153,3.6905230548265098,-0.28,-0.22,-0.6466666666666666,-0.058638087391218334,0.0011922319500295715,-0.0002877680499704285
1592167967.2093687,-0.05276719705354724,9.273945556469764,3.7272866932526485,-0.28,-0.22,-0.6466666666666666,-0.04516214257384911,0.003534157559082566,-0.0003429651846309713
1592167967.2193687,-0.007358460227897072,9.280124674075564,3.757432398845517,-0.28,-0.22,-0.6466666666666666,-0.026230779584381147,0.005350453618718303,0.0020263638113201437
1592167967.2293687,-0.009332799113383628,9.279662084880673,3.844845931085799,-0.2918746414661393,-0.22,-0.6413890482372714,-0.00799014875275038,0.007411750362267808,0.0027371870692145393
1592167967.2393687,0.015329073009646355,9.265224011023816,3.952418153989449,-0.3,-0.22,-0.6377777777777778,0.022225776205815753,0.00983431501691228,0.0016056575084561404
1592167967.2493687,-0.031536047654079816,9.263843848838283,3.9148097692521326,-0.3,-0.22,-0.6377777777777778,0.05520843883173564,0.010496097487562875,-0.000885
1592167967.2593687,-0.046814,9.252287182581673,3.8008296170985645,-0.3,-0.22,-0.6377777777777778,0.08202968956936611,0.011909516863819596,0.002566509991565677
1592167967.2693686,-0.024357926754494014,9.281684970765237,3.6239249590633613,-0.3,-0.22,-0.6377777777777778,0.09565495846903026,0.009563038752126888,0.003387
1592167967.2793686,-0.014063800438370851,9.29855188611597,3.4777515774711123,-0.30434600067915907,-0.21565399932084092,-0.6377777777777778,0.097839,0.0053374382253453066,0.004909438225345307
1592167967.2893686,0.005216667204657828,9.302766255707299,3.397351248394808,-0.30666666666666664,-0.21333333333333335,-0.6377777777777778,0.09130321613130128,0.0006699035906765256,0.0017510598609889064
1592167967.2993686,0.046370865654599726,9.289387664794603,3.361973828950413,-0.30666666666666664,-0.21333333333333335,-0.6377777777777778,0.08023487436045867,5.9805086151402e-05,-0.00034808806271862574
1592167967.3093686,-0.0027124130438275287,9.293636152540161,3.3471101575795763,-0.30666666666666664,-0.21333333333333335,-0.6377777777777778,0.06655403779654774,-0.003662,-0.0025000811803817104
1592167967.3193686,-0.02689560373851109,9.309745175637865,3.424650414073554,-0.30666666666666664,-0.21333333333333335,-0.6377777777777778,0.05709464114794821,-0.0038772141131835384,-0.0028942505647733055
1592167967.3293686,0.05005747607928834,9.312747517643444,3.410581005637848,-0.2990734662963898,-0.22029376700608713,-0.6339811775926393,0.04961933027723158,-0.004556338188144188,-0.004524331534624231
1592167967.3393686,0.01056747843859188,9.287244787695684,3.3897350551289698,-0.29333333333333333,-0.22555555555555556,-0.6311111111111111,0.04330932116003803,-0.006628075572956655,-0.0076946032670053175
1592167967.3493686,-0.046624930585901996,9.280495607059844,3.38686917241775,-0.29333333333333333,-0.22555555555555556,-0.6311111111111111,0.03489170576911267,-0.008307310214847947,-0.0075598333654564665
1592167967.3593686,-0.003489648242120995,9.29628405054065,3.3831207676390775,-0.29333333333333333,-0.22555555555555556,-0.6311111111111111,0.02786548109809886,-0.009708370496406146,-0.005142
1592167967.3693686,-0.02681951759434651,9.317414829786554,3.350599722996485,-0.29333333333333333,-0.22555555555555556,-0.6311111111111111,0.019474059477197114,-0.01250972271893962,-0.005877277281060379
1592167967.3793685,-0.012723542190068738,9.328167060088305,3.3815387010910736,-0.2897870290064566,-0.23518123872850674,-0.6412434091879018,0.009572495796737746,-0.012177,-0.006668142057645603
