time,acc_x,acc_y,acc_z,mag_x,mag_y,mag_z,gyr_x,gyr_y,gyr_z
1592167808.8395197,-0.10719600277831215,9.375833556423565,3.4559479876588273,-0.43555555555555553,-0.4011111111111111,-0.14333333333333334,0.0197432365257485,-0.004066211175251226,0.01206581870784784
1592167808.8495197,-0.07591037297710727,9.362320917361204,3.530230738640922,-0.43555555555555553,-0.4011111111111111,-0.14333333333333334,0.03829584525863765,0.003295162669424702,0.018838884471433878
1592167808.8595197,-0.06081385688470307,9.36930154573514,3.5307277518482643,-0.43555555555555553,-0.4011111111111111,-0.14333333333333334,0.05819835756005948,0.01170538514173853,0.02036888550819298
1592167808.8695197,-0.07065760131873272,9.410889361796523,3.360718977075299,-0.41555555555555557,-0.41555555555555557,-0.1288888888888889,0.07524210058705141,0.015518,0.025167705996469558
1592167808.8795197,-0.0626520245978267,9.414580667768115,3.2791215326708936,-0.41555555555555557,-0.41555555555555557,-0.1288888888888889,0.07849282449741428,0.012314,0.027260912248707136
1592167808.8895197,-0.12072126780197498,9.377548306193916,3.163181502227215,-0.41555555555555557,-0.41555555555555557,-0.1288888888888889,0.07549398297887228,-0.0016175931422066957,0.015458974658931207
1592167808.8995197,-0.3579404740455323,9.423265572547104,2.9544158868376007,-0.41555555555555557,-0.41555555555555557,-0.1288888888888889,0.056958868625244546,-0.06439135720739053,-0.03341743628427658
1592167808.9095197,-0.44997967268818206,9.411576946163446,3.158166368323813,-0.41555555555555557,-0.41555555555555557,-0.1288888888888889,0.03959146753168826,-0.07572434475897455,0.0002493611007497471
1592167808.9195197,-0.15243521141569377,9.392158213175875,3.2254922275852813,-0.42777777777777776,-0.42777777777777776,-0.13666666666666666,0.0361137709281366,-0.11036987821733599,-0.0013379753101584583
1592167808.9295197,-0.1113476444204536,9.415144188601623,3.175978107981212,-0.42777777777777776,-0.42777777777777776,-0.13666666666666666,0.0311772714958458,-0.12250647031821903,-0.0130502714958458
1592167808.9395196,-0.13289580371563517,9.413014919814735,3.1615718038823473,-0.42777777777777776,-0.42777777777777776,-0.13666666666666666,0.02698443535091202,-0.10616757986353254,-0.010993181341244843
1592167808.9495196,-0.21617403470357927,9.404300329163085,3.150204015538755,-0.42777777777777776,-0.42777777777777776,-0.13666666666666666,0.021012668952758322,-0.09941189225937627,-0.010585160420736938
1592167808.9595196,-0.33609023318756587,9.405726881017115,3.168562427160521,-0.42777777777777776,-0.42777777777777776,-0.13666666666666666,0.018384216985696884,-0.08656137303044949,-0.003864738995232294
1592167808.9695196,-0.47255204715743454,9.413743358026,3.178131,-0.41555555555555557,-0.41555555555555557,-0.13666666666666666,0.012437532742994716,-0.080383706147172,-0.003187467257005284
1592167808.9795196,-0.5244687413961314,9.404425258603869,3.2361777095954425,-0.41555555555555557,-0.41555555555555557,-0.13666666666666666,0.0065311891007864276,-0.09329367371977365,0.0015583474395472936
1592167808.9895196,-0.5704173668813862,9.38090693748191,3.3260154293994755,-0.41555555555555557,-0.41555555555555557,-0.13666666666666666,0.013120751910909908,-0.10066250165897338,-0.0010091119948762355
1592167808.9995196,-0.5140577403376704,9.396164325413508,3.3966766722815636,-0.41555555555555557,-0.41555555555555557,-0.13666666666666666,0.02259296727995756,-0.11986408622386532,-0.0007869137761346784
1592167809.0095196,-0.4132545460056245,9.413560063705093,3.3767460379419507,-0.41555555555555557,-0.41555555555555557,-0.13666666666666666,0.033272833419664735,-0.11233552154928703,0.0013915849522057985
1592167809.0195196,-0.3507607916534502,9.415131072312732,3.2651089076322592,-0.4222222222222222,-0.4211111111111111,-0.1511111111111111,0.04251999745665044,-0.08533920395790179,0.013351294770423438
1592167809.0295196,-0.2815647461857416,9.404704142456776,3.228456471117848,-0.4222222222222222,-0.4211111111111111,-0.1511111111111111,0.04780420342976843,-0.06528364451039306,0.02571287129070823
1592167809.0395195,-0.28187962202360844,9.430602166245134,3.198465213893525,-0.4222222222222222,-0.4211111111111111,-0.1511111111111111,0.048841088767567854,-0.03583596981103826,0.022552
1592167809.0495195,-0.4126024295511229,9.406729294069631,3.128225581860685,-0.4222222222222222,-0.4211111111111111,-0.1511111111111111,0.049977765030660544,0.011498608184410028,0.018376803310169276
1592167809.0595195,-0.44169150199696544,9.407160217515328,3.305393377731608,-0.4222222222222222,-0.4211111111111111,-0.1511111111111111,0.05265132406509515,0.05092245207338496,-0.00486111285087972
1592167809.0695195,-0.6716047032729545,9.444828077335721,3.0290121259281317,-0.41555555555555557,-0.4211111111111111,-0.1288888888888889,0.05863036239163015,0.05702614779389963,-0.007236244145805164
1592167809.0795195,-0.7828586939237026,9.407787429700642,2.841747039574887,-0.41555555555555557,-0.4211111111111111,-0.1288888888888889,0.03148737867679566,0.03160056308960858,0.014192954030884598
1592167809.0895195,-0.7402982543509928,9.393863390713504,2.797247280901673,-0.41555555555555557,-0.4211111111111111,-0.1288888888888889,-0.0037146894348972104,-0.009886081831721513,-0.007780032155072637
1592167809.0995195,-0.8620598136662676,9.437755379134446,2.7109521302194737,-0.41555555555555557,-0.4211111111111111,-0.1288888888888889,-0.049399553918229734,-0.06934710456623522,-0.02460683195627449
1592167809.1095195,-0.9367929157046024,9.39926569772161,2.8250954413901685,-0.41555555555555557,-0.4211111111111111,-0.1288888888888889,-0.09153971980896526,-0.10781734022664254,-0.02980160865436243
1592167809.1195195,-0.947148395404647,9.379512466556692,2.920972094519419,-0.41555555555555557,-0.41555555555555557,-0.11555555555555555,-0.12845239788925655,-0.15380691828807053,-0.041711738487812566
1592167809.1295195,-0.8791089146314724,9.375325467997754,3.021970254696795,-0.41555555555555557,-0.41555555555555557,-0.11555555555555555,-0.15131166794653614,-0.15128849766852806,-0.059347403402014935
1592167809.1395195,-0.9391820168694838,9.40889732408673,3.0982898779607337,-0.41555555555555557,-0.41555555555555557,-0.11555555555555555,-0.16706609868687977,-0.1634094259833811,-0.07208104934343988
1592167809.1495194,-0.9887144830463812,9.396322895539406,3.230881350141122,-0.41555555555555557,-0.41555555555555557,-0.11555555555555555,-0.17347487895573624,-0.18995435650504638,-0.0708004931974564
1592167809.1595194,-0.9159418322967466,9.414612,3.254710933226623,-0.41555555555555557,-0.41555555555555557,-0.11555555555555555,-0.174866,-0.21516304358893676,-0.0673206591691131
1592167809.1695194,-0.8063815205992719,9.43665779599963,3.312176344057871,-0.42672690810614494,-0.4206334430785507,-0.12774248561074397,-0.1766082914598279,-0.24760175793875994,-0.040975533521067996
1592167809.1795194,-0.6142813747074616,9.372496350920951,3.5068665777250487,-0.42777777777777776,-0.4211111111111111,-0.1288888888888889,-0.16822799070465105,-0.2616495868878494,-0.03012331936049769
1592167809.1895194,-0.5240677471880817,9.364131100986643,3.5729029005514215,-0.42777777777777776,-0.4211111111111111,-0.1288888888888889,-0.15059007071239108,-0.2455223524469665,-0.054653113431930564
1592167809.1995194,-0.4639194592920011,9.335602,3.6158936881959574,-0.42777777777777776,-0.4211111111111111,-0.1288888888888889,-0.12564772157132328,-0.22869445390917606,-0.06752930135632922
1592167809.2095194,-0.42568078455705943,9.338708413640195,3.6612794478921273,-0.42777777777777776,-0.4211111111111111,-0.1288888888888889,-0.09035900881579548,-0.18485777882949952,-0.1131385383152593
1592167809.2195194,-0.6126464129556364,9.387007447132069,3.6746494179338245,-0.4594865164388622,-0.4456598120100152,-0.15548331486270162,-0.05883556372215497,-0.15604147014812675,-0.11598004193032767
1592167809.2295194,-0.6165163370373117,9.418006049517409,3.64222127804881,-0.4622222222222222,-0.4477777777777778,-0.15777777777777777,-0.022997271488476728,-0.14227465641804232,-0.08036830585321525
1592167809.2395194,-0.47665180337349633,9.406564025963824,3.4597918669061354,-0.4622222222222222,-0.4477777777777778,-0.15777777777777777,0.0004077653965526276,-0.1291436292633656,-0.046584673535133896
1592167809.2495193,-0.3588202619625522,9.405696730023823,3.359206080408724,-0.4622222222222222,-0.4477777777777778,-0.15777777777777777,0.013930055349048023,-0.10900301525464214,-0.0051578305167896505
1592167809.2595193,-0.33972558960915294,9.384524356641148,3.414237282704334,-0.4622222222222222,-0.4477777777777778,-0.15777777777777777,0.017698560583988037,-0.10486847607263776,0.026172594862129993
1592167809.2695193,-0.4169554629090673,9.396869614373523,3.494291726772425,-0.44184764190589193,-0.43249684254053006,-0.17560553555456673,0.025182046672276418,-0.09901202873905003,0.053452
1592167809.2795193,-0.15584255661227958,9.28551816158079,3.3232265158834804,-0.43555555555555553,-0.42777777777777776,-0.1811111111111111,0.037109,-0.04379741719157881,0.011260138340165744
1592167809.2895193,-0.3293585969290928,9.34116557781141,3.31489020992935,-0.43555555555555553,-0.42777777777777776,-0.1811111111111111,0.03424146543525415,-0.03752002879837676,-0.02933197495090762
1592167809.2995193,-0.3928482633202613,9.322980770112716,3.4644599344709786,-0.43555555555555553,-0.42777777777777776,-0.1811111111111111,0.04071023383376973,0.002008225370239841,-0.03904329003516094
1592167809.3095193,-0.4617123459158551,9.3600474772366,3.2306094934618685,-0.43555555555555553,-0.42777777777777776,-0.1811111111111111,0.04964628245090572,0.029372568336808576,-0.05547028588590285
1592167809.3195193,-0.513671259082374,9.42011626302051,3.140905449887028,-0.4448217263640363,-0.4429406027371099,-0.16510590698737165,0.033456698843276685,0.032001865597000065,-0.04270908551053417
1592167809.3295193,-0.5571011159387489,9.409513414150629,3.281394751370393,-0.4477777777777778,-0.4477777777777778,-0.16,0.0315830063271339,0.0626334358353362,-0.025935396640494022
1592167809.3395193,-0.6588280282216371,9.395336525009876,3.345386827115457,-0.4477777777777778,-0.4477777777777778,-0.16,0.03020281075167922,0.03951130729364145,0.0037086296235849577
1592167809.3495193,-0.6396808957211356,9.416798878170058,3.311730757216649,-0.4477777777777778,-0.4477777777777778,-0.16,0.02568576296433004,0.006696307000307108,0.03695619437218341
1592167809.3595192,-0.5210073142762208,9.389747133960174,3.2086782868210695,-0.4477777777777778,-0.4477777777777778,-0.16,0.025207637245967866,0.007759595482907337,0.0505892320698586
1592167809.3695192,-0.35098515664653,9.342244827155703,3.030963382235933,-0.4477777777777778,-0.44100436981729346,-0.1783849644641717,-0.002439918924721414,-0.007746503969465727,0.044061861787818096
1592167809.3795192,-0.29639549331113574,9.373597934541165,2.9109642302732515,-0.4477777777777778,-0.44,-0.1811111111111111,-0.0329952267659465,-0.005375462103730994,0.029781003918289396
1592167809.3895192,-0.22545372800413718,9.398743587130308,3.026165995815521,-0.4477777777777778,-0.44,-0.1811111111111111,-0.06121940446274292,0.022278634356860373,0.02151466051938978
1592167809.3995192,-0.2085093840478779,9.371253037255133,3.141147429652124,-0.4477777777777778,-0.44,-0.1811111111111111,-0.08434289659812903,0.021863380295203867,0.026812866772192474
1592167809.4095192,-0.2825325826479901,9.413956010825164,3.263690382512122,-0.4477777777777778,-0.44,-0.1811111111111111,-0.09180692676560429,0.007957619692937245,0.03100721970318716
1592167809.4195192,-0.1028273808806083,9.292329015807734,3.260910713444913,-0.4462993412836049,-0.4577412379300747,-0.1811111111111111,-0.09166363593757447,0.0815109944818074,0.012905186662915898
1592167809.4295192,-0.15179712522145922,9.341738076495185,3.0954685001011963,-0.44555555555555554,-0.4666666666666667,-0.1811111111111111,-0.12226068586036323,0.03113891744955024,-0.018302636497929937
1592167809.4395192,-0.33970697714686704,9.455279965106978,3.3330916399521344,-0.44555555555555554,-0.4666666666666667,-0.1811111111111111,-0.12644556481529756,0.01995421492967425,0.006064212889449406
1592167809.4495192,-0.41704925710384255,9.427105096269976,3.398777184468459,-0.44555555555555554,-0.4666666666666667,-0.1811111111111111,-0.11976120462209257,0.03582141620329881,0.06729767517340525
1592167809.4595191,-0.16057241981449288,9.302295219483698,3.367998749662578,-0.44555555555555554,-0.4666666666666667,-0.1811111111111111,-0.121613,0.02777193326476221,0.0807728296772428
1592167809.4695191,-0.08424247586678918,9.280665004444174,3.1301430638057,-0.4504855737078437,-0.4666666666666667,-0.20928264340990052,-0.14263683669033603,0.02902436622757753,0.03343494675850111
1592167809.4795191,-0.2926036373694741,9.339695438616143,3.2886447100224268,-0.4533333333333333,-0.4666666666666667,-0.22555555555555556,-0.17088924228895067,-0.01592996548333821,0.022784567994503135
1592167809.4895191,-0.3514543874735891,9.301048058193098,3.635925717732994,-0.4533333333333333,-0.4666666666666667,-0.22555555555555556,-0.16148413443581158,-0.01854257674270301,0.02546577884655428
1592167809.499519,-0.39135669569202197,9.30269854518506,3.7790183675964055,-0.4533333333333333,-0.4666666666666667,-0.22555555555555556,-0.13854090198020252,-0.04055010635068854,0.0032719019802025465
1592167809.509519,-0.27136831832067204,9.294582545190753,3.6747296889248586,-0.4533333333333333,-0.4666666666666667,-0.22555555555555556,-0.11221958829280662,-0.009630626253145414,-0.030486381169480197
1592167809.519519,-0.3073990217463683,9.313345902066077,3.53908215238617,-0.466874278779197,-0.4722423500855517,-0.23591039619062779,-0.10491618937506962,-0.023655218155669122,-0.043810780355166064
1592167809.529519,-0.3252241822217483,9.369240357823735,3.6043329458310773,-0.4722222222222222,-0.47444444444444445,-0.24,-0.08909110913675235,-0.038818,-0.03501374237509185
1592167809.539519,-0.3359814494378317,9.328963326637929,3.587205311902441,-0.4722222222222222,-0.47444444444444445,-0.24,-0.07784781530711643,-0.0415317477337646,-0.029393275167397925
1592167809.549519,-0.3972730475918278,9.35469222003815,3.646087740140658,-0.4722222222222222,-0.47444444444444445,-0.24,-0.06688227490391226,-0.07411168329896028,-0.014990549807824518
1592167809.559519,-0.2409366946010328,9.331985544466136,3.75926630622491,-0.4722222222222222,-0.47444444444444445,-0.24,-0.04527380394701546,-0.07415508697963677,0.0018578659658831567
1592167809.569519,-0.22170446674929112,9.325150734167208,3.848978281156034,-0.4610262310170271,-0.46983433041877587,-0.2426343508718106,-0.015033460274744528,-0.0736182985820691,-0.010165770256283738
1592167809.579519,-0.33682676378449977,9.41468162672775,3.7493102684262904,-0.4533333333333333,-0.4666666666666667,-0.24444444444444444,0.010715765672619278,-0.10633356310486326,-0.002352377660166205
1592167809.589519,-0.16128843976403018,9.363599626380461,3.7255094191511544,-0.4533333333333333,-0.4666666666666667,-0.24444444444444444,0.04650457100854915,-0.067581,-0.0002928907442139061
1592167809.599519,-0.040030984382416715,9.37368413131381,3.568400173976047,-0.4533333333333333,-0.4666666666666667,-0.24444444444444444,0.0648475435839614,-0.0898971862959319,-0.013217158022572948
1592167809.609519,-0.025433752244639788,9.328495410925347,3.610486554995024,-0.4533333333333333,-0.4666666666666667,-0.24444444444444444,0.09534107356216544,-0.092072,-0.03267361004597537
1592167809.619519,-0.09126562084645874,9.361380627492878,3.4431820179151247,-0.46665391465638073,-0.4807708115969522,-0.2585485893747299,0.10465040660672963,-0.10739256585320908,-0.022866617260907534
1592167809.629519,0.008001465248818895,9.310335782103373,3.4838362116911363,-0.4722222222222222,-0.4866666666666667,-0.2644444444444444,0.11154960132520989,-0.0870528748536333,-0.007802533040890829
1592167809.639519,0.1760788787949114,9.273557966778073,3.50952977697328,-0.4722222222222222,-0.4866666666666667,-0.2644444444444444,0.12414129709162337,-0.036593328508076686,-0.046463482193541024
1592167809.649519,0.021179576266578945,9.309275836674658,3.42139812403383,-0.4722222222222222,-0.4866666666666667,-0.2644444444444444,0.12416341022912387,-0.03702585479804926,-0.08616770063302534
1592167809.659519,-0.17511572296162747,9.429350641186465,3.3674874565042074,-0.4722222222222222,-0.4866666666666667,-0.2644444444444444,0.11882493894971316,-0.07297159416651328,-0.06629287789942633
1592167809.669519,-0.28500618518729265,9.390394126698233,3.4190508939330404,-0.4722222222222222,-0.49446849143026006,-0.27704739213947993,0.1175005140937819,-0.12412002051049997,-0.03555812687383712
1592167809.679519,0.040033241641259015,9.41463962758544,3.4433794084954426,-0.4722222222222222,-0.5011111111111111,-0.2877777777777778,0.11792458120880074,-0.08776774446745354,0.01054374711935574
1592167809.689519,0.2516533573064975,9.2109899432222,3.34850551734495,-0.4722222222222222,-0.5011111111111111,-0.2877777777777778,0.1264066281050337,-0.05649316903621932,-0.045580515157766455
1592167809.699519,-0.0456147483469186,9.314571843571363,3.349255140481937,-0.4722222222222222,-0.5011111111111111,-0.2877777777777778,0.10354634035254359,-0.13424025395897488,-0.04788461293316698
1592167809.709519,-0.03519317131122375,9.352004471523035,3.3683483668769783,-0.4722222222222222,-0.5011111111111111,-0.2877777777777778,0.104233,-0.06946634999629354,-0.013251435424671689
1592167809.719519,0.21227682447888174,9.304220528573945,3.365548545807067,-0.4748869282356349,-0.5011111111111111,-0.29097542499387297,0.10755843112574022,-0.0277975832408114,-0.025996746172243686
1592167809.729519,0.13804334103186344,9.265362156011028,3.325865456611267,-0.4777777777777778,-0.5011111111111111,-0.29444444444444445,0.10112221348954947,0.02017827764957543,-0.07375112542643204
1592167809.739519,-0.06138306413788999,9.345565064913488,3.32735906413789,-0.4777777777777778,-0.5011111111111111,-0.29444444444444445,0.08283629160645534,0.00559332367231239,-0.06506998205868426
1592167809.7495189,-0.1043239682865317,9.430513633239302,3.4166642113476104,-0.4777777777777778,-0.5011111111111111,-0.29444444444444445,0.09048410018596746,0.011577810386751151,-0.017452244576350338
1592167809.7595189,-0.057206660024118276,9.362731453240098,3.436165446034842,-0.4777777777777778,-0.5011111111111111,-0.29444444444444445,0.09694746334086272,0.021332475659182244,-0.005066230964336077
1592167809.7695189,-0.157539212739113,9.355217973480542,3.4764838560464395,-0.4890696758175182,-0.5042477494554835,-0.29068047843119765,0.10954534862306309,-0.03447008698668769,-0.010447734038446605
1592167809.7795188,-0.22710764832523608,9.405876441733888,3.6389139293820083,-0.49777777777777776,-0.5066666666666667,-0.2877777777777778,0.13145008805478964,-0.04751630851077271,0.0009573965655623635
1592167809.7895188,-0.10635919039968329,9.336142619253875,3.531572093608846,-0.49777777777777776,-0.5066666666666667,-0.2877777777777778,0.15910643694508889,-0.041298667501764724,-0.03349171583297017
1592167809.7995188,-0.11999610971053362,9.399250408703866,3.2855860346316454,-0.49777777777777776,-0.5066666666666667,-0.2877777777777778,0.16891002919474082,-0.08111006467080473,-0.06603870013923066
1592167809.8095188,-0.09546635488796364,9.410330074586344,3.134938166644942,-0.49777777777777776,-0.5066666666666667,-0.2877777777777778,0.1645383525920768,-0.08955422473571045,-0.07238221715515171
1592167809.8195188,-0.06522086823810416,9.430630918543688,3.0809531310296494,-0.4875011865450837,-0.5203687883102588,-0.29862529074562155,0.1570612296112392,-0.10991451398193881,-0.06058739328873025
1592167809.8295188,0.01897368942592671,9.42476043622318,3.1565222029199784,-0.4777777777777778,-0.5333333333333333,-0.3088888888888889,0.1525382023019114,-0.121902,-0.0614113988490443
1592167809.8395188,0.04490851417402529,9.385387495409136,3.1644565585986526,-0.4777777777777778,-0.5333333333333333,-0.3088888888888889,0.1506861454419589,-0.106995,-0.08052653200554523
1592167809.8495188,-0.11660786997169946,9.467646699303332,3.224199143769217,-0.4777777777777778,-0.5333333333333333,-0.3088888888888889,0.14906301677302305,-0.1509709746349836,-0.08092951361658138
1592167809.8595188,-0.15856649509137388,9.497401732864288,3.29148916705206,-0.4777777777777778,-0.5333333333333333,-0.3088888888888889,0.16171078247928322,-0.1748990178162878,-0.03273203717806769
1592167809.8695188,0.08632512916262094,9.392352993591047,3.2076263709376165,-0.48548516024242944,-0.531192393759819,-0.31445533178002616,0.1763662240685254,-0.18163299625343912,-0.01752882880546275
1592167809.8795187,0.1382072403905869,9.404658485252726,3.0849822187624145,-0.49777777777777776,-0.5277777777777778,-0.3233333333333333,0.17125110834111407,-0.19080703406220367,-0.05063351986537215
1592167809.8895187,0.11995554270628016,9.449821103985716,3.089327184491751,-0.49777777777777776,-0.5277777777777778,-0.3233333333333333,0.16956036342738293,-0.15669415881483287,-0.06799371127230033
1592167809.8995187,0.12127115430216957,9.42452415746366,3.191228655721298,-0.49777777777777776,-0.5277777777777778,-0.3233333333333333,0.17162169349592177,-0.16322213816338438,-0.078644
1592167809.9095187,0.025757421093132067,9.518240083210879,3.1944728155988806,-0.49777777777777776,-0.5277777777777778,-0.3233333333333333,0.18393796129554174,-0.198215506215203,-0.052364772375810525
1592167809.9195187,0.09241180919741085,9.484084446463504,3.1508919141488367,-0.4927143613328109,-0.5298875346298473,-0.3267089442966446,0.20350683389580568,-0.193398717672693,-0.019112717672693014
1592167809.9295187,0.12103392225647128,9.469529334525896,2.9712017349775386,-0.48444444444444446,-0.5333333333333333,-0.3322222222222222,0.20521062342408494,-0.19816496250174262,-0.019686515660251206
1592167809.9395187,0.1947456254613537,9.468095458917924,2.882446,-0.48444444444444446,-0.5333333333333333,-0.3322222222222222,0.20005039920756731,-0.17719267482519385,-0.04946187764690406
1592167809.9495187,0.1270514403530963,9.402950550964519,2.9015463727005795,-0.48444444444444446,-0.5333333333333333,-0.3322222222222222,0.18359294043936034,-0.15226246610307156,-0.10365716724522005
1592167809.9595187,-0.10934986973871531,9.502606176305262,2.848668663784414,-0.48444444444444446,-0.5333333333333333,-0.3322222222222222,0.16943448817114,-0.18631534830473886,-0.11459227527083199
1592167809.9695187,-0.1579085400063693,9.607231532512488,2.9590554749813944,-0.4858006013393467,-0.5387579609129425,-0.3342564575645756,0.16934452341746678,-0.2093721616949088,-0.07822657207556886
1592167809.9795187,0.08061445624570522,9.470947683858505,2.8902630876400015,-0.4888888888888889,-0.5511111111111111,-0.3388888888888889,0.18030462540462172,-0.1894023294786872,-0.07140904511669105
1592167809.9895186,0.24100361375199403,9.503998801660325,2.8932931915011006,-0.4888888888888889,-0.5511111111111111,-0.3388888888888889,0.17921541664025004,-0.17570510491695004,-0.09389497778451132
1592167809.9995186,0.17216036402573132,9.519233041594763,3.105221844478878,-0.4888888888888889,-0.5511111111111111,-0.3388888888888889,0.18690201023819183,-0.12854034061035288,-0.104983155278423
1592167810.0095186,0.020896813287648586,9.541283805416349,3.298282385272229,-0.4888888888888889,-0.5511111111111111,-0.3388888888888889,0.2174489668834646,-0.098493572641069,-0.10386999521180129
1592167810.0195186,-0.1926381360326796,9.59019682654049,3.2507409631555926,-0.4928818205267393,-0.5511111111111111,-0.33190125852265073,0.25879767319743624,-0.08540137421724152,-0.06709292075350355
1592167810.0295186,-0.17769638891590087,9.553974513553596,3.119129469374922,-0.5022222222222222,-0.5511111111111111,-0.31555555555555553,0.2981743166462411,-0.04962487710703464,-0.011215273130816637
1592167810.0395186,-0.14033672055533628,9.49363408811652,2.891663131531805,-0.5022222222222222,-0.5511111111111111,-0.31555555555555553,0.31274900451976345,-0.021512194369358,0.0015090135592903608
1592167810.0495186,-0.3201587011290347,9.521492235328962,2.698129110283915,-0.5022222222222222,-0.5511111111111111,-0.31555555555555553,0.307693,-0.03358059477982926,0.011215808685118985
1592167810.0595186,-0.21668667937473196,9.524347426151198,2.690176640384707,-0.5022222222222222,-0.5511111111111111,-0.31555555555555553,0.30172374747040626,-0.011531518138407653,0.014875563439829672
1592167810.0695186,-0.24719451940451656,9.520066753920926,2.623194073433703,-0.4968718397217447,-0.5582449544450812,-0.31555555555555553,0.28490170540959037,0.003985789180108792,-0.0007474512479694236
1592167810.0795186,-0.25848870142445546,9.533130229566813,2.7076517817034973,-0.4888888888888889,-0.5688888888888889,-0.31555555555555553,0.2726958206997176,0.021082767320869902,-0.00722371635758655
1592167810.0895185,-0.2323033226524256,9.531069062298327,2.818915846325544,-0.4888888888888889,-0.5688888888888889,-0.31555555555555553,0.27305926754011317,0.043191375346400156,0.002078570750456365
1592167810.0995185,-0.23518635087350587,9.535990104683119,2.828670329992563,-0.4888888888888889,-0.5688888888888889,-0.31555555555555553,0.2770005630679218,0.05503523320380932,-0.02091298349692925
1592167810.1095185,-0.20691539952822735,9.572531034454524,2.80101280960987,-0.4888888888888889,-0.5688888888888889,-0.31555555555555553,0.2811350364519517,0.07557806461284639,-0.017721983103463193
1592167810.1195185,-0.320707265469822,9.615493132612002,2.6588930940578903,-0.4877675788996544,-0.5688888888888889,-0.31779817553402456,0.2865150568335031,0.06231057623193393,-0.006373615237750756
1592167810.1295185,-0.266924321367241,9.577209163221108,2.588395679732677,-0.48333333333333334,-0.5688888888888889,-0.32666666666666666,0.2906355818637294,0.08189272470648092,0.040879137373217495
1592167810.1395185,0.022669048553105087,9.577845230239582,2.448829829461842,-0.48333333333333334,-0.5688888888888889,-0.32666666666666666,0.281231895939586,0.1301357656480387,0.05666168462103333
1592167810.1495185,0.14698267738333828,9.491872455585716,2.2172772132830216,-0.48333333333333334,-0.5688888888888889,-0.32666666666666666,0.232345515610863,0.1555946870451323,0.012336687411019003
1592167810.1595185,-0.16565556516759058,9.560380502826053,2.248056026976563,-0.48333333333333334,-0.5688888888888889,-0.32666666666666666,0.18481290415006613,0.16944922441265892,-0.02993910723924284
1592167810.1695185,-0.48454641170926266,9.610806527026128,2.349385051074065,-0.48441911544477356,-0.5681650341479287,-0.3313717224829075,0.1472228374165386,0.17839280953153766,-0.009786837416538605
1592167810.1795185,-0.5781767530380743,9.634034483855686,2.4851430085108066,-0.4866666666666667,-0.5666666666666667,-0.3411111111111111,0.13673342428053187,0.15815732064395793,0.02888624161677583
1592167810.1895185,-0.65888725959962,9.567480120739884,2.4833758013513894,-0.4866666666666667,-0.5666666666666667,-0.3411111111111111,0.13028979045922767,0.13281620572931918,0.055958250297181995
1592167810.1995184,-0.4727015699309859,9.56984085463945,2.336026876980929,-0.4866666666666667,-0.5666666666666667,-0.3411111111111111,0.10354480129175603,0.1079052965066045,0.11078259504478663
1592167810.2095184,0.11993419692246962,9.654760446107359,2.1073428843445607,-0.4866666666666667,-0.5666666666666667,-0.3411111111111111,0.07065869085101631,0.12082327853247064,0.01999026392019055
1592167810.2195184,-0.26253359977210977,9.637898615810922,2.3298543801594507,-0.47745512585865185,-0.5666666666666667,-0.3490520945662963,0.07171005328961705,0.11173640936618312,0.01412421654972976
1592167810.2295184,-0.29464423400789536,9.63173655567804,2.221394180390804,-0.45444444444444443,-0.5666666666666667,-0.3688888888888889,0.05670366304192727,0.11265113797844593,0.1205426139350234
1592167810.2395184,0.33493694264577994,9.690012397752096,2.0059101486482405,-0.45444444444444443,-0.5666666666666667,-0.3688888888888889,0.019319762268692985,0.10943093183033767,0.11283856464616664
1592167810.2495184,0.18848208682332612,9.650514830450803,2.060397156769483,-0.45444444444444443,-0.5666666666666667,-0.3688888888888889,-0.009909545135758435,0.11016367834887367,-0.05769264312153675
1592167810.2595184,-0.4792654734577371,9.577199220450256,2.403056447656844,-0.45444444444444443,-0.5666666666666667,-0.3688888888888889,-0.036225103612297714,0.11288505807991056,-0.03351054682909031
1592167810.2695184,-0.3362858758936406,9.660011406690518,2.3034258843434254,-0.45444444444444443,-0.568544703595724,-0.370084003298289,-0.05746520553753732,0.09405386739062159,0.03389467568145333
1592167810.2795184,-0.0768493010417473,9.625526391737182,2.3228328346061327,-0.45444444444444443,-0.5788888888888889,-0.37666666666666665,-0.07004707672733462,0.07773244877240959,0.07092471175943182
1592167810.2895184,0.1803971474503654,9.540011965824387,2.339984104305852,-0.45444444444444443,-0.5788888888888889,-0.37666666666666665,-0.09513856450751187,0.1254006891053144,0.04733927326298671
1592167810.2995183,-0.021197544027267732,9.633965456072497,2.330154805196233,-0.45444444444444443,-0.5788888888888889,-0.37666666666666665,-0.11966619119656208,0.10232051198626332,0.007454808803437929
1592167810.3095183,-0.16520627898331336,9.690547720947896,2.6586842373578734,-0.45444444444444443,-0.5788888888888889,-0.37666666666666665,-0.10912472485536073,0.11552564272793377,0.031458766750518445
1592167810.3195183,0.049392567097108535,9.749592745576711,2.7865282046499305,-0.4557439173428936,-0.5814878346857872,-0.3787458233041853,-0.07101331206079911,0.10658952811118028,0.04386171601659161
1592167810.3295183,0.11504228194557299,9.67290557733148,3.0664274409501755,-0.46,-0.59,-0.38555555555555554,-0.006515927261238829,0.10411685845956406,0.058866939121042065
1592167810.3395183,0.19688687290469858,9.56241938226915,3.0432711228550953,-0.46,-0.59,-0.38555555555555554,0.04797076044319878,0.12984241488149723,0.08304955558357704
1592167810.3495183,0.4296075922983784,9.574450902557409,2.825569604075427,-0.46,-0.59,-0.38555555555555554,0.07420879303529411,0.12851186603923673,0.02728945085422437
1592167810.3595183,0.24143928182957186,9.603839784445023,2.773139807249358,-0.46,-0.59,-0.38555555555555554,0.10455120361370335,0.15833419093090503,-0.020383587502896792
1592167810.3695183,0.0303578568612037,9.671056586564939,2.6191333721712295,-0.46043953089821565,-0.5889011727544609,-0.38841250639395736,0.11214943166707785,0.1504987576867619,-0.003084536933329045
1592167810.3795183,0.22698368562555732,9.644943972656298,2.5213523417181434,-0.4622222222222222,-0.5844444444444444,-0.4,0.118073,0.16783179120402084,0.005154385041072092
1592167810.3895183,0.16629209507289075,9.602099087883978,2.367041626107181,-0.4622222222222222,-0.5844444444444444,-0.4,0.10789052599014566,0.17660206671632134,0.023020133432642705
1592167810.3995183,-0.007304222526740831,9.51714387250574,2.3346815307643647,-0.4622222222222222,-0.5844444444444444,-0.4,0.07316949709512295,0.1649527768594209,0.030611637334335338
1592167810.4095182,-0.2615842514715925,9.60629784072798,2.2775469889679787,-0.4622222222222222,-0.5844444444444444,-0.4,0.030964144968281117,0.11908389271917447,0.03402849909721885
1592167810.4195182,-0.34555994913212396,9.59034796190339,2.43230882286412,-0.46009568933481976,-0.5853304998141955,-0.40212653288740247,0.014984945341957953,0.09872613557518056,0.06765235545358779
1592167810.4295182,0.044264257883517254,9.630989447361342,2.327116106856694,-0.4488888888888889,-0.59,-0.41333333333333333,-0.007786366718049293,0.08292427799530597,0.021857091731835684
1592167810.4395182,-0.1848571292012534,9.508687927158887,2.335810119361394,-0.4488888888888889,-0.59,-0.41333333333333333,-0.03859520050163786,0.05529442012479466,-0.008676704835556723
1592167810.4495182,-0.03741529758524893,9.616736474573125,2.2527763298413914,-0.4488888888888889,-0.59,-0.41333333333333333,-0.08082083084379667,0.056297310977010157,-0.02021284027801116
1592167810.4595182,0.02449116692333049,9.663602495523074,2.3579253731634435,-0.4488888888888889,-0.59,-0.41333333333333333,-0.098650080972648,0.03551575880147978,-0.02253829365407872
1592167810.4695182,0.1307179369004545,9.628221723042403,2.3751801690532037,-0.44621894935197876,-0.5907852763343853,-0.41537505180273515,-0.10368287556555512,0.050582605005141376,0.012813382673449721
1592167810.4795182,0.23754907501035855,9.62879648301681,2.3223370883864605,-0.43,-0.5955555555555555,-0.42777777777777776,-0.11195229202884617,0.038194512035000856,0.030141202494192394
1592167810.4895182,0.3210480482769785,9.666788917063512,2.3598433202404054,-0.43,-0.5955555555555555,-0.42777777777777776,-0.108826,0.030603465533082238,0.03544527935868531
1592167810.4995182,0.3382515951392248,9.667782297981217,2.3618205118080047,-0.43,-0.5955555555555555,-0.42777777777777776,-0.108826,0.033620541363547654,0.040665
1592167810.5095181,0.4240814069057181,9.642918461016961,2.3444368184282234,-0.43,-0.5955555555555555,-0.42777777777777776,-0.1150620865115037,0.03034772734008842,0.033386151642602765
1592167810.5195181,0.46245451413386424,9.64719388142345,2.417007682673182,-0.43,-0.5955555555555555,-0.42777777777777776,-0.11431302207302244,0.05263373645728198,-0.011825958413836001
1592167810.5295181,0.16051739222089975,9.673684359820959,2.4756664557186494,-0.4222222222222222,-0.5755555555555556,-0.41333333333333333,-0.115219,0.05944121013669954,-0.005297646498553011
1592167810.539518,0.07226090943377837,9.661602851691198,2.533306378577298,-0.4222222222222222,-0.5755555555555556,-0.41333333333333333,-0.08916340765422011,0.06675969747010274,0.05134924029120261
1592167810.549518,0.31775591572119793,9.725700962440742,2.5050392602075364,-0.4222222222222222,-0.5755555555555556,-0.41333333333333333,-0.0767638609790394,0.08417212562942357,0.08152898660846296
1592167810.559518,0.48876365188022475,9.58174010959362,2.5558399380960095,-0.4222222222222222,-0.5755555555555556,-0.41333333333333333,-0.06481382331812519,0.10738116033010721,0.03439077094182999
1592167810.569518,0.28441936068857754,9.683161572940282,2.5472278017594525,-0.4222222222222222,-0.5755555555555556,-0.41333333333333333,-0.06461147698347823,0.09785259396847433,-0.017404523016521768
1592167810.579518,0.06860522352010198,9.655257902702465,2.729517646375573,-0.43555555555555553,-0.5822222222222222,-0.45111111111111113,-0.03658669142745139,0.09436251203051794,0.039741383999114824
1592167810.589518,0.34610778097199746,9.61966414715508,2.5669028263859115,-0.43555555555555553,-0.5822222222222222,-0.45111111111111113,-0.019854412990034695,0.10519940460722997,0.07714041578430293
1592167810.599518,0.3697483356746677,9.53806941729504,2.518852550153819,-0.43555555555555553,-0.5822222222222222,-0.45111111111111113,-0.028525588412623808,0.0924325989214271,0.0251850093967993
1592167810.609518,0.15694526140348436,9.525125896811586,2.5089587310713313,-0.43555555555555553,-0.5822222222222222,-0.45111111111111113,-0.05752580133120424,0.09293226171481091,-0.026709764280188154
1592167810.619518,-0.08345816061042492,9.585579743585908,2.6152855855493415,-0.43555555555555553,-0.5822222222222222,-0.45111111111111113,-0.07051356381178096,0.076233,-0.020950975200682672
1592167810.629518,0.0739574613669289,9.611714641075213,2.6444445861641777,-0.41888888888888887,-0.5755555555555556,-0.4577777777777778,-0.07622319001433281,0.0872566058105021,0.0011565983646629908
1592167810.639518,0.18738198116777616,9.568783424155663,2.697415165794167,-0.41888888888888887,-0.5755555555555556,-0.4577777777777778,-0.074604426419253,0.08381862579797886,0.025353276248268802
1592167810.649518,0.2871741943332031,9.561438006987878,2.6615317425526106,-0.41888888888888887,-0.5755555555555556,-0.4577777777777778,-0.07601761338717915,0.09051514588752982,0.00403801794812934
1592167810.659518,0.12681195887319502,9.546219482759785,2.654711260731843,-0.41888888888888887,-0.5755555555555556,-0.4577777777777778,-0.09161239028504935,0.06518791504237395,-0.01913165291917177
1592167810.669518,0.05148190698592335,9.568742345169342,2.7168197225115347,-0.41888888888888887,-0.5755555555555556,-0.4577777777777778,-0.10251957074839353,0.05156043246879227,-0.0057738351867323906
1592167810.679518,0.04410083311159849,9.579742987080405,2.8370618234382485,-0.41888888888888887,-0.5955555555555555,-0.48,-0.0884572766196499,0.05131273175429923,0.041270914924882426
1592167810.689518,0.10206854002594061,9.6462803634064,2.8773568271258974,-0.41888888888888887,-0.5955555555555555,-0.48,-0.057952494687784364,0.058666802121711555,0.11812496258550582
1592167810.699518,0.6734255520222605,9.543308403358036,2.6285675957593786,-0.41888888888888887,-0.5955555555555555,-0.48,-0.058478426487113454,0.08392836565887332,0.09622132819173498
1592167810.709518,0.3665483626204876,9.577547653409438,2.716394915856203,-0.41888888888888887,-0.5955555555555555,-0.48,-0.05967589038197889,0.10291529040758404,0.013393197434079445
1592167810.719518,0.054683936379296944,9.526944437696946,2.5576137987693657,-0.41888888888888887,-0.5955555555555555,-0.48,-0.07586008947916041,0.13842854070859206,0.033616259815545176
1592167810.729518,0.3181137051220776,9.651002184968728,2.4442830839117167,-0.41888888888888887,-0.5955555555555555,-0.49333333333333335,-0.08806905348936338,0.1239171785470362,0.07333538688816127
1592167810.739518,0.6221211345878688,9.37703875357269,2.4208591922729323,-0.41888888888888887,-0.5955555555555555,-0.49333333333333335,-0.12304550450711094,0.15994446382711383,0.024934313916539455
1592167810.749518,0.3360153865897948,9.671840344078706,2.410785549986448,-0.41888888888888887,-0.5955555555555555,-0.49333333333333335,-0.16918110184562143,0.15025623916692435,-0.0008591036236146982
1592167810.759518,0.32159798127200234,9.523310173118729,2.6219261975931,-0.41888888888888887,-0.5955555555555555,-0.49333333333333335,-0.18439819692353407,0.16822406907874807,-0.006197508414611527
1592167810.769518,0.15766538965007892,9.565817022210977,2.7554199555780468,-0.41888888888888887,-0.5955555555555555,-0.49333333333333335,-0.18515312728171923,0.15969487271828076,0.04806660778321117
1592167810.779518,0.4471564984583025,9.739903761654052,2.9203778024661706,-0.41888888888888887,-0.5822222222222222,-0.4722222222222222,-0.15357219829195726,0.19234480170804275,0.1360946898212291
1592167810.7895179,0.8331214923836764,9.458607890761982,2.7639772919303986,-0.41888888888888887,-0.5822222222222222,-0.4722222222222222,-0.13411336309486227,0.2267218367969928,0.1050211589409965
1592167810.7995179,0.5059014554645251,9.541469706684339,2.775580284953682,-0.41888888888888887,-0.5822222222222222,-0.4722222222222222,-0.14086275655984848,0.18681464435440412,0.040595064260181855
1592167810.8095179,0.03306702121840446,9.558186075199842,2.7299214271184793,-0.41888888888888887,-0.5822222222222222,-0.4722222222222222,-0.1401027328165021,0.20348194086261076,0.03440609127453596
1592167810.8195179,-0.030739784786894257,9.630043151637297,2.8230853572223276,-0.41888888888888887,-0.5822222222222222,-0.4722222222222222,-0.12651326568294738,0.13858231242273683,0.10343190860611938
1592167810.8295178,0.34184136804032805,9.48539530600941,2.770907511796435,-0.37777777777777777,-0.5755555555555556,-0.49333333333333335,-0.1297401093128439,0.14818132474439133,0.12784056594276477
1592167810.8395178,0.6113748866693449,9.444253691302556,2.7144060724253745,-0.37777777777777777,-0.5755555555555556,-0.49333333333333335,-0.13878924828092512,0.16631080852433508,0.08053737912388974
1592167810.8495178,0.5398345694048805,9.525274940592015,2.761572389116276,-0.37777777777777777,-0.5755555555555556,-0.49333333333333335,-0.15642266681871547,0.17421089121317437,0.030100957369498724
1592167810.8595178,0.4116165491229914,9.618635974419558,2.8974155966560953,-0.37777777777777777,-0.5755555555555556,-0.49333333333333335,-0.1373975581996299,0.2006279558480959,0.013543607213816972
1592167810.8695178,0.3847471793207393,9.632322431572362,2.8181243241610754,-0.37777777777777777,-0.5755555555555556,-0.49333333333333335,-0.12588141902921354,0.18173248655212418,0.06931635823654156
1592167810.8795178,0.6498314147452278,9.555784517101188,2.788294525676991,-0.3920676195588959,-0.5755555555555556,-0.5010278635231661,-0.11314623598922197,0.2015564426057204,0.11356700478935958
1592167810.8895178,0.7002480560762312,9.514255578246836,2.610971457469418,-0.39222222222222225,-0.5755555555555556,-0.5011111111111111,-0.13060424138724835,0.21485369071142116,0.09491796760564811
1592167810.8995178,0.46578953525766653,9.48717738470774,2.6579571345927286,-0.39222222222222225,-0.5755555555555556,-0.5011111111111111,-0.15467351249662914,0.19846499501251783,0.10683915160010213
1592167810.9095178,0.5415888172609825,9.47992355675448,2.6905159399089853,-0.39222222222222225,-0.5755555555555556,-0.5011111111111111,-0.17673753597038586,0.22950845344759302,0.10518945873860358
1592167810.9195178,0.5342895048745394,9.473275777849627,2.6976197095280288,-0.39222222222222225,-0.5755555555555556,-0.5011111111111111,-0.2056666530424094,0.18452906159670632,0.09040713299690663
1592167810.9295177,0.5181553861742654,9.49828878434728,2.7877456925186337,-0.37333333333333335,-0.5755555555555556,-0.5155555555555555,-0.22152722563287514,0.18397613397489856,0.09124921409049033
1592167810.9395177,0.7239126909280823,9.466275469512492,2.839619850517573,-0.37333333333333335,-0.5755555555555556,-0.5155555555555555,-0.2334745295736039,0.20047376110733633,0.07108226290140186
1592167810.9495177,0.6872439874827105,9.430264121121516,2.8718147377884082,-0.37333333333333335,-0.5755555555555556,-0.5155555555555555,-0.24647380185418616,0.1984030066460166,0.015840665102427872
1592167810.9595177,0.40176427343105087,9.486688601516752,2.915009114517735,-0.37333333333333335,-0.5755555555555556,-0.5155555555555555,-0.2574313295924636,0.18062884297532297,0.003120164796231812
1592167810.9695177,0.3647249319482288,9.489610490440802,2.988261842345825,-0.37333333333333335,-0.5755555555555556,-0.5155555555555555,-0.2623868116726539,0.17148408546913801,0.018481829061723944
1592167810.9795177,0.4512890427189826,9.457124527481149,3.0408124663733984,-0.37333333333333335,-0.5611111111111111,-0.5288888888888889,-0.2676340492007647,0.15482147116910405,0.03296019267722021
1592167810.9895177,0.437527498834368,9.426729561448534,3.122338858104017,-0.37333333333333335,-0.5611111111111111,-0.5288888888888889,-0.27145335886171706,0.12169664591146916,0.03533704918607932
1592167810.9995177,0.36556385100108835,9.44640427813121,3.2416733284086425,-0.37333333333333335,-0.5611111111111111,-0.5288888888888889,-0.2683961805689191,0.08470844519098066,0.05639004335326971
1592167811.0095177,0.42535330702209856,9.417603,3.3397120797168163,-0.37333333333333335,-0.5611111111111111,-0.5288888888888889,-0.25764087451422546,0.06805002273742894,0.07015476711885217
1592167811.0195177,0.6600331779187986,9.400667279865667,3.32967050250989,-0.37333333333333335,-0.5611111111111111,-0.5288888888888889,-0.24527474368008373,0.0786203550004564,0.056584173165911675
1592167811.0295177,0.7269087885941898,9.371055741140664,3.237694250686369,-0.36040109904218987,-0.5611111111111111,-0.503024420306602,-0.23653785681288372,0.0651042011988481,0.01130371895100258
1592167811.0395176,0.5432640027355408,9.398273884427928,3.2249261338784856,-0.36,-0.5611111111111111,-0.5022222222222222,-0.2340254772894339,0.035065681905028116,0.002007734234915626
1592167811.0495176,0.6056018503097657,9.365774474503487,3.3653295494276185,-0.36,-0.5611111111111111,-0.5022222222222222,-0.22757897905220623,0.04269146088404331,0.005491132680220685
1592167811.0595176,0.5780394624578034,9.416982705129351,3.2685204496075713,-0.36,-0.5611111111111111,-0.5022222222222222,-0.221183359880252,0.02594117964335987,-0.010876109290470252
1592167811.0695176,0.514931460637476,9.430481884355284,3.1234706838964397,-0.36,-0.5611111111111111,-0.5022222222222222,-0.22569761917967998,0.01396743386768368,-0.01569013226463264
1592167811.0795176,0.477721729854463,9.37726494075502,3.269747648626861,-0.35395175824636405,-0.5550628693574752,-0.523391068359948,-0.233459,0.017172672870312312,-0.023709198201182963
1592167811.0895176,0.48314199972635763,9.369473000273642,3.2680183607170736,-0.35333333333333333,-0.5544444444444444,-0.5255555555555556,-0.2330307267237476,0.019350578073534783,-0.030701
1592167811.0995176,0.4728250569827485,9.373370543760034,3.2213358062905098,-0.35333333333333333,-0.5544444444444444,-0.5255555555555556,-0.239963253826445,0.016193248724518328,-0.023144378428915025
1592167811.1095176,0.45086656979733286,9.367546160934866,3.3340035142318545,-0.35333333333333333,-0.5544444444444444,-0.5255555555555556,-0.246246,0.014766338169377342,-0.01327029569709659
1592167811.1195176,0.370539502566267,9.336204604300281,3.439937337768877,-0.3622345270626588,-0.5544444444444444,-0.528028109369257,-0.2438340803265204,-0.0014694913398704784,-0.008230026056833496
1592167811.1295176,0.3964048728910096,9.345989543055996,3.416972335093348,-0.37228846061652043,-0.5544444444444444,-0.5308208686897742,-0.2395436299681891,0.0011884949256618289,0.007500765010716325
1592167811.1395175,0.46872276473171665,9.329518053532897,3.472780523642902,-0.37333333333333335,-0.5544444444444444,-0.5311111111111111,-0.2363824237159515,-0.00473,0.007521035525587092
1592167811.1495175,0.5315852673229486,9.329256945483655,3.5284385415341823,-0.37333333333333335,-0.5544444444444444,-0.5311111111111111,-0.23304715012434318,-0.009148452699506968,0.0011689208509025608
1592167811.1595175,0.5903582111789342,9.303801473617078,3.6796371556098335,-0.37333333333333335,-0.5544444444444444,-0.5311111111111111,-0.2155139651275168,0.016420034872483204,0.0011945318882361083
1592167811.1695175,0.4815356333080477,9.280070586589673,3.5739321545779044,-0.37333333333333335,-0.5544444444444444,-0.5311111111111111,-0.20112659524402354,0.01982043128905561,-0.028038408129825342
1592167811.1795175,0.2047232318577401,9.30110744958065,3.538923842757685,-0.3600199984616568,-0.5733050021793196,-0.5100316642309566,-0.19888139987900932,-0.012504935358556315,-0.04005740795482895
1592167811.1895175,0.1196586163745453,9.271755991732318,3.6005700357687895,-0.36,-0.5733333333333334,-0.51,-0.19352886176193204,-0.011996635037147211,-0.02848203974419162
1592167811.1995175,0.14743987093533564,9.291115156463231,3.725169948250151,-0.36,-0.5733333333333334,-0.51,-0.18364976549642129,-0.038360341783808004,-0.013250550935962701
1592167811.2095175,0.2849426766474511,9.288799102570685,3.7526919660612523,-0.36,-0.5733333333333334,-0.51,-0.16476497318708985,-0.054391359998407454,-0.00657979102071565
1592167811.2195175,0.2834229401252823,9.287890462906669,3.78852284439088,-0.36,-0.5733333333333334,-0.51,-0.146755072439487,-0.0781349751201331,-0.02459985096858192
1592167811.2295175,0.23487543056415028,9.294317661216896,3.798357855566986,-0.3547675433742791,-0.5524035068304499,-0.5222090654600153,-0.12349341834427163,-0.11874986948640172,-0.03617045170449487
1592167811.2395175,0.23785914502851307,9.26416113203958,3.8454409081918457,-0.35333333333333333,-0.5466666666666666,-0.5255555555555556,-0.09615872162491397,-0.1303490632871942,-0.05194330056016664
1592167811.2495174,0.2568183668550672,9.277712076644525,3.847917587179831,-0.35333333333333333,-0.5466666666666666,-0.5255555555555556,-0.07411226326698837,-0.141083,-0.030164788049132925
1592167811.2595174,0.35911162201251123,9.281017638323993,3.878034282005224,-0.35333333333333333,-0.5466666666666666,-0.5255555555555556,-0.054217812464472895,-0.1508800045079998,-0.054994440048759266
1592167811.2695174,0.18088529427687733,9.28914963105647,4.0372018603532025,-0.35333333333333333,-0.5466666666666666,-0.5255555555555556,-0.024117615373543063,-0.16954877679698396,-0.07205330408312105
1592167811.2795174,0.09053687091050312,9.30304049785243,4.049722187600863,-0.35922787327745415,-0.5535436299348077,-0.5304676721756563,0.01873009943593134,-0.19857799248670926,-0.07895263924249221
1592167811.2895174,-0.039537526832020414,9.283594732319592,4.04553047316798,-0.36,-0.5544444444444444,-0.5311111111111111,0.06267884134577285,-0.24286478947269974,-0.10367349562614342
1592167811.2995174,-0.18424256839039527,9.282385718787339,3.877244307267364,-0.36,-0.5544444444444444,-0.5311111111111111,0.09705615648409029,-0.29602412121550614,-0.1190309900101896
1592167811.3095174,-0.12494863843972967,9.246631674818541,3.718529589206648,-0.36,-0.5544444444444444,-0.5311111111111111,0.11401943449348505,-0.30669233457683653,-0.08166820356380665
1592167811.3195174,0.08487905731011011,9.202816343159833,3.435732725176474,-0.36,-0.5544444444444444,-0.5311111111111111,0.10378086403897452,-0.315102036182938,-0.07024410470906159
1592167811.3295174,0.22317280558237912,9.23339702412699,3.640440618631152,-0.36,-0.5417363832680157,-0.5174255067672647,0.08509504062861144,-0.28562999504497866,-0.11097413919662555
1592167811.3395174,0.23590346935270565,9.284633822107065,3.6779955841032663,-0.36,-0.54,-0.5155555555555555,0.09128813135698101,-0.2393921628466992,-0.09583659851773575
1592167811.3495173,0.21339895464329287,9.318519387816044,3.6865668114887318,-0.36,-0.54,-0.5155555555555555,0.10116381624554084,-0.23257027426544563,-0.06953388413289871
1592167811.3595173,0.3130515605876196,9.287756777065644,3.5286117744389376,-0.36,-0.54,-0.5155555555555555,0.104233,-0.17204382480454516,-0.031109297557418585
1592167811.3695173,0.3510173369310855,9.218329167676268,3.3822032973001366,-0.36,-0.54,-0.5155555555555555,0.09135531076670746,-0.1672383521256502,-0.04869618537811293
1592167811.3795173,0.16061578715453223,9.303137358951851,3.2969439143375014,-0.354376379472133,-0.545623620527867,-0.5155555555555555,0.06791607894913643,-0.15742237694120537,-0.027691143788971296
1592167811.3895173,0.3187813017579441,9.303295560466626,3.213923301757944,-0.35333333333333333,-0.5466666666666666,-0.5155555555555555,0.044623347090060564,-0.14354965379615298,-0.01708814392171435
1592167811.3995173,0.39428639791944237,9.307876884594565,3.245971717485992,-0.35333333333333333,-0.5466666666666666,-0.5155555555555555,0.017293934569712184,-0.14773157946224424,-0.034811094015435785
1592167811.4095173,0.37906721528734294,9.298623683523859,3.258326407991257,-0.35333333333333333,-0.5466666666666666,-0.5155555555555555,-0.007947295156282109,-0.1415302438215857,-0.033738614848352895
1592167811.4195173,0.48099650026547136,9.27589349789135,3.3625737665035302,-0.35333333333333333,-0.5466666666666666,-0.5155555555555555,-0.026259261097556604,-0.12244522133563333,-0.02856701336818494
1592167811.4295173,0.5153310094384439,9.296040719774373,3.4330219901117394,-0.35781179231126026,-0.5466666666666666,-0.5006273589624658,-0.03846281891877719,-0.10739242647754348,-0.034973
1592167811.4395173,0.4750710835594649,9.302392581892908,3.4439545303996155,-0.36,-0.5466666666666666,-0.49333333333333335,-0.04515086114488688,-0.07302752905973157,-0.02455244340022846
1592167811.4495173,0.5678509315789652,9.272175485556458,3.469563216577217,-0.36,-0.5466666666666666,-0.49333333333333335,-0.05262880315892177,-0.05028923243853488,-0.022186
1592167811.4595172,0.5167244154200837,9.311400931705549,3.460135855185063,-0.36,-0.5466666666666666,-0.49333333333333335,-0.057863350577745505,-0.016241525039908153,-0.014560831515622338
1592167811.4695172,0.48860431482588407,9.279272425161496,3.336606676357917,-0.36,-0.5466666666666666,-0.49333333333333335,-0.0671236047289749,0.006910700589482823,-0.003548958435179508
1592167811.4795172,0.455876542933455,9.265837925750736,3.426314079367009,-0.3728657074340528,-0.5552438049560352,-0.48475619504396483,-0.08111739841531171,0.043160930386984625,0.009767398415311714
1592167811.4895172,0.4664701105179927,9.28240230417626,3.468154645258181,-0.38,-0.56,-0.48,-0.0902959558822906,0.06947707387311641,0.019174689242567166
1592167811.4995172,0.4188276504434889,9.282066430796718,3.4865122852837853,-0.38,-0.56,-0.48,-0.09403594931439889,0.08458269586867101,0.031024545415722363
1592167811.5095172,0.3844156462629308,9.271857065260093,3.5207504438542006,-0.38,-0.56,-0.48,-0.10084348035562767,0.09594548035562767,0.043069849549135925
1592167811.5195172,0.4058134277414244,9.278033014792387,3.5391112744632554,-0.38,-0.56,-0.48,-0.10610471369384289,0.09883751071429712,0.049905243448968614
1592167811.5295172,0.4025857324838281,9.237905403178727,3.5204390217627246,-0.38376998329754236,-0.5524600334049153,-0.49193828044221743,-0.11243043393247157,0.09141318755857909,0.038528
1592167811.5395172,0.43347062644900414,9.254638231212695,3.6286465521788474,-0.38666666666666666,-0.5466666666666666,-0.5011111111111111,-0.11717507678152664,0.08048098770065523,0.03355383413760196
1592167811.5495172,0.4534025675390646,9.237664929162563,3.7650171788443503,-0.38666666666666666,-0.5466666666666666,-0.5011111111111111,-0.10974830414262624,0.07487565457538412,0.026229126441294475
1592167811.5595171,0.41931287139730355,9.23182426824871,3.827907313449454,-0.38666666666666666,-0.5466666666666666,-0.5011111111111111,-0.10160834116122636,0.07718309789038864,0.019245097890388654
1592167811.5695171,0.35431680240351693,9.211685992328757,3.781629778346654,-0.38666666666666666,-0.5466666666666666,-0.5011111111111111,-0.08841269890517683,0.07143653102466103,0.012340422662812118
1592167811.5795171,0.19869039292389165,9.238247369588096,3.7005320237548527,-0.3587646535694074,-0.5458916107472983,-0.49568571967553293,-0.08532568538629699,0.05318023131274749,-6.538324956344008e-05
1592167811.589517,0.016550450090849378,9.231496580796987,3.7495887126546816,-0.3466666666666667,-0.5455555555555556,-0.49333333333333335,-0.08206091653623761,0.033354317916097984,-0.005038437402178208
1592167811.599517,-0.035533222005768354,9.231144553683283,3.777487660726872,-0.3466666666666667,-0.5455555555555556,-0.49333333333333335,-0.07471790682866979,0.012293913127469573,0.00018972711817575932
1592167811.609517,0.050539353299203046,9.23761117067736,3.7635545649594566,-0.3466666666666667,-0.5455555555555556,-0.49333333333333335,-0.06840719988990318,0.002857123625480948,0.004377095989731194
1592167811.619517,0.12036794948125706,9.223486650040254,3.77396012446113,-0.3466666666666667,-0.5455555555555556,-0.49333333333333335,-0.06414229399068384,-0.004564118027948469,-0.003798306647573532
1592167811.629517,0.07338835266520101,9.230325446963914,3.8346615530360864,-0.3639349167757621,-0.5518872472622239,-0.49736259169212227,-0.05376718399257605,-0.0037450877387999125,-0.009315912261200087
1592167811.639517,-0.021169342352550496,9.221312026019508,3.858128671728574,-0.38,-0.5577777777777778,-0.5011111111111111,-0.039398598390104116,-0.0018586444597765068,-0.01142511851340783
1592167811.649517,-0.04645011786611054,9.23110950139189,3.867430210827717,-0.38,-0.5577777777777778,-0.5011111111111111,-0.02780179012015703,0.002300305455215656,-0.004648934674552196
1592167811.659517,-0.009954261558391082,9.24440716628374,3.9649678896381797,-0.38,-0.5577777777777778,-0.5011111111111111,-0.010595074048968204,0.009503817184975453,-0.0010554743961054378
1592167811.669517,-0.003339249134604387,9.220791554575383,4.023828756439139,-0.38,-0.5577777777777778,-0.5011111111111111,0.013806484084224762,0.019175729109435054,0.001917606891738249
1592167811.679517,-0.05657293978103637,9.240451008228392,3.9307904818866954,-0.37691475762203747,-0.555206742462809,-0.5041963534890737,0.036738811003850604,0.020844,0.007187805453983167
1592167811.689517,-0.07236769008763577,9.214632698172933,3.9090038032142775,-0.37333333333333335,-0.5522222222222222,-0.5077777777777778,0.0542079347393696,0.02564671093403329,0.011667945095377937
1592167811.699517,-0.003200401297244259,9.221936406434713,3.8088504972229678,-0.37333333333333335,-0.5522222222222222,-0.5077777777777778,0.06843394974322096,0.025597401102833903,0.019860133500353955
1592167811.709517,0.03228055544443108,9.215917587189445,3.7554162244061926,-0.37333333333333335,-0.5522222222222222,-0.5077777777777778,0.07741589487524664,0.02785636245468684,0.020432
1592167811.719517,0.03830066604112921,9.242518273126393,3.6666109703670853,-0.37333333333333335,-0.5522222222222222,-0.5077777777777778,0.07935119781332729,0.027612802186672718,0.01864109890666364
1592167811.729517,0.06043047046556878,9.234312455497353,3.6217612769485505,-0.370879523820517,-0.5428977460735199,-0.5013978730444553,0.07484088595532613,0.03180590218450161,0.017227
1592167811.739517,0.0767901589341908,9.257380926517321,3.5867194155924076,-0.36777777777777776,-0.5311111111111111,-0.49333333333333335,0.06709674218142297,0.02976612001552566,0.013528748039412671
1592167811.749517,0.054841287821062255,9.27741735282601,3.496377670823597,-0.36777777777777776,-0.5311111111111111,-0.49333333333333335,0.05737634647181501,0.025533083010685152,0.007441166021370304
1592167811.759517,0.028416316421971843,9.244977474125214,3.5640483458509644,-0.36777777777777776,-0.5311111111111111,-0.49333333333333335,0.04748731729912517,0.025705292488732517,0.008108707511267485
1592167811.769517,0.043416453389706844,9.223455441583896,3.6752078310428105,-0.36777777777777776,-0.5311111111111111,-0.49333333333333335,0.044079498740803594,0.026253997481607186,0.00599996146636794
1592167811.779517,0.03186297977263286,9.230783399187814,3.691621871674875,-0.3649491422822454,-0.5363642913170997,-0.5014151490348544,0.045639,0.03045540998608234,0.00712570499304117
1592167811.789517,0.007386514157005915,9.244459105830227,3.698673888735498,-0.36,-0.5455555555555556,-0.5155555555555555,0.05194663904598912,0.029905088754908292,0.007124088754908293
1592167811.799517,0.046159005561451236,9.247119631052335,3.712131384990696,-0.36,-0.5455555555555556,-0.5155555555555555,0.060354283303975444,0.02782123054530285,0.007745461090605698
1592167811.809517,0.06843347380047361,9.239782810935901,3.7338057892472687,-0.36,-0.5455555555555556,-0.5155555555555555,0.06771911673728773,0.023722470799155026,0.0007893288847593504
1592167811.819517,0.04240461716687374,9.256126062819366,3.6888047158501194,-0.36,-0.5455555555555556,-0.5155555555555555,0.07507797492061122,0.0163325550806133,0.000183
1592167811.829517,-0.005062820577437997,9.267131834318663,3.7364746580076367,-0.3625179816934885,-0.540879303839077,-0.5155555555555555,0.083248046446289,0.010441527493075805,-0.0016987177842632108
1592167811.8395169,0.015739595902841446,9.246885939512959,3.755019531793701,-0.36777777777777776,-0.5311111111111111,-0.5155555555555555,0.09327252065036425,0.0062304793496357576,-0.0016435206503642428
1592167811.8495169,0.042666290183621024,9.255494136872652,3.69577570443523,-0.36777777777777776,-0.5311111111111111,-0.5155555555555555,0.103852196515855,0.003083028146278527,-0.0023068879229805658
1592167811.8595169,0.08644266952104224,9.264830828148106,3.714861723067977,-0.36777777777777776,-0.5311111111111111,-0.5155555555555555,0.11115311370614281,0.000595,-0.004713842793675314
1592167811.8695168,0.05939552468791588,9.273458843935229,3.7241571410351773,-0.36777777777777776,-0.5311111111111111,-0.5155555555555555,0.12406819179608766,-0.0005624350814868108,-0.007854678366885958
1592167811.8795168,-0.01432548217128695,9.27595189075203,3.7212849437619,-0.36777777777777776,-0.5383705344390389,-0.5079140573156314,0.1377287782702747,-0.0017839000770613726,-0.008331
1592167811.8895168,-0.003848026496527981,9.276596229833935,3.6803055601082155,-0.36777777777777776,-0.5522222222222222,-0.49333333333333335,0.14775240894209263,-0.002594,-0.010007571886037587
1592167811.8995168,0.024327608007083983,9.257024304372335,3.669365924072509,-0.36777777777777776,-0.5522222222222222,-0.49333333333333335,0.1567670591510762,-0.0059841011514033555,-0.010468
1592167811.9095168,0.03624807159873153,9.286728150120133,3.5817425733843544,-0.36777777777777776,-0.5522222222222222,-0.49333333333333335,0.16439958391907464,-0.009334110088943056,-0.009572636258811476
1592167811.9195168,0.013043062039622659,9.29259264259907,3.544943704213293,-0.36777777777777776,-0.5522222222222222,-0.49333333333333335,0.1696258744178724,-0.015012486977269215,-0.012604
1592167811.9295168,0.045769700089855404,9.307144685425994,3.5519510658562967,-0.36777777777777776,-0.5522222222222222,-0.49550561593709425,0.17604641087389353,-0.01783949317358582,-0.013657
1592167811.9395168,0.05564557904179167,9.318587991795457,3.5328012993366644,-0.36777777777777776,-0.5522222222222222,-0.5022222222222222,0.18010919124113822,-0.02308111193029855,-0.014809703976766184
1592167811.9495168,-0.0691482701168603,9.290513558099848,3.548286372041646,-0.36777777777777776,-0.5522222222222222,-0.5022222222222222,0.18529413891046162,-0.029221,-0.01455608614912823
1592167811.9595168,-0.05237076717171323,9.327200263360936,3.4989824425509877,-0.36777777777777776,-0.5522222222222222,-0.5022222222222222,0.18943031713209585,-0.03144741289201127,-0.006164634264191668
1592167811.9695168,0.03979312372301026,9.320617239233277,3.2982196637535632,-0.36777777777777776,-0.5522222222222222,-0.5022222222222222,0.18519633263957477,-0.03350314997769603,-0.0030111108798582566
1592167811.9795167,0.0018981771332424041,9.348011202472907,3.0973881612349814,-0.36987376042259174,-0.5543182048670362,-0.49886864999051994,0.16640993124874642,-0.031357,-0.00621
1592167811.9895167,0.03013469364104939,9.367266628769707,2.9733659691936922,-0.37333333333333335,-0.5577777777777778,-0.49333333333333335,0.13810027657858445,-0.02627299783147388,-0.007217301624233418
1592167811.9995167,0.06063666773027113,9.352977246998796,2.940454728834833,-0.37333333333333335,-0.5577777777777778,-0.49333333333333335,0.09739754798483476,-0.02089338979540326,-0.00921161020459674
1592167812.0095167,0.013431816695664687,9.355040291093783,3.026604987738813,-0.37333333333333335,-0.5577777777777778,-0.49333333333333335,0.06769846023220052,-0.015502984836970182,-0.010468
1592167812.0195167,0.019847447124653507,9.362540808673023,3.17026970428685,-0.37333333333333335,-0.5577777777777778,-0.49333333333333335,0.046222560900837706,-0.014011973113389423,-0.009700167816800937
1592167812.0295167,-0.010057923713753488,9.359701762328477,3.2458163932372353,-0.3757738013094745,-0.5555406821329817,-0.4908928653571922,0.03374103164085727,-0.017502,-0.009399
1592167812.0395167,-0.003648331521481406,9.365401312166359,3.3015320558559873,-0.38666666666666666,-0.5455555555555556,-0.48,0.029869100728299347,-0.01770810072829935,-0.008331
1592167812.0495167,-0.025522542415068898,9.370148305626177,3.395622522580915,-0.38666666666666666,-0.5455555555555556,-0.48,0.029663,-0.01454689447606177,-0.00916510552393823
1592167812.0595167,-0.08324001639481185,9.347798748549954,3.4001041153315295,-0.38666666666666666,-0.5455555555555556,-0.48,0.0363276107237844,-0.017788610723784393,-0.00511707750042328
1592167812.0695167,0.019961982699463275,9.358485493737355,3.3859323518641644,-0.38666666666666666,-0.5455555555555556,-0.48,0.036057,-0.018280518028029904,-0.00030603605605980955
1592167812.0795166,0.07091189343048072,9.353433164282626,3.3476318883203064,-0.3820721680461089,-0.5476613674233112,-0.4822972493102789,0.040314,-0.013568709543600475,-0.004170871369198571
1592167812.0895166,0.00581546130060329,9.364037565831874,3.2979137645781407,-0.36,-0.5577777777777778,-0.49333333333333335,0.033906838998171485,-0.011505581387081819,-0.007624566447761177
1592167812.0995166,0.02304196582783008,9.3660822353363,3.282444691720118,-0.36,-0.5577777777777778,-0.49333333333333335,0.031104969833897725,-0.010569107217991272,-0.003385297039508802
1592167812.1095166,0.009675729289698577,9.374536983615187,3.2945244356123737,-0.36,-0.5577777777777778,-0.49333333333333335,0.026210344838896563,-0.013245,-0.006868327580551718
1592167812.1195166,0.010234564167340983,9.39144750455156,3.3388321210582963,-0.36,-0.5577777777777778,-0.49333333333333335,0.027081493689088076,-0.011914738178372545,-0.003897012621823846
1592167812.1295166,-0.00832096635571108,9.371922966355712,3.2705026817088987,-0.3608724914793351,-0.5571545695782527,-0.49333333333333335,0.024683252703288843,-0.010400695868137792,-0.005736699941325655
