time,acc_x,acc_y,acc_z,mag_x,mag_y,mag_z,gyr_x,gyr_y,gyr_z
1592167817.7895112,-0.07190819837889242,9.340414810203066,3.409723198378892,-0.4066666666666667,-0.38333333333333336,-0.1511111111111111,-0.005624491076178655,0.011522135367579522,0.022552
1592167817.7995112,-0.048739606283498396,9.324548140353892,3.4828341496167843,-0.4066666666666667,-0.38333333333333336,-0.1511111111111111,-0.004117729691140478,0.017434634893354953,0.023621
1592167817.8095112,-0.024164912528627066,9.32095161398389,3.5364345807125934,-0.409986697365055,-0.39052673317984143,-0.15443114180949943,0.002192279427198132,0.014600222908904111,0.021484
1592167817.8195112,-0.017387590438184594,9.340291905627614,3.504671080312722,-0.41333333333333333,-0.3977777777777778,-0.15777777777777777,0.00848895312001793,0.017592346867859276,0.01926836458665471
1592167817.8295112,-0.05684711242056822,9.340964256253095,3.485911228493194,-0.41333333333333333,-0.3977777777777778,-0.15777777777777777,0.015821090345590035,0.016507641779628178,0.017213909654409963
1592167817.8395112,-0.09925346276128319,9.348352631064037,3.50935715720759,-0.41333333333333333,-0.3977777777777778,-0.15777777777777777,0.018969978691828933,0.00809902130817107,0.017205989345914465
1592167817.8495111,-0.1779490469065804,9.349279572704141,3.3640806719186207,-0.41333333333333333,-0.3977777777777778,-0.15777777777777777,0.02317209223614376,-0.002008156960023518,0.012097036663891444
1592167817.8595111,-0.19956478037554376,9.336962923866167,3.288790886047426,-0.41333333333333333,-0.3947368745117507,-0.16081868104380487,0.011933546015333956,-0.023512453984666042,-0.012815111407756126
1592167817.8695111,-0.2545813040624464,9.338270842192543,3.293048843091187,-0.41333333333333333,-0.39111111111111113,-0.16444444444444445,0.0015257395888916914,-0.029767778690891908,-0.006835739588891692
1592167817.879511,-0.1649728740829596,9.345732395572979,3.2939784315058898,-0.41333333333333333,-0.39111111111111113,-0.16444444444444445,-0.005230234300818794,-0.0389485325808094,0.002990063979171813
1592167817.889511,-0.08626053362993229,9.344685367705571,3.246618434026355,-0.41333333333333333,-0.39111111111111113,-0.16444444444444445,-0.018229508393394073,-0.04610714292162498,-0.002955508393394071
1592167817.899511,-0.0804243474474126,9.350148180210732,3.2460944723418543,-0.41333333333333333,-0.39111111111111113,-0.16444444444444445,-0.034891443015691755,-0.04081067344978196,-0.0044497990055671725
1592167817.909511,-0.10472755643664512,9.32793697442781,3.328634036539114,-0.4065600354568326,-0.383773371744902,-0.16444444444444445,-0.04532704625799907,-0.028398955243841943,-0.004291000500613671
1592167817.919511,-0.14404015808524687,9.333872396266313,3.416929513513553,-0.4,-0.37666666666666665,-0.16444444444444445,-0.052949026003248204,-0.021676528232290448,-0.000300554235538653
1592167817.929511,-0.1927099582101831,9.328191167212179,3.487306955797781,-0.4,-0.37666666666666665,-0.16444444444444445,-0.05238131286285454,-0.02494968713714546,-0.001670529376418645
1592167817.939511,-0.31051641299308747,9.32868590636904,3.526926667542228,-0.4,-0.37666666666666665,-0.16444444444444445,-0.04734207449428422,-0.03412282801304917,-0.003006
1592167817.949511,-0.3209187958000498,9.332651486441879,3.3919539959661127,-0.4,-0.37666666666666665,-0.16444444444444445,-0.04630830206591461,-0.04127230206591461,-0.002010775011047119
1592167817.959511,-0.30405643713079145,9.304144632167898,3.295551157774916,-0.4082542842195256,-0.3811377372855764,-0.16031730233468167,-0.057642943963406384,-0.05297830617383836,-0.006194712977017014
1592167817.969511,-0.3390434153919712,9.336128791096378,3.3536049857723502,-0.4266666666666667,-0.39111111111111113,-0.1511111111111111,-0.068245331947274,-0.06873234712181647,-0.006889110649091335
1592167817.979511,-0.30749034158268396,9.315465992833017,3.4376659203070545,-0.4266666666666667,-0.39111111111111113,-0.1511111111111111,-0.07626572974238081,-0.09951148078642709,-0.009164756350524234
1592167817.989511,-0.2083764627173439,9.316947543640994,3.413543589600748,-0.4266666666666667,-0.39111111111111113,-0.1511111111111111,-0.0814654528135055,-0.11809321056969135,-0.007719915477420415
1592167817.999511,-0.08735998477552033,9.340849899585853,3.3980334638134737,-0.4266666666666667,-0.39111111111111113,-0.1511111111111111,-0.08976331453976885,-0.10713465577757891,-0.005841886744657887
1592167818.009511,-0.05268719314498884,9.294035254794986,3.4783176495937016,-0.4266666666666667,-0.39111111111111113,-0.14767076231998943,-0.09285,-0.08879052302016052,-0.007741591240613557
1592167818.019511,-0.04585527243307533,9.287171433812004,3.726591249431133,-0.4266666666666667,-0.39111111111111113,-0.14333333333333334,-0.08280729817840705,-0.06553847476033522,-0.00461472552730939
1592167818.029511,-0.13419067887762362,9.322404008178793,3.8305819494675006,-0.4266666666666667,-0.39111111111111113,-0.14333333333333334,-0.05760731325712059,-0.05066709227972301,-0.004074
1592167818.039511,-0.14388801123930023,9.291837868640082,3.8244841143726878,-0.4266666666666667,-0.39111111111111113,-0.14333333333333334,-0.031457128145062,-0.038246753819921,0.001598060930346855
1592167818.049511,-0.20243695595543348,9.281128251400299,3.763504425396957,-0.4266666666666667,-0.39111111111111113,-0.14333333333333334,-0.007016227761344783,-0.03224478645803973,0.002319
1592167818.059511,-0.2910202943818719,9.29608149643361,3.6827015411517245,-0.42960475663133474,-0.38924141749723146,-0.14680562147339557,0.01208605123613652,-0.04213549726744842,0.005091900518891966
1592167818.069511,-0.3083460634689015,9.304646940255173,3.6006499988161074,-0.4388888888888889,-0.38333333333333336,-0.15777777777777777,0.021133,-0.05914828078148172,0.0016393057331115374
1592167818.079511,-0.3183708613043813,9.310376805815142,3.467926333681019,-0.4388888888888889,-0.38333333333333336,-0.15777777777777777,0.01936744861476837,-0.060827488014650884,0.0087214725854666
1592167818.089511,-0.24290890157425776,9.28195910523072,3.4457748488147124,-0.4388888888888889,-0.38333333333333336,-0.15777777777777777,0.013439444152218911,-0.06012,0.006992125241553162
1592167818.099511,-0.2877466993106489,9.290334609798267,3.5795761500449976,-0.4388888888888889,-0.38333333333333336,-0.15777777777777777,0.011672771218357275,-0.058753229637673494,0.0041457014111040144
1592167818.109511,-0.3081358619633592,9.306488642548269,3.705351622661902,-0.4348744847932665,-0.38333333333333336,-0.15451607445008458,0.02381645527939353,-0.04678554472060647,0.006050929777151652
1592167818.119511,-0.25868809903357126,9.312302295531019,3.7180460011241108,-0.4211111111111111,-0.38333333333333336,-0.14333333333333334,0.04455990480875811,-0.01598967225889792,0.012497060886578376
1592167818.1295109,-0.23299506005863432,9.306052735660634,3.7187882089228625,-0.4211111111111111,-0.38333333333333336,-0.14333333333333334,0.06242234682985641,0.016948443416688264,0.01169332419105161
1592167818.1395109,-0.286854871324056,9.313724233688808,3.658680099896887,-0.4211111111111111,-0.38333333333333336,-0.14333333333333334,0.08099080331468637,0.04431067314190494,0.01101488206112102
1592167818.1495109,-0.33595180433829985,9.305006793963408,3.519539908598339,-0.4211111111111111,-0.38333333333333336,-0.14333333333333334,0.08931,0.06680469972868142,0.01602022964472803
1592167818.1595109,-0.4823515191142323,9.342667211587505,3.390043965299816,-0.4250063911376225,-0.38333333333333336,-0.15006154428821664,0.08348458149401973,0.06814628692874208,0.02983257385748418
1592167818.1695108,-0.3974023949816271,9.294752213347357,3.4168379890377962,-0.43333333333333335,-0.38333333333333336,-0.16444444444444445,0.07827036604683361,0.0556081349436026,-0.0046577269195550615
1592167818.1795108,-0.7822938885966564,9.308149061952063,3.1224755502135046,-0.43333333333333335,-0.38333333333333336,-0.16444444444444445,0.05624555535097997,0.021564377364428497,-0.0020774145605671666
1592167818.1895108,-0.8657508786689188,9.33031662395069,3.1671188230842313,-0.43333333333333335,-0.38333333333333336,-0.16444444444444445,0.02614064602256409,0.0031973066639550047,-0.015078800465375398
1592167818.1995108,-0.9469343086740787,9.338693606674783,3.195324039023302,-0.43333333333333335,-0.38333333333333336,-0.16444444444444445,0.0040046703321867695,-0.024924678146347034,-0.025336678146347037
1592167818.2095108,-0.9302910608593923,9.324648435018409,3.106309543506606,-0.43333333333333335,-0.387391642918007,-0.16662968806696102,-0.02120842717639428,-0.016509040949023022,-0.015873148736278146
1592167818.2195108,-0.8636939208040962,9.32490513659287,3.115855558645653,-0.43333333333333335,-0.3977777777777778,-0.17222222222222222,-0.04753400647821601,-0.019494101326271277,-0.017736232632747227
1592167818.2295108,-0.8544239878647989,9.308324749824695,3.140789759307104,-0.43333333333333335,-0.3977777777777778,-0.17222222222222222,-0.07589201671514084,-0.013396390566326896,-0.015717304716836553
1592167818.2395108,-0.8737846337734174,9.31293293841966,3.224529047489618,-0.43333333333333335,-0.3977777777777778,-0.17222222222222222,-0.09730231681046812,-0.022500741302295763,-0.02961132254962439
1592167818.2495108,-0.9597624060295458,9.304321570991052,3.311958274557547,-0.43333333333333335,-0.3977777777777778,-0.17222222222222222,-0.11625520308278539,-0.04090913730177451,-0.034453931349112746
1592167818.2595108,-0.8778470932595003,9.29371179302923,3.316824759233381,-0.4323481112288459,-0.3977777777777778,-0.17338657561843465,-0.13110675360209978,-0.0606030682106951,-0.03373948986021211
1592167818.2695107,-0.9152189986967043,9.316748995610755,3.382567814024604,-0.4211111111111111,-0.3977777777777778,-0.18666666666666668,-0.14195019550448934,-0.08811140551731855,-0.03623158894530944
1592167818.2795107,-1.016888740958498,9.313407281456238,3.4294066441905153,-0.4211111111111111,-0.3977777777777778,-0.18666666666666668,-0.1462897147610873,-0.11349074199161127,-0.02754558989486708
1592167818.2895107,-1.0023023634807606,9.306485001182681,3.394209595867052,-0.4211111111111111,-0.3977777777777778,-0.18666666666666668,-0.15361504613034022,-0.14147035570724684,-0.007943644292753162
1592167818.2995107,-0.9618479154747055,9.264133057098158,3.420550409476764,-0.4211111111111111,-0.3977777777777778,-0.18666666666666668,-0.1657242639195124,-0.16823338031818044,-0.001092620153187074
1592167818.3095107,-0.85092849497554,9.257445784762407,3.4185762080723077,-0.41683465248042906,-0.3977777777777778,-0.18509112927641538,-0.17861820035783976,-0.18381109238331475,-0.010904812613089876
1592167818.3195107,-0.6104512933985229,9.235965279425526,3.338397914318784,-0.4,-0.3977777777777778,-0.17888888888888888,-0.20022439842220754,-0.16211861797329943,-0.0402406692437047
1592167818.3295107,-0.563950273137948,9.310492709710472,3.21479900855374,-0.4,-0.3977777777777778,-0.17888888888888888,-0.22755857394605847,-0.16345992590685682,-0.08429113237580613
1592167818.3395107,-0.6352692205697037,9.307276123450862,3.439180442004172,-0.4,-0.3977777777777778,-0.17888888888888888,-0.24184544551648737,-0.16131750679569554,-0.05720614118585587
1592167818.3495107,-0.4726319481614408,9.302268327007479,3.621811364076895,-0.4,-0.3977777777777778,-0.17888888888888888,-0.23751502405755226,-0.1432195879804176,-0.02220316517843223
1592167818.3595107,-0.4332555781267236,9.242385908073253,3.723526602076102,-0.4055535594519498,-0.40110991344894764,-0.1812954313180671,-0.22904663011153537,-0.14351353624798047,-0.008036463752019518
1592167818.3695107,-0.2649932812506478,9.115638012492838,3.8288238121662213,-0.43333333333333335,-0.4177777777777778,-0.19333333333333333,-0.2227220848329676,-0.09716485326918584,-0.03862516436483889
1592167818.3795106,-0.3557330426252101,9.261062648820376,3.84768170775078,-0.43333333333333335,-0.4177777777777778,-0.19333333333333333,-0.21257507314879553,-0.07286739232657757,-0.07070227150897883
1592167818.3895106,-0.46738921331555505,9.27857418763302,4.006491840659386,-0.43333333333333335,-0.4177777777777778,-0.19333333333333333,-0.18418070526040756,-0.055884795597246274,-0.07599654067133443
1592167818.3995106,-0.6320269489865813,9.21925423870639,3.945870315093934,-0.43333333333333335,-0.4177777777777778,-0.19333333333333333,-0.15674317355361403,-0.07544775399431844,-0.06614199381587631
1592167818.4095106,-0.8651877288933593,9.217015577998811,4.002846900945939,-0.43418302592757424,-0.4165882081458406,-0.1977517348233859,-0.13361114908518787,-0.09742048346065477,-0.04817890991884975
1592167818.4195106,-0.7408593532154514,9.291030898443204,3.920753139275276,-0.4388888888888889,-0.41,-0.2222222222222222,-0.11004606906499519,-0.10615457023904673,-0.031997165692950295
1592167818.4295106,-0.6363984688374402,9.220767108212346,3.6473948444840847,-0.4388888888888889,-0.41,-0.2222222222222222,-0.10111384513633322,-0.15478890265982542,-0.03868663189751507
1592167818.4395106,-0.4756169800140543,9.252764629669624,3.6943349209992,-0.4388888888888889,-0.41,-0.2222222222222222,-0.101364,-0.16497070029293454,-0.030080583472111167
1592167818.4495106,-0.22171513885030747,9.261909372023569,3.4764676475085863,-0.4388888888888889,-0.41,-0.2222222222222222,-0.10451947329108362,-0.15721014195291666,-0.05020769594925074
1592167818.4595106,-0.1648822687557835,9.179748686749514,3.6292717949406272,-0.43411087678672344,-0.41209038029469736,-0.22401397676053425,-0.11879403298555563,-0.16532692219321893,-0.04856662776773619
1592167818.4695106,-0.07423861470392833,9.191983607872498,3.6734416818949907,-0.4211111111111111,-0.4177777777777778,-0.2288888888888889,-0.14151547463414108,-0.15416927661189914,-0.010437019647414305
1592167818.4795105,0.11289924053768613,9.174060246532596,3.8864008980390254,-0.4211111111111111,-0.4177777777777778,-0.2288888888888889,-0.14985728216045205,-0.10728618086341236,-0.0019168000201103198
1592167818.4895105,0.08313177378079031,9.129175446333097,3.973378764135257,-0.4211111111111111,-0.4177777777777778,-0.2288888888888889,-0.14213650757117277,-0.10333111495409818,-0.009777833429313147
1592167818.4995105,0.08543264668724408,9.210706568995805,4.029557956252594,-0.4211111111111111,-0.4177777777777778,-0.2288888888888889,-0.12196457454401766,-0.06879764230378999,-0.0002206879120028541
1592167818.5095105,0.14039868636315905,9.158172117499777,4.151238491989986,-0.4301904349707855,-0.41868571016374523,-0.2300238043713482,-0.09573775682683532,-0.020706,-0.020688760386615337
1592167818.5195105,0.03037072018866753,9.125628261805362,4.152697034634875,-0.46555555555555556,-0.4222222222222222,-0.23444444444444446,-0.06772083166858477,-0.017502,-0.06393528512955507
1592167818.5295105,-0.19123770045082147,9.197502218408337,3.994760312636801,-0.46555555555555556,-0.4222222222222222,-0.23444444444444446,-0.048598310654906884,-0.019347601942590477,-0.06359413638688666
1592167818.5395105,-0.18500896913212028,9.095865818687315,3.9696677891176337,-0.46555555555555556,-0.4222222222222222,-0.23444444444444446,-0.04399745841228323,0.005539779784641978,-0.011919372944330474
1592167818.5495105,-0.018230314895831552,9.112393533112753,3.9545006355243624,-0.46555555555555556,-0.4222222222222222,-0.23444444444444446,-0.05353814850863508,-0.02394643545837919,0.01839791907729994
1592167818.5595105,0.06547463488359824,9.126992509151957,3.9666318709726447,-0.46555555555555556,-0.42328721622594934,-0.23577568694910336,-0.052368,-0.0011723483439345424,0.01597053040812836
1592167818.5695105,-0.05059973451364777,9.101717516411746,3.977392552393543,-0.46555555555555556,-0.4444444444444444,-0.26222222222222225,-0.050240304075058265,0.0017127117077575024,0.00021200983524567816
1592167818.5795105,-0.23060622243311257,9.17852540762241,4.065148234390371,-0.46555555555555556,-0.4444444444444444,-0.26222222222222225,-0.041909226034989616,-0.007982921482367091,0.00525333107118699
1592167818.5895104,-0.18937834128512204,9.157921431364361,4.057938401508506,-0.46555555555555556,-0.4444444444444444,-0.26222222222222225,-0.02402239362888462,0.014862487277285062,0.03894148727728506
1592167818.5995104,-0.03469255284002445,9.076692388655442,4.006105083230928,-0.46555555555555556,-0.4444444444444444,-0.26222222222222225,-0.011080681803600763,0.027781029712817575,0.0022790450687319476
1592167818.6095104,-0.22786780182307978,9.125719249023913,3.9516284811955575,-0.46602536551227836,-0.44303501457427596,-0.26284863549785265,-0.00787081158132302,0.027965854992644062,-0.0011530631407470314
1592167818.6195104,-0.23257753321969804,9.151364908118353,4.081238633085233,-0.4722222222222222,-0.42444444444444446,-0.27111111111111114,0.003160852705206989,0.02493059918276484,0.02345059918276484
1592167818.6295104,-0.02113001035117953,9.08729392634094,3.9928676119947735,-0.4722222222222222,-0.42444444444444446,-0.27111111111111114,0.01577588943717346,0.06441832415054344,0.008808675849456566
1592167818.6395104,-0.22015547156376994,9.163432975601733,3.7998127292851844,-0.4722222222222222,-0.42444444444444446,-0.27111111111111114,0.003010012061237856,0.019489076326302986,0.007457505250986946
1592167818.6495104,-0.2557360364963927,9.19637628643657,3.941022102605486,-0.4722222222222222,-0.42444444444444446,-0.27111111111111114,-0.001122115899818141,0.01215008799940186,0.08202090068287508
1592167818.6595104,0.05239754672250428,9.132327799106864,3.9028879937605687,-0.4722222222222222,-0.42444444444444446,-0.27111111111111114,0.0038227397689030913,0.036027214416660944,0.06862966829659697
1592167818.6695104,-0.05120309047648432,9.094511357312314,3.77891523048629,-0.4711111111111111,-0.45111111111111113,-0.28555555555555556,-0.006744129140623651,0.024155685158665768,0.02707630650172025
1592167818.6795104,-0.2597247407690676,9.199110455778717,3.7696850433544884,-0.4711111111111111,-0.45111111111111113,-0.28555555555555556,-0.020282278106567832,0.015617747896185943,0.03083408922860295
1592167818.6895103,-0.12808818760719243,9.122127869861668,3.9189756132464466,-0.4711111111111111,-0.45111111111111113,-0.28555555555555556,-0.020027798868075705,0.05608127517063335,0.031000724829366652
1592167818.6995103,-0.09396581319404246,9.115546279268827,3.8137963625681275,-0.4711111111111111,-0.45111111111111113,-0.28555555555555556,-0.02309859211016755,0.039667824185781866,0.007645
1592167818.7095103,-0.14390469111688692,9.173399399539276,3.8224588260023493,-0.4711111111111111,-0.45111111111111113,-0.28555555555555556,-0.03253009515201355,0.03568061456303789,0.021413614563037885
1592167818.7195103,-0.06906804901235797,9.115085894525214,3.863199438122524,-0.48444444444444446,-0.45111111111111113,-0.30666666666666664,-0.03650466968210118,0.049284495198151645,0.04942611186446379
1592167818.7295103,0.06500455340887537,9.068218620218301,3.858324568046644,-0.48444444444444446,-0.45111111111111113,-0.30666666666666664,-0.050765350752907,0.05567270249498969,0.05405184694619588
1592167818.7395103,0.1525921446473119,9.119200354666434,3.8711948541509087,-0.48444444444444446,-0.45111111111111113,-0.30666666666666664,-0.06096607194183274,0.05911528214477028,0.046030841700097774
1592167818.7495103,0.17560530978357844,9.057382964310541,3.8401184368027454,-0.48444444444444446,-0.45111111111111113,-0.30666666666666664,-0.07486033482512328,0.09257650240967717,0.019314606291503104
1592167818.7595103,-0.1172875758772328,9.152810991839866,3.8283708789821205,-0.48467597392125694,-0.45087958163429864,-0.30750017278319164,-0.09646099707581267,0.021927437869898724,0.04258613303276457
1592167818.7695103,-0.03908231373626054,9.129720794060914,4.266706816566944,-0.49,-0.44555555555555554,-0.32666666666666666,-0.08514033918214858,0.05556627413716027,0.08835621454817034
1592167818.7795103,0.010756272392006298,9.081900368040985,4.118966631959014,-0.49,-0.44555555555555554,-0.32666666666666666,-0.06700625997670716,0.0648528300883389,0.05705004661869902
1592167818.7895103,-0.20405895597999418,9.079953515062542,4.16012322329392,-0.49,-0.44555555555555554,-0.32666666666666666,-0.055017274003310856,0.05788006922314068,0.03879698930860649
1592167818.7995102,-0.21453924702284127,9.070016552379807,4.142556570577591,-0.49,-0.44555555555555554,-0.32666666666666666,-0.03365054864294869,0.09739172984837466,0.028946
1592167818.8095102,-0.22466516432155587,9.149370455397705,4.185415266524943,-0.49,-0.44555555555555554,-0.32666666666666666,-0.019604317615050725,0.0852768176049393,0.027153862148960792
1592167818.8195102,-0.08281402622222991,9.049449716946809,4.13947002622223,-0.4777777777777778,-0.44555555555555554,-0.35,0.0011746122738642115,0.13050677649550224,-0.0028313783748281163
1592167818.8295102,-0.18673278044794184,9.119871981836702,3.918022049203312,-0.4777777777777778,-0.44555555555555554,-0.35,-0.0024604515695819847,0.10617940008732231,-0.029466234685475386
1592167818.8395102,-0.38022958053442985,9.177620839325872,3.9876446487071,-0.4777777777777778,-0.44555555555555554,-0.35,-0.00975,0.07806678640909426,0.010022425518646932
1592167818.8495102,-0.2602956722685015,9.117898083556206,4.131821332164768,-0.4777777777777778,-0.44555555555555554,-0.35,-0.005823406629755586,0.07721761429198196,0.055820020921737545
1592167818.8595102,-0.15617635620377615,9.04703563479896,4.062109275197455,-0.4777777777777778,-0.44555555555555554,-0.35,0.002184148140254682,0.06459273773159624,0.04749645434718329
1592167818.8695102,-0.3792928886723942,9.116311181728017,4.14093497881153,-0.4711111111111111,-0.4533333333333333,-0.35,0.00813495691487004,0.04615452650035004,0.06891018119125658
1592167818.8795102,-0.13670690914128183,9.070141123856445,4.242924010791685,-0.4711111111111111,-0.4533333333333333,-0.35,0.028342900080248784,0.09735910515267382,0.0792752275043809
1592167818.8895102,-0.08985888918310975,9.058641133946885,4.0822324323699055,-0.4711111111111111,-0.4533333333333333,-0.35,0.03646020096588081,0.12042327665389843,0.03639751011634892
1592167818.8995101,-0.2462659543362268,9.144239988589272,4.122048111576749,-0.4711111111111111,-0.4533333333333333,-0.35,0.0444740532250534,0.11013897010399545,0.03355022678003115
1592167818.9095101,-0.2536957421260767,9.114836035822538,4.15074639553707,-0.4711111111111111,-0.4533333333333333,-0.35,0.06275682482105888,0.14155071953051124,0.045474193993687885
1592167818.9195101,-0.28919745603718394,9.124496385117066,3.8692568158507576,-0.49,-0.46555555555555556,-0.35555555555555557,0.056060448037100266,0.11149289037587229,0.046403029752247124
1592167818.92951,-0.48812285275119666,9.17280302424713,3.8645286413343705,-0.49,-0.46555555555555556,-0.35555555555555557,0.0455842880233979,0.0784052185088555,0.06997261706504065
1592167818.93951,-0.31148382996773605,9.157218149720961,3.82349689959536,-0.49,-0.46555555555555556,-0.35555555555555557,0.035098829874160235,0.09728034290651442,0.12657239529988268
1592167818.94951,-0.19083230923390238,9.121232264620511,3.6804870499896807,-0.49,-0.46555555555555556,-0.35555555555555557,0.012162172084422742,0.07324274310682709,0.1531433489488069
1592167818.95951,-0.021327556104839922,9.015582276822693,3.7534314430713236,-0.49,-0.46555555555555556,-0.35555555555555557,-0.01160162810009795,0.09802588932554374,0.12766954616690743
1592167818.96951,-0.060512926609403855,9.055573935215378,3.690355485208301,-0.49777777777777776,-0.4666666666666667,-0.38333333333333336,-0.039261989082794296,0.13520070366511108,0.08225877157559985
1592167818.97951,-0.19457927253200577,9.130957254897162,3.750221730532304,-0.49777777777777776,-0.4666666666666667,-0.38333333333333336,-0.05986913276695298,0.1294486532587071,0.06572933989200506
1592167818.98951,-0.05318765554527198,9.074425378372364,3.959134592414813,-0.49777777777777776,-0.4666666666666667,-0.38333333333333336,-0.063328917550178,0.1641240461110125,0.07081742129370586
1592167818.99951,0.02325548203607273,9.084372246464484,3.8603771181391555,-0.49777777777777776,-0.4666666666666667,-0.38333333333333336,-0.06526472537773692,0.18002472739286365,0.02995391273207531
1592167819.00951,-0.16290780280227737,9.114453908012637,3.898599232712317,-0.49777777777777776,-0.4666666666666667,-0.38333333333333336,-0.08537414700055068,0.12420370599889863,0.04125917812038185
1592167819.01951,-0.0562863159764993,9.07656132903378,3.9461218073633293,-0.49,-0.4666666666666667,-0.39111111111111113,-0.08407522615740455,0.15574781914116684,0.05606254768519091
1592167819.02951,-0.09097065550016131,9.094945655337575,3.8037490212444096,-0.49,-0.4666666666666667,-0.39111111111111113,-0.1039532831101447,0.10949711404695248,0.04519456759044577
1592167819.03951,-0.1820212129394058,9.126819819941955,3.904207251434137,-0.49,-0.4666666666666667,-0.39111111111111113,-0.11917563866179182,0.07186918115874368,0.057279411867079966
1592167819.04951,-0.13839917874880833,9.148923932579905,3.80927383832333,-0.49,-0.4666666666666667,-0.39111111111111113,-0.12866220623281158,0.06565043521332473,0.054843546022429336
1592167819.05951,0.00443949823093577,9.151400836913712,3.7858857274187607,-0.49,-0.4666666666666667,-0.39111111111111113,-0.14327638244707022,0.02125807413899889,0.028430996631327903
1592167819.06951,-0.03164460749593222,9.103958,3.869793308504308,-0.4777777777777778,-0.4811111111111111,-0.43333333333333335,-0.14483542283228376,0.009324577167716232,-0.028165480331051547
1592167819.07951,-0.09172545453711636,9.119899459454416,3.9521718229249982,-0.4777777777777778,-0.4811111111111111,-0.43333333333333335,-0.14888903005702148,-0.001196679998346998,-0.04478806011404294
1592167819.08951,-0.034439916040552465,9.107042325291745,4.0697854845964745,-0.4777777777777778,-0.4811111111111111,-0.43333333333333335,-0.14665032141845216,-0.02727605523678519,-0.028591060218637238
1592167819.09951,0.06213058370214046,9.036881252195931,4.1600528727969674,-0.4777777777777778,-0.4811111111111111,-0.43333333333333335,-0.13844771027377983,-0.014796512111882779,-0.018889233323317767
1592167819.10951,0.19828221692940748,9.093821553168834,4.214385324969823,-0.4777777777777778,-0.4811111111111111,-0.43333333333333335,-0.1299251465878406,-0.021662007389428698,-0.01595742301136536
1592167819.11951,0.22505870610426862,9.024864378014223,4.333358490914118,-0.49,-0.4666666666666667,-0.41888888888888887,-0.10937366406482639,0.009112415960770958,-0.030699050885272344
1592167819.12951,0.0743002125663274,9.038494337004089,4.260878411637401,-0.49,-0.4666666666666667,-0.41888888888888887,-0.10232242335019513,-0.013514946902729625,-0.012239339967608532
1592167819.13951,0.07365963406928772,9.098910068849014,4.310185106590869,-0.49,-0.4666666666666667,-0.41888888888888887,-0.08464913549376493,0.005378200333140196,0.021264085194513577
1592167819.14951,0.20599283691959427,9.135561419163228,4.336321831188487,-0.49,-0.4666666666666667,-0.41888888888888887,-0.05901395825115273,0.024226393057181713,0.030103487562622537
1592167819.15951,0.21872178349177832,9.02554526807587,4.248999806105725,-0.49,-0.4666666666666667,-0.41888888888888887,-0.03941038810933189,0.04807371274190024,0.03557737472610001
1592167819.16951,0.14042965989448034,9.134165473684835,4.140584253447875,-0.49,-0.4811111111111111,-0.4388888888888889,-0.03291390259300663,0.006513997420402402,0.03350239772866921
1592167819.1795099,0.23665614744548608,9.04793921943548,4.335435401864797,-0.49,-0.4811111111111111,-0.4388888888888889,-0.004397050022976997,0.06679474219901137,0.0007956131820364785
1592167819.1895099,0.11066718423737598,9.132717732508533,4.183602280660829,-0.49,-0.4811111111111111,-0.4388888888888889,0.016508819577336693,0.07039499455423316,-0.05289718586843015
1592167819.1995099,-0.13272831578017436,9.13904482369518,4.379200196790619,-0.49,-0.4811111111111111,-0.4388888888888889,0.059028662074301644,0.06075055244873304,-0.07219382578992813
1592167819.2095098,-0.14492861781858862,9.147333577160936,4.273648315167789,-0.49,-0.4811111111111111,-0.4388888888888889,0.0914094135149365,0.09309772759701058,-0.04485534331967578
1592167819.2195098,-0.166944141291155,9.145901404389804,4.255411725388127,-0.49,-0.4811111111111111,-0.4716474625791142,0.11801406073717467,0.025627601431152825,-0.010389250070234647
1592167819.2295098,-0.004615601893439403,9.12154904139247,4.2754432537015905,-0.49,-0.4811111111111111,-0.47444444444444445,0.1506752012287193,0.08668139884122769,0.01658853476260957
1592167819.2395098,0.009755341345382813,9.111354175873512,4.126631228976375,-0.49,-0.4811111111111111,-0.47444444444444445,0.1677218190243855,0.04440990232723939,0.02853977149341368
1592167819.2495098,-0.012723338407914337,9.138281831394192,4.068310876277495,-0.49,-0.4811111111111111,-0.47444444444444445,0.16238508935145274,0.024504863382351926,0.07369397223024299
1592167819.2595098,0.34405991221196086,9.24396708663138,4.176040192734996,-0.49,-0.4811111111111111,-0.47444444444444445,0.1810140822797084,0.04636390665692385,0.11916950241886316
1592167819.2695098,0.38301080828460343,9.070539495900166,4.008149035461118,-0.47899395071129003,-0.48311221098178564,-0.47444444444444445,0.20498135915884552,0.05702663915682418,0.09916821963974591
1592167819.2795098,0.17686313090539652,9.159556501508867,3.855489789372529,-0.4777777777777778,-0.48333333333333334,-0.47444444444444445,0.18561403568895157,0.006378865713214761,0.11898006695383423
1592167819.2895098,0.3231923009841699,9.1236469111512,3.9338115065823906,-0.4777777777777778,-0.48333333333333334,-0.47444444444444445,0.20554031772642437,0.11249437619178689,0.0896428872992634
1592167819.2995098,0.21320220619621236,9.117223807694552,4.005874390859674,-0.4777777777777778,-0.48333333333333334,-0.47444444444444445,0.2226510598391016,0.049847661170146426,-0.002408936503618023
1592167819.3095098,-0.08171375141279641,9.124878157633484,3.9764255239672672,-0.4777777777777778,-0.48333333333333334,-0.47444444444444445,0.24052081673807812,0.0677614683256162,-0.05075705118110635
1592167819.3195097,-0.14337335223793016,9.15939913605132,3.81199855570356,-0.49,-0.49,-0.4955555555555556,0.23636862199227868,0.0018164082629235634,-0.053195462776800644
1592167819.3295097,-0.07504530521673136,9.11902777505468,3.7785317349906964,-0.49,-0.49,-0.4955555555555556,0.22072082837417792,-0.04154618970964895,-0.03368171074497481
1592167819.3395097,0.07139443495705063,9.082526278004254,3.5432213868512976,-0.49,-0.49,-0.4955555555555556,0.19185558054229732,-0.03574196215776673,-0.032941775664319044
1592167819.3495097,0.03400531230068986,9.093181343849656,3.428721027529548,-0.49,-0.49,-0.4955555555555556,0.14149348036889348,-0.13738733085193094,-0.03057226202468037
1592167819.3595097,0.13130257046827054,9.127531449283586,3.451354230341441,-0.49,-0.49,-0.4955555555555556,0.08495348100362982,-0.09102195851950319,0.0038572828518235527
1592167819.3695097,0.33118710467375806,9.038249560434593,3.3948285807907546,-0.4868623301745024,-0.4837246603490048,-0.5018308952065508,0.03838501917126045,-0.08461078578029865,-0.014045202209475733
1592167819.3795097,0.21497725693205666,9.081467980227524,3.5223801912210995,-0.4866666666666667,-0.48333333333333334,-0.5022222222222222,-0.019972080589630025,-0.14631119373367554,-0.039590839315393145
1592167819.3895097,0.2039621487368171,8.991828517376266,3.608076525614536,-0.4866666666666667,-0.48333333333333334,-0.5022222222222222,-0.061289062027435684,-0.04710906230590284,-0.05696901305478588
1592167819.3995097,-0.005443231511577807,9.108293725084877,3.6968018671987806,-0.4866666666666667,-0.48333333333333334,-0.5022222222222222,-0.10059404438490653,-0.16233827741688142,-0.04461826093384716
1592167819.4095097,0.16150423828891633,9.067254825501749,3.959915913415699,-0.4866666666666667,-0.48333333333333334,-0.5022222222222222,-0.10050545162989333,-0.06798575584640715,-0.015128903259786653
1592167819.4195096,0.40402472835399394,9.087518675920334,3.7171768671940275,-0.4800326155347535,-0.48996738446524646,-0.4933768207130047,-0.11213928634930667,-0.06489501840608762,-0.02017528634930667
1592167819.4295096,0.4182009374790418,9.034147881577619,3.747883016001642,-0.48,-0.49,-0.49333333333333335,-0.15110670521491693,-0.05181348392469903,-0.026932031305490656
1592167819.4395096,0.36315057381251103,9.064259142547025,3.759972382679204,-0.48,-0.49,-0.49333333333333335,-0.17738134948586473,-0.028862494210027463,-0.017929
1592167819.4495096,0.5284916692249267,9.018091454971168,3.9701182825133006,-0.48,-0.49,-0.49333333333333335,-0.18639802140061204,0.05696073143241978,-0.07403493564248806
1592167819.4595096,0.20611579955352982,8.94936807316088,4.025050852701296,-0.48,-0.49,-0.49333333333333335,-0.20043900187113772,0.04625234565525749,-0.13464339831122263
1592167819.4695096,-0.2253978441108877,9.083734455167225,4.255682488020719,-0.4730746245918724,-0.49989339344018224,-0.5002587087414608,-0.212740604563251,0.028304284899040473,-0.06614455329734018
1592167819.4795096,0.0417795874140338,9.141741663100868,4.38742306698967,-0.4722222222222222,-0.5011111111111111,-0.5011111111111111,-0.19521262253954555,0.05450157356235358,0.025013115670614948
1592167819.4895096,0.2298701471174317,9.059177177801066,4.4755751076346915,-0.4722222222222222,-0.5011111111111111,-0.5011111111111111,-0.155298028662608,0.05338756092797187,0.025769635134853235
1592167819.4995096,0.0856354526011952,9.090921963263561,4.375468070343052,-0.4722222222222222,-0.5011111111111111,-0.5011111111111111,-0.13340645829702422,0.047387579186126454,0.05024688371899909
1592167819.5095096,0.12398825431719016,9.119995938273142,4.296495617224605,-0.4722222222222222,-0.5011111111111111,-0.5011111111111111,-0.09381368287310055,0.06516991406790623,0.05525254296604688
1592167819.5195096,0.06554995611301344,9.062799928517311,4.1773841040194375,-0.4722222222222222,-0.5011111111111111,-0.5281364814499498,-0.07536879778922956,0.06320853384817703,0.044922
1592167819.5295095,0.0729397955737015,9.124421317877742,4.071045510705303,-0.4722222222222222,-0.5011111111111111,-0.5366666666666666,-0.07555681692556304,0.08472863612053774,0.050416475269485284
1592167819.5395095,0.20468449168163524,8.991591723127778,4.178774615531196,-0.4722222222222222,-0.5011111111111111,-0.5366666666666666,-0.0689535411399236,0.1298763709020696,0.04218421504712692
1592167819.5495095,0.08425561189531389,9.065075468038794,4.2082780221838885,-0.4722222222222222,-0.5011111111111111,-0.5366666666666666,-0.07121633045985507,0.07878866091971014,0.04195120773121221
1592167819.5595095,0.190899640417387,9.115898758242786,4.349198265291296,-0.4722222222222222,-0.5011111111111111,-0.5366666666666666,-0.055467567721246,0.12573569114993108,0.08264281320951436
1592167819.5695095,0.3884089898563818,9.045554106199534,4.26488990472033,-0.4581444673555007,-0.49531438851893167,-0.554056834443205,-0.02582832586630477,0.1334459826786961,0.038131354625020035
1592167819.5795095,0.09813370657730458,9.047640516769407,4.217526291111501,-0.4533333333333333,-0.49333333333333335,-0.56,-0.014287690250020885,0.09294155108913084,0.011346327447982594
1592167819.5895095,0.1282717350158602,9.132609731509206,4.086534468835011,-0.4533333333333333,-0.49333333333333335,-0.56,-0.001006221461381623,0.134827,0.014019566990896291
1592167819.5995095,0.08465106023166694,9.094352921314249,3.9504664232458135,-0.4533333333333333,-0.49333333333333335,-0.56,-0.003975117507311193,0.11268546252015185,-0.014926984790783429
1592167819.6095095,-0.16102857903870013,9.068848633860883,4.059213755079101,-0.4533333333333333,-0.49333333333333335,-0.56,-0.009924191042710051,0.07395055570784734,0.0017231357340603318
1592167819.6195095,-0.18416293855427154,9.125709988629032,4.130561268335129,-0.4759809274954496,-0.5056007801711463,-0.5703801473243033,-0.003886604963023158,0.0551688103731279,0.023183864256940086
1592167819.6295094,-0.12790632273697752,9.1012456375657,4.234885446987348,-0.48,-0.5077777777777778,-0.5722222222222222,0.021366418506525684,0.025218314218981314,0.02137749681411039
1592167819.6395094,-0.08166749065356214,9.088630129967216,4.192956273258327,-0.48,-0.5077777777777778,-0.5722222222222222,0.03321179637071069,-0.03247613551357649,0.04883293584785622
1592167819.6495094,0.18185323302907103,9.053761347702132,4.086727786043397,-0.48,-0.5077777777777778,-0.5722222222222222,0.042435,-0.01741251085835545,0.02164901209884443
1592167819.6595094,0.116435395584741,9.017211685852883,4.10136173473253,-0.48,-0.5077777777777778,-0.5722222222222222,0.040227606973765734,-0.07552178962719425,-0.000885
1592167819.6695094,0.24866786270779778,9.066813541732596,4.175433639450421,-0.4544493380573009,-0.5028324883695134,-0.5631558583070709,0.052037956612172885,-0.003651082649663125,-0.017961751119416603
1592167819.6795094,0.18327165500817177,9.031894402488234,4.009100944575968,-0.44555555555555554,-0.5011111111111111,-0.56,0.05115124034223173,-0.04283414565735213,-0.07592025803590274
1592167819.6895094,-0.0008243854670585346,9.048569286623398,4.032140606234966,-0.44555555555555554,-0.5011111111111111,-0.56,0.032268492378524465,-0.04370136015753379,-0.07085443219912244
1592167819.6995094,0.01512268481794119,9.074297699507278,3.992221083397674,-0.44555555555555554,-0.5011111111111111,-0.56,0.028772640250247686,-0.043173960686999156,-0.06097485315195175
1592167819.7095094,0.1855522156438028,9.053197666547128,4.086626924740138,-0.44555555555555554,-0.5011111111111111,-0.56,0.015206455491545062,-0.054888972247295525,-0.06162164162559075
1592167819.7195094,0.10736602004787385,9.057729788027691,4.0463404118227935,-0.43417093313829463,-0.5064685804839397,-0.5626787346864144,0.01886115876601414,-0.07403284443910604,-0.08717434847541318
1592167819.7295094,-0.050564210988018596,9.049220226728705,4.133985708910677,-0.4266666666666667,-0.51,-0.5644444444444444,0.013687,-0.12562513573961254,-0.08254753992699314
1592167819.7395093,-0.051928851826523625,9.129772530145294,4.149531479053986,-0.4266666666666667,-0.51,-0.5644444444444444,0.029288898170654935,-0.12726675563044332,-0.06489435512389188
1592167819.7495093,0.08790581545511934,9.132105887122064,4.101999705851824,-0.4266666666666667,-0.51,-0.5644444444444444,0.04233495794382107,-0.14689602193948398,-0.05580555504468678
1592167819.7595093,0.2269462292360347,9.058526396374136,4.034976143740357,-0.4266666666666667,-0.51,-0.5644444444444444,0.045901016225419033,-0.1319967373461822,-0.04101712870849788
1592167819.7695093,0.3147894635360424,9.102139907094381,3.9226325287891215,-0.41734819251072763,-0.5146592370779696,-0.5706567605484039,0.04272480997356493,-0.11646559945015728,-0.01839314903248989
1592167819.7795093,0.5432483660423258,9.149499647052883,3.932216872546385,-0.41333333333333333,-0.5166666666666667,-0.5733333333333334,0.02879295415888629,-0.06542512050986216,-0.0002497925573452862
1592167819.7895093,0.5695268605375641,9.084170889533905,3.8791768643182007,-0.41333333333333333,-0.5166666666666667,-0.5733333333333334,0.03176859175459102,-0.05083252040716614,-0.028998509629870644
1592167819.7995093,0.371585913672428,9.109544649158716,3.966275230008231,-0.41333333333333333,-0.5166666666666667,-0.5733333333333334,0.019753140984791088,-0.06261074862318558,-0.017911207975971215
1592167819.8095093,0.4597180927235412,9.13512278808859,3.9506364350122456,-0.41333333333333333,-0.5166666666666667,-0.5733333333333334,0.02072802100827213,-5.073062006938703e-05,0.02821299965183103
1592167819.8195093,0.7216573934678576,9.084004082790218,3.9177816931737515,-0.41463604103298146,-0.5238315590147313,-0.5726819794835093,0.01545568586953948,0.04518338860436965,0.023308155002205976
1592167819.8295093,0.6287156282655408,9.046509,3.8689111081795113,-0.41555555555555557,-0.5288888888888889,-0.5722222222222222,-0.0031844725249951743,0.05167002202516098,0.005508
1592167819.8395092,0.49659651933227345,9.014175378232755,3.9802880864842636,-0.41555555555555557,-0.5288888888888889,-0.5722222222222222,-0.015342094324945795,0.08575526920430601,1.8306031394611788e-05
1592167819.8495092,0.4164691945392021,9.06560873642026,3.796487588202622,-0.41555555555555557,-0.5288888888888889,-0.5722222222222222,-0.035539771683844056,0.10188776658452742,0.00986572219894224
1592167819.8595092,0.3400896493216099,9.020578526307718,3.879771071975047,-0.41555555555555557,-0.5288888888888889,-0.5722222222222222,-0.061213925940899694,0.07403035007399358,0.015595512026586194
1592167819.8695092,0.39224963828466325,9.061040993472327,3.8558427340590327,-0.41555555555555557,-0.5148916217370887,-0.5798040752627807,-0.08970615324761981,0.08910627601869478,0.026731829852223023
1592167819.8795092,0.5037776234694276,9.066212585909069,3.984649160936277,-0.41555555555555557,-0.5022222222222222,-0.5866666666666667,-0.10379189755422658,0.08546243040186623,0.024103782651838657
1592167819.8895092,0.5460685187216007,9.08204883456016,3.9884500708310253,-0.41555555555555557,-0.5022222222222222,-0.5866666666666667,-0.11030420979834947,0.09861775592272654,0.01382990799406981
1592167819.8995092,0.4095975882170665,9.11696394289964,3.9769374527850143,-0.41555555555555557,-0.5022222222222222,-0.5866666666666667,-0.116287,0.07381277093495403,0.00832420552687653
1592167819.9095092,0.29644892012353274,9.05571821078197,4.1194873047075795,-0.41555555555555557,-0.5022222222222222,-0.5866666666666667,-0.11414827279225974,0.09115415608756777,0.00906762350916051
1592167819.9195092,0.23773139540292945,9.095465859243467,4.163231452627048,-0.40335215119995144,-0.5088323995815078,-0.5871751418481501,-0.10373620692010252,0.06787236795222665,0.02723927200261947
1592167819.9295092,0.2726357045448634,9.06847997156389,4.230262959059967,-0.3888888888888889,-0.5166666666666667,-0.5877777777777777,-0.08708610999700324,0.06085964314667685,0.0701427664559961
1592167819.9395092,0.47208562987713104,9.11179517117753,4.211333952824641,-0.3888888888888889,-0.5166666666666667,-0.5877777777777777,-0.08025446285529816,0.0654389180663664,0.0800073494589749
1592167819.9495091,0.5519231850753227,9.024129911001541,4.2102228363414635,-0.3888888888888889,-0.5166666666666667,-0.5877777777777777,-0.06587387104014168,0.090234553928402,0.0516375277546906
1592167819.9595091,0.4190592722447149,9.056387454831752,4.150376123496043,-0.3888888888888889,-0.5166666666666667,-0.5877777777777777,-0.0638119064011673,0.040024,0.029619122460606915
1592167819.9695091,0.35255779373415425,9.030748276604513,4.166253415460662,-0.3852628322205256,-0.5166666666666667,-0.575086579438506,-0.057496419594226786,0.054670552293188464,0.04657974121731965
1592167819.979509,0.6476457420429618,9.011783347328386,4.247770756372524,-0.38222222222222224,-0.5166666666666667,-0.5644444444444444,-0.04670542668474537,0.1078007687688739,0.03920815389302063
1592167819.989509,0.6813700885917765,8.98595807146325,4.184472915021664,-0.38222222222222224,-0.5166666666666667,-0.5644444444444444,-0.04930331442710356,0.12815437114579287,0.006671625229356949
1592167819.999509,0.4613694751707407,9.086867643759055,4.202674482739082,-0.38222222222222224,-0.5166666666666667,-0.5644444444444444,-0.04634199313316795,0.1407525811980243,0.008745830670803803
1592167820.009509,0.3137864059355697,9.02685210161563,4.275796163661317,-0.38222222222222224,-0.5166666666666667,-0.5644444444444444,-0.03411092404573018,0.1345377989638198,0.03577327699045004
1592167820.019509,0.24036274005957628,9.041818377994323,4.226123446244127,-0.3777910714717328,-0.5166666666666667,-0.5726737244096392,-0.026347814566650717,0.11582158723795558,0.05185071578744012
1592167820.029509,0.18098857565923565,9.031056879491565,4.262833343629685,-0.37444444444444447,-0.5166666666666667,-0.5788888888888889,-0.00857956882873333,0.07926771738505356,0.07159766289389663
1592167820.039509,0.3229039943071407,9.032768610917433,4.236429427274417,-0.37444444444444447,-0.5166666666666667,-0.5788888888888889,-0.001236,0.07932870947483969,0.07474215673346417
1592167820.049509,0.4780137411567332,9.015604056362353,4.067520034860686,-0.37444444444444447,-0.5166666666666667,-0.5788888888888889,-7.839850331421748e-05,0.09151314753875597,0.07896519925165711
1592167820.059509,0.5600273061633282,8.972537644040589,4.164841885584683,-0.37444444444444447,-0.5166666666666667,-0.5788888888888889,-0.01052756587446755,0.06840770149906969,0.05637246137725846
1592167820.069509,0.4766291642919183,9.027206665561495,4.220019816368106,-0.3774981745962207,-0.513176689350351,-0.5788888888888889,-0.005694316246320549,0.08379475237233927,0.036141531759091516
1592167820.079509,0.33154510255334685,9.0557824644869,4.2340102510903135,-0.38222222222222224,-0.5077777777777778,-0.5788888888888889,0.0022520928717551193,0.05809200677144954,0.048453965827017886
1592167820.089509,0.45035901789697713,9.001953491473914,4.26881645282294,-0.38222222222222224,-0.5077777777777778,-0.5788888888888889,0.00680873322097759,0.08543304476025843,0.059259844230359585
1592167820.099509,0.5370082080409007,9.010621744118248,4.278620671755226,-0.38222222222222224,-0.5077777777777778,-0.5788888888888889,0.014361729222730915,0.0700296513252714,0.05946405404043057
1592167820.109509,0.6391698508362941,9.01347498991946,4.325373807338663,-0.38222222222222224,-0.5077777777777778,-0.5788888888888889,0.02493705962275345,0.121510255335589,0.039672008656759884
1592167820.119509,0.5513224365842082,9.060306152018413,4.28373098923035,-0.377258277981867,-0.510673411917985,-0.5817845230290961,0.04145398360908149,0.08434484667903852,0.015094104766598386
1592167820.129509,0.43224530310542486,9.04673662004775,4.204965451014317,-0.3688888888888889,-0.5155555555555555,-0.5866666666666667,0.05385631873209382,0.0858773976710892,-0.000846429373361512
1592167820.139509,0.28351321878918945,9.049612374988932,4.090388922811359,-0.3688888888888889,-0.5155555555555555,-0.5866666666666667,0.048828,0.03371799941548705,0.007662655014498717
1592167820.149509,0.2932407136565407,8.986380791990502,4.099870594453164,-0.3688888888888889,-0.5155555555555555,-0.5866666666666667,0.045559325158091364,0.013228396335301724,0.012476581606378438
1592167820.159509,0.3411264181369807,9.023957144269309,4.04748049505438,-0.3688888888888889,-0.5155555555555555,-0.5866666666666667,0.037497889273374586,0.017249635924677528,0.004083585528573306
1592167820.169509,0.35660652434271684,9.05039626217136,3.9704847562790477,-0.3663573093606504,-0.5155555555555555,-0.5900421060376513,0.022239461501852274,0.011400351913099554,0.004164427583021475
1592167820.179509,0.3445861709948501,9.03375058974838,4.0843565927701695,-0.3622222222222222,-0.5155555555555555,-0.5955555555555555,0.011321513151976458,0.004295075123880901,0.011902
1592167820.189509,0.4166405121116406,9.084311004448397,4.09751646810174,-0.3622222222222222,-0.5155555555555555,-0.5955555555555555,0.008080127824284881,0.009398150972402396,0.010047872175715117
1592167820.199509,0.43746120944909983,9.0596876916275,4.204240972362995,-0.3622222222222222,-0.5155555555555555,-0.5955555555555555,0.018158135233872424,0.022312978002324964,0.0005501878578042638
1592167820.209509,0.4327198935535356,9.095683001232024,4.031940594209023,-0.3622222222222222,-0.5155555555555555,-0.5955555555555555,0.01951392176089313,-0.0035883800023085166,-0.007420243362629939
1592167820.219509,0.3372442061316405,9.02841922486776,4.120465621827976,-0.35963771054694893,-0.5177424500500176,-0.5939650868323104,0.015813730783345675,-0.03511143881987109,-0.007281921322426285
1592167820.2295089,0.44702318548640907,9.051297906322437,4.116885310566331,-0.3477777777777778,-0.5277777777777778,-0.5866666666666667,0.014814373262724959,-0.03401608615598919,-0.014261963884628151
1592167820.2395089,0.44544938597604034,8.986530682625183,4.112368099152176,-0.3477777777777778,-0.5277777777777778,-0.5866666666666667,0.008143581930569894,-0.06711188650053486,-0.03397820582351071
1592167820.2495089,0.41823120352999793,9.100796011295575,4.140042857032526,-0.3477777777777778,-0.5277777777777778,-0.5866666666666667,0.008426400447394185,-0.06797497505951841,-0.048265720199096904
1592167820.2595088,0.41460712460292204,9.137719523511043,4.261934206127595,-0.3477777777777778,-0.5277777777777778,-0.5866666666666667,0.025429609348869696,-0.0829708959842388,-0.054551526003940295
1592167820.2695088,0.449865222255016,9.070451283662743,4.317283146568098,-0.3498939766823278,-0.5238709490309162,-0.5871550202600243,0.05055384855474355,-0.0725202677442056,-0.062069511435315305
1592167820.2795088,0.3801508417900218,9.077570897465034,4.267308523579502,-0.3622222222222222,-0.5011111111111111,-0.59,0.07121972726823071,-0.08358051556609022,-0.07191400046233921
1592167820.2895088,0.3026555533954446,9.03811087189805,4.247796110483235,-0.3622222222222222,-0.5011111111111111,-0.59,0.08416504871614659,-0.093470144760151,-0.060258140546952194
1592167820.2995088,0.4189754598027038,9.080299762125447,4.0793014772355445,-0.3622222222222222,-0.5011111111111111,-0.59,0.09114364898787636,-0.09632021058188628,-0.025101401808770726
1592167820.3095088,0.45041648703324,9.064466996058393,3.902593376523554,-0.3622222222222222,-0.5011111111111111,-0.59,0.07838565291895311,-0.11684585247541678,-0.018460752697184935
1592167820.3195088,0.46881363876060195,9.041675458345505,3.9091032295195927,-0.3607792940512712,-0.5068828237949151,-0.5863926795726224,0.05448056697284039,-0.09486995268304513,-0.02277334019347674
1592167820.3295088,0.4858360568027687,9.098314176053357,3.853964143668016,-0.35555555555555557,-0.5277777777777778,-0.5733333333333334,0.03478456912147759,-0.09313169571913228,-0.029404629787175517
1592167820.3395088,0.4262973294536038,9.077069306287981,3.9329522519393065,-0.35555555555555557,-0.5277777777777778,-0.5733333333333334,0.02216396727053464,-0.08049988265805394,-0.07005800982109424
1592167820.3495088,0.2299886902738807,9.158381027505005,4.059195392717903,-0.35555555555555557,-0.5277777777777778,-0.5733333333333334,0.021787173540960252,-0.09715512220055114,-0.09847817354096025
1592167820.3595088,-0.015053965073544368,9.051349871611578,4.266204738783794,-0.35555555555555557,-0.5277777777777778,-0.5733333333333334,0.039279881088244276,-0.11522376039443535,-0.10367979668887138
1592167820.3695087,-0.03173703544329103,9.09285526981895,4.337142866321575,-0.35555555555555557,-0.5301123915208422,-0.5680273930081869,0.0660491445583721,-0.1447717692079716,-0.07594101357385437
1592167820.3795087,0.03895303999585464,9.055194446995825,4.252259611499278,-0.35555555555555557,-0.54,-0.5455555555555556,0.0885767261243411,-0.14601289014340413,-0.06865914007269246
1592167820.3895087,0.08198952563148741,9.058039061173906,4.203315104334585,-0.35555555555555557,-0.54,-0.5455555555555556,0.09683681246267212,-0.17487527527306787,-0.050949
1592167820.3995087,0.19789673033868355,9.0489143040999,4.045411194824724,-0.35555555555555557,-0.54,-0.5455555555555556,0.09781350938858839,-0.16562909849298263,-0.0626934906114116
1592167820.4095087,0.20928128473954932,9.056819819395322,3.9655496759508297,-0.35555555555555557,-0.54,-0.5455555555555556,0.0862567690303469,-0.18459454970508082,-0.0617357690303469
1592167820.4195087,0.26193473469321144,9.070183796115106,3.906260794359309,-0.35738024378978656,-0.5383273691186217,-0.5484446452597547,0.07470414115529556,-0.16085232957183862,-0.048964425037004065
1592167820.4295087,0.28877204828203595,9.037370108238234,3.9283862471620057,-0.3688888888888889,-0.5277777777777778,-0.5666666666666667,0.06307324452191901,-0.149987244521919,-0.06942568043627105
1592167820.4395087,0.21582665299420176,9.103905416654142,4.063796551771904,-0.3688888888888889,-0.5277777777777778,-0.5666666666666667,0.06542628052309546,-0.11510791931208297,-0.04886175920616957
1592167820.4495087,0.20972847129601654,9.077407556484971,4.052828693977877,-0.3688888888888889,-0.5277777777777778,-0.5666666666666667,0.06203586960787671,-0.09452404106831093,-0.05066842026141553
1592167820.4595087,0.15378209146627944,9.06344690800082,4.188676379403789,-0.3688888888888889,-0.5277777777777778,-0.5666666666666667,0.0723277016406652,-0.07506682616093285,-0.03451327210279558
1592167820.4695086,0.16483341737162058,9.100113901230616,4.160120789951835,-0.3688888888888889,-0.5277777777777778,-0.5666666666666667,0.08640530713475784,-0.05429773216764559,-0.0282927583728846
1592167820.4795086,0.19836224855468673,9.09259,4.105210769261197,-0.35555555555555557,-0.5333333333333333,-0.5455555555555556,0.09543211477061708,-0.06207954300351683,0.0027835965650222626
1592167820.4895086,0.3225618338761308,9.102496894160726,4.039440058942928,-0.35555555555555557,-0.5333333333333333,-0.5455555555555556,0.10158405124797765,-0.04435417131704211,-0.0017740117258408404
1592167820.4995086,0.29904682183352266,9.080167948781986,4.009293103311776,-0.35555555555555557,-0.5333333333333333,-0.5455555555555556,0.1082043077218072,-0.035484820883355486,-0.01700116658464743
1592167820.5095086,0.24445648027051675,9.113509875799119,3.971207,-0.35555555555555557,-0.5333333333333333,-0.5455555555555556,0.1046634309535564,-0.007724402452984187,-0.01341251292499479
1592167820.5195086,0.21247561508495713,9.08750022932081,3.9835056590523563,-0.35555555555555557,-0.5333333333333333,-0.5455555555555556,0.10166192488284041,0.013646025299872466,-0.014432674384856991
1592167820.5295086,0.127565330477305,9.072523161630999,4.004234566928332,-0.3422222222222222,-0.5333333333333333,-0.5377777777777778,0.09714007346541359,0.04309036046904631,-0.020345816289019266
1592167820.5395086,-0.05275016118945819,9.070486469731428,4.024217796002676,-0.3422222222222222,-0.5333333333333333,-0.5377777777777778,0.095703,0.061467237911172284,-0.018011391390963975
1592167820.5495086,-0.17269964497155815,9.096763387372407,3.991176991222737,-0.3422222222222222,-0.5333333333333333,-0.5377777777777778,0.09826366096107096,0.061749660961070964,0.014073219017371814
1592167820.5595086,-0.1507489425165664,9.120263006814689,3.919059341041941,-0.3422222222222222,-0.5333333333333333,-0.5377777777777778,0.097839,0.05372353633986228,0.035787558929808866
1592167820.5695086,0.015269229191405262,9.140849779147079,3.9035942956922063,-0.342828194827614,-0.5339393059387251,-0.5384342481002856,0.09775723178760189,0.04157011589380095,0.04328719010877565
1592167820.5795085,0.14809243578311843,9.15851543777232,3.8837035073703445,-0.35555555555555557,-0.5466666666666666,-0.5522222222222222,0.09729190964156337,0.03840890964156336,0.039597
1592167820.5895085,0.25721289969288935,9.149394342432732,3.89659612774274,-0.35555555555555557,-0.5466666666666666,-0.5522222222222222,0.09832159633915462,0.04050659633915463,0.04377348617002682
1592167820.5995085,0.3447454365082001,9.182272002573821,3.871538539736542,-0.35555555555555557,-0.5466666666666666,-0.5522222222222222,0.09897112011999393,0.0451977532527986,0.05763687337279253
1592167820.6095085,0.34880879466519066,9.155163631149744,3.8204496337386535,-0.35555555555555557,-0.5466666666666666,-0.5522222222222222,0.098907,0.06112791478962288,0.060898
1592167820.6195085,0.4145187964197435,9.164260404967802,3.877608934900783,-0.35550954441235266,-0.5466666666666666,-0.5520973348335285,0.1008322388936956,0.08847723237960635,0.05853725390014005
1592167820.6295085,0.3427275036861632,9.160473417257673,3.778892791950403,-0.3477777777777778,-0.5466666666666666,-0.5311111111111111,0.10234837462593764,0.10556048647543025,0.06147175443022157
1592167820.6395085,0.27798055644176883,9.167694201827699,3.7225945734658605,-0.3477777777777778,-0.5466666666666666,-0.5311111111111111,0.09525503019974657,0.1168549816544093,0.066238
1592167820.6495085,0.22534330142145126,9.18652310736443,3.6601039063483176,-0.3477777777777778,-0.5466666666666666,-0.5311111111111111,0.08472623132628061,0.11745623132628061,0.060923746584256123
1592167820.6595085,0.1942561134289632,9.1765864475916,3.6318048723265175,-0.3477777777777778,-0.5466666666666666,-0.5311111111111111,0.0661026300278786,0.0977646300278786,0.045152630027878594
1592167820.6695085,0.15112731866473844,9.162122012634525,3.715297964848906,-0.3477777777777778,-0.5466666666666666,-0.5311111111111111,0.05513869185378942,0.091156,0.041242546782598824
1592167820.6795084,0.2407719863468729,9.135367797239999,3.767968434313618,-0.3477777777777778,-0.5288888888888889,-0.5377777777777778,0.049896,0.092209,0.04650257088491368
1592167820.6895084,0.3391474602844425,9.172649101445419,3.8025085149369318,-0.3477777777777778,-0.5288888888888889,-0.5377777777777778,0.046707,0.09602401661077525,0.05397944665280665
1592167820.6995084,0.38343383149523363,9.185986703612008,3.7151105335088634,-0.3477777777777778,-0.5288888888888889,-0.5377777777777778,0.04310680954253733,0.09240849618508729,0.06576568664254996
1592167820.7095084,0.4750279433282089,9.197421191626619,3.5808018686437944,-0.3477777777777778,-0.5288888888888889,-0.5377777777777778,0.03259057338336658,0.08925798514086376,0.070496
1592167820.7195084,0.565140983688957,9.199986161222593,3.5654710799239586,-0.3477777777777778,-0.5288888888888889,-0.5377777777777778,0.014424997192697728,0.08462419331508722,0.07087243367273571
1592167820.7295084,0.6519341475011281,9.19511039356636,3.6110427625574992,-0.3622222222222222,-0.5344444444444445,-0.5377777777777778,-0.00436693693889734,0.07300462262440999,0.055535179971178586
1592167820.7395084,0.6671975326534635,9.215054590408975,3.630109684784095,-0.3622222222222222,-0.5344444444444445,-0.5377777777777778,-0.019845446866658064,0.05558564247547375,0.03794870857536191
1592167820.7495084,0.6605607726010748,9.176395422312382,3.6905953598556116,-0.3622222222222222,-0.5344444444444445,-0.5377777777777778,-0.02926199694058301,0.05050811321795276,0.01842525299736595
1592167820.7595084,0.4593829690575202,9.145948511592698,3.7082954953932616,-0.3622222222222222,-0.5344444444444445,-0.5377777777777778,-0.03861806499115526,0.038892775573290905,-0.012898087286545755
1592167820.7695084,0.14648043293102953,9.193998670001223,3.6586284575126595,-0.3622222222222222,-0.5344444444444445,-0.5377777777777778,-0.04913046688525885,0.028351889684950726,-0.03386474137041499
1592167820.7795084,-0.10993951780690925,9.20561921208368,3.671933680766782,-0.37444444444444447,-0.5344444444444445,-0.5366666666666666,-0.05965785618665364,0.011501665196052765,-0.02978559222933073
1592167820.7895083,-0.13273101616814972,9.194605848956593,3.701670061656001,-0.37444444444444447,-0.5344444444444445,-0.5366666666666666,-0.06815793615161658,-0.0032889971205032195,-0.01509800287949678
1592167820.7995083,-0.10697186449568254,9.176093285017734,3.750341376337923,-0.37444444444444447,-0.5344444444444445,-0.5366666666666666,-0.07660359535492195,-0.008896893241515333,-0.006659352617686647
1592167820.8095083,-0.0570691581454709,9.15404475102083,3.888095502072924,-0.37444444444444447,-0.5344444444444445,-0.5366666666666666,-0.07592390050627944,-0.017385755399707627,-0.0001690456128512611
1592167820.8195083,0.07477691976814221,9.160520332452535,4.075034777076263,-0.37444444444444447,-0.5344444444444445,-0.5366666666666666,-0.06311450776472198,-0.019346611491916268,-0.005627222983832535
1592167820.8295083,0.1435501621016441,9.170774620745169,4.143596435119385,-0.3477777777777778,-0.5288888888888889,-0.5288888888888889,-0.04024316920533888,-0.023751020613929825,-0.00994981018073129
1592167820.8395083,0.1507593233572013,9.169665093417834,4.0800604510953455,-0.3477777777777778,-0.5288888888888889,-0.5288888888888889,-0.019935888202025912,-0.039695625173179275,-0.019222055898987043
1592167820.8495083,0.13589859306633112,9.145491987164629,4.026432581936009,-0.3477777777777778,-0.5288888888888889,-0.5288888888888889,-0.0009807651754891395,-0.042007,-0.02764127126837176
1592167820.8595083,0.059064593449897757,9.158009811796616,3.952082436504226,-0.3477777777777778,-0.5288888888888889,-0.5288888888888889,0.011004368340473483,-0.040140736682680166,-0.03577126331731983
1592167820.8695083,-0.052855635512247215,9.172300284099189,3.8846005210535637,-0.3477777777777778,-0.5288888888888889,-0.5288888888888889,0.01705140870867223,-0.04661971762897947,-0.034973
1592167820.8795083,-0.06293627036721355,9.170251058111196,3.7729040855363203,-0.3477777777777778,-0.5344444444444445,-0.5433333333333333,0.017526648356943363,-0.042144004700145773,-0.02848340337560505
1592167820.8895082,-0.15954252906104455,9.205509708611157,3.7211851635197437,-0.3477777777777778,-0.5344444444444445,-0.5433333333333333,0.009054630110317069,-0.030629906441581388,-0.01506590644158139
1592167820.8995082,-0.08679899873332769,9.162427821227096,3.7134195499965497,-0.3477777777777778,-0.5344444444444445,-0.5433333333333333,0.001656473465163288,-0.016899296813389968,-0.0020971201616166437
1592167820.9095082,0.06175582015863278,9.183626457230696,3.748318651960836,-0.3477777777777778,-0.5344444444444445,-0.5433333333333333,-0.0059999185556576864,0.004482221894780279,0.0007498216890369667
1592167820.9195082,0.051413041791969497,9.168879920074607,3.7009521281236455,-0.3477777777777778,-0.5344444444444445,-0.5433333333333333,-0.014378489834151595,0.018452422617126953,-0.004074
1592167820.9295082,-0.074639000575178,9.199978401799953,3.706507028429797,-0.3422222222222222,-0.5344444444444445,-0.5288888888888889,-0.022923811386789686,0.037366042201678884,-0.0006252947961270425
1592167820.9395082,-0.13091332410452808,9.172596321399316,3.7751484193622393,-0.3422222222222222,-0.5344444444444445,-0.5288888888888889,-0.034256,0.06038527846421548,0.009399397664313539
1592167820.9495082,-0.14208318542011483,9.109986318393398,3.9449913168717394,-0.3422222222222222,-0.5344444444444445,-0.5288888888888889,-0.03372074774500182,0.06930374774500182,0.02362847835428689
1592167820.9595082,0.035806776410905995,9.132959544661949,3.970901890512472,-0.3422222222222222,-0.5344444444444445,-0.5288888888888889,-0.024824900405661057,0.0577268341664287,0.026870210003191602
1592167820.9695082,0.09046057975940035,9.155321006217049,4.049042821804421,-0.3422222222222222,-0.5344444444444445,-0.5288888888888889,-0.01279981968070551,0.04971467027101625,0.021228963419209983
1592167820.9795082,0.10733342250250723,9.17866681539185,4.075223390004026,-0.3622222222222222,-0.5422222222222223,-0.5288888888888889,0.0069263123736433155,0.047804862038177354,0.014202257766865593
1592167820.9895082,0.07050705895666903,9.169666697752554,4.114989946410034,-0.3622222222222222,-0.5422222222222223,-0.5288888888888889,0.026210413213556064,0.04341723210575066,0.009991801405650081
1592167820.9995081,0.03497695998461407,9.133941518853925,4.282382931604545,-0.3622222222222222,-0.5422222222222223,-0.5288888888888889,0.05488621310209452,0.04111592576254285,0.008713
1592167821.0095081,-0.3813220991031439,9.149163565782667,4.446692095314285,-0.3622222222222222,-0.5422222222222223,-0.5288888888888889,0.10151223185565235,0.018223429140556392,0.0261808975278433
1592167821.0195081,0.04749474526522078,9.158412853054855,4.323357553032899,-0.3622222222222222,-0.5422222222222223,-0.5288888888888889,0.14537695031277165,-0.02023661680998483,0.03714142471927253
1592167821.029508,0.3389435583017709,9.167404,4.032149895612024,-0.33555555555555555,-0.5488888888888889,-0.5288888888888889,0.171039506986081,-0.04004980791381729,0.02374866063946513
1592167821.039508,0.4377375628443879,9.176338632002464,3.891599410820845,-0.33555555555555555,-0.5488888888888889,-0.5288888888888889,0.179855,-0.06600234972090824,-0.009867991640959717
1592167821.049508,0.37608181558718706,9.175766901828146,3.772431268537625,-0.33555555555555555,-0.5488888888888889,-0.5288888888888889,0.18067211873171163,-0.07752900036380089,-0.04298288309192406
1592167821.059508,0.18765240605970562,9.205310329640625,3.7504184210729226,-0.33555555555555555,-0.5488888888888889,-0.5288888888888889,0.1796350457312458,-0.10539299262541285,-0.06696930435053754
1592167821.069508,-0.034154260054784356,9.207655987096707,3.6745671043816417,-0.33555555555555555,-0.5488888888888889,-0.5288888888888889,0.1757186457526264,-0.12729735881755105,-0.07275065489298134
1592167821.079508,-0.09944323275596623,9.194384370651681,3.5444687632637937,-0.35555555555555557,-0.5288888888888889,-0.5244444444444445,0.1632775479754661,-0.14432159956995114,-0.0664248524545828
1592167821.089508,-0.046707894696693064,9.215717714755991,3.405613985651795,-0.35555555555555557,-0.5288888888888889,-0.5244444444444445,0.13863157409516058,-0.15941159369685381,-0.059046712526268946
1592167821.099508,-0.004081063460498302,9.2545120915105,3.2963420979373335,-0.35555555555555557,-0.5288888888888889,-0.5244444444444445,0.10989301016917495,-0.1388492552673259,-0.05319534072353079
1592167821.109508,-0.021302334400814454,9.270908036679577,3.21862554463917,-0.35555555555555557,-0.5288888888888889,-0.5244444444444445,0.07477162444947312,-0.093441009380722,-0.05275053972499549
1592167821.119508,-0.006479868646013735,9.252881169964203,3.2334703215905924,-0.35555555555555557,-0.5288888888888889,-0.5244444444444445,0.03429446885218032,-0.05102684164011826,-0.046648542404020686
1592167821.129508,-0.11441448105590524,9.214202288349778,3.3344993352841454,-0.35555555555555557,-0.5344444444444445,-0.5077777777777778,0.001796137665350631,-0.025812366118568172,-0.04127322224204232
1592167821.139508,-0.2266054120128035,9.234585287730008,3.447612822806379,-0.35555555555555557,-0.5344444444444445,-0.5077777777777778,-0.020231716268857315,0.0024916177484547233,-0.025540831169276912
1592167821.149508,-0.2551885421027788,9.241530933183594,3.5265647689584187,-0.35555555555555557,-0.5344444444444445,-0.5077777777777778,-0.03606814878716794,0.004914357471559393,-0.004536315945298783
1592167821.159508,-0.11669359209192263,9.24657093637155,3.6012471268240804,-0.35555555555555557,-0.5344444444444445,-0.5077777777777778,-0.04575358779174413,0.013086436572422313,0.013668285353100497
1592167821.169508,0.06445557796634865,9.246026653444773,3.6642832160726053,-0.35555555555555557,-0.5344444444444445,-0.5077777777777778,-0.05013005524344655,0.021606070276447738,0.016058487051825106
1592167821.179508,0.14936268875799005,9.225410736092009,3.7237420361488835,-0.3688888888888889,-0.5422222222222223,-0.5288888888888889,-0.05117103835831379,0.022040961641686212,0.004157268082693198
1592167821.189508,0.12929022199763304,9.198790556356577,3.7678952978807683,-0.3688888888888889,-0.5422222222222223,-0.5288888888888889,-0.04751338422460458,0.020090212006265283,-0.007545551271238825
1592167821.199508,0.05339746073509777,9.20865363912464,3.835275938703854,-0.3688888888888889,-0.5422222222222223,-0.5288888888888889,-0.04015645902267356,0.013765519648184319,-0.015220413783679873
1592167821.209508,-0.01634865540287073,9.223178744336604,3.896210725052911,-0.3688888888888889,-0.5422222222222223,-0.5288888888888889,-0.030025684241690682,0.009344553571854581,-0.018557892856290836
1592167821.219508,-0.05551990491815781,9.20724185011592,3.862786959109835,-0.3688888888888889,-0.5422222222222223,-0.5288888888888889,-0.01624217791813683,0.0018319681966988948,-0.015219694639234008
1592167821.229508,-0.08110140678365944,9.230089778791204,3.8879343697548614,-0.3394231721631434,-0.5481153655673713,-0.5249601266587895,-0.0012972642012638895,0.005616901379302208,-0.007824417794686447
1592167821.239508,-0.09483714381040381,9.227803973927404,3.889900219480581,-0.33555555555555555,-0.5488888888888889,-0.5244444444444445,0.011873645809313268,0.005469614928585415,0.0003464502558892554
1592167821.249508,-0.019608852970522034,9.231509431274455,3.8743629276236313,-0.33555555555555555,-0.5488888888888889,-0.5244444444444445,0.02489015195094082,0.009531542873424496,0.001251
1592167821.259508,0.02273517539921583,9.212861749606914,3.857630194894029,-0.33555555555555555,-0.5488888888888889,-0.5244444444444445,0.035321424920163165,0.00877657507983684,0.003740486677759285
1592167821.269508,0.038970403588955205,9.215222273749177,3.832283416165034,-0.33555555555555555,-0.5488888888888889,-0.5244444444444445,0.04651553069469512,0.0073753158482818115,-0.0018524782395405474
1592167821.2795079,0.0352691890963512,9.212759395201237,3.829715208998799,-0.34695709884436005,-0.555107912500964,-0.5161524129616776,0.05634174533179471,0.001663,-0.001938
1592167821.2895079,-0.007103149473671978,9.243943503226197,3.762359795114053,-0.3477777777777778,-0.5555555555555556,-0.5155555555555555,0.06285432566388381,0.0039709058725279495,-0.005761662831941905
1592167821.2995079,-0.03720361402209191,9.234704807926065,3.736670399110068,-0.3477777777777778,-0.5555555555555556,-0.5155555555555555,0.0687161614370742,0.004391423268715231,-0.001830574599677264
1592167821.3095078,-0.05934200217470238,9.244154559797654,3.707890084904002,-0.3477777777777778,-0.5555555555555556,-0.5155555555555555,0.074402,0.00323492466396642,-0.0002536963983042276
1592167821.3195078,-0.051715791295283274,9.200825487644897,3.7294938657829606,-0.3477777777777778,-0.5555555555555556,-0.5155555555555555,0.0759955834382332,0.0011280703817977823,0.004974929618202218
1592167821.3295078,0.019548541978962733,9.219557256260295,3.603529904762706,-0.3604664874298382,-0.5438429004921151,-0.5341005927393362,0.07176394577282844,-0.004029219812442475,0.002821054227171561
1592167821.3395078,0.08748792931499796,9.244155071345455,3.5513299716681757,-0.3622222222222222,-0.5422222222222223,-0.5366666666666666,0.06256549856771494,-0.011591599517619684,-0.0007588599970288234
1592167821.3495078,0.10642211062781423,9.263771889372185,3.4288979387240355,-0.3622222222222222,-0.5422222222222223,-0.5366666666666666,0.04820198911220237,-0.017335662863129854,-0.009944677229564049
1592167821.3595078,0.08135244256927573,9.249093240980573,3.3930042905596713,-0.3622222222222222,-0.5422222222222223,-0.5366666666666666,0.028285475208381934,-0.0179181659252025,-0.018755486823365638
1592167821.3695078,-0.0561583572491461,9.24729099864187,3.329202642750854,-0.3622222222222222,-0.5422222222222223,-0.5366666666666666,0.004128539530234462,-0.018869109176259134,-0.017843663764388704
1592167821.3795078,-0.10881509486249781,9.260201339642466,3.3685247364338684,-0.3622222222222222,-0.5422222222222223,-0.5242187215403,-0.021838790002921826,-0.005075803313974999,-0.010114067713284653
1592167821.3895078,-0.1290680249269176,9.249197982813635,3.3902072227970375,-0.3622222222222222,-0.5422222222222223,-0.5222222222222223,-0.04712296247484693,0.0072468137135886885,0.0003547693003010037
1592167821.3995078,-0.08817233719288378,9.21797895244473,3.4354149499092803,-0.3622222222222222,-0.5422222222222223,-0.5222222222222223,-0.06815746882204372,0.02081050411699279,0.008845029084164876
1592167821.4095078,-0.029352030938047412,9.213066835129545,3.507001963982789,-0.3622222222222222,-0.5422222222222223,-0.5222222222222223,-0.08487799045652665,0.032051990456526645,0.015373819169517059
1592167821.4195077,0.015962393486388587,9.232461249892452,3.6359802980059315,-0.3622222222222222,-0.5422222222222223,-0.5222222222222223,-0.09544908611867534,0.0372973099417646,0.015106
1592167821.4295077,-0.009157954481275963,9.239088460744448,3.7219601667521447,-0.3562832242160287,-0.5541002182346093,-0.5281612202284157,-0.09582775068842475,0.04193375068842476,0.014683501376849512
1592167821.4395077,-0.0159410170804534,9.199119142274046,3.7808483909598696,-0.35555555555555557,-0.5555555555555556,-0.5288888888888889,-0.09318400597141051,0.038956,0.015286878940347469
1592167821.4495077,-0.05816703178998701,9.227203473267416,3.81935438697905,-0.35555555555555557,-0.5555555555555556,-0.5288888888888889,-0.08232240162891048,0.038179731432357665,0.01951880756643065
1592167821.4595077,-0.041624176499851825,9.2021319349203,3.8501812793764296,-0.35555555555555557,-0.5555555555555556,-0.5288888888888889,-0.073063533265561,0.036940548157580334,0.021484
1592167821.4695077,-0.01578544444514486,9.212315300626562,3.8369099086034626,-0.35555555555555557,-0.5555555555555556,-0.5288888888888889,-0.06264575235124677,0.036631718586390194,0.020524237849774113
1592167821.4795077,0.06054090690210483,9.220261066094427,3.8304776760131807,-0.3445330062289035,-0.5500442808922296,-0.5178663395622368,-0.0552286900216281,0.033760769101244474,0.01923130608191504
1592167821.4895077,0.12618158938486276,9.202301630027236,3.8349801918306086,-0.3422222222222222,-0.5488888888888889,-0.5155555555555555,-0.045798738509728924,0.03229729722637937,0.013684814537934622
1592167821.4995077,0.07587605214301223,9.215485465279864,3.8496678989367,-0.3422222222222222,-0.5488888888888889,-0.5155555555555555,-0.03739858731477843,0.025039577708539536,0.0033664810737316945
1592167821.5095077,0.005226429618356711,9.195759020510613,3.877587745596793,-0.3422222222222222,-0.5488888888888889,-0.5155555555555555,-0.02582942515509882,0.011383247456312823,-0.0008499314307434608
1592167821.5195076,-0.05027890113865169,9.19816591779767,3.874925947802452,-0.3422222222222222,-0.5488888888888889,-0.5155555555555555,-0.014332842884960905,0.0009048913509213229,-0.000885
1592167821.5295076,-0.04356415267177138,9.184686361780821,3.8523054928129206,-0.34591746354122593,-0.5355860201404755,-0.51998984513836,-0.007629,-0.0026735553934902883,0.00010344460650971176
