time,acc_x,acc_y,acc_z,mag_x,mag_y,mag_z,gyr_x,gyr_y,gyr_z
1592167784.8895426,0.06406544617408463,9.059626178469633,3.46,-0.36,-0.5877777777777777,-0.45666666666666667,0.05445998391832613,-0.0064634294884820705,0.01684671072382257
1592167784.8995426,0.09,9.080375870780065,3.46,-0.36749368445226976,-0.5906599641055739,-0.45666666666666667,0.049366293182449845,-0.006462982411551382,0.01854412330243975
1592167784.9095426,0.08291017935163059,9.08291017935163,3.445820358703261,-0.37444444444444447,-0.5933333333333334,-0.45666666666666667,0.029394949687807197,0.007237368778444694,0.012357087617943473
1592167784.9195426,0.07216291104681961,9.069550548062425,3.4164887331404588,-0.37444444444444447,-0.5933333333333334,-0.45666666666666667,0.02114863125649133,0.013138996990833294,0.008107689467409683
1592167784.9295425,0.05590175716870307,9.04,3.3854105430122186,-0.37444444444444447,-0.5933333333333334,-0.45666666666666667,0.005364587321428952,0.018293807254578968,0.0032724923474893677
1592167784.9395425,0.06448672894555602,9.044486728945555,3.418973457891112,-0.37444444444444447,-0.5933333333333334,-0.45666666666666667,-0.0044048358418773215,0.024529216131466566,0.002783066142836332
1592167784.9495425,0.047558494830689385,9.06795320413545,3.43,-0.36796134295108807,-0.5933333333333334,-0.45666666666666667,-0.011775867814007093,0.03494964114586349,0.00071286848633867
1592167784.9595425,0.01419763121226196,9.095802368787737,3.433868245858492,-0.36,-0.5933333333333334,-0.45666666666666667,-0.01565766075230156,0.041415639366545756,-0.0013018108653318327
1592167784.9695425,-0.04287568802575553,9.070686467961366,3.433562155987122,-0.36,-0.5933333333333334,-0.45666666666666667,-0.033172856273106475,0.04581489286485115,0.002002216559335587
1592167784.9795425,-0.029788071095707566,9.03,3.477445612720418,-0.36,-0.5933333333333334,-0.45666666666666667,-0.05382182019882609,0.04330835515785909,0.00921396047297038
1592167784.9895425,0.030024720317574888,9.021421508480692,3.5457354745579215,-0.36,-0.5933333333333334,-0.45666666666666667,-0.06732408004145272,0.035836960164878334,0.016677979915783507
1592167784.9995425,0.06608994568313899,9.002179891366278,3.603460325901166,-0.35739329712209267,-0.5959400362112407,-0.4501499094718983,-0.07502953473177203,0.028788121105914367,0.02333396719343209
1592167785.0095425,0.0353320321797496,8.971499024134813,3.6770019517303756,-0.35333333333333333,-0.6,-0.44,-0.07097643904675968,0.034834146855396535,0.022652848282923972
1592167785.0195425,0.031607555984816155,8.96,3.6477659980683272,-0.35333333333333333,-0.6,-0.44,-0.05876819295032837,0.041977641200712484,0.02244970961881854
1592167785.0295424,0.06767519333729922,8.97660511600238,3.5989299226650804,-0.35333333333333333,-0.6,-0.44,-0.0426994126625925,0.04412028302627736,0.021699888320270904
1592167785.0395424,0.06536900270973911,8.985894833784958,3.606420664860174,-0.35333333333333333,-0.6,-0.44,-0.02953293503032592,0.04363323129985824,0.01803895986265233
1592167785.0495424,0.02331996142719383,8.983340019286404,3.623319961427194,-0.35333333333333333,-0.5959177542055073,-0.4455666988106718,-0.021087936479581054,0.04363323129985824,0.014180800172453926
1592167785.0595424,0.0039277541278082626,8.996072245872192,3.6221444917443835,-0.35333333333333333,-0.5877777777777777,-0.45666666666666667,-0.01698543699842669,0.0416460934849761,0.012856041629199169
1592167785.0695424,0.0,9.005899409627611,3.6182011807447774,-0.35333333333333333,-0.5877777777777777,-0.45666666666666667,-0.011410476382737792,0.039073687428298004,0.012642664369496447
1592167785.0795424,0.01633727028136258,8.960988189155913,3.7025778649277212,-0.35333333333333333,-0.5877777777777777,-0.45666666666666667,-0.01466704536826326,0.032238678279084346,0.014872089122444955
1592167785.0895424,0.03,8.907981509172473,3.784006163609176,-0.35333333333333333,-0.5877777777777777,-0.45666666666666667,-0.02181997737723941,0.02421173695318691,0.015488452420525555
1592167785.0995424,0.03,8.911879119112683,3.786353480147886,-0.3557643465680759,-0.5898036221400632,-0.4586925110289521,0.004743912780107759,0.014861670760532006,0.011396384899884811
1592167785.1095424,0.03388451348310529,8.953884513483105,3.7689013900482706,-0.36,-0.5933333333333334,-0.4622222222222222,0.056723200689815706,0.006544984694978735,0.006544984694978735
1592167785.1195424,0.1,9.010946111190103,3.530203611545571,-0.36,-0.5933333333333334,-0.4622222222222222,0.06610564827419393,0.004569732571951739,0.006544984694978735
1592167785.1295424,0.09481116547025742,9.015566503589227,3.5011330071784554,-0.36,-0.5933333333333334,-0.4622222222222222,0.07292087321298939,0.00897383008138139,0.00031883022162263255
1592167785.1395423,0.08258620689655172,9.018879310344827,3.5485344827586207,-0.36,-0.5933333333333334,-0.4622222222222222,0.06831797961066166,0.015675990641565447,-0.008689031405402803
1592167785.1495423,0.057903225806451616,9.00725806451613,3.5751612903225807,-0.3664516129032258,-0.5903763440860216,-0.4654480286738351,0.07027061524662653,0.014515087025154453,-0.014972532192007806
1592167785.1595423,0.025270500170125894,9.056352500850629,3.5336474991493705,-0.38666666666666666,-0.5811111111111111,-0.47555555555555556,0.07911473872221744,0.004127267200190742,-0.01860313728488852
1592167785.1695423,0.02480630183187415,9.06961260366375,3.44767562198249,-0.38666666666666666,-0.5811111111111111,-0.47555555555555556,0.07226556753441801,-0.0033992675020722797,-0.02190113241965106
1592167785.1795423,-0.004895175727880903,9.06,3.409916140582305,-0.38666666666666666,-0.5811111111111111,-0.47555555555555556,0.06110481910664638,-0.009260627096941846,-0.023455148734529408
1592167785.1895423,-0.003202434860069773,9.063828223591418,3.433828223591419,-0.38666666666666666,-0.5811111111111111,-0.47555555555555556,0.05296485096759702,-0.014922299502519998,-0.021654663191686012
1592167785.1995423,0.05425640857321036,9.067148718285358,3.4485538451439264,-0.3812809123167872,-0.5845960109845626,-0.4701698012056761,0.04441751095622693,-0.018079821152985783,-0.019634954084936207
1592167785.2095423,0.08537407942735219,9.050748158854704,3.4792518411452957,-0.36777777777777776,-0.5933333333333334,-0.45666666666666667,0.03515141945255924,-0.012666971205045568,-0.02165339270814735
1592167785.2195423,0.0736241414332685,9.046375858566732,3.454932777882977,-0.36777777777777776,-0.5933333333333334,-0.45666666666666667,0.031286343552925505,-0.010212809546021114,-0.0250415246333372
1592167785.2295423,0.06,9.063639293937069,3.3863687643898697,-0.36777777777777776,-0.5933333333333334,-0.45666666666666667,0.029947783831934745,-0.008528153567316307,-0.027767001294049753
1592167785.2395422,0.06,9.093384074517052,3.4830796274147366,-0.36777777777777776,-0.5933333333333334,-0.45666666666666667,0.02255490618062169,-0.008710041246429242,-0.034889980026344185
1592167785.2495422,0.06,9.070249640315744,3.548049928063149,-0.36496100720232616,-0.5933333333333334,-0.45493326938946566,0.019847673934616176,-0.013515409089317407,-0.04054622726795222
1592167785.2595422,0.05524852362204724,9.039502952755905,3.5304970472440944,-0.35333333333333333,-0.5933333333333334,-0.4477777777777778,0.025390535893270734,-0.018899770641713325,-0.046851504203926274
1592167785.2695422,0.024129121071420238,9.041376373690474,3.502752747380947,-0.35333333333333333,-0.5933333333333334,-0.4477777777777778,0.03195429946517745,-0.02337779228418447,-0.048466900281602956
1592167785.2795422,-0.02706029479614385,9.021469852601928,3.484265073699036,-0.35333333333333333,-0.5933333333333334,-0.4477777777777778,0.03381575425739013,-0.02818550352739404,-0.04955263258039296
1592167785.2895422,-0.033425884055349554,9.01,3.5165185855114407,-0.35333333333333333,-0.5933333333333334,-0.4477777777777778,0.039239621016917144,-0.038154847665011746,-0.04873185152562977
1592167785.2995422,0.013238720449284713,9.017564983113877,3.5681087542215306,-0.35228264123418374,-0.5922826412341837,-0.44945888513641713,0.05244754801849977,-0.048349844026042116,-0.045402287042367005
1592167785.3095422,0.090169105212852,9.060084552606426,3.5751268289096387,-0.3477777777777778,-0.5877777777777777,-0.45666666666666667,0.06162732758175827,-0.05344148508374336,-0.041983150238239085
1592167785.3195422,0.11,9.07,3.59,-0.3477777777777778,-0.5877777777777777,-0.45666666666666667,0.061086523819801536,-0.05235987755982988,-0.04036073895236887
1592167785.3295422,0.1592290754538239,9.015385462273088,3.554614537726912,-0.3477777777777778,-0.5877777777777777,-0.45666666666666667,0.07004353012519476,-0.03616560546757325,-0.042542400517361786
1592167785.3395422,0.21313191427215306,8.999395742816459,3.5956595713607653,-0.3477777777777778,-0.5877777777777777,-0.45666666666666667,0.08967000222850463,-0.019964525253111685,-0.04151748396850043
1592167785.3495421,0.2263946131932369,9.02,3.63,-0.35097508437439623,-0.5886659184990607,-0.45666666666666667,0.10916843498148841,-0.005413311826134786,-0.037351661918703705
1592167785.3595421,0.23701252449925905,9.024597495100148,3.5242576126965917,-0.36777777777777776,-0.5933333333333334,-0.45666666666666667,0.13061088629458134,0.018518754538364768,-0.021252662549269472
1592167785.3695421,0.19111789113985844,9.058323163290211,3.3291920917744693,-0.36777777777777776,-0.5933333333333334,-0.45666666666666667,0.15004687595777588,0.032874024094419675,-0.010576292695412916
1592167785.379542,0.17,9.09,3.25,-0.36777777777777776,-0.5933333333333334,-0.45666666666666667,0.15926129424448257,0.04036073895236887,-0.006544984694978735
1592167785.389542,0.10540688259109313,9.155406882591093,3.2491862348178135,-0.36777777777777776,-0.5933333333333334,-0.45666666666666667,0.14782037835324646,0.03770664166690001,0.0012683668045869723
1592167785.399542,0.15242058973654246,9.172315756409754,3.213052730770741,-0.36932161538427977,-0.5948771709398354,-0.45177784757941025,0.122908006068581,0.0285223832086831,0.006625376126866358
1592167785.409542,0.26,9.18,3.19,-0.37444444444444447,-0.6,-0.43555555555555553,0.10362892433716332,0.02181661564992912,0.0032724923474893677
1592167785.419542,0.3541004784688995,9.17,3.1758995215311003,-0.37444444444444447,-0.6,-0.43555555555555553,0.07886954473536308,0.03342326394713303,-0.0038453089904510233
1592167785.429542,0.3835068118606515,9.159479564418046,3.164027247442606,-0.37444444444444447,-0.6,-0.43555555555555553,0.058564237962947185,0.05275727256700155,-0.011673375490169021
1592167785.439542,0.3565340319753926,9.124554168604028,3.228614578489932,-0.37444444444444447,-0.6,-0.43555555555555553,0.04384920089092048,0.07268614501917342,-0.013932408807356331
1592167785.449542,0.25808568824065636,9.08031905195989,3.3401595259799453,-0.374107667375671,-0.6,-0.43541375468449306,0.03830088848204853,0.08740567527934227,-0.016275453812680713
1592167785.459542,0.12011927196984726,9.115904582424122,3.3460238543939695,-0.35333333333333333,-0.6,-0.4266666666666667,0.047116083471674994,0.09078834643239274,-0.01090830782496456
1592167785.469542,0.12114728784770476,9.136106589019038,3.254344958418812,-0.35333333333333333,-0.6,-0.4266666666666667,0.04526503792009068,0.07313491861175885,-0.007085960532714718
1592167785.479542,0.19390898203592816,9.150493413173653,3.140493413173653,-0.35333333333333333,-0.6,-0.4266666666666667,0.03368119668781273,0.051852739224781834,0.005243042230504523
1592167785.489542,0.2603645842506649,9.174726561812001,3.197819011219332,-0.35333333333333333,-0.6,-0.4266666666666667,0.015965472878248146,0.03675091270419661,0.017453292519943295
1592167785.499542,0.3194631629004703,9.130402627824648,3.2495302675379114,-0.35333333333333333,-0.6,-0.4266666666666667,-0.004180323619562963,0.026275098525334828,0.017453292519943295
1592167785.509542,0.35330640702007454,9.103306407020074,3.3267137877148696,-0.35333333333333333,-0.6144444444444445,-0.4477777777777778,-0.016006194489455148,0.02254236756902533,0.016358055929742564
1592167785.519542,0.37664387450906167,9.146780627454692,3.23972649410874,-0.35333333333333333,-0.6144444444444445,-0.4477777777777778,-0.007994453260884332,0.02802533870990226,0.017430916371539748
1592167785.529542,0.35999422549444204,9.169994225494442,3.1766762908425967,-0.35333333333333333,-0.6144444444444445,-0.4477777777777778,-0.013821389250565988,0.037816516961279856,0.013091229191640736
1592167785.539542,0.3229217698144881,9.12804227547577,3.258794943387177,-0.35333333333333333,-0.6144444444444445,-0.4477777777777778,-0.031022951658753076,0.043580650785941505,0.017453292519943295
1592167785.549542,0.2726295414446976,9.063380839000326,3.4024870244437215,-0.35333333333333333,-0.6144444444444445,-0.4477777777777778,-0.038860138919625795,0.049850400594639674,0.017453292519943295
1592167785.559542,0.26733776760596956,9.077740428169552,3.393064892957612,-0.39444444444444443,-0.6,-0.4266666666666667,-0.02273175261736464,0.04497054313314622,0.014224723626219161
1592167785.569542,0.31323805188893944,9.146547564861175,3.353523896222121,-0.39444444444444443,-0.6,-0.4266666666666667,-0.020318001835268648,0.03674282513224282,0.014196390562335761
1592167785.579542,0.34917546383206965,9.137181168783675,3.3336433673842554,-0.39444444444444443,-0.6,-0.4266666666666667,-0.04440194826521553,0.029298687734332855,0.008149330643850696
1592167785.589542,0.38165896383998893,9.026009243392012,3.421658963839989,-0.39444444444444443,-0.6,-0.4266666666666667,-0.06886912779848196,0.02425263634789549,0.005126400528906204
1592167785.599542,0.41796004915961293,8.982447941008465,3.4579600491596127,-0.39444444444444443,-0.6,-0.4266666666666667,-0.06253339318973378,0.02504460317398901,0.00750230100718677
1592167785.609542,0.3570034694168528,9.015740459103656,3.473249132645787,-0.35333333333333333,-0.6,-0.4688888888888889,0.0007877300662821329,0.028034729564828952,0.010853198603834683
1592167785.619542,0.33,9.112066475671394,3.39173409731442,-0.35333333333333333,-0.6,-0.4688888888888889,0.025432976439183724,0.025432976439183724,0.015959367838480863
1592167785.6295419,0.33,9.154030504199682,3.1970152520998405,-0.35333333333333333,-0.6,-0.4688888888888889,0.020644985471189498,0.023575254869926496,0.01712770703119474
1592167785.6395419,0.3514446758342943,9.144288935166859,3.196433402750288,-0.35333333333333333,-0.6,-0.4688888888888889,0.003659088348955162,0.017921142770357418,0.015426761236618595
1592167785.6495419,0.4236319983477617,9.158726399669552,3.218089599504329,-0.35333333333333333,-0.6,-0.4688888888888889,-0.009727417746672094,0.01949602584043121,0.012276995096471007
1592167785.6595418,0.36397976311496727,9.132997470389371,3.294005059221258,-0.35333333333333333,-0.6,-0.4477777777777778,-0.031524181801005,0.026177179402772997,0.002942759673312681
1592167785.6695418,0.43135891231708723,9.14,3.28,-0.35333333333333333,-0.6,-0.4477777777777778,-0.03381575425739013,0.03722318334045828,0.011056542163583791
1592167785.6795418,0.47011749924381674,9.137470625189046,3.320469996975267,-0.35333333333333333,-0.6,-0.4477777777777778,-0.03574713819037212,0.05133313267337111,0.012801240220323936
1592167785.6895418,0.5018881145731344,9.09979016682985,3.49097909347463,-0.35333333333333333,-0.6,-0.4477777777777778,-0.042069453784041894,0.07236861955846724,0.006872994112441962
1592167785.6995418,0.5099402944959589,8.970955288064658,3.708387951390889,-0.35333333333333333,-0.6,-0.4477777777777778,-0.04470452350184693,0.09257082072830586,-0.001032215040973148
1592167785.7095418,0.3399290196252948,8.962945351786749,3.7423278892795158,-0.3411111111111111,-0.62,-0.45444444444444443,0.018126839629868902,0.1168536031491059,0.0059620205693501505
1592167785.7195418,0.14722971086233594,8.975197877795548,3.6428233442489786,-0.3411111111111111,-0.62,-0.45444444444444443,0.0844688428714496,0.12620970027632586,-0.009225997705679223
1592167785.7295418,-0.056978617838157115,8.999064146485528,3.4497861783815713,-0.3411111111111111,-0.62,-0.45444444444444443,0.12757176441060514,0.11162643430256658,-0.02552077544635016
1592167785.7395418,-0.0411713635069741,9.037657272986051,3.338063976658127,-0.3411111111111111,-0.62,-0.45444444444444443,0.15158111427852197,0.07908049641376189,-0.026405914328438085
1592167785.7495418,-0.011322943353259327,9.09735411329348,3.1962839809279817,-0.3411111111111111,-0.62,-0.45444444444444443,0.17355882774949977,0.051404857228086166,-0.034545808206578
1592167785.7595417,-0.07,9.17,3.26,-0.37444444444444447,-0.6,-0.4477777777777778,0.1679879405044542,0.02945243112740431,-0.01090830782496456
1592167785.7695417,0.15920589841616603,9.169205898416166,3.098200983069361,-0.37444444444444447,-0.6,-0.4477777777777778,0.12422745554258546,0.009817477042468103,-0.011497034738816551
1592167785.7795417,0.10407943135500547,9.117039715677501,3.1166425589024755,-0.37444444444444447,-0.6,-0.4477777777777778,0.08541560720849883,0.009817477042468103,-0.008368295497394896
1592167785.7895417,0.09,9.11,3.18,-0.37444444444444447,-0.6,-0.4477777777777778,0.06544984694978735,0.009817477042468103,0.00545415391248228
1592167785.7995417,0.08164081434803684,9.176873485215705,3.1883591856519633,-0.37444444444444447,-0.6,-0.4477777777777778,0.05268400711371758,0.014376705555350165,0.01730814804597564
1592167785.8095417,0.021301787791732946,9.256952681687599,3.1465236591562005,-0.37444444444444447,-0.6144444444444445,-0.4922222222222222,0.028074382856888534,0.022244230433038855,0.013848389310530758
1592167785.8195417,-0.0059832766946878915,9.197949830084065,3.167991638347344,-0.37444444444444447,-0.6144444444444445,-0.4922222222222222,-0.01422184533894788,0.031415014421086955,0.010479272430453792
1592167785.8295417,0.008473135762323553,9.148473135762323,3.1615268642376764,-0.37444444444444447,-0.6144444444444445,-0.4922222222222222,-0.05328415329121129,0.030709816961015813,0.01695362736659816
1592167785.8395417,-0.0026227457521109145,9.141311372876055,3.1765568643802773,-0.37444444444444447,-0.6144444444444445,-0.4922222222222222,-0.051072440249350905,0.03177714128245045,0.014609945942613587
1592167785.8495417,-0.017196914416762223,9.148598457208381,3.2129922860419056,-0.37444444444444447,-0.6144444444444445,-0.4922222222222222,-0.04391836193543729,0.03257203887288529,0.016994638713918125
1592167785.8595417,0.014631040601189855,9.14,3.347786243607139,-0.35333333333333333,-0.6,-0.4622222222222222,-0.08033010635533458,0.022069199732067557,0.02937193667346161
1592167785.8695416,0.03,9.14,3.44,-0.35333333333333333,-0.6,-0.4622222222222222,-0.10799224746714915,0.022907446432425576,0.032724923474893676
1592167785.8795416,0.005016614772757006,8.964983385227244,3.5733444098485045,-0.35333333333333333,-0.6,-0.4622222222222222,-0.10670088351848349,0.03127289895230741,0.024541880215613505
1592167785.8895416,0.03,8.94,3.59,-0.35333333333333333,-0.6,-0.4622222222222222,-0.07853981633974483,0.03490658503988659,0.02181661564992912
1592167785.8995416,0.0033618250412638523,8.98439695826456,3.54560304173544,-0.35333333333333333,-0.6,-0.4622222222222222,-0.022361516619681235,0.04071813328678972,0.018910841526477554
1592167785.9095416,-0.15,9.03,3.49,-0.36,-0.6077777777777778,-0.48444444444444446,0.03599741582238304,0.04363323129985824,0.017453292519943295
1592167785.9195416,-0.11460468660697275,9.122697656696513,3.3411164031244045,-0.36,-0.6077777777777778,-0.48444444444444446,0.053684086694154025,0.03744340564608477,0.03455142599868132
1592167785.9295416,-0.07340467017477918,9.14,3.225276263860177,-0.36,-0.6077777777777778,-0.48444444444444446,0.06059458906760306,0.03258103569901232,0.03941379594575377
1592167785.9395416,-0.02726799890500958,9.130893329683365,3.2845880098549136,-0.36,-0.6077777777777778,-0.48444444444444446,0.04749608019183035,0.03232946123391746,0.04085743076774047
1592167785.9495416,-0.004304407336435806,9.054348024454786,3.4912603339720776,-0.36,-0.6077777777777778,-0.48444444444444446,0.024951626888121643,0.03817431949784194,0.04503232952768653
1592167785.9595416,-0.05093189281804769,9.018488648803007,3.6094205416210556,-0.38666666666666666,-0.6,-0.48333333333333334,0.029501960067792755,0.04630948138750369,0.026446455357990502
1592167785.9695415,0.002847802397384671,9.019967308390846,3.5186741736287686,-0.38666666666666666,-0.6,-0.48333333333333334,0.07120038350858542,0.04986400284172412,0.020263380391161916
1592167785.9795415,0.018031509081890544,9.080984245459055,3.323110281786617,-0.38666666666666666,-0.6,-0.48333333333333334,0.09990978835373904,0.05464890364924972,0.011445130447099185
1592167785.9895415,-0.0014490081993970467,9.092898016398793,3.2592754959003014,-0.38666666666666666,-0.6,-0.48333333333333334,0.10683799068835106,0.05594849445691766,0.016204399462647633
1592167785.9995415,-0.017557078940799203,9.1251141578816,3.2512214605296004,-0.38666666666666666,-0.6,-0.48333333333333334,0.11825925730572985,0.059462730339188065,0.014447281521512435
1592167786.0095415,-0.02,9.13,3.2,-0.38,-0.6,-0.4922222222222222,0.12544553998709243,0.056723200689815706,0.022907446432425576
1592167786.0195415,-0.1597661851813364,9.248986802452457,3.18,-0.38,-0.6,-0.4922222222222222,0.10103067718288697,0.041383555761104765,0.0054371504190421395
1592167786.0295415,-0.12481882222938441,9.10272940743128,3.192089414798103,-0.38,-0.6,-0.4922222222222222,0.04686619678948929,0.03168876230456847,0.0030840994074302396
1592167786.0395415,-0.06690631978999334,8.932374720840027,3.3142545938957015,-0.38,-0.6,-0.4922222222222222,0.03804021795814229,0.02029189723259726,0.0017175573661475955
1592167786.0495415,-0.009389374289856214,9.162442502840575,3.207437409395447,-0.38,-0.6,-0.4922222222222222,0.09629995443438284,0.012225164489733181,0.013369504661395706
1592167786.0595415,0.03722199838839645,9.392778001611605,2.9902769943593874,-0.39444444444444443,-0.6,-0.48333333333333334,0.17692653404277353,0.00827209680920736,0.010711248496962204
1592167786.0695415,0.009843148860609647,9.42015685113939,2.8452352767090856,-0.39444444444444443,-0.6,-0.48333333333333334,0.13805264162241274,0.0016448010763005158,-0.007887135916709725
1592167786.0795414,0.08,9.35,2.74,-0.39444444444444443,-0.6,-0.48333333333333334,0.04908738521234052,-0.002181661564992912,-0.017453292519943295
1592167786.0895414,0.1703557584632613,9.16,2.9546248600223968,-0.39444444444444443,-0.6,-0.48333333333333334,-0.028202143041273046,-0.009701055357610398,-0.014180800172453926
1592167786.0995414,0.17938819019726074,9.16,3.0720464725643897,-0.39444444444444443,-0.6,-0.48333333333333334,-0.051848994024259784,-0.006745198984737054,-0.014180800172453926
1592167786.1095414,0.19,9.2,3.09,-0.38,-0.62,-0.48444444444444446,-0.04690572364734761,-0.001090830782496456,-0.01854412330243975
1592167786.1195414,0.11199266911029657,9.151245418193936,3.158256414528491,-0.38,-0.62,-0.48444444444444446,-0.057542323371707,0.001036489162375423,-0.014289483412695992
1592167786.1295414,0.2277490652657485,9.109718633158218,3.140562733683563,-0.38,-0.62,-0.48444444444444446,-0.09284338595707435,-0.00193612267524171,0.014119415450016127
1592167786.1395414,0.14891100035599858,9.101244571021715,3.1601555713777145,-0.38,-0.62,-0.48444444444444446,-0.09679544616111778,0.006663776128359179,0.011999138607461015
1592167786.1495414,0.09665023139907442,9.160971164115344,3.167621395514418,-0.38,-0.62,-0.48444444444444446,-0.08295072982658182,0.012364541677873988,0.011999138607461015
1592167786.1595414,-0.010698817966903074,9.207204728132389,3.1320964539007092,-0.39444444444444443,-0.6077777777777778,-0.45666666666666667,-0.07400041300685391,0.019482495655004314,-0.00022868764489783854
1592167786.1695414,-0.029480934410668395,9.129480934410669,3.188183270437339,-0.39444444444444443,-0.6077777777777778,-0.45666666666666667,-0.1000582990193461,0.015016835229610474,-0.006290188969638825
1592167786.1795413,-0.01005973190100248,9.110059731901002,3.120209061653509,-0.39444444444444443,-0.6077777777777778,-0.45666666666666667,-0.1297176427622435,0.00548347474082202,0.0032431715191496282
1592167786.1895413,-0.03954314897165092,9.100730961645358,3.2018274041133967,-0.39444444444444443,-0.6077777777777778,-0.45666666666666667,-0.12541563915720813,-0.004512827279407326,0.004443058676343958
1592167786.1995413,-0.003114056420233463,9.159017509727626,3.347543774319066,-0.39444444444444443,-0.6077777777777778,-0.45666666666666667,-0.12303136062519823,-0.016434219939456884,0.010801134761703721
1592167786.2095413,0.1,9.09,3.5,-0.37444444444444447,-0.62,-0.4711111111111111,-0.13853550937704992,-0.02945243112740431,0.011999138607461015
1592167786.2195413,0.09138512887075839,9.03831077322455,3.525844613387725,-0.37444444444444447,-0.62,-0.4711111111111111,-0.14793287599206667,-0.03697032441941771,0.002601771992444263
1592167786.2295413,0.13,9.05,3.29,-0.37444444444444447,-0.62,-0.4711111111111111,-0.12326387842209952,-0.0370882466048795,-0.014180800172453926
1592167786.2395413,0.12175094816687737,9.033501896333755,3.355992414664981,-0.37444444444444447,-0.62,-0.4711111111111111,-0.08187160795859622,-0.0388879105380753,-0.029477943604618195
1592167786.2495413,0.1272070012296342,8.957929987703658,3.406035006148171,-0.37444444444444447,-0.62,-0.4711111111111111,-0.030632920957078758,-0.028263641862787726,-0.03980038038659098
1592167786.2595413,0.19163200690796575,9.10326401381593,3.38927466359646,-0.39444444444444443,-0.6,-0.4711111111111111,0.03542378184681392,-0.020646662939767958,-0.002896663191082011
1592167786.2695413,0.2804398385513254,9.27758088796771,3.3510995963783134,-0.39444444444444443,-0.6,-0.4711111111111111,0.0023002285761939013,-0.016074588078778197,0.017789145121723377
1592167786.2795413,0.29874157303370785,9.176921348314607,3.3968539325842695,-0.39444444444444443,-0.6,-0.4711111111111111,-0.08354538141358249,-0.004096130870902421,0.031764011864245115
1592167786.2895412,0.23531901303494124,9.003677462089849,3.584802819900168,-0.39444444444444443,-0.6,-0.4711111111111111,-0.1660517939276251,0.011846653000454519,0.03373286649808994
1592167786.2995412,0.1608399700010714,8.948503982000643,3.655328023999143,-0.39444444444444443,-0.6,-0.4711111111111111,-0.14745544005284084,0.028932766214611494,0.028534821982505457
1592167786.3095412,0.1,8.95,3.61,-0.41333333333333333,-0.6,-0.47555555555555556,-0.03381575425739013,0.044724062082354694,0.008726646259971648
1592167786.3195412,0.13724392614188533,9.054282993197278,3.513165792031098,-0.41333333333333333,-0.6,-0.47555555555555556,0.025499404543635626,0.047161671348150275,0.011164255525767226
1592167786.3295412,0.2952306429267792,9.144461491097543,3.4073846785366104,-0.41333333333333333,-0.6,-0.47555555555555556,0.05076558211067246,0.045026140882351275,0.044673687629881664
1592167786.3395412,0.28278566359119944,9.068356990773598,3.5179287911048025,-0.41333333333333333,-0.6,-0.47555555555555556,0.01366648132941739,0.052640391650337015,0.08263049628976674
1592167786.3495412,0.1487748428587,8.977120953384443,3.523093412782037,-0.41333333333333333,-0.6,-0.47555555555555556,0.006803909866727794,0.07228550319070327,0.054533176471946776
1592167786.3595412,-0.03743314335817627,9.031023673827267,3.5017952652345463,-0.4315380680987871,-0.5939317550781821,-0.49578303862828194,0.0411990670372949,0.10355850573447914,0.003622911574089227
1592167786.3695412,-0.13,9.08,3.44,-0.43333333333333335,-0.5933333333333334,-0.49777777777777776,0.09490227807719166,0.09708393964218458,-0.02399827721492203
1592167786.3795412,-0.23540610142630747,8.998918383518225,3.3183775752773377,-0.43333333333333335,-0.5933333333333334,-0.49777777777777776,0.1002090574663652,0.08823930732689536,-0.02488274044645095
1592167786.3895411,-0.2011681527990292,8.98,3.2801946921331715,-0.43333333333333335,-0.5933333333333334,-0.49777777777777776,0.11000400809456333,0.059435802684742134,-0.00690602418733352
1592167786.3995411,-0.1926931124982267,9.053068875017733,3.30192066250532,-0.43333333333333335,-0.5933333333333334,-0.49777777777777776,0.1476356247446549,0.03738430216464167,-0.002559695789392263
1592167786.4095411,-0.0075134784020786105,9.201657681065281,3.336069503085417,-0.4159536646097218,-0.5933333333333334,-0.485225794810725,0.18324497508777782,0.01618163678408984,-0.005830400190823051
1592167786.4195411,0.11080652501976189,9.17459673749012,3.294596737490119,-0.41333333333333333,-0.5933333333333334,-0.48333333333333334,0.14096696954507215,0.006256435953006657,-0.0015922570578241913
1592167786.429541,0.13876307949873207,9.179381539749366,3.1398953640101435,-0.41333333333333333,-0.5933333333333334,-0.48333333333333334,0.08313875161377973,0.01159435731997581,0.011189576032490604
1592167786.439541,0.14994050470164116,9.279405047016411,3.060416467088512,-0.41333333333333333,-0.5933333333333334,-0.48333333333333334,0.04493173985151831,0.03151727394724269,0.013083479459671107
1592167786.449541,0.12606005221932115,9.178255221932114,3.1976546997389033,-0.41333333333333333,-0.5933333333333334,-0.48333333333333334,0.012081022119201937,0.0479556126739736,0.008519943795116086
1592167786.459541,0.07486159682295063,8.934307984114753,3.369061407148361,-0.43675893545136624,-0.5933333333333334,-0.47064446551939887,-0.04335627239660273,0.08094464205895423,0.003537651320817443
1592167786.469541,0.10388886401289571,8.99472216003224,3.3461111359871043,-0.44,-0.5933333333333334,-0.4688888888888889,-0.025816344800382248,0.09508407506695801,0.027301052779406334
1592167786.479541,0.017583789861486565,9.144423578383293,3.2979926317552213,-0.44,-0.5933333333333334,-0.4688888888888889,0.02400631472313974,0.10991436014664385,0.05179618205654752
1592167786.489541,-0.08277230046948357,9.136891079812207,3.3893267605633803,-0.44,-0.5933333333333334,-0.4688888888888889,0.023695866145877827,0.11867591072744606,0.06014689857182718
1592167786.499541,-0.11998575361453902,9.056718903413357,3.4366476714860523,-0.44,-0.5933333333333334,-0.4688888888888889,-0.010158294722793362,0.11926468356613919,0.06762684639604022
1592167786.509541,-0.15934404070923114,9.049344040709231,3.391311918581538,-0.4139164082584612,-0.6074619455266668,-0.4895383990176071,0.0036954852493129506,0.11569961700326785,0.06023420656611682
1592167786.519541,-0.2653662479791071,9.141317414915227,3.24248725282925,-0.41333333333333333,-0.6077777777777778,-0.49,0.049571776844480046,0.11639430792283609,0.04160581356022268
1592167786.529541,-0.22077432435900726,9.144309729743604,3.0907743243590073,-0.41333333333333333,-0.6077777777777778,-0.49,0.0813752540624478,0.10406597896194972,0.02797594744269579
1592167786.539541,-0.18519767823896616,9.13173255941299,3.137872084109079,-0.41333333333333333,-0.6077777777777778,-0.49,0.07568843652191266,0.0881086876590309,0.018252390877638924
1592167786.549541,-0.1062237155863863,9.143413869893385,3.1701208048400766,-0.41333333333333333,-0.6077777777777778,-0.49,0.07637133253857491,0.07850028304827585,0.009046330641393811
1592167786.559541,-0.07,9.165930427096814,3.21186085419363,-0.43899902143375735,-0.596272469318967,-0.4661043593547776,0.07484237551892016,0.06397201382616657,0.0158805940657951
1592167786.569541,-0.053563920914941894,9.153563920914943,3.252872158170116,-0.44555555555555554,-0.5933333333333334,-0.46,0.05624751220023143,0.05481138046646688,0.02392281760529802
1592167786.579541,-0.07419926981509833,9.198398539630197,3.1470700741962077,-0.44555555555555554,-0.5933333333333334,-0.46,0.037401402783823486,0.050810977499501676,0.028608749121184697
1592167786.589541,-0.09661609693626244,9.243232193872524,3.0618436607230812,-0.44555555555555554,-0.5933333333333334,-0.46,0.029284416751635102,0.04564687848908194,0.019483488614743246
1592167786.599541,-0.07305186323472916,9.202840760660775,3.070211102573953,-0.44555555555555554,-0.5933333333333334,-0.46,0.014398568215528951,0.0432542692266306,0.010839224669184867
1592167786.609541,-0.06,9.16455358524433,3.1031696221335068,-0.43611607987153433,-0.5838938576493121,-0.47115574399020693,-0.013425965390891685,0.04506981422156581,0.009320757946944543
1592167786.619541,-0.07557471911377299,9.16,3.1022126404431134,-0.43333333333333335,-0.5811111111111111,-0.47444444444444445,-0.030678053059661883,0.04921276947245905,0.014914291953879954
1592167786.629541,-0.1266215039194813,9.26101325849221,3.045608245427272,-0.43333333333333335,-0.5811111111111111,-0.47444444444444445,-0.04313938571769252,0.05017821599483697,0.013819653157364371
1592167786.639541,-0.18511165226980336,9.199776695460393,3.105186087116339,-0.43333333333333335,-0.5811111111111111,-0.47444444444444445,-0.07123963531985958,0.047717757047578094,0.0032481336009219514
1592167786.649541,-0.2684548978857759,9.113991447184365,3.1860085528156348,-0.43333333333333335,-0.5811111111111111,-0.47444444444444445,-0.10271130288678222,0.03740192421488958,-0.007467270982645597
1592167786.659541,-0.30231413228377974,9.118429338581102,3.1969423968513393,-0.42906340682432204,-0.5862350229219246,-0.4633426355210152,-0.11420369939860614,0.014866130502299606,-0.01451433293597566
1592167786.669541,-0.23504511400273698,9.186835525247604,3.198119360749658,-0.42777777777777776,-0.5877777777777777,-0.46,-0.09396133437180673,-0.00789622023737252,-0.017043000682934448
1592167786.6795409,-0.18967646531636492,9.184838232658182,3.162095581645456,-0.42777777777777776,-0.5877777777777777,-0.46,-0.08779423191135899,-0.024403330507589034,-0.026549699913370507
1592167786.6895409,-0.1280566078193124,9.120636123222072,3.246466299764134,-0.42777777777777776,-0.5877777777777777,-0.46,-0.10345544863913926,-0.03483719476067697,-0.039975272053029115
1592167786.6995409,-0.14639369188483206,9.039343846858612,3.3406561531413868,-0.42777777777777776,-0.5877777777777777,-0.46,-0.11106804621947891,-0.043043150514379444,-0.04892647921941374
1592167786.7095408,-0.2068413923879182,9.051577949343086,3.3652634430448325,-0.4408769395157042,-0.5828655921260554,-0.46,-0.09467297164695537,-0.048513232642818475,-0.04834110507115271
1592167786.7195408,-0.24338610699212956,9.09338610699213,3.4145675829816358,-0.44555555555555554,-0.5811111111111111,-0.46,-0.06624837937774512,-0.05674047082927168,-0.03755195233776507
1592167786.7295408,-0.23530434782608697,9.063260869565218,3.4079565217391306,-0.44555555555555554,-0.5811111111111111,-0.46,-0.06961397489340426,-0.06692009713489128,-0.025288303183787404
1592167786.7395408,-0.21558073115003806,9.071628903274943,3.407209634424981,-0.44555555555555554,-0.5811111111111111,-0.46,-0.0785908062401833,-0.07689121212495702,-0.017884370069271436
1592167786.7495408,-0.21569911738080869,9.097097352142425,3.375805295715148,-0.44555555555555554,-0.5811111111111111,-0.46,-0.06766625529343968,-0.08025232438944596,-0.02568762074551688
1592167786.7595408,-0.11357529472825684,9.11709498035145,3.364189960702899,-0.44161389980475024,-0.5755927930599837,-0.46,-0.05394431998802782,-0.07685176642045341,-0.028081269693752464
1592167786.7695408,-0.044451173065204144,9.094451173065204,3.38094949725777,-0.44,-0.5733333333333334,-0.46,-0.05992444171219914,-0.07447105408147976,-0.01901350958293354
1592167786.7795408,0.013336499894447964,9.036663500105552,3.406668249947224,-0.44,-0.5733333333333334,-0.46,-0.08472395411976222,-0.06290215719632535,-0.0007258388487289061
1592167786.7895408,0.006067720090293454,9.05089841986456,3.493593679458239,-0.44,-0.5733333333333334,-0.46,-0.08825929097782612,-0.0441360476560338,0.010540429452718575
1592167786.7995408,-0.15468973683745427,9.049687350877504,3.607344868418727,-0.44,-0.5733333333333334,-0.46,-0.07939191402138315,-0.027492190031066455,0.011930929150072978
1592167786.8095407,-0.31316757246376814,8.993913496376813,3.6931675724637683,-0.44877838164251205,-0.578454055958132,-0.45049008655394523,-0.06337667562022752,-0.01170785517025091,-0.004546116331762854
1592167786.8195407,-0.3284407060953531,8.961559293904648,3.7042203530476767,-0.4533333333333333,-0.5811111111111111,-0.44555555555555554,-0.05199932572869619,-0.010107753565194133,-0.017523567828350954
1592167786.8295407,-0.35446031832255964,8.95723015916128,3.6449285675484817,-0.4533333333333333,-0.5811111111111111,-0.44555555555555554,-0.015727007920754352,-0.015942578695197402,-0.025877796014965763
1592167786.8395407,-0.3342781414401028,8.98939640978274,3.6126508975543152,-0.4533333333333333,-0.5811111111111111,-0.44555555555555554,0.004566630051859084,-0.018254955237090604,-0.02337411926989936
1592167786.8495407,-0.329019739292365,9.010735195530726,3.6,-0.4533333333333333,-0.5811111111111111,-0.44555555555555554,0.03511784463277231,-0.014314462491798931,-0.01854412330243975
1592167786.8595407,-0.44712770017555914,8.974490878558889,3.583472635676666,-0.4490484611013578,-0.5768262388791356,-0.4339251880687649,0.06891879874550971,0.0014895364692367255,-0.014938411750954441
1592167786.8695407,-0.46566156483408844,8.977389739194319,3.555220521611363,-0.44555555555555554,-0.5733333333333334,-0.42444444444444446,0.08508480103472357,0.009817477042468103,-0.011999138607461015
1592167786.8795407,-0.40764029003783103,9.030061475409836,3.4575788146279947,-0.44555555555555554,-0.5733333333333334,-0.42444444444444446,0.10608810810943071,-0.00026411035339132284,-0.0031777496360840176
1592167786.8895407,-0.2634108752544344,9.090852718813608,3.322764854124261,-0.44555555555555554,-0.5733333333333334,-0.42444444444444446,0.131967977462495,-0.020539750481293036,0.022047744475221086
1592167786.8995407,-0.14255012519352434,9.095489974961295,3.3248366750129015,-0.44555555555555554,-0.5733333333333334,-0.42444444444444446,0.12650073878489335,-0.025160371966809585,0.028361600344907853
1592167786.9095407,-0.030609241210590693,9.142825632324508,3.2280882294913784,-0.45941526698145885,-0.5828162937826356,-0.4383041558703477,0.1318908378220995,-0.015812462300176598,0.019767869898231753
1592167786.9195406,-0.03551796954314721,9.162835329949239,3.148811370558376,-0.4666666666666667,-0.5877777777777777,-0.44555555555555554,0.13217015184239697,-0.006415325336588193,0.01619949051109945
1592167786.9295406,-0.1,9.216922843507765,2.9828575763427216,-0.4666666666666667,-0.5877777777777777,-0.44555555555555554,0.10241833116150982,0.0014504489635567067,0.03243716272972765
1592167786.9395406,-0.09475826768504819,9.25310433078738,2.9347582676850483,-0.4666666666666667,-0.5877777777777777,-0.44555555555555554,0.07990820765605282,-5.273781005471338e-05,0.039555800318010204
1592167786.9495406,-0.056292842436720364,9.233102821848128,3.062242945379678,-0.4666666666666667,-0.5877777777777777,-0.44555555555555554,0.02621732585893232,-0.00016923267922707482,0.040877948897079255
1592167786.9595406,-0.014163372421353352,9.138326744842706,3.2516732551572933,-0.47370516781273186,-0.5842585272047451,-0.43147855326342516,-0.002485867937083991,0.004424164404404039,0.036269045478749304
1592167786.9695406,0.0,9.122518508486818,3.2862592542434093,-0.48,-0.5811111111111111,-0.41888888888888887,0.005336980210471161,0.015695834718755713,0.01866129700445087
1592167786.9795406,0.04960043011803808,9.17960043011804,3.17219897846966,-0.48,-0.5811111111111111,-0.41888888888888887,0.021205820789630507,0.03534303464938418,-0.002618111174490503
1592167786.9895406,0.031078056578855914,9.191654271217072,3.1,-0.48,-0.5811111111111111,-0.41888888888888887,0.0168409654608315,0.053639274141733355,-0.01424365543892293
1592167786.9995406,0.019232634976413743,9.18,3.1,-0.48,-0.5811111111111111,-0.41888888888888887,-0.0011549335749897558,0.061044670550344585,-0.00010331028533450137
1592167787.0095406,0.0678033157498116,9.175366114041697,3.113901657874906,-0.4676429707778615,-0.5811111111111111,-0.41476987914817603,-0.023279413975062835,0.0616718760577086,0.027057384867141588
1592167787.0195405,0.1226188255102273,9.175654706377557,3.2544035403062503,-0.4533333333333333,-0.5811111111111111,-0.41,-0.05787223260960037,0.06787168438068135,0.04681473628304117
1592167787.0295405,0.14,9.106602409638555,3.4295140562248996,-0.4533333333333333,-0.5811111111111111,-0.41,-0.09770864835537331,0.08109209751999558,0.05011469372035424
1592167787.0395405,0.12721901377165706,9.039915593069747,3.5037361172812083,-0.4533333333333333,-0.5811111111111111,-0.41,-0.10449296311334774,0.08856567065296969,0.04580568549707352
1592167787.0495405,0.02179789006107718,8.99338189894503,3.523236202109939,-0.4533333333333333,-0.5811111111111111,-0.41,-0.03526703768579403,0.10294622537836336,0.03547161236935649
1592167787.0595405,-0.03,9.10169366862141,3.4114918994135772,-0.4697849782990425,-0.5763127146627793,-0.4058870887585727,0.0307720317092316,0.11026628432552113,0.04567416149066564
1592167787.0695405,-0.03636516157268947,9.152730323145379,3.377721934495587,-0.48,-0.5733333333333334,-0.4033333333333333,0.04095457293951389,0.11304990201504028,0.05062404901506658
1592167787.0795405,-0.0390250407118076,9.158050081423616,3.335487479644096,-0.48,-0.5733333333333334,-0.4033333333333333,0.013184117939002562,0.11334004981930731,0.046307132475937325
1592167787.0895405,0.04040124335611238,9.037105875094912,3.486217966970387,-0.48,-0.5733333333333334,-0.4033333333333333,0.0030443300148273933,0.1117648333403744,0.049359316405414445
1592167787.0995405,0.13106564130733317,8.95,3.6366276925491428,-0.48,-0.5733333333333334,-0.4033333333333333,0.02445687382631017,0.11465347559624174,0.05526450822977552
1592167787.1095405,0.17447013550848572,8.967880542033942,3.6610597289830284,-0.46807963864403807,-0.5768101053954889,-0.4063134236723238,0.07079891457882231,0.1276776458383697,0.06036771067918462
1592167787.1195405,0.1630447103274559,8.995651763224181,3.6273929471032744,-0.4533333333333333,-0.5811111111111111,-0.41,0.12933248330117064,0.1508657439776868,0.06402688979239352
1592167787.1295404,0.07097702488582346,9.073754776773232,3.4466858514307015,-0.4533333333333333,-0.5811111111111111,-0.41,0.16829094623094645,0.16897219440487854,0.0591284627393277
1592167787.1395404,0.0,9.14565676636687,3.2377755699644424,-0.4533333333333333,-0.5811111111111111,-0.41,0.1857278014123531,0.17918281671737435,0.046046018483480916
1592167787.1495404,0.02549313634716799,9.170394509077735,3.159408236383398,-0.4533333333333333,-0.5811111111111111,-0.41,0.18539819875980082,0.17940938802221948,0.033686651463600045
1592167787.1595404,0.09223389250667707,9.21111694625334,3.040252978423311,-0.4533333333333333,-0.5734855471862944,-0.3953354539907371,0.18038019458372148,0.17204666379555608,0.02496726806186491
1592167787.1695404,0.14073788546255506,9.238351688693099,2.9647723935389134,-0.4533333333333333,-0.5666666666666667,-0.38222222222222224,0.17468189327986197,0.16572578812181013,0.025380236477181677
1592167787.1795404,0.2525632,9.2891456,2.9782912,-0.4533333333333333,-0.5666666666666667,-0.38222222222222224,0.12676082011139536,0.1558956013149367,0.04481726266441119
1592167787.1895404,0.315565383695912,9.244434616304089,3.0252032034425054,-0.4533333333333333,-0.5666666666666667,-0.38222222222222224,0.08059330593973726,0.16459692494619635,0.03805572979949147
1592167787.1995404,0.3303536596481634,9.212384468143288,3.078123233980494,-0.4533333333333333,-0.5666666666666667,-0.38222222222222224,0.06271436827983544,0.1726449756143411,0.03178343439646337
1592167787.2095404,0.10761560550549559,9.094724230121795,3.1911476383800377,-0.4549031257220187,-0.56470442618081,-0.37947508554202286,0.05775386781790574,0.2081633278752047,0.018418935375227808
1592167787.2195404,-0.04502866735537191,9.19194292355372,3.1084571280991735,-0.4577777777777778,-0.5611111111111111,-0.37444444444444447,0.06763150851478027,0.23146806597129205,0.03625299477018283
1592167787.2295403,-0.11047351033892085,9.223017659774053,3.0903992821893227,-0.4577777777777778,-0.5611111111111111,-0.37444444444444447,0.06420406027123335,0.23285844904526612,0.044394886465090884
1592167787.2395403,-0.16429673344722265,9.104424600093182,3.0254475332608584,-0.4577777777777778,-0.5611111111111111,-0.37444444444444447,0.006818412382965891,0.18078500006013054,0.06396005569318325
1592167787.2495403,-0.059662285176960164,9.041695376427986,3.0737284676790106,-0.4577777777777778,-0.5611111111111111,-0.37444444444444447,0.004288903167832436,0.14169748480713612,0.08225586039128274
1592167787.2595403,0.06356636763613507,9.075090851951318,3.0857622421575908,-0.46342812156765645,-0.5634654210235606,-0.3777404783218737,0.049755589966569036,0.1133899619033986,0.0928502932988386
1592167787.2695403,0.2131023739947352,9.255170623324558,3.011639094839037,-0.4711111111111111,-0.5666666666666667,-0.38222222222222224,0.07206082365360889,0.09628471187201583,0.09197779149290122
1592167787.2795403,0.24331212019713863,9.307299392315421,2.9393248480788556,-0.4711111111111111,-0.5666666666666667,-0.38222222222222224,0.02891607163073301,0.09104754651353177,0.07671250905880227
1592167787.2895403,0.16066658659620467,9.243030266634639,2.9515757866922896,-0.4711111111111111,-0.5666666666666667,-0.38222222222222224,-0.022272809834970275,0.09171573156123217,0.05418452328500742
1592167787.2995403,0.10723414452313755,9.220790244421961,2.9721731721603923,-0.4711111111111111,-0.5666666666666667,-0.38222222222222224,-0.04085640214354211,0.09241890848278896,0.0429867140939801
1592167787.3095403,-0.08491743283049184,9.232541283584753,3.1280527537266805,-0.46983987424003487,-0.5671751614150972,-0.38044249060271557,-0.07144040957250555,0.07295606359020973,0.0029208909946736306
1592167787.3195403,-0.27,9.14,3.29,-0.46555555555555556,-0.5688888888888889,-0.37444444444444447,-0.0916297857297023,0.05781403147231216,-0.02399827721492203
1592167787.3295403,-0.35599406963771946,9.010029651811402,3.29,-0.46555555555555556,-0.5688888888888889,-0.37444444444444447,-0.1099440986365342,-0.0015504515737121555,0.003304837456124251
1592167787.3395402,-0.19087817859254877,9.07182436428149,3.2953040607135815,-0.46555555555555556,-0.5688888888888889,-0.37444444444444447,-0.07271710655081884,-0.03897510647407059,0.034840249282662036
1592167787.3495402,-0.05,9.1,3.3,-0.46555555555555556,-0.5688888888888889,-0.37444444444444447,-0.05017821599483697,-0.05126904677733343,0.03381575425739013
1592167787.3595402,-0.009749633687965853,9.23,3.236936675797923,-0.4669792175433381,-0.5643331705279848,-0.3707429232762099,-0.02575742166469685,-0.039522132819491504,0.0128987942939106
1592167787.3695402,-0.0843092889532981,9.225653779626946,3.2004235426113787,-0.4711111111111111,-0.5511111111111111,-0.36,-0.058376504640043264,-0.04135513847827607,-0.025936846341966246
1592167787.3795402,-0.26554475071125416,9.128910498577492,3.2358595681171587,-0.4711111111111111,-0.5511111111111111,-0.36,-0.08497386607267732,-0.05774534896886689,-0.04916397892266412
1592167787.3895402,-0.28628698364684757,9.023843463465356,3.2538434634653557,-0.4711111111111111,-0.5511111111111111,-0.36,-0.07037472263119351,-0.08912465917135544,-0.04152271759760495
1592167787.3995402,-0.2070082566270296,9.076239679216213,3.273760320783787,-0.4711111111111111,-0.5511111111111111,-0.36,-0.027988365824811394,-0.12336665689230272,-0.03252929963192198
1592167787.4095402,-0.19693372404763387,9.151124758401396,3.230323586258495,-0.4697671647581243,-0.5511111111111111,-0.3548930038586501,-0.005805431485372996,-0.145572962785543,-0.051427036671200826
1592167787.4195402,-0.23032528856243442,9.220975865687302,3.235414480587618,-0.46555555555555556,-0.5511111111111111,-0.3388888888888889,-0.05104012111468989,-0.1513931192194242,-0.06260659021975462
1592167787.4295402,-0.13192964166222182,9.087008194734036,3.2971653008776607,-0.46555555555555556,-0.5511111111111111,-0.3388888888888889,-0.10718045842412123,-0.1577967945455847,-0.06170495923215418
1592167787.4395401,0.012525110388665146,9.032525110388665,3.2799665194817798,-0.46555555555555556,-0.5511111111111111,-0.3388888888888889,-0.12038629550583951,-0.16689710972195776,-0.06791425964487373
1592167787.4495401,0.04374519759831651,9.085637006004209,3.2487644072050506,-0.46555555555555556,-0.5511111111111111,-0.3388888888888889,-0.08459629956107088,-0.16621481662213886,-0.08324428601964011
1592167787.4595401,0.023583347379066238,9.12,3.29,-0.46555555555555556,-0.5511111111111111,-0.3388888888888889,-0.053059825779779995,-0.16564871245023166,-0.0779277523459928
1592167787.46954,0.0,9.12,3.29,-0.46555555555555556,-0.5511111111111111,-0.3388888888888889,-0.05563236990731925,-0.16907877128695067,-0.05563236990731925
1592167787.47954,-0.05631729667812141,9.144676403207331,3.263035509736541,-0.46555555555555556,-0.5511111111111111,-0.3388888888888889,-0.07000309708886764,-0.1707503163949514,-0.03662686141995761
1592167787.48954,-0.2469454673390407,9.17652726633048,3.1882000703647235,-0.46555555555555556,-0.5511111111111111,-0.3388888888888889,-0.07876790960644955,-0.16689710972195776,-0.055814844520683034
1592167787.49954,-0.24076175640151884,9.159006717943726,3.2737416025703436,-0.46555555555555556,-0.5511111111111111,-0.3388888888888889,-0.09454464361346092,-0.17049465286225296,-0.0670571735225123
1592167787.50954,-0.19615203454141045,9.137690043176764,3.3207660604474682,-0.46555555555555556,-0.5511111111111111,-0.34111045691773156,-0.10681785245291756,-0.1803226205445528,-0.08172617544410497
1592167787.51954,-0.2963975397608611,9.109913708030202,3.4095100176714936,-0.46555555555555556,-0.5511111111111111,-0.35333333333333333,-0.09593024708531296,-0.18136397978520613,-0.12970196555571548
1592167787.52954,-0.4622958748221906,8.982529160739688,3.4786770981507824,-0.46555555555555556,-0.5511111111111111,-0.35333333333333333,-0.081837756233227,-0.18487673197365467,-0.1325677495058104
1592167787.53954,-0.55,8.97,3.51,-0.46555555555555556,-0.5511111111111111,-0.35333333333333333,-0.07090400086226964,-0.19307704850187268,-0.11890055529211369
1592167787.54954,-0.4950327651362869,8.903519940500122,3.481447294363593,-0.46555555555555556,-0.5511111111111111,-0.35333333333333333,0.01594275457318366,-0.22641202854246986,-0.10317674309577388
1592167787.55954,-0.42068526517488875,9.002876489883407,3.43528401156182,-0.4666796935612499,-0.5497825843771087,-0.3513916404144068,0.0709551573576717,-0.25061567097470033,-0.07433878400299782
1592167787.56954,-0.18637498050226176,9.162718764623305,3.2536458170852183,-0.4777777777777778,-0.5366666666666666,-0.3322222222222222,0.12484786022907508,-0.2737973920741792,-0.042840106063939225
1592167787.57954,-0.11,9.22,3.19,-0.4777777777777778,-0.5366666666666666,-0.3322222222222222,0.14289883250703572,-0.2814343418840856,-0.04145156973486533
1592167787.58954,0.15047678988876617,9.230059598736096,3.0568255966295887,-0.4777777777777778,-0.5366666666666666,-0.3322222222222222,0.11043566694668207,-0.2639290396553974,-0.03999496162033901
1592167787.59954,0.2813027948924011,9.218433074381641,3.130088043575319,-0.4777777777777778,-0.5366666666666666,-0.3322222222222222,0.06101929537029005,-0.23494535280409518,-0.04208724969314092
1592167787.60954,0.19774035539347135,9.142163466695271,3.1886538667810793,-0.4782585481545044,-0.537708335816241,-0.32965811354634694,0.020075475150698213,-0.20333504661010282,-0.048458058260845545
1592167787.61954,0.04,9.17,3.3,-0.48444444444444446,-0.5511111111111111,-0.2966666666666667,-0.016362461737446838,-0.16689710972195776,-0.04036073895236887
1592167787.62954,-0.10762250666354237,9.076083887408101,3.3804194370405085,-0.48444444444444446,-0.5511111111111111,-0.2966666666666667,-0.021267350192505592,-0.14576701997998393,-0.03535664339793834
1592167787.63954,-0.17650764186876236,9.066984716262475,3.3174617906561883,-0.48444444444444446,-0.5511111111111111,-0.2966666666666667,0.013766499054421249,-0.1388644258089352,-0.039582152630394156
1592167787.64954,-0.17,9.08,3.35,-0.48444444444444446,-0.5511111111111111,-0.2966666666666667,0.04145156973486533,-0.13744467859455345,-0.05235987755982988
1592167787.65954,-0.22833958508765215,9.071475924366531,3.2790775472709175,-0.4838294759583897,-0.550844624767154,-0.29693315301062373,0.07110524882872578,-0.1386562581569236,-0.07813732040683256
1592167787.66954,-0.14,9.15,3.23,-0.45111111111111113,-0.5366666666666666,-0.3111111111111111,0.0818123086872342,-0.14508049407202864,-0.056723200689815706
1592167787.67954,-0.013134883720930232,9.118855813953488,3.2519906976744184,-0.45111111111111113,-0.5366666666666666,-0.3111111111111111,0.07813291108971591,-0.15405676300408785,-0.03088522467613454
1592167787.68954,0.03751005250957945,9.124939684942523,3.19,-0.45111111111111113,-0.5366666666666666,-0.3111111111111111,0.06273812181519306,-0.15327269052764264,-0.024545885723548377
1592167787.69954,0.0446499928129941,9.160843754491879,3.2119749892194913,-0.45111111111111113,-0.5366666666666666,-0.3111111111111111,0.04907170559781563,-0.14448121920488743,-0.02230817156528436
1592167787.70954,0.10493891044990657,9.123163180968808,3.30240836567486,-0.45111111111111113,-0.5366666666666666,-0.3111111111111111,0.04002901710757671,-0.14201503143482228,-0.019841983795219197
1592167787.7195399,0.10251584662855504,9.15,3.254993661348578,-0.4711111111111111,-0.5366666666666666,-0.28888888888888886,0.017991102075491813,-0.12243918665894106,-0.004084738197684663
1592167787.7295399,0.09982377185086931,9.137444928703397,3.2475330427779623,-0.4711111111111111,-0.5366666666666666,-0.28888888888888886,-0.005752092463644502,-0.09923196006646,0.0062566578983072225
1592167787.7395399,-0.048957491061204464,9.092760627234698,3.277239372765301,-0.4711111111111111,-0.5366666666666666,-0.28888888888888886,-0.023170677454370806,-0.0687244551383402,-0.006732402327492908
1592167787.7495399,-0.15462400432023762,9.06817199945997,3.3036560010800593,-0.4711111111111111,-0.5366666666666666,-0.28888888888888886,-0.020409006547849853,-0.042530618896921696,-0.01757066691357765
1592167787.7595398,-0.21933962082200237,9.06008254739725,3.3198349052055005,-0.4711111111111111,-0.5366666666666666,-0.28888888888888886,-0.004525404565468717,-0.03282397324102211,-0.032571846563604276
1592167787.7695398,-0.37,9.09,3.41,-0.4922222222222222,-0.5366666666666666,-0.2677777777777778,0.028361600344907853,-0.03599741582238304,-0.04036073895236887
1592167787.7795398,-0.4708137448148039,9.047194845694447,3.2472163219675796,-0.4922222222222222,-0.5366666666666666,-0.2677777777777778,0.058073300746290246,-0.05030667928283478,-0.04337396202588016
1592167787.7895398,-0.30394531626071053,9.126054683739289,3.0597352459805527,-0.4922222222222222,-0.5366666666666666,-0.2677777777777778,0.09125717885415618,-0.07905682413239237,-0.012400625666427412
1592167787.7995398,-0.24,9.19,3.01,-0.4922222222222222,-0.5366666666666666,-0.2677777777777778,0.1090830782496456,-0.08835729338221293,0.0
1592167787.8095398,-0.07292268479184366,9.292102803738318,2.9264613423959216,-0.4922222222222222,-0.5366666666666666,-0.2677777777777778,0.09895790722265004,-0.09341987889571073,0.007087619718896897
1592167787.8195398,0.07,9.34,2.92,-0.46555555555555556,-0.5288888888888889,-0.25333333333333335,0.044724062082354694,-0.07853981633974483,0.008726646259971648
1592167787.8295398,0.10695231103707259,9.250856933111217,2.9676192224073183,-0.46555555555555556,-0.5288888888888889,-0.25333333333333335,-0.034252246728506824,-0.05264030826470693,0.0012777845857478176
1592167787.8395398,0.09,9.2,3.01,-0.46555555555555556,-0.5288888888888889,-0.25333333333333335,-0.07308566242726255,-0.03599741582238304,-0.009817477042468103
1592167787.8495398,0.012531694511711197,9.153895932113713,3.153052033943143,-0.46555555555555556,-0.5288888888888889,-0.25333333333333335,-0.08133056819270339,-0.011591805731475382,-0.026070236378109984
1592167787.8595397,-0.14084617114584505,9.120423085572922,3.1699153828854154,-0.46560256506365805,-0.5288888888888889,-0.25322051051388733,-0.06642068389297456,-0.0032171105755004832,-0.043577849527869354
1592167787.8695397,-0.24,9.175118134397055,3.1617060447990184,-0.4711111111111111,-0.5288888888888889,-0.24,-0.05422088374291681,0.0023419892559459043,-0.03522724042179257
1592167787.8795397,-0.2609190259645005,9.179080974035498,3.1490809740354995,-0.4711111111111111,-0.5288888888888889,-0.24,-0.0696068291242166,-0.002688753064146685,-0.022630298285838533
1592167787.8895397,-0.33,9.11,3.08,-0.4711111111111111,-0.5288888888888889,-0.24,-0.09053895494720585,-0.004363323129985824,-0.01090830782496456
1592167787.8995397,-0.17484020038056775,9.104840200380567,3.1896804007611355,-0.4711111111111111,-0.5288888888888889,-0.24,-0.09979358516403493,-0.0034393512054853113,-0.008198662303114211
1592167787.9095397,-0.2074160226787309,9.137416022678732,3.2548320453574617,-0.4711111111111111,-0.5288888888888889,-0.24,-0.10334705613683201,0.0027792229969095857,-0.004645191330317129
1592167787.9195397,-0.16,9.14,3.45,-0.4722222222222222,-0.51,-0.21666666666666667,-0.1407171709420428,0.00545415391248228,0.032724923474893676
1592167787.9295397,-0.34605566641615054,9.058361106071994,3.470166636431959,-0.4722222222222222,-0.51,-0.21666666666666667,-0.19813729679527847,0.00019695280953825926,0.03733973105925762
1592167787.9395397,-0.53,9.05,3.42,-0.4722222222222222,-0.51,-0.21666666666666667,-0.20725784867432664,-0.004363323129985824,0.016362461737446838
1592167787.9495397,-0.5480025138160126,9.004798994473594,3.4723994972367977,-0.4722222222222222,-0.51,-0.21666666666666667,-0.16297094154933695,-0.009250135349654423,-0.017845680824881367
1592167787.9595397,-0.42248229355784767,9.05500708257686,3.4975035412884306,-0.4722222222222222,-0.51,-0.21666666666666667,-0.12189454552433449,-0.014726988152988084,-0.03336343043432674
1592167787.9695396,-0.295893595778063,9.09452479437075,3.4513688014073125,-0.46,-0.5244444444444445,-0.23222222222222222,-0.07199483164476608,-0.01486933102722609,-0.011642477965078658
1592167787.9795396,-0.3033148086837251,9.04800666887386,3.461332592347349,-0.46,-0.5244444444444445,-0.23222222222222222,-0.07112265199296158,-0.001965435305264271,0.003927233304083573
1592167787.9895396,-0.5148771810943588,8.981526342537693,3.466157885820769,-0.46,-0.5244444444444445,-0.23222222222222222,-0.05902349911104489,0.02254192664794684,0.0017893468519249844
1592167787.9995396,-0.4924436198091012,9.052081332848754,3.4377375236710725,-0.46,-0.5244444444444445,-0.23222222222222222,-0.013420646836752625,0.034289590333820674,0.004817399517994161
1592167788.0095396,-0.5806956904301919,8.995920924271696,3.421691692649056,-0.46,-0.5244444444444445,-0.23222222222222222,-0.00029318202958850993,0.029913768731432634,-0.007434900968692347
1592167788.0195396,-0.58,9.01,3.41,-0.4666666666666667,-0.5022222222222222,-0.2111111111111111,0.02399827721492203,0.02181661564992912,-0.015271630954950384
1592167788.0295396,-0.5203665250509063,9.239633474949095,3.2374343246436563,-0.4666666666666667,-0.5022222222222222,-0.2111111111111111,0.043524611658100815,-0.0005597435313184761,-0.0030326022626385924
1592167788.0395396,-0.5326020738044493,9.223928494456285,3.176071505543715,-0.4666666666666667,-0.5022222222222222,-0.2111111111111111,0.005943837905122873,-0.015744701322320552,0.0032724923474893677
1592167788.0495396,-0.5657992876597528,9.15202597946784,3.2486989314896295,-0.4666666666666667,-0.5022222222222222,-0.2111111111111111,-0.05939554184626471,-0.020488558311339784,0.0018491330109320814
1592167788.0595396,-0.6297087785459878,9.064150429499268,3.3445631678189818,-0.4666666666666667,-0.5022222222222222,-0.2111111111111111,-0.07682415183436019,-0.01787426681312546,-0.013836615978353851
1592167788.0695395,-0.88,9.0,3.43,-0.4722222222222222,-0.51,-0.21777777777777776,-0.05235987755982988,-0.025089107997418484,-0.044724062082354694
1592167788.0795395,-0.9290427356410347,9.009808547128207,3.3417230758461374,-0.4722222222222222,-0.51,-0.21777777777777776,-0.017051642601079317,-0.0486279313032522,-0.07361261795769607
1592167788.0895395,-0.8570608520727064,9.093137677515147,3.2178420384606174,-0.4722222222222222,-0.51,-0.21777777777777776,0.014736808563254381,-0.09761829181441833,-0.03785846608403571
1592167788.0995395,-0.65,9.05,3.33,-0.4722222222222222,-0.51,-0.21777777777777776,0.025089107997418484,-0.13526301702956053,-0.015271630954950384
1592167788.1095395,-0.4194330651060717,9.032264081931237,3.374339795171909,-0.4722222222222222,-0.51,-0.21777777777777776,0.02702379653594274,-0.16041396803037586,-0.005598188262329105
1592167788.1195395,-0.17127750177430803,9.060220014194465,3.34,-0.4666666666666667,-0.48333333333333334,-0.1988888888888889,0.054498184601174955,-0.15851652546324652,-0.004156614954736317
1592167788.1295395,-0.18244370047448155,9.138552951660687,3.3290033478648327,-0.4666666666666667,-0.48333333333333334,-0.1988888888888889,0.0823945720317677,-0.13493686338101624,-0.026421939847801324
1592167788.1395395,-0.2,9.2,3.25,-0.4666666666666667,-0.48333333333333334,-0.1988888888888889,0.07090400086226964,-0.1090830782496456,-0.03599741582238304
1592167788.1495395,-0.274870224211725,9.115770997761809,3.324870224211725,-0.4666666666666667,-0.48333333333333334,-0.1988888888888889,0.012713594862694882,-0.08764450761822332,-0.043143606032857135
1592167788.1595395,-0.3446171109279106,9.045382889072089,3.3761550792342216,-0.4666666666666667,-0.48333333333333334,-0.1988888888888889,-0.013426201466819299,-0.07006446983409934,-0.06075134090692397
1592167788.1695395,-0.3964991195773972,9.174498616478767,3.2394998742253427,-0.4666666666666667,-0.49777777777777776,-0.1988888888888889,-0.010145082994274135,-0.05994113777829344,-0.06643129281652431
1592167788.1795394,-0.3312384481980377,9.069714204261992,3.229809469507994,-0.4666666666666667,-0.49777777777777776,-0.1988888888888889,-0.037244123999142585,-0.05888407860224021,-0.04362283947357403
1592167788.1895394,-0.4601847580724311,9.040431102169006,3.2102463440965745,-0.4666666666666667,-0.49777777777777776,-0.1988888888888889,-0.053302912494329835,-0.056622430793454456,-0.042508810551908034
1592167788.1995394,-0.4982213374170495,9.111761715160796,3.256459622256253,-0.4666666666666667,-0.49777777777777776,-0.1988888888888889,-0.029164171158296212,-0.03994436344143495,-0.03721636214670532
1592167788.2095394,-0.7380179683511996,9.163146707503829,3.4448712608473713,-0.4666666666666667,-0.49777777777777776,-0.1988888888888889,-0.020756321447377588,-0.02779969163677471,-0.04095318424044694
1592167788.2195394,-0.83,9.05,3.54,-0.4533333333333333,-0.49777777777777776,-0.18222222222222223,-0.0545415391248228,-0.039269908169872414,-0.04145156973486533
1592167788.2295394,-0.7761504104598648,8.93137485340719,3.61848766125209,-0.4533333333333333,-0.49777777777777776,-0.18222222222222223,-0.10443480596024275,-0.06815641486107475,-0.02593998159303746
1592167788.2395394,-0.49127058653568334,9.031745882692864,3.512327843590484,-0.4533333333333333,-0.49777777777777776,-0.18222222222222223,-0.08164513306528991,-0.10663585302189091,-0.00840923582930446
1592167788.2495394,-0.35,9.06,3.55,-0.4533333333333333,-0.49777777777777776,-0.18222222222222223,-0.04363323129985824,-0.11999138607461016,-0.0032724923474893677
1592167788.2595394,-0.2828275644065118,9.001224118855697,3.59198277224593,-0.4533333333333333,-0.49777777777777776,-0.18222222222222223,-0.04546507531187418,-0.11541177604457031,-0.006020258365513276
1592167788.2695394,-0.26,8.94,3.66,-0.44555555555555554,-0.47555555555555556,-0.16333333333333333,-0.032724923474893676,-0.0818123086872342,-0.01090830782496456
1592167788.2795393,-0.5012468221509893,8.990124682215098,3.65,-0.44555555555555554,-0.47555555555555556,-0.16333333333333333,0.009025862096143108,-0.0566687978105118,-0.007588212958084278
1592167788.2895393,-0.6866917210124903,9.008669172101248,3.65,-0.44555555555555554,-0.47555555555555556,-0.16333333333333333,0.05352944300585792,-0.048577237645109114,-0.0005080978133569216
1592167788.2995393,-0.6907118830068946,8.97284753202758,3.7057287019586327,-0.44555555555555554,-0.47555555555555556,-0.16333333333333333,0.06989449379557587,-0.055088789179099526,0.0
1592167788.3095393,-0.5744449497745788,8.93148164992486,3.7022963299849723,-0.44555555555555554,-0.47555555555555556,-0.16333333333333333,0.08182842137003347,-0.08840563143061075,-0.0016806800781175128
1592167788.3195393,0.04,9.1,3.43,-0.4722222222222222,-0.47555555555555556,-0.14666666666666667,0.1287180323345818,-0.13635384781205698,0.001090830782496456
1592167788.3295393,0.12927197534235887,9.148069525184347,3.306392649525965,-0.4722222222222222,-0.47555555555555556,-0.14666666666666667,0.14519782934834805,-0.1415974195891644,0.004087157512272137
1592167788.3395393,0.277946281877277,9.140246446174727,3.0907393385241804,-0.4722222222222222,-0.47555555555555556,-0.14666666666666667,0.1394291973722247,-0.12406795605940082,0.009647217362508481
1592167788.3495393,0.029478401147158988,9.170115910856186,3.180115910856187,-0.4722222222222222,-0.47555555555555556,-0.14666666666666667,0.11550162381467015,-0.08932800699125291,-0.01110428847639354
1592167788.3595393,-0.0457017386628428,9.186822608591742,3.196822608591743,-0.4722222222222222,-0.47555555555555556,-0.14666666666666667,0.09727744365086188,-0.07201503583563507,-0.03935176773029636
1592167788.3695393,-0.08,9.18,3.26,-0.44222222222222224,-0.48333333333333334,-0.14666666666666667,0.06763150851478027,-0.07090400086226964,-0.04690572364734761
1592167788.3795393,-0.08854328312794767,9.154370150616158,3.328346265023581,-0.44222222222222224,-0.48333333333333334,-0.14666666666666667,0.035014041746362544,-0.09327026378918464,-0.04317801315952844
1592167788.3895392,0.11664757190004715,9.087107260726073,3.286091937765205,-0.44222222222222224,-0.48333333333333334,-0.14666666666666667,5.0144272179822313e-05,-0.1245260740403941,-0.03470179068930192
1592167788.3995392,0.30824318283415286,9.089896657813773,3.2305167109311315,-0.44222222222222224,-0.48333333333333334,-0.14666666666666667,-0.009749839739748425,-0.14058189633660345,-0.027338406865131077
1592167788.4095392,0.31,9.13171016704144,3.2133159331834245,-0.44222222222222224,-0.48333333333333334,-0.14666666666666667,0.0020121938370183372,-0.12524760133040672,-0.02545082019633656
1592167788.4195392,0.2508308448972422,9.179446103401839,3.338199836055975,-0.4356478716552491,-0.4581316561599365,-0.16310254308409938,0.010817676706025367,-0.0845226517793724,-0.04014926634151075
1592167788.4295392,0.1345093680533503,9.122254684026675,3.397745315973325,-0.43555555555555553,-0.4577777777777778,-0.16333333333333333,-0.007201423035032973,-0.05407354535310076,-0.05453357179932346
1592167788.4395392,0.08121574050792055,9.047294443047523,3.402431481015841,-0.43555555555555553,-0.4577777777777778,-0.16333333333333333,-0.040052579942025705,-0.01954526294440909,-0.06478676336500355
1592167788.4495392,0.01710203883965325,8.995072884885467,3.3910145769770934,-0.43555555555555553,-0.4577777777777778,-0.16333333333333333,-0.050494334518855516,-0.010481516121163461,-0.06054905893621788
1592167788.4595392,0.04013189137418441,9.102994592653191,3.3297362172516314,-0.43555555555555553,-0.4577777777777778,-0.16333333333333333,-0.016756812399243648,-0.012282636640903087,-0.05095677450971013
1592167788.4695392,0.09694483240223464,9.205722765363129,3.216110335195531,-0.45329027001862193,-0.49533364369956545,-0.14142574487895718,0.02731952177615426,-0.014114146755227363,-0.01931958820228709
1592167788.4795392,0.10599508779647349,9.204004912203526,3.162039297628212,-0.45444444444444443,-0.49777777777777776,-0.14,0.02291280481524219,-0.0076411738602918085,-0.012875554101429813
1592167788.4895391,0.11838075166842289,9.015623463294697,3.1635230066736915,-0.45444444444444443,-0.49777777777777776,-0.14,-0.003396633258458407,0.017754066023371366,-0.01987365713287976
1592167788.4995391,0.01816344837354232,9.005459137906614,3.331241206741891,-0.45444444444444443,-0.49777777777777776,-0.14,-0.006710095099996612,0.04958822697428651,-0.01718801376253622
1592167788.5095391,-0.10484007396333307,9.107850735699111,3.4019360295853334,-0.45444444444444443,-0.49777777777777776,-0.14,0.03462561607564848,0.07665167657571519,-0.010263113475131695
1592167788.519539,-0.29782976657070515,9.131521279178662,3.5123936041066908,-0.45444444444444443,-0.4844320349623669,-0.12665425718458911,0.08461132954874803,0.09524635268910324,-0.004612241853514116
1592167788.529539,-0.4254403162055336,9.000129644268775,3.4911399209486165,-0.45444444444444443,-0.48333333333333334,-0.12555555555555556,0.06916462159636165,0.0778912678563333,0.0011459328275569497
1592167788.539539,-0.48811090640163995,9.031499078807379,3.32605729558606,-0.45444444444444443,-0.48333333333333334,-0.12555555555555556,0.0720553217032085,0.030404335748536557,0.0062358824777625195
1592167788.549539,-0.5082425642368966,9.167697949658276,3.246151025170862,-0.45444444444444443,-0.48333333333333334,-0.12555555555555556,0.12084458391832448,-0.011629207400509097,-0.005394745677786749
1592167788.559539,-0.4344519492830904,9.225328830430145,3.1720067543547814,-0.45444444444444443,-0.48333333333333334,-0.12555555555555556,0.12956604695107285,-0.050707990845182,-0.011489593051755242
1592167788.569539,-0.134757440523967,9.17356214081613,3.08356214081613,-0.45444444444444443,-0.47595134897957003,-0.1329375399093189,0.09052217940077067,-0.11394339883153393,-0.02137253646663522
1592167788.579539,-0.09015990862364363,9.2117761279269,3.121776127926899,-0.45444444444444443,-0.47555555555555556,-0.13333333333333333,0.07989416592349542,-0.14275928590779002,-0.03548782154478047
1592167788.589539,0.043251902173913045,9.283558423913043,3.0715948369565216,-0.45444444444444443,-0.47555555555555556,-0.13333333333333333,0.05802143753169063,-0.1898113442046331,-0.04947554904649244
1592167788.599539,0.007239936653508874,9.10533977828728,3.244660221712719,-0.45444444444444443,-0.47555555555555556,-0.13333333333333333,-0.05083938728458941,-0.21239277465956075,-0.054974241093571595
1592167788.609539,0.0,9.060206684099295,3.3029888598345094,-0.45444444444444443,-0.47555555555555556,-0.13333333333333333,-0.06544984694978735,-0.21057543249736857,-0.05131413825288599
1592167788.619539,0.0,9.093274997171198,3.32865499943424,-0.44386611180259583,-0.4717088891403379,-0.13333333333333333,-0.04467933937799934,-0.19041051382664254,-0.054752069095555425
1592167788.629539,0.0,9.118289642668278,3.3848689280048347,-0.44222222222222224,-0.4711111111111111,-0.13333333333333333,-0.042781630083093235,-0.1723272005847695,-0.05297224921086344
1592167788.639539,0.08577747625508819,8.888263476008389,3.412202047613174,-0.44222222222222224,-0.4711111111111111,-0.13333333333333333,-0.019815741088681393,-0.14807316753518598,-0.04616529887493839
1592167788.649539,0.11,8.84299981423861,3.4176666047462034,-0.44222222222222224,-0.4711111111111111,-0.13333333333333333,0.08475676152643137,-0.11221038316284179,-0.025489234637252615
1592167788.659539,0.06445015709797201,9.020811910882605,3.374450157097972,-0.44222222222222224,-0.4711111111111111,-0.13333333333333333,0.15677132732122623,-0.07583123926288407,-0.01839277481555096
1592167788.669539,-0.26916065133456435,9.194874097700186,3.272688853449723,-0.43723621136664614,-0.4744351183481618,-0.10674127543692762,0.14302701473764637,-0.026262341642450344,-0.012558287809131811
1592167788.679539,-0.44025554175604986,9.1497809642091,3.174726205261375,-0.43555555555555553,-0.47555555555555556,-0.09777777777777778,0.1002568774133481,-0.006509145047501431,-0.011455714307739303
1592167788.689539,-0.45337907520640197,9.195153146045254,2.897782411451436,-0.43555555555555553,-0.47555555555555556,-0.09777777777777778,0.08014438787849382,0.027095690745394863,-0.009352116563249293
1592167788.699539,-0.2888644776119403,9.379531940298508,2.6904680597014927,-0.43555555555555553,-0.47555555555555556,-0.09777777777777778,0.04242830287372395,0.06844530084063555,-0.008726646259971648
1592167788.709539,-0.144905059414431,9.399209849320103,2.6923704520396914,-0.43555555555555553,-0.47555555555555556,-0.09777777777777778,-0.005896873792723703,0.08899925725323009,0.0006895365475538054
1592167788.719539,0.08520973154362416,9.25395134228188,2.9180648769574944,-0.4411577181208054,-0.47182078051205567,-0.09777777777777778,-0.1518719528364305,0.13819599744726282,0.03670297835032329
1592167788.729539,0.06803930600337786,9.21901965300169,3.0323526024873333,-0.44222222222222224,-0.4711111111111111,-0.09777777777777778,-0.18556948477807425,0.1458932576340983,0.04994289935896909
1592167788.739539,-0.022481062626693693,9.145572388776273,3.148320708417796,-0.44222222222222224,-0.4711111111111111,-0.09777777777777778,-0.21058864745753889,0.13341856683683728,0.04375810715920089
1592167788.749539,-0.1743671884480039,9.121331149132388,3.2553573595437446,-0.44222222222222224,-0.4711111111111111,-0.09777777777777778,-0.2089295028367035,0.11373323917913024,0.03043167710834216
1592167788.759539,-0.3900384922503634,9.047082369320858,3.3914395692143895,-0.44222222222222224,-0.4711111111111111,-0.09777777777777778,-0.19400244893679333,0.06776334803708892,-0.0018885905482668303
1592167788.7695389,-0.42,8.9851928490991,3.4296143018018017,-0.43728650525525525,-0.46535277464964964,-0.10764921171171171,-0.1542278717993483,0.025666846006869908,-0.018785276138012764
1592167788.7795389,-0.3748374043555032,9.029678855208946,3.4354837404355503,-0.43555555555555553,-0.4633333333333333,-0.1111111111111111,-0.12270028519298817,0.007107695115187234,-0.01569377412121961
1592167788.7895389,-0.251394253813404,9.09,3.4681143034369977,-0.43555555555555553,-0.4633333333333333,-0.1111111111111111,-0.1039954461866293,-0.01709550543637882,-0.0017615316276172795
1592167788.7995389,-0.19811190142017748,9.018251778195399,3.6155244189642457,-0.43555555555555553,-0.4633333333333333,-0.1111111111111111,-0.11450671578369422,-0.025943462796355454,0.0028300567588040526
1592167788.8095388,-0.22366357715430862,8.971947019038076,3.686468875250501,-0.43555555555555553,-0.4633333333333333,-0.1111111111111111,-0.10539650331272096,-0.028494811769373542,0.0008244079335650817
1592167788.8195388,-0.3621473742095133,8.85530225067756,3.93644212262854,-0.431416875062737,-0.46912748602327925,-0.1061446945197289,-0.01947419376065298,-0.04626139695316552,-0.004641525897995152
1592167788.8295388,-0.4091915928699023,8.869191592869903,3.9510778761734637,-0.43,-0.4711111111111111,-0.10444444444444445,0.03290452436234663,-0.05976053693535837,-0.005424759399738941
1592167788.8395388,-0.44,8.959032492473789,3.725523461019413,-0.43,-0.4711111111111111,-0.10444444444444445,0.10224353074215063,-0.08643081578569876,-0.02344853043392705
1592167788.8495388,-0.2850070796460177,9.022270796460177,3.554323008849557,-0.43,-0.4711111111111111,-0.10444444444444445,0.13144433702124242,-0.10040566417543265,-0.04021149785593174
1592167788.8595388,-0.1982591832078485,9.001953570613734,3.5263056125941135,-0.43,-0.4711111111111111,-0.10444444444444445,0.14742884144961044,-0.10540759075167541,-0.045909839692029435
1592167788.8695388,-0.12630940797844473,9.010267944016165,3.5332886759973055,-0.4247800813312377,-0.4711111111111111,-0.09475030977388585,0.17978909508021446,-0.10470514104061876,-0.04763781552869224
1592167788.8795388,-0.06113776300381521,9.080520908095039,3.4872515393041965,-0.4222222222222222,-0.4711111111111111,-0.09,0.19580150891466622,-0.09896579065403112,-0.045876948210238515
1592167788.8895388,-0.028262014483212642,9.124672481895983,3.299886438446346,-0.4222222222222222,-0.4711111111111111,-0.09,0.17868188823160758,-0.06773725231512431,-0.03329367790526708
1592167788.8995388,-0.10067959985419789,9.064490300109352,3.314472074845085,-0.4222222222222222,-0.4711111111111111,-0.09,0.1674239919021875,-0.049953829394687135,-0.027383956896450356
1592167788.9095387,-0.2715201891727276,8.97092794955394,3.4676801261151518,-0.4222222222222222,-0.4711111111111111,-0.09,0.18760026584004194,-0.03084693269131302,-0.024518386707719237
1592167788.9195387,-0.4057395767027371,8.995605108211329,3.48959659452578,-0.42616340441332484,-0.46716992892000847,-0.09394118219110262,0.24256047611240952,-0.02842027329278879,-0.02343085946821845
1592167788.9295387,-0.3532324668128267,9.082707013274868,3.381703808996073,-0.43,-0.4633333333333333,-0.09777777777777778,0.29723923343140923,-0.04670076088750734,-0.017934438590869767
1592167788.9395387,-0.23157058599695585,9.171299467275494,3.2145310121765602,-0.43,-0.4633333333333333,-0.09777777777777778,0.31461408949517433,-0.05391539063342405,-0.01869573134783809
1592167788.9495387,-0.21439828425466287,9.185601715745337,3.037614583835366,-0.43,-0.4633333333333333,-0.09777777777777778,0.3127199302024326,-0.04197666578072655,-0.01884964950093019
1592167788.9595387,-0.22568672275054866,9.204642465252377,2.9501929407461596,-0.43,-0.4633333333333333,-0.09777777777777778,0.30737159674905784,-0.03171209467410097,-0.01461539689148621
1592167788.9695387,-0.38191236771195375,9.31,2.8339641504276174,-0.43,-0.4633333333333333,-0.08911686474618485,0.2616016435693549,0.0063168248296664765,0.015262940773373888
1592167788.9795387,-0.4843354727614277,9.302832263619287,2.8771677363807138,-0.43,-0.4633333333333333,-0.08333333333333333,0.22856354295587294,0.01844747173342081,0.027907670957373225
1592167788.9895387,-0.561850488460994,9.28,2.778968143848223,-0.43,-0.4633333333333333,-0.08333333333333333,0.1699522390164547,0.02578397786243449,0.03688638962728884
1592167788.9995387,-0.7181135296628255,9.355962441314555,2.585697823303457,-0.43,-0.4633333333333333,-0.08333333333333333,0.14419544528093783,0.03295957081351007,0.038673047280772775
1592167789.0095387,-0.4857466901212851,9.438150541616517,2.535350060179613,-0.43,-0.4633333333333333,-0.08333333333333333,0.10826462693390157,0.029577804457039628,0.044445946184860134
1592167789.0195386,-0.18913105314277787,9.427454211183573,2.6158994727348412,-0.4215667252516843,-0.46463076021768956,-0.07879233923808643,0.02558457553821246,0.017629547889197787,0.035259095778395574
1592167789.0295386,-0.10622093023255814,9.302609011627908,2.7674745639534883,-0.41555555555555557,-0.46555555555555556,-0.07555555555555556,-0.03213749207240103,0.0035570913670505792,0.02104685061373431
1592167789.0395386,0.04590931303207223,9.143116946580593,2.907532213677632,-0.41555555555555557,-0.46555555555555556,-0.07555555555555556,-0.05042605939219233,-0.04245753224964614,0.0001770309981109705
1592167789.0495386,0.03464311356490308,9.213642395583175,2.8729286227129807,-0.41555555555555557,-0.46555555555555556,-0.07555555555555556,-0.01785863725551531,-0.06289414150527732,-0.027823814368530642
1592167789.0595386,-0.008916413239245326,9.25020579290797,2.87,-0.41555555555555557,-0.46555555555555556,-0.07555555555555556,-0.008749094783854846,-0.06248110213277494,-0.037644886258069325
1592167789.0695386,-0.17799757158757462,9.28133495227495,2.828003642618638,-0.41866639684306384,-0.46814792329514576,-0.07918487039098189,-0.0340321985723224,-0.04290645227603163,-0.03374360615241272
1592167789.0795386,-0.18544728434504792,9.266138178913737,2.804552715654952,-0.4222222222222222,-0.4711111111111111,-0.08333333333333333,-0.08015820146633201,-0.02436638904048493,-0.0154667955677932
1592167789.0895386,-0.12396078254394477,9.28726470654602,2.82,-0.4222222222222222,-0.4711111111111111,-0.08333333333333333,-0.11812948854363153,-0.008829312396979854,6.202797057316793e-05
1592167789.0995386,-0.01163408913213447,9.22766223612197,3.067154026583268,-0.4222222222222222,-0.4711111111111111,-0.08333333333333333,-0.15893549490209505,-0.0223419884114755,0.010490397673734487
1592167789.1095386,0.04897283453763834,9.170030183847068,3.2479456690752766,-0.4222222222222222,-0.4711111111111111,-0.08333333333333333,-0.17572921725853224,-0.03969175327628374,0.012437446448630587
1592167789.1195385,0.16542086169649045,9.03951901520401,3.465661354094485,-0.42615787352183226,-0.46717545981150105,-0.07265085123439177,-0.16831692827438416,-0.10332617021830226,0.0021291942628551457
1592167789.1295385,0.2,9.0,3.529334601483736,-0.43,-0.4633333333333333,-0.06222222222222222,-0.1385702449815753,-0.1268277431463782,-0.006254649821311426
1592167789.1395385,0.10714955262036642,9.034818917767362,3.4613463996591394,-0.43,-0.4633333333333333,-0.06222222222222222,-0.0638161570475824,-0.13093919991427952,-0.027231263547706584
1592167789.1495385,-0.02938233239382334,9.028462576184626,3.4152299390522995,-0.43,-0.4633333333333333,-0.06222222222222222,-0.0024010049809910297,-0.11030866319977574,-0.029284724205048972
1592167789.1595385,-0.08852164611833588,9.006031075831785,3.432645949445477,-0.43,-0.4633333333333333,-0.06222222222222222,0.025759831062577877,-0.10014843537534554,-0.026404884631194822
1592167789.1695385,-0.21,9.016575763114604,3.441872052641199,-0.42412981579642156,-0.46107557017811085,-0.0649315380084892,0.09525120037098966,-0.09561958255957319,-0.020282474108558123
1592167789.1795385,-0.21515719844357975,9.07515719844358,3.4222642023346306,-0.41555555555555557,-0.4577777777777778,-0.06888888888888889,0.12968993285044186,-0.10238486790778702,-0.019728714598497867
1592167789.1895385,-0.3485146942017474,9.124765687053216,3.2719539316918187,-0.41555555555555557,-0.4577777777777778,-0.06888888888888889,0.1539093786420357,-0.10093607122199336,-0.02643553455500347
1592167789.1995385,-0.486191125789776,9.113982624928202,3.1979652498564044,-0.41555555555555557,-0.4577777777777778,-0.06888888888888889,0.16255273985513707,-0.08266222939743319,-0.03622884926309794
1592167789.2095385,-0.5285055861575327,9.112561852301372,3.1872246600068466,-0.41555555555555557,-0.4577777777777778,-0.06888888888888889,0.16759574655959436,-0.07735583397889682,-0.03903702922399355
1592167789.2195385,-0.36226429735392257,9.250361604717932,3.0070598277333747,-0.41555555555555557,-0.4600401783019925,-0.07477113025184726,0.20672957406320222,-0.0721972198189687,-0.01681184643708785
1592167789.2295384,-0.2011072315332092,9.28145328988206,2.9212802607076354,-0.41555555555555557,-0.4633333333333333,-0.08333333333333333,0.21541076771059,-0.07042841286049686,0.0015852933392425993
1592167789.2395384,0.06484848484848485,9.3,2.7304848484848483,-0.41555555555555557,-0.4633333333333333,-0.08333333333333333,0.1757361446080048,-0.052974709455418795,0.0223587254933516
1592167789.2495384,0.061121110135596526,9.323103111891523,2.6557757779728806,-0.41555555555555557,-0.4633333333333333,-0.08333333333333333,0.13628832454073497,-0.025070539080088897,0.022907446432425576
1592167789.2595384,0.044561067595010155,9.341954743255004,2.663257905425007,-0.41555555555555557,-0.4633333333333333,-0.08333333333333333,0.11866561686074574,-0.012308128214664246,0.022907446432425576
1592167789.2695384,0.11356346703820488,9.337928796656156,2.7491981374202537,-0.41555555555555557,-0.4613536294232195,-0.07818610316703739,0.06727927024018004,0.004351164570263051,0.018631592940971678
1592167789.2795384,0.10909369639011571,9.277818739278022,2.8216359455414826,-0.41555555555555557,-0.4577777777777778,-0.06888888888888889,0.03601752275179724,0.015311008684040757,0.010432430556928
1592167789.2895384,-0.0885670031512044,9.257134006302408,2.81144848581958,-0.41555555555555557,-0.4577777777777778,-0.06888888888888889,0.023060382970590036,0.03677561519010217,0.003116176640100702
1592167789.2995384,-0.07605461371639112,9.299156309026888,2.755210922743278,-0.41555555555555557,-0.4577777777777778,-0.06888888888888889,0.028453632753346447,0.04397157377211963,0.009587396021371623
1592167789.3095384,-0.0639901126162303,9.316502471845943,2.7220197747675394,-0.41555555555555557,-0.4577777777777778,-0.06888888888888889,0.016260389209870517,0.05748085023314734,0.019468363465353793
1592167789.3195384,-0.12467233105184486,9.325169144835183,2.6591648965462986,-0.41748179616954695,-0.4589816781615224,-0.06383250727716151,-0.009509605479868304,0.07568590059060544,0.030343778300907533
1592167789.3295383,-0.23441457375309516,9.385195142082303,2.62,-0.42444444444444446,-0.4633333333333333,-0.04555555555555556,-0.0586654994336524,0.08791831148613224,0.0510855052696548
1592167789.3395383,-0.14857174397809816,9.385238116265207,2.6009524650608262,-0.42444444444444446,-0.4633333333333333,-0.04555555555555556,-0.10612213486120893,0.0879417502669149,0.0688261889502943
1592167789.3495383,-0.03669904687295992,9.31815537276407,2.775048439744092,-0.42444444444444446,-0.4633333333333333,-0.04555555555555556,-0.1606910103597734,0.08300904647715518,0.08061557089731322
1592167789.3595383,0.0,9.206729810927015,3.108009606562686,-0.42444444444444446,-0.4633333333333333,-0.04555555555555556,-0.20115748148054463,0.07428505233129408,0.0803285692403532
1592167789.3695383,0.012323141486810553,9.106111360911271,3.3639388489208635,-0.4199944211297629,-0.4660718092192912,-0.05000557887023714,-0.21732326409833788,0.04957230788933159,0.07266147770526209
1592167789.3795383,0.04255083996463307,9.025748600058945,3.5291497200117887,-0.41,-0.4722222222222222,-0.06,-0.20835068879734492,0.015017569939368942,0.06343150458240959
1592167789.3895383,0.06101734951535391,9.007965300969293,3.410377670983682,-0.41,-0.4722222222222222,-0.06,-0.11957271745466039,-0.00582196981451653,0.035455154662036394
1592167789.3995383,-0.04105057799966071,9.120210115599932,3.3616809247994572,-0.41,-0.4722222222222222,-0.06,-0.04257211463896045,0.017125617664769326,0.021724935424213644
1592167789.4095383,-0.09,9.13,3.44,-0.41,-0.4722222222222222,-0.06,-0.01854412330243975,0.0272707695624114,0.017453292519943295
1592167789.4195383,0.03282316642026098,9.052164941826831,3.560705791605065,-0.41,-0.46960525094098404,-0.06452022312213866,-0.006239619389471757,0.009586507279818277,0.023687723153362806
1592167789.4295382,0.20983736333529918,9.021414508007076,3.5404879099941025,-0.41,-0.46,-0.0811111111111111,0.05623182454978039,-0.005436413004460459,0.015081850251286003
1592167789.4395382,0.19130472982867183,9.12625420998682,3.3750841997364183,-0.41,-0.46,-0.0811111111111111,0.12447131580456997,-0.006275032429285514,0.0008282263299522821
1592167789.4495382,0.08486340762041697,9.107431703810208,3.1913479511143064,-0.41,-0.46,-0.0811111111111111,0.16340405938915054,0.004216284473107257,-0.020578746210554097
1592167789.4595382,-0.058353000796351265,9.138933613262868,3.050580612466517,-0.41,-0.46,-0.0811111111111111,0.18891533914063469,0.022240533672114086,-0.030977525174430413
1592167789.4695382,-0.2670570947137427,9.251171284141229,2.91412398604961,-0.40712488733884555,-0.46287511266115444,-0.0811111111111111,0.21829285513322352,0.04234914662936984,-0.030736515797892713
1592167789.4795382,-0.29,9.32,2.83,-0.3977777777777778,-0.4722222222222222,-0.0811111111111111,0.2399827721492203,0.05235987755982988,-0.020725784867432664
1592167789.4895382,-0.19059957552175452,9.42566737413041,2.6398644027826905,-0.3977777777777778,-0.4722222222222222,-0.0811111111111111,0.20148291514015515,0.04478946562591082,0.010043270396868826
1592167789.4995382,-0.17,9.46,2.53,-0.3977777777777778,-0.4722222222222222,-0.0811111111111111,0.16253378659197193,0.042542400517361786,0.0272707695624114
1592167789.5095382,0.025837892961503014,9.3796648428154,2.575502735776902,-0.3977777777777778,-0.4722222222222222,-0.0811111111111111,0.08221913202842647,0.0348700250624928,0.04972420054707321
1592167789.5195382,0.10972508051213574,9.345137459743931,2.615137459743932,-0.40318060028451985,-0.47024118730308345,-0.08003054660976269,0.0422787538032198,0.03375577612937604,0.05710680365998589
1592167789.5295382,0.16,9.32,2.59,-0.4311111111111111,-0.46,-0.07444444444444444,0.02399827721492203,0.044724062082354694,0.053450708342326333
1592167789.5395381,-0.021639281410888382,9.241557399496111,2.8237704020155547,-0.4311111111111111,-0.46,-0.07444444444444444,0.003147325818333378,0.07682309316610844,0.039091090307455285
1592167789.5495381,-0.11,9.21,2.95,-0.4311111111111111,-0.46,-0.07444444444444444,-0.011999138607461015,0.08508480103472357,0.02945243112740431
1592167789.5595381,-0.1236204517680451,9.21,3.1281897741159774,-0.4311111111111111,-0.46,-0.07444444444444444,-0.03352114781236774,0.04282746052671128,0.019634954084936207
1592167789.569538,-0.05428666379950737,9.204066153184502,3.1361543574305037,-0.42847384585977855,-0.4571429626443897,-0.07290603971450044,-0.041883091252529606,0.00484295260099318,0.019634954084936207
1592167789.579538,0.05,9.18,3.08,-0.4177777777777778,-0.44555555555555554,-0.06666666666666667,-0.04363323129985824,-0.01090830782496456,0.019634954084936207
1592167789.589538,0.08441610600905579,9.215583893990946,2.9748724770407513,-0.4177777777777778,-0.44555555555555554,-0.06666666666666667,-0.020570577765740578,0.008704685096895115,0.02098055668304732
1592167789.599538,0.07,9.220317452874426,2.9358201256681986,-0.4177777777777778,-0.44555555555555554,-0.06666666666666667,0.0016564505327002353,0.03857155345387203,0.0297352410025062
1592167789.609538,0.07227561086130574,9.197724389138694,2.9877243891386946,-0.4177777777777778,-0.44555555555555554,-0.06666666666666667,0.016467290085153023,0.06644968961619353,0.03589950759048482
1592167789.619538,0.079585555439367,9.190414444560632,2.980414444560633,-0.4177777777777778,-0.44555555555555554,-0.06666666666666667,0.030820332700519183,0.08718186228283353,0.03908907261612174
1592167789.629538,0.04002563420473507,9.206658121931754,2.9799871828976325,-0.43666666666666665,-0.4533333333333333,-0.06666666666666667,0.05490328521368096,0.10835678981396828,0.04036353521032986
1592167789.639538,0.013049168408615832,9.206950831591385,3.0,-0.43666666666666665,-0.4533333333333333,-0.06666666666666667,0.053543701096482633,0.09871661679764607,0.03243880717585843
1592167789.649538,0.04,9.182987335002553,3.0089620050076573,-0.43666666666666665,-0.4533333333333333,-0.06666666666666667,0.043094723593148025,0.06845173307573951,0.02117869562332248
1592167789.659538,0.04667204483695652,9.196672044836957,3.018879925271739,-0.43666666666666665,-0.4533333333333333,-0.06666666666666667,0.0421811369260119,0.028354560336461034,0.007389693076906825
1592167789.669538,0.06804245923913044,9.21804245923913,2.9832625679347826,-0.43666666666666665,-0.4533333333333333,-0.06666666666666667,0.05150573927185066,0.00038075329894474846,-0.007374260637337881
1592167789.679538,-0.014232056915672735,9.36779007114459,2.6886519146264907,-0.43666666666666665,-0.44555555555555554,-0.06,0.06515574034521596,-0.009985016233585994,-0.01932036159153262
1592167789.689538,-0.04,9.4,2.65,-0.43666666666666665,-0.44555555555555554,-0.06,0.056723200689815706,-0.004363323129985824,-0.020725784867432664
1592167789.699538,-0.1,9.355934969966048,2.5940650300339514,-0.43666666666666665,-0.44555555555555554,-0.06,0.0009524898506656186,0.01769273970528889,-0.005214706727136688
1592167789.709538,-0.1,9.32,2.63,-0.43666666666666665,-0.44555555555555554,-0.06,-0.0272707695624114,0.02945243112740431,0.006544984694978735
1592167789.719538,0.0019859985261606486,9.3,2.792978997789241,-0.43626211141133764,-0.4460336663118535,-0.06,-0.04944844993339529,0.04061348425710721,0.024431554880187757
1592167789.729538,0.04935349985995468,9.294676749929978,2.903954625315102,-0.42444444444444446,-0.46,-0.06,-0.06435076681678542,0.0497385839416362,0.03766892310881021
1592167789.739538,0.01366574152286714,9.248328707614336,2.9953370339085317,-0.42444444444444446,-0.46,-0.06,-0.08292227869934028,0.05039577664613541,0.037887987343643285
1592167789.749538,0.013196185681785178,9.150308582215983,3.082990464204463,-0.42444444444444446,-0.46,-0.06,-0.09456484867036928,0.031015335708773392,0.032387494068071294
1592167789.759538,0.04,9.09,3.15,-0.42444444444444446,-0.46,-0.06,-0.08944812416470939,0.009817477042468103,0.0272707695624114
1592167789.769538,0.05863454480227392,9.108634544802273,3.1406827275988634,-0.42444444444444446,-0.46,-0.06,-0.060990135041327775,-0.010509658045661622,0.018123558772753023
1592167789.779538,0.11,9.17,3.06,-0.42444444444444446,-0.46,-0.06666666666666667,-0.017453292519943295,-0.019634954084936207,0.008726646259971648
1592167789.789538,0.056002540861449755,9.268001270430725,2.8820050817228995,-0.42444444444444446,-0.46,-0.06666666666666667,0.008289898199490548,0.006758854794158674,0.005889516148021653
1592167789.799538,0.01616653703834641,9.249166607744703,2.869500106059535,-0.42444444444444446,-0.46,-0.06666666666666667,0.008072132364739736,0.042087932683045864,0.014126270202629632
1592167789.809538,-0.07,9.21,2.944600144409418,-0.42444444444444446,-0.46,-0.06666666666666667,-0.002348927535850328,0.07550741703277182,0.02415833924193294
1592167789.8195379,-0.07,9.21,2.966759769649367,-0.42444444444444446,-0.46,-0.06666666666666667,-0.0031546742471943714,0.09242809797099674,0.03543879320074955
1592167789.8295379,0.0,9.28,2.94,-0.4444444444444444,-0.46,-0.07444444444444444,0.006544984694978735,0.10144726277217041,0.05017821599483697
1592167789.8395379,0.022229771967493817,9.271114885983746,2.8577362541787843,-0.4444444444444444,-0.46,-0.07444444444444444,0.00787163392239615,0.08410446752959955,0.05041774041230195
1592167789.8495378,0.05542550911039657,9.273389067524116,2.764407288317256,-0.4444444444444444,-0.46,-0.07444444444444444,-0.011001139512135213,0.049049270439018564,0.03978714668881821
1592167789.8595378,0.10518875809709549,9.254811241902905,2.799244967611618,-0.4444444444444444,-0.46,-0.07444444444444444,-0.02640628027890895,0.007533015864135516,0.0225061632411074
1592167789.8695378,0.08327801769171833,9.276721982308281,2.8868879292331266,-0.4444444444444444,-0.46,-0.07444444444444444,-0.042340220346558474,-0.022741470264398586,0.005775526170075398
1592167789.8795378,-0.015539467092865149,9.24347367667756,3.058592113737745,-0.40444444444444444,-0.46,-0.06666666666666667,-0.06683778672001178,-0.030282036027276738,-0.013955457394933845
1592167789.8895378,0.06107467561126313,9.172336481595904,3.1127570835907847,-0.40444444444444444,-0.46,-0.06666666666666667,-0.07614916473031652,-0.02571607813072466,-0.012671989301086687
1592167789.8995378,0.1405821084642676,9.14,3.046727065382666,-0.40444444444444444,-0.46,-0.06666666666666667,-0.07262561159395525,-0.02630693514622991,-0.011201831424775694
1592167789.9095378,0.07583055382145724,9.144169446178543,3.092779630785695,-0.40444444444444444,-0.46,-0.06666666666666667,-0.05214544705855648,-0.009148230517443033,-0.013847996096210248
1592167789.9195378,0.053387139926870594,9.16661286007313,3.1077419067154195,-0.40444444444444444,-0.46,-0.06666666666666667,-0.033375939224154924,0.012069473991010908,-0.017928323886297542
1592167789.9295378,0.02,9.18,3.14,-0.4311111111111111,-0.46,-0.07444444444444444,-0.007635815477475192,0.02399827721492203,-0.019634954084936207
1592167789.9395378,0.02907947551511908,9.152761573454644,3.1581589510302384,-0.4311111111111111,-0.46,-0.07444444444444444,0.002268355903339566,0.029940780043410886,-0.01666370267069178
1592167789.9495378,-0.04676355572511803,9.121352711145024,3.1613527111450237,-0.4311111111111111,-0.46,-0.07444444444444444,0.010792456799516535,0.0267384634924083,-0.019930069876299764
1592167789.9595377,-0.08073551007088597,9.139264489929115,3.155588571221378,-0.4311111111111111,-0.46,-0.07444444444444444,0.027703807174484223,0.014116686004378843,-0.02181661564992912
1592167789.9695377,-0.01229935278014467,9.207700647219855,3.0491323265468915,-0.4311111111111111,-0.46,-0.07444444444444444,0.05507630507760451,-0.002472706664178908,-0.02181661564992912
1592167789.9795377,0.008644898594325432,9.25,2.9618693915659526,-0.42444444444444446,-0.46,-0.0811111111111111,0.09186932264124847,-0.006657185402571996,-0.008634927981096874
1592167789.9895377,0.002062670691389967,9.25,2.8790599396291507,-0.42444444444444446,-0.46,-0.0811111111111111,0.09900641717908108,0.009695019253028729,0.00048418649652854045
1592167789.9995377,0.01,9.25,2.76,-0.42444444444444446,-0.46,-0.0811111111111111,0.09381144729469522,0.02181661564992912,0.006544984694978735
1592167790.0095377,0.06055998520406066,9.293919896428424,2.706640088775636,-0.42444444444444446,-0.46,-0.0811111111111111,0.08768535937404781,0.03691368946988094,0.016362461737446838
1592167790.0195377,0.0691792363651309,9.354254654555916,2.6549245818092144,-0.42444444444444446,-0.46,-0.0811111111111111,0.0773430004366277,0.051016906202726545,0.016362461737446838
1592167790.0295377,0.1,9.36,2.62,-0.42444444444444446,-0.46555555555555556,-0.07444444444444444,0.0370882466048795,0.05890486225480862,0.01308996938995747
1592167790.0395377,0.002384397056237912,9.35904804963203,2.6366636525757916,-0.42444444444444446,-0.46555555555555556,-0.07444444444444444,-0.008569897386320774,0.0711116842152278,0.012726523522280694
1592167790.0495377,-0.15204829393654104,9.329758530317294,2.7884346454288695,-0.42444444444444446,-0.46555555555555556,-0.07444444444444444,-0.053220918055863195,0.07381500164182858,0.005119002600845306
1592167790.0595376,-0.1663295529619027,9.226541694193644,2.974469646920649,-0.42444444444444446,-0.46555555555555556,-0.07444444444444444,-0.0918504261335171,0.055481152559250214,0.002181661564992912
1592167790.0695376,-0.1432382735080379,9.141873669529472,3.1284115099464143,-0.42444444444444446,-0.46555555555555556,-0.07444444444444444,-0.1069636331948193,0.020217002749545084,0.002181661564992912
1592167790.0795376,0.05,9.11,3.26,-0.42444444444444446,-0.46,-0.08888888888888889,-0.08835729338221293,-0.03381575425739013,-0.001090830782496456
1592167790.0895376,0.049249398644216055,9.155496391865297,3.2517433850863764,-0.42444444444444446,-0.46,-0.08888888888888889,-0.047122315458086025,-0.05285114499839351,-0.00921791369853527
1592167790.0995376,0.04,9.1,3.15,-0.42444444444444446,-0.46,-0.08888888888888889,-0.022907446432425576,-0.05890486225480862,-0.015271630954950384
1592167790.1095376,0.10967290402748338,9.131308383890067,3.099345808054967,-0.42444444444444446,-0.46,-0.08888888888888889,0.006417531072742014,-0.05724314130326936,-0.017524653791073645
1592167790.1195376,0.10200844236532418,9.161966230538704,3.0840168847306484,-0.42444444444444446,-0.46,-0.08888888888888889,0.028991233996079474,-0.04386613216351383,-0.019196779933543087
1592167790.1295376,-0.019323436189055656,9.21266383891116,3.083995758366738,-0.42444444444444446,-0.46555555555555556,-0.06666666666666667,0.06304909384746914,-0.012582611556306827,-0.025379687745808868
1592167790.1395376,-0.08216208834975762,9.224594779125606,3.093784337376818,-0.42444444444444446,-0.46555555555555556,-0.06666666666666667,0.0686044156709571,-0.002535432443951798,-0.026681151430813257
1592167790.1495376,-0.09363148644898715,9.180636851355102,2.9612737027102027,-0.42444444444444446,-0.46555555555555556,-0.06666666666666667,0.06867355410780886,-0.005801502443491812,-0.02105244888170815
1592167790.1595376,0.0010315572752120975,9.190773667956408,2.979484221362394,-0.42444444444444446,-0.46555555555555556,-0.06666666666666667,0.08450033474559639,-0.010992701907192773,-0.009564294795783461
1592167790.1695375,0.030808987966348372,9.213106740974762,2.964595506016826,-0.42444444444444446,-0.46555555555555556,-0.06666666666666667,0.09911729685529216,-0.013428862258808735,-0.002255813740935573
1592167790.1795375,0.1,9.29,2.87,-0.43666666666666665,-0.4533333333333333,-0.06666666666666667,0.11453723216212788,-0.0032724923474893677,0.006544984694978735
1592167790.1895375,0.0735432173780951,9.263543217378094,2.808267507215555,-0.43666666666666665,-0.4533333333333333,-0.06666666666666667,0.10876525758416966,0.010195448334413177,0.003658997405999619
1592167790.1995375,0.044591406908171864,9.297836562763269,2.66,-0.43666666666666665,-0.4533333333333333,-0.06666666666666667,0.0973487900478421,0.033286053446075096,-0.003390489544180644
1592167790.2095375,0.0,9.28,2.66,-0.43666666666666665,-0.4533333333333333,-0.06666666666666667,0.09053895494720585,0.04690572364734761,-0.004363323129985824
1592167790.2195375,-0.041871055631238004,9.335828074174984,2.694892546359365,-0.43666666666666665,-0.4533333333333333,-0.06666666666666667,0.08140410767157065,0.0529956218311044,-0.005124560402955424
1592167790.2295375,-0.16,9.35,2.7,-0.4311111111111111,-0.46,-0.07444444444444444,0.05563236990731925,0.05999569303730508,0.0032724923474893677
1592167790.2395375,-0.16,9.369421555488305,2.6805784445116942,-0.4311111111111111,-0.46,-0.07444444444444444,0.027031768636999957,0.05469928539465336,0.00856889999014109
1592167790.2495375,-0.039666308360985184,9.369761648829275,2.6299761648829274,-0.4311111111111111,-0.46,-0.07444444444444444,-0.0033478925777698865,0.04906138513293344,0.0250943080132999
1592167790.2595375,0.09754965649390102,9.271750245361499,2.62017502453615,-0.4311111111111111,-0.46,-0.07444444444444444,-0.034352910799885526,0.03836999953910046,0.027232585132066497
1592167790.2695374,0.08446593887286234,9.33213624450855,2.627767030563569,-0.4311111111111111,-0.46,-0.07444444444444444,-0.05524062350548262,0.03394281937371012,0.02557626635694506
1592167790.2795374,0.06052792725923176,9.34,2.639736036370384,-0.42444444444444446,-0.4533333333333333,-0.04555555555555556,-0.07601596708913116,0.026896448013973548,0.011624817059023166
1592167790.2895374,0.07998561885321952,9.34,2.63000719057339,-0.42444444444444446,-0.4533333333333333,-0.04555555555555556,-0.10360853072028886,0.013100166198394707,-0.002171464756555677
1592167790.2995374,-0.0345371319259411,9.292276195030857,2.7349923709321127,-0.42444444444444446,-0.4533333333333333,-0.04555555555555556,-0.13486408164808183,-0.0014864373551378464,-0.012593380668632423
1592167790.3095374,-0.40123438424175073,9.226965748391375,3.0537085297438744,-0.42444444444444446,-0.4533333333333333,-0.04555555555555556,-0.1762489508259401,-0.004743539039279258,-0.023054551101604565
1592167790.3195374,-0.20577653110605268,9.15930726076748,3.136402236839747,-0.42444444444444446,-0.4533333333333333,-0.04555555555555556,-0.19018969901431912,-0.037545299482524004,-0.02633472714592904
1592167790.3295374,0.12,9.16,3.08,-0.4444444444444444,-0.4533333333333333,-0.04555555555555556,-0.14508049407202864,-0.0916297857297023,-0.01308996938995747
1592167790.3395374,0.11161577161577162,9.193536913536914,3.0716157716157717,-0.4444444444444444,-0.4533333333333333,-0.04555555555555556,-0.14508049407202864,-0.0916297857297023,-0.01308996938995747
1592167790.3495374,0.04646873788081183,9.218394880854914,3.014173309777222,-0.4444444444444444,-0.4533333333333333,-0.04555555555555556,-0.1264313159672069,-0.055712935424671726,-0.02319285706332653
1592167790.3595374,-0.05293510578704701,9.173211315551342,3.1316505795665104,-0.4444444444444444,-0.4533333333333333,-0.04555555555555556,-0.12347405853344234,0.0034322132506187236,-0.0005205500711318589
1592167790.3695374,-0.03201357587946918,9.156006787939734,3.160989818090398,-0.4444444444444444,-0.4533333333333333,-0.04555555555555556,-0.11410534254529663,0.009925449446675916,0.004143676074764089
1592167790.3795373,0.0002010707623731195,9.159899464618814,3.1998994646188135,-0.4311111111111111,-0.46,-0.05333333333333334,-0.09366888007960841,0.004264622750310341,0.00104696394708513
1592167790.3895373,0.02,9.15,3.19,-0.4311111111111111,-0.46,-0.05333333333333334,-0.07963064712224129,-0.00545415391248228,-0.0032724923474893677
1592167790.3995373,-0.025236845293381254,9.142460525784436,3.1296842062754915,-0.4311111111111111,-0.46,-0.05333333333333334,-0.07551850184315376,-0.012856015414839808,-0.005739779514941878
1592167790.4095373,-0.0035392829900839085,9.14,3.155575896262395,-0.4311111111111111,-0.46,-0.05333333333333334,-0.05826750422323555,-0.013283007331634952,-0.0035620492600055894
1592167790.4195373,0.0,9.153724286810228,3.16,-0.4311111111111111,-0.46,-0.05333333333333334,-0.0395066949913499,-0.006353075855775197,0.0027158574606726544
1592167790.4295373,0.0,9.168339896585968,3.201699482929836,-0.43574438699220397,-0.46,-0.07093978168148629,-0.02253667677358711,-0.0005432675718463325,0.006363895504363291
