time,acc_x,acc_y,acc_z,mag_x,mag_y,mag_z,gyr_x,gyr_y,gyr_z
1592167790.839537,0.039099926908217605,9.04,3.395675054818837,-0.4311111111111111,-0.4722222222222222,-0.07444444444444444,0.04388950876259365,-0.03067140064126847,-0.004216049014733875
1592167790.849537,0.07494962391406923,9.077374059785173,3.2903022565155844,-0.4311111111111111,-0.4722222222222222,-0.07444444444444444,0.09832933178204994,-0.043622240942811245,-0.013343443960749343
1592167790.859537,0.0225146032510009,9.13311404756175,3.2456286508127503,-0.4311111111111111,-0.4722222222222222,-0.07444444444444444,0.1329051386473554,-0.0415887200664632,-0.019974643978787628
1592167790.8695369,0.0,9.160637426151848,3.208087721544455,-0.4311111111111111,-0.4722222222222222,-0.07444444444444444,0.15573235999610197,-0.034558923005884416,-0.021236434055280674
1592167790.8795369,-0.05611656483833322,9.1868349694515,3.146330061097,-0.41926428075635186,-0.46536353096420374,-0.06633871841224076,0.1814549492978489,-0.018433969387354126,-0.01521655399740757
1592167790.8895369,-0.11386231815156414,9.206931159075783,3.12,-0.41,-0.46,-0.06,0.20105908373326756,0.003791821978368873,-0.0025915139788975187
1592167790.8995368,-0.14064593358143504,9.16870813283713,3.12,-0.41,-0.46,-0.06,0.20207335779146615,0.008316062383534328,0.006345782088764672
1592167790.9095368,-0.12959095420388486,9.11598492367314,3.1540150763268584,-0.41,-0.46,-0.06,0.20813380244460863,-0.001269310680837717,0.014663397032180253
1592167790.9195368,-0.11495292905609436,9.120188283775622,3.1952353547195282,-0.41,-0.46,-0.06,0.23529482329665205,-0.004353053843071135,0.025160993005821305
1592167790.9295368,-0.05982711447717991,9.151149530116182,3.1865514096514533,-0.42920196853342496,-0.46681360173766695,-0.06,0.28406762183997614,0.003416745516117215,0.04063038640461055
1592167790.9395368,0.07472364901649821,9.203718607238384,3.006984874665657,-0.4444444444444444,-0.4722222222222222,-0.06,0.3273917628792035,0.03257144753172236,0.06041777770133967
1592167790.9495368,-0.18211362724557573,9.07054651629296,2.9160332991574913,-0.4444444444444444,-0.4722222222222222,-0.06,0.34486834249503406,0.10666295396645348,0.06544984694978735
1592167790.9595368,-0.49072228819247254,9.028453714698745,2.9924745727709223,-0.4444444444444444,-0.4722222222222222,-0.06,0.35216966918584225,0.179346232218734,0.031307840293047645
1592167790.9695368,-0.8077262965746805,9.155605605068184,2.9914647983106053,-0.4444444444444444,-0.4722222222222222,-0.06,0.3894595028538528,0.18794246400686182,0.0006391388349428033
1592167790.9795368,-1.0765717111770525,9.316571711177053,2.8867711177052424,-0.4392666446862292,-0.46408567974502696,-0.06443811407847017,0.4435693008890724,0.1549352600480705,-0.00800667636428002
1592167790.9895368,-1.1541119293078057,9.338972017673049,2.798536082474227,-0.43666666666666665,-0.46,-0.06666666666666667,0.4511554020470924,0.12296153033187002,-0.002647232641233667
1592167790.9995368,-1.285454194246272,9.292272902876864,2.578296288665104,-0.43666666666666665,-0.46,-0.06666666666666667,0.4300229299968072,0.05651268751462201,-0.00840428830292206
1592167791.0095367,-1.338754039497307,9.3878276481149,2.3690412926391384,-0.43666666666666665,-0.46,-0.06666666666666667,0.4235490296060018,0.0022443304788885773,-0.018578982885794217
1592167791.0195367,-1.3355260570304819,9.455329400196657,2.279242871189774,-0.43666666666666665,-0.46,-0.06666666666666667,0.41929518797481274,-0.020984280657581775,-0.019738995958979627
1592167791.0295367,-1.21237626748087,9.633386105771043,2.093901013984696,-0.43666666666666665,-0.47024421911451203,-0.058983502330782665,0.34736807049727597,-0.07558052306007843,-0.016528785779634566
1592167791.0395367,-1.1599258542875563,9.659851708575113,2.07611863313991,-0.43666666666666665,-0.4777777777777778,-0.05333333333333334,0.27882260744772164,-0.09318444816987537,-0.017673076284953057
1592167791.0495367,-1.1265242518059855,9.586524251805985,2.1726212590299276,-0.43666666666666665,-0.4777777777777778,-0.05333333333333334,0.09710532848105706,-0.12151427140233069,-0.007157155778076333
1592167791.0595367,-1.1533884794103508,9.569952731933984,2.2234121134433584,-0.43666666666666665,-0.4777777777777778,-0.05333333333333334,0.048330087171503874,-0.1323627285198097,0.01676818052512027
1592167791.0695367,-1.1553037123338452,9.476364454800613,2.29,-0.43666666666666665,-0.4777777777777778,-0.05333333333333334,0.008280620497558094,-0.14645219226248452,0.06747426435919295
1592167791.0795367,-0.9522412993039444,9.291793039443155,2.191494199535963,-0.4339303944315545,-0.47175797886053106,-0.05333333333333334,-0.029159045734580672,-0.16241969227254052,0.07328125268914498
1592167791.0895367,-0.7580781093233251,9.208110809706067,2.0842833785440895,-0.4311111111111111,-0.46555555555555556,-0.05333333333333334,-0.052621042984066245,-0.17245608650997554,0.04149595529121157
1592167791.0995367,-0.5976692278477315,9.511353822781851,2.0776692278477316,-0.4311111111111111,-0.46555555555555556,-0.05333333333333334,-0.0682739797694219,-0.16674943056550887,-0.06535698180911148
1592167791.1095366,-0.6376601537475977,9.563899743754003,2.184505525304292,-0.4311111111111111,-0.46555555555555556,-0.05333333333333334,-0.084814364447391,-0.15624023978996374,-0.07905029160343072
1592167791.1195366,-0.7389711804184761,9.279917883932097,2.5583126727200947,-0.4311111111111111,-0.46555555555555556,-0.05333333333333334,-0.17670106442468234,-0.16246195454518142,-0.0471616145478448
1592167791.1295366,-0.6253687020353688,9.12,2.6715437659882104,-0.4276491306120936,-0.4753645003027719,-0.05679531383235087,-0.2253197061153023,-0.17587635410106606,-0.04292129769606676
1592167791.1395366,-0.5038607416931175,9.141487404074088,2.7207437020370446,-0.42444444444444446,-0.48444444444444446,-0.06,-0.21416870806785815,-0.17982482849691253,-0.05386667824696991
1592167791.1495366,-0.46409220841706056,9.330893498995273,2.744553250502363,-0.42444444444444446,-0.48444444444444446,-0.06,-0.11370097898788617,-0.1662526696304334,-0.04735523249723718
1592167791.1595366,-0.4721406136748007,9.348434404445518,2.71757187726504,-0.42444444444444446,-0.48444444444444446,-0.06,-0.09457468622828055,-0.1636873421210821,-0.030466569047444502
1592167791.1695366,-0.5188034545731244,9.175170636128444,2.7188034545731243,-0.42444444444444446,-0.48444444444444446,-0.06,-0.09747550821747197,-0.15371855494525402,-0.007896861194333459
1592167791.1795366,-0.5433572902583079,9.075547569913898,2.7121902796555895,-0.42444444444444446,-0.47850787099630765,-0.07682029143638765,-0.07729816479225936,-0.14118717595079652,-0.02245312119440154
1592167791.1895366,-0.5886891828905382,9.112410096446883,2.6987314904449464,-0.42444444444444446,-0.4711111111111111,-0.09777777777777778,-0.05468221957101116,-0.12845051655700926,-0.05193322118299672
1592167791.1995366,-0.8477091812305483,9.38901484318889,2.7809851568111084,-0.42444444444444446,-0.4711111111111111,-0.09777777777777778,-0.04780039683551736,-0.10668648880962406,-0.122191817920305
1592167791.2095366,-0.8686425992779784,9.269656317689531,2.8815292418772565,-0.42444444444444446,-0.4711111111111111,-0.09777777777777778,-0.049068640250157544,-0.10937921714799842,-0.10913742288790715
1592167791.2195365,-0.8474443358010895,9.208722167900545,2.923610839502724,-0.42444444444444446,-0.4711111111111111,-0.09777777777777778,-0.040239298509059794,-0.11665236813421144,-0.0919750910404012
1592167791.2295365,-0.7971570241605085,9.220526859899682,2.834840908220699,-0.43174288351988704,-0.4788657026287688,-0.08819857649125942,0.014835749726396837,-0.14749204163567609,-0.07020352519304085
1592167791.2395365,-0.7432778989832463,9.256722101016754,2.764622319186597,-0.44222222222222224,-0.49,-0.07444444444444444,0.03992984889396373,-0.1617453332222829,-0.06917137020432668
1592167791.2495365,-0.6452274527274527,9.364317641817642,2.6184117909117908,-0.44222222222222224,-0.49,-0.07444444444444444,0.0553346349833174,-0.18524274307506294,-0.0863741217665546
1592167791.2595365,-0.574448146496314,9.341761418789517,2.550925308917281,-0.44222222222222224,-0.49,-0.07444444444444444,0.05383499030962079,-0.19278397197319663,-0.07525759388584496
1592167791.2695365,-0.4429154862209794,9.314534383163473,2.555465616836528,-0.44222222222222224,-0.49,-0.07444444444444444,0.03998098101925943,-0.18833396743877745,-0.06585617429229422
1592167791.2795365,-0.30425633355146303,9.335247888816179,2.5309401389797763,-0.44222222222222224,-0.4929648672698126,-0.0778328641813731,0.034129022665712945,-0.17250228919196806,-0.0590074155087051
1592167791.2895365,-0.21941909210683913,9.397033177626062,2.4206431908012935,-0.44222222222222224,-0.49777777777777776,-0.08333333333333333,0.04452716640751673,-0.14938724399219042,-0.04524458787436162
1592167791.2995365,-0.20453995246379653,9.435460047536203,2.289939477101762,-0.44222222222222224,-0.49777777777777776,-0.08333333333333333,0.039457437727344544,-0.14022193895218482,-0.03540181702974458
1592167791.3095365,-0.2055841740001431,9.417663303999428,2.24,-0.44222222222222224,-0.49777777777777776,-0.08333333333333333,0.017142206342721365,-0.13888975427379108,-0.02576950169862791
1592167791.3195364,-0.20370932754880694,9.402516268980477,2.238427331887202,-0.44222222222222224,-0.49777777777777776,-0.08333333333333333,0.005412744934838704,-0.13768485066488617,-0.018647054189725207
1592167791.3295364,-0.17562188266962236,9.504667088908242,2.2393341778164833,-0.4492699619102913,-0.5044339763720652,-0.0884233675524943,-0.046365792204693196,-0.1435429157922751,-0.025276166779374575
1592167791.3395364,-0.4839668053143803,9.547285870048055,2.3314614545895087,-0.4622222222222222,-0.5166666666666667,-0.09777777777777778,-0.07879266812230468,-0.14053497669593348,-0.03099641283101457
1592167791.3495364,-0.6892531346044007,9.362240596186798,2.3374273125356977,-0.4622222222222222,-0.5166666666666667,-0.09777777777777778,-0.18433687329374598,-0.13829109824787958,0.0020594560004077427
1592167791.3595364,-0.7138138209451437,9.29936436317581,2.274131639357239,-0.4622222222222222,-0.5166666666666667,-0.09777777777777778,-0.23186405703182497,-0.1460512151720702,0.0033740372695360574
1592167791.3695364,-0.8124835658168992,9.29050986050986,2.4700657367324035,-0.4622222222222222,-0.5166666666666667,-0.09777777777777778,-0.2855267500097285,-0.1847953394730492,-0.07107802308907483
1592167791.3795364,-0.7273828098032448,9.319865723161891,2.5736914049016226,-0.4622222222222222,-0.5144742837418019,-0.09777777777777778,-0.2883527017271222,-0.21866390217115245,-0.10059798116018533
1592167791.3895364,-0.6184019295106201,9.340122928499182,2.520122928499183,-0.4622222222222222,-0.51,-0.09777777777777778,-0.2870091805684274,-0.25355548062661576,-0.11939670379864713
1592167791.3995364,-0.4945257689678742,9.322845386192753,2.6657730690362267,-0.4622222222222222,-0.51,-0.09777777777777778,-0.31349125639475905,-0.2938237041404375,-0.1864139588199169
1592167791.4095364,-0.5,9.24788573761437,2.9247570903676663,-0.4622222222222222,-0.51,-0.09777777777777778,-0.3343684636163202,-0.2915954328497065,-0.22499942900583483
1592167791.4195364,-0.4957912435268007,9.210150312731187,3.010751563655928,-0.4622222222222222,-0.51,-0.09777777777777778,-0.3342127906342803,-0.28806130945615355,-0.22896834510124942
1592167791.4295363,-0.12578690063780879,9.22,3.0968659954025965,-0.4590362720022447,-0.5177373076770881,-0.11234212164053198,-0.2731815061521022,-0.29343348049154666,-0.1156820270536558
1592167791.4395363,0.010493787830519274,9.21980885632367,3.1498566422427525,-0.45444444444444443,-0.5288888888888889,-0.13333333333333333,-0.24860864079628212,-0.2933848292301419,-0.06533690652152634
1592167791.4495363,0.2803180535228936,9.148500156805353,3.0335453690152625,-0.45444444444444443,-0.5288888888888889,-0.13333333333333333,-0.14985028451585602,-0.2571187134180986,0.023249628166753012
1592167791.4595363,0.32856587845939855,9.19028682430812,2.9260755911554512,-0.45444444444444443,-0.5288888888888889,-0.13333333333333333,-0.06117468391709668,-0.23636041240077385,0.0619426970139486
1592167791.4695363,0.3131014475295629,9.215924431327672,2.891749483025156,-0.45444444444444443,-0.5288888888888889,-0.13333333333333333,-0.0040662240034153845,-0.20613449598390174,0.07990606497685944
1592167791.4795363,0.34771484257871066,9.268369715142429,2.8220668665667166,-0.4600442112277195,-0.5288888888888889,-0.14711737464601032,0.01562730393632569,-0.16972712054544076,0.08857853414421611
1592167791.4895363,0.66,9.25,2.62,-0.4688888888888889,-0.5288888888888889,-0.1688888888888889,0.019634954084936207,-0.148352986419518,0.09926560120717749
1592167791.4995363,0.2622412638160098,9.283910349447359,2.750448252763202,-0.4688888888888889,-0.5288888888888889,-0.1688888888888889,-0.02351606838570525,-0.0919299255603892,0.036535280526066825
1592167791.5095363,0.11,9.29,2.72,-0.4688888888888889,-0.5288888888888889,-0.1688888888888889,-0.04145156973486533,-0.056723200689815706,0.0
1592167791.5195363,-0.12486101709718977,9.141354237177108,3.0272915256457846,-0.4688888888888889,-0.5288888888888889,-0.1688888888888889,-0.08922653762477087,-0.010673501836496974,-0.032251429029291415
1592167791.5295362,-0.1766203145862507,9.089860943758753,3.1404171687237437,-0.470015450693472,-0.533770656708749,-0.1688888888888889,-0.08419578122937767,0.01247398587582426,-0.06334402879902018
1592167791.5395362,-0.17,9.07,3.2,-0.4722222222222222,-0.5433333333333333,-0.1688888888888889,-0.061086523819801536,0.028361600344907853,-0.074176493209759
1592167791.5495362,-0.4603139083543908,9.161473415479199,3.3714734154791985,-0.4722222222222222,-0.5433333333333333,-0.1688888888888889,-0.022681732807881605,0.04591062863233052,-0.09435861031126251
1592167791.5595362,-0.5812626661875673,9.175631333093783,3.3244699964067554,-0.4722222222222222,-0.5433333333333333,-0.1688888888888889,-0.022896393098589284,0.023003947524287104,-0.10581058590215622
1592167791.5695362,-0.57,9.17,3.24,-0.4722222222222222,-0.5433333333333333,-0.1688888888888889,-0.032724923474893676,-0.002181661564992912,-0.10581058590215622
1592167791.5795362,-0.2801358661466851,9.350959240155994,3.0604796200779973,-0.4722222222222222,-0.5410045288715561,-0.17354649781244322,-0.03246333130240231,-0.06320104625278584,-0.047278917044378574
1592167791.5895362,-0.15,9.39,3.08,-0.4722222222222222,-0.5366666666666666,-0.18222222222222223,-0.02181661564992912,-0.07526732399225547,-0.0032724923474893677
1592167791.5995362,0.11708061932728243,9.278594767752269,2.787243993593166,-0.4722222222222222,-0.5366666666666666,-0.18222222222222223,-0.05396939168183053,-0.08025567627108016,0.08842799645588889
1592167791.6095362,0.2028464329480741,9.175674123555279,2.7700937117043516,-0.4722222222222222,-0.5366666666666666,-0.18222222222222223,-0.131855720570425,-0.07230328484053748,0.07837025620009108
1592167791.6195362,0.18,9.09,2.97,-0.4722222222222222,-0.5366666666666666,-0.18222222222222223,-0.17671458676442586,-0.06544984694978735,0.04908738521234052
1592167791.6295362,0.08183689380944956,9.148025884921253,3.083673787618899,-0.4779666302822392,-0.5439227610582671,-0.1810128731569555,-0.11162143280557801,-0.009446666017075578,0.06415115787691032
1592167791.6395361,0.06,9.33,3.04,-0.49333333333333335,-0.5633333333333334,-0.17777777777777778,-0.042542400517361786,0.020725784867432664,0.07526732399225547
1592167791.6495361,-0.10916247951205092,9.11574629873445,3.14141790042185,-0.49333333333333335,-0.5633333333333334,-0.17777777777777778,-0.10412458598003614,0.027580107447745188,-0.016651898123430462
1592167791.6595361,-0.35,8.94,3.2,-0.49333333333333335,-0.5633333333333334,-0.17777777777777778,-0.13962634015954636,0.04036073895236887,-0.04363323129985824
1592167791.669536,-0.3277415174618259,9.333742035809161,3.103548303492365,-0.49333333333333335,-0.5633333333333334,-0.17777777777777778,0.01439879670018421,0.053492974177271564,-0.00781182888487527
1592167791.679536,-0.45773227793559096,9.263866138967794,3.14,-0.4860739274910543,-0.5613006996974952,-0.19055433206018887,0.0880722171814188,0.02259883438505879,0.032835639439540154
1592167791.689536,-0.31,9.19,3.14,-0.46555555555555556,-0.5555555555555556,-0.22666666666666666,0.08726646259971647,-0.015271630954950384,0.05781403147231216
1592167791.699536,0.045356525680614185,9.382139154083685,2.8712521601178502,-0.46555555555555556,-0.5555555555555556,-0.22666666666666666,0.13915776407651304,-0.044938433399904144,0.07236476663718132
1592167791.709536,0.06,9.47,2.82,-0.46555555555555556,-0.5555555555555556,-0.22666666666666666,0.16471544815696484,-0.042542400517361786,0.07635815477475191
1592167791.719536,0.24987577639751554,9.288198757763976,2.947329192546584,-0.46555555555555556,-0.5555555555555556,-0.22666666666666666,0.06599187466779802,0.0013889460274023203,0.08673798557465609
1592167791.729536,0.15421272002158984,8.888278509100722,3.322344298179855,-0.469983674339727,-0.5573788985843321,-0.22666666666666666,-0.03945769369634434,0.041930960899466005,0.04760112868005847
1592167791.739536,0.07,8.85,3.33,-0.48444444444444446,-0.5633333333333334,-0.22666666666666666,-0.04363323129985824,0.07199483164476608,0.0
1592167791.749536,0.08493536332878857,9.15340074736151,3.0697414533151544,-0.48444444444444446,-0.5633333333333334,-0.22666666666666666,0.15529099629417215,0.10016082828777802,0.012013240141588123
1592167791.759536,0.11133823669882509,9.308661763301174,2.851623364218168,-0.48444444444444446,-0.5633333333333334,-0.22666666666666666,0.258721534089706,0.11235557059713495,0.02595419755436536
1592167791.769536,0.23,9.19,2.7,-0.48444444444444446,-0.5633333333333334,-0.22666666666666666,0.27598018797160334,0.11235557059713495,0.038179077387375956
1592167791.779536,-0.15788725093147582,9.106142556293536,2.8017936173659486,-0.48444444444444446,-0.5659241139730367,-0.22925744730637002,0.19845345001774095,0.11848511010020552,0.03474574360489092
1592167791.789536,-0.56,9.18,2.81,-0.48444444444444446,-0.5777777777777777,-0.2411111111111111,0.15817046346198613,0.0916297857297023,-0.01090830782496456
1592167791.799536,-0.15473193112692032,9.521874935560367,2.565491030003093,-0.48444444444444446,-0.5777777777777777,-0.2411111111111111,0.19161122003543576,0.0687272035545551,0.011200500666796273
1592167791.809536,0.1964459796584149,9.350926885434658,2.5526271349069276,-0.48444444444444446,-0.5777777777777777,-0.2411111111111111,0.11073722233778358,0.0628660579748586,0.021443376101821045
1592167791.819536,0.23,9.21,2.66,-0.48444444444444446,-0.5777777777777777,-0.2411111111111111,0.025089107997418484,0.06872233929727672,0.022907446432425576
1592167791.829536,0.11551064807721771,9.161329860579132,2.6952020836525206,-0.48444444444444446,-0.5777777777777777,-0.24218262601501456,0.01597372688221676,0.09681703957176221,0.02704274297751203
1592167791.839536,0.15,9.42,2.54,-0.48444444444444446,-0.5777777777777777,-0.24888888888888888,0.0818123086872342,0.11562806294462433,0.039269908169872414
1592167791.849536,0.22336199933482206,9.474913764431985,2.421379293961135,-0.48444444444444446,-0.5777777777777777,-0.24888888888888888,0.10314930500608419,0.13979561147306532,0.05116559743814671
1592167791.859536,0.07743698070694269,9.392780124865043,2.440252077172229,-0.48444444444444446,-0.5777777777777777,-0.24888888888888888,0.027085917704700646,0.15223582273320774,0.030795346590097455
1592167791.869536,0.013599785514269255,9.275239806962842,2.657880364625742,-0.48444444444444446,-0.5777777777777777,-0.24888888888888888,-0.04578001435592776,0.17226406736213157,0.01419823942691562
1592167791.879536,-0.06969813119377198,9.200271681925605,2.799486823029412,-0.48444444444444446,-0.5777777777777777,-0.24888888888888888,-0.056683686155482624,0.19952324686101874,0.008746403527138187
1592167791.889536,-0.08,9.46,2.81,-0.4777777777777778,-0.57,-0.27,-0.0370882466048795,0.20507618710933373,-0.008726646259971648
1592167791.899536,-0.0386962938668416,9.456522630370614,2.863913578222368,-0.4777777777777778,-0.57,-0.27,-0.053165926019313164,0.18937774043660102,-0.0029880677912136446
1592167791.909536,0.13998534440644847,9.239096238397655,2.76180752320469,-0.4777777777777778,-0.57,-0.27,-0.10987335770760469,0.17830313906663492,0.03926511213809788
1592167791.9195359,0.29343003714841676,9.22888200955245,2.8241960021227666,-0.4777777777777778,-0.57,-0.27,-0.1226458117324947,0.16730137126261405,0.06888269315898812
1592167791.9295359,0.5584425607287449,9.298348937246963,2.8499063765182187,-0.4784504329734593,-0.5714064608636976,-0.2703669028340081,-0.10685159508641368,0.16615627221684123,0.08151213700809329
1592167791.9395359,0.36,9.27,3.02,-0.49,-0.5955555555555555,-0.27666666666666667,-0.08726646259971647,0.1908953869368798,0.07635815477475191
1592167791.9495358,0.040418023494222924,9.057189859372363,3.131734085920351,-0.49,-0.5955555555555555,-0.27666666666666667,-0.05107017809281433,0.2091868065020714,0.13534450635424372
1592167791.9595358,0.32556858424490437,9.04662207182393,3.0299331077358937,-0.49,-0.5955555555555555,-0.27666666666666667,-0.015415735879287419,0.17678755490522402,0.14772548902361116
1592167791.9695358,-0.1,9.08,3.08,-0.49,-0.5955555555555555,-0.27666666666666667,-0.04363323129985824,0.12217304763960307,0.07308566242726255
1592167791.9795358,-0.2471199678208695,9.202880032179129,2.9283199812288405,-0.48970666338916263,-0.5950755501923671,-0.27666666666666667,-0.07577345075427457,0.0976075442681139,-0.011117749675336285
1592167791.9895358,-0.13,9.32,2.86,-0.4777777777777778,-0.5755555555555556,-0.27666666666666667,-0.007635815477475192,0.11890055529211369,-0.019634954084936207
1592167791.9995358,-0.1576629853936587,9.391189882436766,2.875892411827574,-0.4777777777777778,-0.5755555555555556,-0.27666666666666667,0.05684988784161259,0.13269663067843598,0.00019003072769532142
1592167792.0095358,0.01,9.25,2.77,-0.4777777777777778,-0.5755555555555556,-0.27666666666666667,0.074176493209759,0.12980886311707826,0.02617993877991494
1592167792.0195358,0.2176402218895835,9.215880073963195,2.83655983094127,-0.4777777777777778,-0.5755555555555556,-0.27666666666666667,0.08884166950584856,0.11854277201617822,0.05928886696277911
1592167792.0295358,0.40969448973940864,9.280611020521182,2.6898981632464696,-0.4777777777777778,-0.5757026530884329,-0.2768816553685643,0.13004214511471335,0.12669189210134563,0.08733311459904078
1592167792.0395358,0.38,9.34,2.68,-0.4777777777777778,-0.59,-0.29777777777777775,0.15271630954950383,0.14180800172453928,0.09381144729469522
1592167792.0495358,0.28716297262059975,9.29175853976532,2.73844667535854,-0.4777777777777778,-0.59,-0.29777777777777775,0.1352854025269745,0.17179816833937764,0.08027197597890225
1592167792.0595357,0.14384305598078237,9.126072866866066,2.6940952874402395,-0.4777777777777778,-0.59,-0.29777777777777775,0.10493547557091204,0.21338973525615346,0.0608432891845203
1592167792.0695357,-0.11397277453022917,9.252648516353487,2.847795262849168,-0.4777777777777778,-0.59,-0.29777777777777775,0.10621193325816283,0.246880695398717,0.013265666421066902
1592167792.0795357,-0.28858116383506577,9.369527054611687,2.938265866909525,-0.4778828767529581,-0.59,-0.29812810769504544,0.13072772610357142,0.24774639875157362,-0.047515044601034895
1592167792.0895357,-0.2,9.34,2.83,-0.48444444444444446,-0.59,-0.32,0.11999138607461016,0.18762289458939044,-0.017453292519943295
1592167792.0995357,-0.0638365434669443,9.352693909422175,2.6784487246225925,-0.48444444444444446,-0.59,-0.32,0.12146068573609353,0.1855658750633137,-0.008931354483339671
1592167792.1095357,0.04,9.37,2.54,-0.48444444444444446,-0.59,-0.32,0.1308996938995747,0.17235126363444003,0.04581489286485115
1592167792.1195357,0.09613605640247073,9.309128798119918,2.5282575962398353,-0.48444444444444446,-0.59,-0.32,0.115909056852492,0.1838297717565422,0.14720847958454175
1592167792.1295357,0.3578272986294532,9.300405756712353,2.510811513424703,-0.48444444444444446,-0.59,-0.32,0.0968783326837634,0.18953898900716074,0.1139047122892667
1592167792.1395357,0.14,9.42,2.61,-0.4711111111111111,-0.6088888888888889,-0.31777777777777777,0.04799655442984406,0.20180369476184434,0.04908738521234052
1592167792.1495357,0.014047567722928792,9.400079279538215,2.6504960360230894,-0.4711111111111111,-0.6088888888888889,-0.31777777777777777,-0.011557617460820034,0.20355248323626696,0.049574367439232124
1592167792.1595356,-0.0951324028488122,9.214326753023279,2.6621633765116393,-0.4711111111111111,-0.6088888888888889,-0.31777777777777777,-0.023349310849339975,0.19384278345105024,0.0577249234082958
1592167792.1695356,-0.011392253479652134,9.291392253479652,2.7,-0.4711111111111111,-0.6088888888888889,-0.31777777777777777,-0.011391653426404075,0.1676613058644845,0.036632632719086795
1592167792.1795356,-0.03609415182865781,9.316094151828658,2.7,-0.4711111111111111,-0.6088888888888889,-0.31777777777777777,-0.0006134169843265667,0.14251208749963698,0.028548955387528666
1592167792.1895356,0.04696894144465024,9.381010352851783,2.6549482357410836,-0.4711111111111111,-0.6088888888888889,-0.3388888888888889,-0.015404429772964804,0.11571568892499157,0.03972205097604751
1592167792.1995356,0.021828192846591165,9.386343614306819,2.5908039751107927,-0.4711111111111111,-0.6088888888888889,-0.3388888888888889,-0.03719396524242392,0.09518940306045319,0.05584380718240809
1592167792.2095356,0.04322789050535988,9.35,2.4,-0.4711111111111111,-0.6088888888888889,-0.3388888888888889,-0.049509915091433467,0.07590041407240121,0.0798771228850455
1592167792.2195356,0.1462877263581489,9.352515090543259,2.4031438631790745,-0.4711111111111111,-0.6088888888888889,-0.3388888888888889,-0.06337765255839004,0.06207447192034724,0.086237635780209
1592167792.2295356,0.32210513078470826,9.422842052313882,2.491052565392354,-0.4711111111111111,-0.6088888888888889,-0.3388888888888889,-0.09694038400663596,0.05919766636764045,0.05746958025314106
1592167792.2395356,0.36953971449487555,9.38758510248902,2.633909224011713,-0.46555555555555556,-0.6022222222222222,-0.3622222222222222,-0.1618570083429487,0.06593886415361698,0.02557812520124811
1592167792.2495356,0.31114302855771536,9.253141828653707,2.767713942884569,-0.46555555555555556,-0.6022222222222222,-0.3622222222222222,-0.19525871006686563,0.06834828407646819,0.028236915271305008
1592167792.2595356,0.32,9.2,2.75,-0.46555555555555556,-0.6022222222222222,-0.3622222222222222,-0.19525871006686563,0.06544984694978735,0.0272707695624114
1592167792.2695355,0.27159605704697987,9.316169463087249,2.779042365771812,-0.46555555555555556,-0.6022222222222222,-0.3622222222222222,-0.1804745669960057,0.0633378265110931,0.006150565175468692
1592167792.2795355,0.2516887505558026,9.374933748332593,2.807466874166296,-0.46555555555555556,-0.6022222222222222,-0.3622222222222222,-0.16800239437609424,0.05927329047285411,0.021433733560243615
1592167792.2895355,0.25618220617948195,9.376136121137824,2.7561361211378235,-0.4533333333333333,-0.6166666666666667,-0.38333333333333336,-0.16723932386037904,0.061339414099963484,0.07980929483875993
1592167792.2995355,0.3368731006538355,9.326712864904687,2.704919882125426,-0.4533333333333333,-0.6166666666666667,-0.38333333333333336,-0.18581728284797938,0.06471758698211004,0.10707952175670042
1592167792.3095355,0.5589674463578599,9.220493830002763,2.5407631918224514,-0.4533333333333333,-0.6166666666666667,-0.38333333333333336,-0.23321741633083226,0.07630428627791853,0.0775861053673697
1592167792.3195355,0.3418083337292726,9.190246590963081,2.758191666270727,-0.4533333333333333,-0.6166666666666667,-0.38333333333333336,-0.2799579601826463,0.11205968268259739,0.013618981115948892
1592167792.3295355,0.24523620171896035,9.19,2.9667573780677228,-0.4533333333333333,-0.6166666666666667,-0.38333333333333336,-0.2831627275078958,0.12363243622236145,-0.016041933475210955
1592167792.3395355,-0.05,9.13,3.36,-0.4666666666666667,-0.5955555555555555,-0.37666666666666665,-0.2552544031041707,0.11890055529211369,-0.0272707695624114
1592167792.3495355,-0.09854488150300848,9.062037165895788,3.369708976300602,-0.4666666666666667,-0.5955555555555555,-0.37666666666666665,-0.20865466215718118,0.0987779398831864,-0.028329854583933885
1592167792.3595355,-0.17138701447340185,9.064161043420206,3.2781506473687974,-0.4666666666666667,-0.5955555555555555,-0.37666666666666665,-0.1412158334700483,0.0534637393211773,-0.03409965272876401
1592167792.3695354,-0.19809405163619243,9.15228713803657,3.2354257239268622,-0.4666666666666667,-0.5955555555555555,-0.37666666666666665,-0.08258020459356585,0.006897067172292392,-0.016122689547085654
1592167792.3795354,-0.1569508749901907,9.201658950011772,3.1366820999764577,-0.4666666666666667,-0.5955555555555555,-0.37666666666666665,-0.05206163896246525,-0.032597547173837824,0.01260066634100905
1592167792.3895354,-0.08,9.25,3.07,-0.4666666666666667,-0.6222222222222222,-0.39111111111111113,-0.02617993877991494,-0.07199483164476608,0.04908738521234052
1592167792.3995354,0.010975793352085886,9.196930787211283,3.0927439483380215,-0.4666666666666667,-0.6222222222222222,-0.39111111111111113,-0.020390985688636256,-0.09018868421735624,0.04660640531607822
1592167792.4095354,0.0584484711211778,9.133878822197056,2.8878425821064555,-0.4666666666666667,-0.6222222222222222,-0.39111111111111113,-0.006469627189053161,-0.11209243701087024,0.021665900638077964
1592167792.4195354,0.04168779547004728,9.212404920384788,2.9066244090599054,-0.4666666666666667,-0.6222222222222222,-0.39111111111111113,-0.00545415391248228,-0.1104500739201349,-0.01632097542902205
1592167792.4295354,0.01689643402136375,9.250804754638182,2.948505943297727,-0.4666666666666667,-0.6222222222222222,-0.39111111111111113,-0.026455888041594183,-0.10009307665016834,-0.059118214247666584
1592167792.4395354,-0.04916571252422054,9.229443808349481,3.06009269860842,-0.48,-0.6022222222222222,-0.4033333333333333,-0.06545995879934326,-0.08833706968310112,-0.08923577532403537
1592167792.4495354,0.033951911220715156,9.17403205918619,3.0693279901356347,-0.48,-0.6022222222222222,-0.4033333333333333,-0.06646737282766475,-0.08632224162645813,-0.06808008072928405
1592167792.4595354,0.13169594228184756,9.215847971140924,2.9691344634899677,-0.48,-0.6022222222222222,-0.4033333333333333,-0.05253721182633575,-0.07517290860540368,-0.047535974002782866
1592167792.4695354,0.1218909810760493,9.23810901892395,3.041490585157778,-0.48,-0.6022222222222222,-0.4033333333333333,-0.041392109135805294,-0.06034878051161961,-0.02704871134594769
1592167792.4795353,0.07362769469008518,9.216813847345044,3.0731861526549573,-0.48,-0.6022222222222222,-0.4033333333333333,-0.03024387133489308,-0.04963106693878915,0.008633784060834145
1592167792.4895353,0.09670778949877823,9.19164610525061,3.052469157875916,-0.4616461052506109,-0.6083401871386853,-0.40945129824979637,-0.015258173539611163,-0.03589417729311406,0.04156826567947353
1592167792.4995353,0.15559823096752834,9.134401769032472,3.1333973464512925,-0.46,-0.6088888888888889,-0.41,-0.03136447434677675,-0.01570130213917285,0.012298296040798976
1592167792.5095353,0.2061952901998097,9.185434348239772,3.001414129400571,-0.46,-0.6088888888888889,-0.41,-0.0458266470595341,0.004967872758943601,-0.02142509458244365
1592167792.5195353,0.09472214593060514,9.216602581708322,3.114145381305502,-0.46,-0.6088888888888889,-0.41,-0.0449711293125933,0.022021739373013226,-0.009488819704264696
1592167792.5295353,0.10201253495705984,9.139287371824114,3.1740250699141197,-0.46,-0.6088888888888889,-0.41,-0.04952645222874273,0.03200226079223542,0.014775338539002304
1592167792.5395353,0.12756961557417448,9.0397215377033,3.2514936545096105,-0.45511955122939596,-0.6088888888888889,-0.41780871803296643,-0.03114529539714784,0.049280693168590586,0.021949172557178643
1592167792.5495353,0.11294715583978458,9.047052844160216,3.2344207337596766,-0.45444444444444443,-0.6088888888888889,-0.41888888888888887,0.030233966773187536,0.06708054901554965,0.02925732258556028
1592167792.5595353,0.14408831394088312,9.254529883645299,2.9658155669581556,-0.45444444444444443,-0.6088888888888889,-0.41888888888888887,0.08312300844800505,0.08468700294782054,0.031472876464153726
1592167792.5695353,0.048658993891653485,9.306890167684724,2.962225419211811,-0.45444444444444443,-0.6088888888888889,-0.41888888888888887,0.07672071882318762,0.09832105149893104,0.03900381862520694
1592167792.5795352,0.015961358988105877,9.281922717976212,2.962980679494053,-0.45444444444444443,-0.6088888888888889,-0.41888888888888887,0.038189106073309435,0.10035643198967394,0.04342349530440713
1592167792.5895352,-0.007458835731881238,9.112870478413068,3.1345883573188127,-0.44377515594162814,-0.6088888888888889,-0.4363477246207701,0.0019583474452519664,0.10035643198967394,0.03710620790520065
1592167792.5995352,-0.14488754345718138,9.125970011588583,3.1869775086914363,-0.44222222222222224,-0.6088888888888889,-0.4388888888888889,0.01460404757253521,0.09152806291496864,-0.00618256975676456
1592167792.6095352,-0.15104363740077006,9.20165090079384,3.055654561011551,-0.44222222222222224,-0.6088888888888889,-0.4388888888888889,0.04860305261149875,0.07490715331130189,-0.007977345018232569
1592167792.6195352,-0.023749327595481456,9.268916980455442,2.997916442531827,-0.44222222222222224,-0.6088888888888889,-0.4388888888888889,0.05970484394754854,0.054723246457965925,0.010726600491821437
1592167792.6295352,-0.05058069194116429,9.157161176714315,3.0694839444789728,-0.44222222222222224,-0.6088888888888889,-0.4388888888888889,0.04847510078679755,0.04653976313995694,0.02679222320545791
1592167792.6395352,0.04990257286038244,9.078025980570565,3.1159870097147175,-0.44666305825408825,-0.6151060593335014,-0.43444805285702287,0.03752953848894887,0.0438521059665105,0.009835189796292342
1592167792.6495352,0.02993737853595336,9.161781472684085,3.128343770244008,-0.4477777777777778,-0.6166666666666667,-0.43333333333333335,0.051470206243593844,0.03817224644531325,-0.036594063279101585
1592167792.6595352,0.044953117952856836,9.246541647874285,2.9470104683457166,-0.4477777777777778,-0.6166666666666667,-0.43333333333333335,0.07359527955239163,0.02166379006827616,-0.01931907484559625
1592167792.6695352,0.0987826269506193,9.251869562174896,2.877478248699587,-0.4477777777777778,-0.6166666666666667,-0.43333333333333335,0.08986549015396295,-0.004515099520030177,0.02040803406125096
1592167792.6795352,0.135728368848108,9.198543262303785,2.8507037233639188,-0.4477777777777778,-0.6166666666666667,-0.43333333333333335,0.0913173516760518,-0.02595502265815807,0.025555070672613946
1592167792.6895351,0.29104765535646204,9.214077392298895,2.804738086160884,-0.42524933282500954,-0.609810183420172,-0.419620366840344,0.0732298034677556,-0.033944965513250464,-0.039468611543062186
1592167792.6995351,0.14583660421640432,9.283547120948489,2.8,-0.4222222222222222,-0.6088888888888889,-0.4177777777777778,0.06281676603414535,-0.043635967977255344,-0.06417102408609265
1592167792.7095351,0.09314216953839063,9.34,2.745667067769272,-0.4222222222222222,-0.6088888888888889,-0.4177777777777778,0.023458293775008847,-0.06675354319796875,-0.05483260234751611
1592167792.719535,0.08781757378956041,9.33195439344739,2.850684098289148,-0.4222222222222222,-0.6088888888888889,-0.4177777777777778,-0.006882548527007034,-0.0788027566245675,-0.013768612793220003
1592167792.729535,0.1928929968255082,9.240873949874599,2.909708683375134,-0.4222222222222222,-0.6088888888888889,-0.4177777777777778,-0.017184282020746868,-0.080073334978077,0.0003791324274643043
1592167792.739535,0.059200448414276935,9.213999927675117,2.9979998553502334,-0.4312888696022533,-0.61795553626892,-0.4223111014677933,-0.01924225815900585,-0.07072948687168039,-0.030499554518044335
1592167792.749535,-0.02469853893101535,9.275904383206953,3.037650730534492,-0.43555555555555553,-0.6222222222222222,-0.42444444444444446,-0.011867601401951918,-0.08239741724594242,-0.03605637555905487
1592167792.759535,0.018701624491585276,9.282259675101683,2.970337075915147,-0.43555555555555553,-0.6222222222222222,-0.42444444444444446,-0.0165721847749545,-0.10415323193093247,-0.014993815677116887
1592167792.769535,0.1812968967114405,9.211916396479852,2.8819163964798515,-0.43555555555555553,-0.6222222222222222,-0.42444444444444446,-0.020194516424730014,-0.12228622322796769,-0.0007403148698716701
1592167792.779535,0.25273396386784097,9.201366981933921,2.877050472900881,-0.43555555555555553,-0.6222222222222222,-0.42444444444444446,-0.021965730247192818,-0.12529642538982874,-0.011457737612368782
1592167792.789535,0.3336828892314468,9.186118916538208,2.9377621669235854,-0.43555555555555553,-0.6177997993589274,-0.42444444444444446,-0.022907446432425576,-0.11219793942350048,-0.04526181451347043
1592167792.799535,0.39161972610830165,9.212370898084234,2.991619726108302,-0.43555555555555553,-0.6166666666666667,-0.42444444444444446,-0.019880774539225116,-0.10151639851664444,-0.054295718670533885
1592167792.809535,0.5031184623807741,9.20266115321442,2.953212114226436,-0.43555555555555553,-0.6166666666666667,-0.42444444444444446,-0.008616661045207646,-0.07808965964908027,-0.046625652694633334
1592167792.819535,0.5698631715396802,9.181689471410053,2.90506841423016,-0.43555555555555553,-0.6166666666666667,-0.42444444444444446,0.01702500435732118,-0.05876534652171675,-0.04363323129985824
1592167792.829535,0.5663167104111986,9.1868416447944,2.8828958880139983,-0.43555555555555553,-0.6166666666666667,-0.42444444444444446,0.03151861541795971,-0.049661908511608115,-0.04885738502110548
1592167792.839535,0.42098232619536524,9.358690231739514,2.7468513493693165,-0.43555555555555553,-0.6166666666666667,-0.44119508001694857,0.055371341684725676,-0.02259970031770983,-0.05198069466829034
1592167792.849535,0.3504054867043677,9.388687281915534,2.680405486704368,-0.43555555555555553,-0.6166666666666667,-0.44555555555555554,0.0369787828974313,-0.008671914406247544,-0.03598691570656067
1592167792.859535,0.2906273306584848,9.357970497993863,2.65,-0.43555555555555553,-0.6166666666666667,-0.44555555555555554,-0.01102501152893096,0.014128459861365536,-0.007466771462420398
1592167792.869535,0.2577632309959178,9.290701949322447,2.8130696393632695,-0.43555555555555553,-0.6166666666666667,-0.44555555555555554,-0.049589653778633114,0.030146126675866452,0.01588875571054471
1592167792.879535,0.18399904897765096,9.220499286733238,2.9360009510223493,-0.43555555555555553,-0.6166666666666667,-0.44555555555555554,-0.05890486225480862,0.039215444436081576,0.03561582388436281
1592167792.889535,0.11773191632675972,9.19840212550986,2.9715978744901395,-0.41919811065790186,-0.6241638289114246,-0.4414661943311421,-0.037493016953988316,0.03627290947770126,0.05092044464125141
1592167792.899535,0.10264614883569452,9.29089236280736,2.87910763719264,-0.4088888888888889,-0.6288888888888889,-0.4388888888888889,-0.03041572299085949,0.013986116808569201,0.0317918288485374
1592167792.909535,0.12826640774903486,9.291733592250965,2.7298677670666023,-0.4088888888888889,-0.6288888888888889,-0.4388888888888889,-0.0658713312343805,-0.0139478919007953,0.021685737138678766
1592167792.919535,0.1886154503584825,9.273054935663074,2.7494506433692605,-0.4088888888888889,-0.6288888888888889,-0.4388888888888889,-0.11447974096187286,-0.041847171345268816,0.02451372985000131
1592167792.929535,0.269477981105408,9.237557464851596,2.823256713531206,-0.4088888888888889,-0.6288888888888889,-0.4388888888888889,-0.13865619211760394,-0.054896791461784,0.027949404580020078
1592167792.939535,0.4513280536095035,9.255964818763326,2.86,-0.4088888888888889,-0.6208632856127526,-0.4388888888888889,-0.15190159219382876,-0.04887689441102724,0.014410479361732231
1592167792.949535,0.5126527391598407,9.250610956639362,2.8857154129405576,-0.4088888888888889,-0.6166666666666667,-0.4388888888888889,-0.16171039666225182,-0.03481715117923403,0.0005340209763713202
1592167792.959535,0.4293624444319397,9.192936244443194,2.9582550222272244,-0.4088888888888889,-0.6166666666666667,-0.4388888888888889,-0.18885281841972532,-0.0034536938820079396,-0.018293375244001958
1592167792.9695349,0.37655828294558125,9.169907099667642,3.026929884275017,-0.4088888888888889,-0.6166666666666667,-0.4388888888888889,-0.19197101693804006,0.01277027249742988,-0.02510430877875468
1592167792.9795349,0.34521867115222876,9.145218671152229,3.2059475749929915,-0.4088888888888889,-0.6166666666666667,-0.4388888888888889,-0.16884023806285556,0.03495429168470561,-0.022780228712908187
1592167792.9895349,0.33205013500987385,9.173974932495064,3.2490376012574056,-0.3949139563938258,-0.6205485923597398,-0.4536402065225666,-0.1367098086731328,0.0427523633520534,-0.011894157190115207
1592167792.9995348,0.2840118249333045,9.162005912466652,3.226504434349989,-0.3888888888888889,-0.6222222222222222,-0.46,-0.12244817389796146,0.04521477469696248,-0.006001181678886696
1592167793.0095348,0.254145307074509,9.14,3.118055504015692,-0.3888888888888889,-0.6222222222222222,-0.46,-0.10418831954878785,0.051215440599509894,0.009258081830843565
1592167793.0195348,0.2535983362109559,9.143200831894523,3.150418301679485,-0.3888888888888889,-0.6222222222222222,-0.46,-0.09965811879764572,0.05414902153435455,0.017279848542126795
1592167793.0295348,0.2098487292028172,9.109798305603757,3.365327753393896,-0.3888888888888889,-0.6222222222222222,-0.46,-0.10365642614417328,0.061114025626811494,0.03056526335550874
1592167793.0395348,0.13432952182952185,9.043902583902584,3.482194832194832,-0.3809146784146784,-0.6265717915717917,-0.43317765567765565,-0.10694798838794459,0.06440558787058281,0.03775337152215459
1592167793.0495348,0.1292261114149543,9.006928666302056,3.5176904445659813,-0.37666666666666665,-0.6288888888888889,-0.41888888888888887,-0.09406602277303859,0.061590390652063357,0.04010880553623796
1592167793.0595348,0.15313119655877877,9.038688034412212,3.3514111105282485,-0.37666666666666665,-0.6288888888888889,-0.41888888888888887,-0.0385530830525072,0.055907781361767946,0.03920375906508482
1592167793.0695348,0.19008327024981075,9.130124905374716,3.2365972747918246,-0.37666666666666665,-0.6288888888888889,-0.41888888888888887,0.009518964303730424,0.053084070289768866,0.03963654622242989
1592167793.0795348,0.27268995903223314,9.186120816263431,3.1729825307258253,-0.37666666666666665,-0.6288888888888889,-0.41888888888888887,0.029648050468471927,0.051790009750948204,0.031812721819143665
1592167793.0895348,0.32417112118546587,9.180855605927329,3.1824599093308072,-0.3799049326747412,-0.6172311312598207,-0.4396137913405658,0.023642441556053675,0.06334985561017047,0.0144607965574191
1592167793.0995347,0.3289972414821442,9.14875344814732,3.22,-0.38222222222222224,-0.6088888888888889,-0.45444444444444443,0.01317275964840684,0.07444844863633532,0.007390453778318269
1592167793.1095347,0.37102016360131296,9.115510081800656,3.2034697545980304,-0.38222222222222224,-0.6088888888888889,-0.45444444444444443,0.013000681881006192,0.09552532983841282,0.011353438168762416
1592167793.1195347,0.3094309175294538,9.149403784362727,3.219403784362728,-0.38222222222222224,-0.6088888888888889,-0.45444444444444443,0.03977836538858979,0.11543295183358158,0.02425250582428072
1592167793.1295347,0.17186564642750674,9.16510364702375,3.24,-0.38222222222222224,-0.6088888888888889,-0.45444444444444443,0.054496314579214375,0.12430948465898757,0.04122544700682323
1592167793.1395347,0.08,9.170180270405607,3.2247295943915875,-0.38222222222222224,-0.6088888888888889,-0.4436986034607467,0.0550574578399294,0.11876290413678615,0.06346482989240522
1592167793.1495347,0.09821956466424556,9.16785362355717,3.173560870671509,-0.38222222222222224,-0.6088888888888889,-0.43333333333333335,0.04748836974849321,0.10132750882491662,0.08013883180359213
1592167793.1595347,0.1415287669848967,9.191528766984897,2.9356043845027022,-0.38222222222222224,-0.6088888888888889,-0.43333333333333335,0.03813042337005291,0.08939947014738633,0.07917901331364745
1592167793.1695347,0.2706939047936879,9.255579843150342,2.790465781506996,-0.38222222222222224,-0.6088888888888889,-0.43333333333333335,0.03135516389918992,0.09256818987047402,0.06996559672149791
1592167793.1795347,0.25423764416788874,9.301646387380604,2.8395275652966587,-0.38222222222222224,-0.6088888888888889,-0.43333333333333335,0.007610826369144848,0.11429283176525687,0.051782836679405794
1592167793.1895347,0.13843695685317883,9.297083091934747,2.947292270163135,-0.38986119157730686,-0.6203473429215158,-0.4403357219088276,-0.038406623457906776,0.1485577146849934,0.034270214418428376
1592167793.1995347,0.1044448809617349,9.248885833267856,3.032226369136482,-0.39555555555555555,-0.6288888888888889,-0.44555555555555554,-0.06375347523240149,0.16592781567628695,0.03442215229197507
1592167793.2095346,0.12,9.122157110245736,3.2097381495904393,-0.39555555555555555,-0.6288888888888889,-0.44555555555555554,-0.0761799774464548,0.17585906020765818,0.053186840667881714
1592167793.2195346,0.11634510814838683,9.100862770370966,3.2555842429612922,-0.39555555555555555,-0.6288888888888889,-0.44555555555555554,-0.07129157158496675,0.1697486829533108,0.05552714012828518
1592167793.2295346,0.06618039828192113,9.043090199140961,3.391137251073799,-0.39555555555555555,-0.6288888888888889,-0.44555555555555554,-0.05035617347274678,0.13267411481203156,0.05156164584255636
1592167793.2395346,0.03511357160302858,9.060302857608075,3.354507856386876,-0.3821212696861968,-0.6227315078654329,-0.43492007924231324,-0.00634676485401707,0.09148112084898105,0.05894615805500896
1592167793.2495346,0.062308291163877,9.109846632931102,3.265383417672246,-0.3688888888888889,-0.6166666666666667,-0.42444444444444446,0.02983891387486569,0.06340202340061495,0.06059966256047477
1592167793.2595346,0.1,9.184192806459507,3.0960902862735504,-0.3688888888888889,-0.6166666666666667,-0.42444444444444446,0.06048393789916482,0.020818426747688232,0.032214979434512535
1592167793.2695346,0.15523120037365717,9.22,3.0697080803362913,-0.3688888888888889,-0.6166666666666667,-0.42444444444444446,0.04613867752728763,-0.0007988896155789096,0.0083019814037312
1592167793.2795346,0.2201228240699832,9.191828046302025,3.142196518511973,-0.3688888888888889,-0.6166666666666667,-0.42444444444444446,0.02393128707673744,-0.00895285123305309,0.0
1592167793.2895346,0.3033160904885068,9.138151979891443,3.1959240100542785,-0.3711926705766639,-0.6166666666666667,-0.43333045952586224,0.0037585599636598766,-0.01090830782496456,0.00032310462615127623
1592167793.2995346,0.3923192233564137,9.10461703190806,3.226148904275823,-0.37666666666666665,-0.6166666666666667,-0.45444444444444443,-0.004279772453305211,-0.01090830782496456,-0.011827365268451297
1592167793.3095345,0.34967616342982777,9.130971509710516,3.1728950622938807,-0.37666666666666665,-0.6166666666666667,-0.45444444444444443,0.005736754631875828,-0.014286775442226509,-0.031353615475580444
1592167793.3195345,0.34,9.169962672281777,3.1249440084226645,-0.37666666666666665,-0.6166666666666667,-0.45444444444444443,0.015267559132542519,-0.025060605240563437,-0.040900046610005306
1592167793.3295345,0.32859057603017994,9.18,3.11718115206036,-0.37666666666666665,-0.6166666666666667,-0.45444444444444443,0.016777320100007927,-0.03770322382562674,-0.044201833967606144
1592167793.3395345,0.2879372960703646,9.204820541920839,3.0441481061143425,-0.37666666666666665,-0.6145216815623966,-0.4501544742359042,0.01985996017909848,-0.046717393237034346,-0.046304056732558815
1592167793.3495345,0.24057069888512353,9.29642674721281,2.9605706988851237,-0.37666666666666665,-0.6088888888888889,-0.4388888888888889,0.024450312219455886,-0.04505158990460272,-0.04184135114825627
1592167793.3595345,0.2916881272052422,9.283522888695414,2.954366952298034,-0.37666666666666665,-0.6088888888888889,-0.4388888888888889,0.0047175694643831305,-0.03463036587184941,-0.023353765822835274
1592167793.3695345,0.335031565354632,9.199684346453681,3.0003787842555836,-0.37666666666666665,-0.6088888888888889,-0.4388888888888889,-0.027367180451791737,-0.024519589883825174,0.001701667848681341
1592167793.3795345,0.36595326513452914,9.131461953475336,3.145275014013453,-0.37666666666666665,-0.6088888888888889,-0.4388888888888889,-0.038093588722141775,-0.018299160251858113,0.014021325787106473
1592167793.3895345,0.3981676689069685,9.104732932437212,3.2923664662186063,-0.37798137012144795,-0.6136218213261015,-0.43205243092402623,-0.024347867837115802,-0.012631951654257685,0.01926028245783891
1592167793.3995345,0.3913757633454849,9.10954141221817,3.2581656488726867,-0.38222222222222224,-0.6288888888888889,-0.41,0.0019113790916369857,-0.008776670426861158,0.02109611567456761
1592167793.4095345,0.37682026099825106,9.157572985335666,3.080865285438809,-0.38222222222222224,-0.6288888888888889,-0.41,0.016009466763389955,-0.011910889863946793,0.012219760466246567
1592167793.4195344,0.2853379086836336,9.251263463921456,2.93,-0.38222222222222224,-0.6288888888888889,-0.41,0.0304481742394601,-0.017103927213567537,-0.005147523469475698
1592167793.4295344,0.2266140963267078,9.29,2.946929518366461,-0.38222222222222224,-0.6288888888888889,-0.41,0.026007902744694576,-0.021833819253451157,-0.02628316040104716
1592167793.4395344,0.23023740568554227,9.277715113177349,3.0045697736453016,-0.3794922473727443,-0.6263864119435342,-0.41727993293194116,-0.005240535309050785,-0.025561696030579152,-0.03837652598949692
1592167793.4495344,0.3462928771834555,9.18231695176034,3.12384152411983,-0.3688888888888889,-0.6166666666666667,-0.44555555555555554,-0.05242508651374779,-0.029033385851243012,-0.020342626729423004
1592167793.4595344,0.456502229523586,9.138834076507862,3.163251114761793,-0.3688888888888889,-0.6166666666666667,-0.44555555555555554,-0.054113526924575016,-0.02280716987351831,-2.690596461872325e-05
1592167793.4695344,0.47708114903811943,9.14569371634604,3.227369120193562,-0.3688888888888889,-0.6166666666666667,-0.44555555555555554,-0.03267780430476948,-0.01666515259527931,0.007333124619642719
1592167793.4795344,0.40983046107596044,9.111779634355228,3.308813577096515,-0.3688888888888889,-0.6166666666666667,-0.44555555555555554,-0.019292913601173727,-0.011102435818591624,0.012553800912567928
1592167793.4895344,0.3048956308008364,9.052937378480502,3.3519582523203346,-0.3688888888888889,-0.6166666666666667,-0.4429445524617761,-0.01640800139152369,-0.005324577989898049,0.01790328672916493
1592167793.4995344,0.35411842885961786,9.104710573157707,3.345289426842293,-0.3688888888888889,-0.6166666666666667,-0.41888888888888887,0.018547022864505484,-0.0191225600456062,0.006158876939190148
1592167793.5095344,0.40445017424884616,9.15212277479514,3.2453452010925874,-0.3688888888888889,-0.6166666666666667,-0.41888888888888887,0.04961746609343639,-0.027502328371496014,-0.0061488303397361325
1592167793.5195343,0.45401153291686686,9.142020182604517,3.165988467083133,-0.3688888888888889,-0.6166666666666667,-0.41888888888888887,0.06588429219367639,-0.03294057353924689,-0.013743209813382307
1592167793.5295343,0.37061646486426714,9.1,3.171247304693979,-0.3688888888888889,-0.6166666666666667,-0.41888888888888887,0.07049503732292599,-0.03613347565791752,-0.015339660872717618
1592167793.5395343,0.2272104719255942,9.117585601102308,3.1220065449534964,-0.3678230948826884,-0.6154232403260995,-0.4235073295824243,0.07530824423759264,-0.029018240645428888,-0.01588021157339036
1592167793.5495343,0.1643811615543964,9.227524646217587,3.08,-0.3622222222222222,-0.6088888888888889,-0.4477777777777778,0.09893345416481203,-0.017661183898263183,-0.030065351321238207
1592167793.5595343,0.1136566623169494,9.226523609298729,3.037742496737712,-0.3622222222222222,-0.6088888888888889,-0.4477777777777778,0.09717008422188585,-0.026359714187981876,-0.032525483484067516
1592167793.5695343,0.05,9.2,2.99,-0.3622222222222222,-0.6088888888888889,-0.4477777777777778,0.08617563181722002,-0.032724923474893676,-0.03599741582238304
1592167793.5795343,0.06,9.172398460880718,3.0571953826421545,-0.3622222222222222,-0.6088888888888889,-0.4477777777777778,0.06514391065508121,-0.060864999825921313,-0.03276922827366972
1592167793.5895343,0.06738674595102104,9.180820749550113,3.0836933729755107,-0.36281498578619303,-0.6094360552556313,-0.44622747307200794,0.06767627345847946,-0.07820998960013466,-0.02945243112740431
1592167793.5995343,0.28631718806619155,9.162104118854934,3.1657893465394373,-0.37666666666666665,-0.6222222222222222,-0.41,0.06550716201083168,-0.09966759718705388,-0.025318631759117825
1592167793.6095343,0.3737704665153485,9.113961744419225,3.1045355781308537,-0.37666666666666665,-0.6222222222222222,-0.41,0.061518683096288926,-0.0991016845253237,-0.018338476255474037
1592167793.6195343,0.38590617529408977,9.140651849747922,3.002790125210064,-0.37666666666666665,-0.6222222222222222,-0.41,0.0719393464178593,-0.07927511823694279,-0.01936615152685032
1592167793.6295342,0.3347534458612811,9.208856047762954,2.962130168791922,-0.37666666666666665,-0.6222222222222222,-0.41,0.0951174371524449,-0.05094630816445359,-0.0230860220326264
1592167793.6395342,0.317093536121673,9.287820152091253,2.9414532319391635,-0.3747290240811153,-0.6218185466835657,-0.4120991128010139,0.10648627884046992,-0.029652555025714025,-0.01650215443993536
1592167793.6495342,0.2593487212065599,9.23934872120656,2.98065127879344,-0.35,-0.6166666666666667,-0.4388888888888889,0.073750232236236,0.00014208699117433405,0.0005926280032903502
1592167793.6595342,0.18829760656688452,9.228955633378689,2.972088733242622,-0.35,-0.6166666666666667,-0.4388888888888889,0.05164670475005605,0.006544984694978735,0.010117102084418125
1592167793.6695342,0.12,9.256647577406554,2.9301145355606777,-0.35,-0.6166666666666667,-0.4388888888888889,0.04617433849517405,0.006544984694978735,0.014180800172453926
1592167793.6795342,0.12499883689719961,9.240002326205602,2.982497092242999,-0.35,-0.6166666666666667,-0.4388888888888889,0.04145233098386805,0.005999696178564295,0.014180800172453926
1592167793.6895342,0.13998950766747378,9.209989507667474,3.0200314769975787,-0.35001282396197647,-0.6166724957402924,-0.4388679042238364,0.03162608094088736,0.004359889522195883,0.014177366564663986
1592167793.6995342,0.13,9.2,3.05,-0.3622222222222222,-0.6222222222222222,-0.41888888888888887,0.02399827721492203,0.001090830782496456,0.01090830782496456
1592167793.7095342,0.25729124401525605,9.192708755984743,3.050278341312992,-0.3622222222222222,-0.6222222222222222,-0.41888888888888887,0.020756147194657876,0.010817220843288925,0.007340336036432168
1592167793.7195342,0.28,9.166729841165722,3.0428911118399475,-0.3622222222222222,-0.6222222222222222,-0.41888888888888887,0.01995032546400168,0.026433288739566116,0.010174196034476444
1592167793.7295341,0.26401796665802885,9.153150557139156,3.110548328582534,-0.3622222222222222,-0.6222222222222222,-0.41888888888888887,0.030568268948829205,0.04316013279774934,0.011904518907039236
1592167793.7395341,0.21329653623563963,9.131412801243846,3.1757615962684635,-0.3622222222222222,-0.6222222222222222,-0.41888888888888887,0.04795722534902744,0.058968274979747735,0.015066147343438915
1592167793.7495341,0.18737318397495475,9.147070390842831,3.157070390842831,-0.39555555555555555,-0.6166666666666667,-0.41,0.07333917399834511,0.07228137282277353,0.0254086787823508
1592167793.7595341,0.1335463013203111,9.132907397359377,3.1009583559414,-0.39555555555555555,-0.6166666666666667,-0.41,0.08494541381319459,0.08378488941993363,0.030473568299136274
1592167793.769534,0.106096480033413,9.173903519966588,3.0483421119799523,-0.39555555555555555,-0.6166666666666667,-0.41,0.10139464107699882,0.10011721715510602,0.036119896045055166
1592167793.779534,0.07,9.20423813577357,3.07192062140881,-0.39555555555555555,-0.6166666666666667,-0.41,0.12296778251593349,0.10987781312597603,0.039898430056148036
1592167793.789534,0.07,9.181923281549265,3.0793589061502447,-0.39555555555555555,-0.6166666666666667,-0.41,0.13027030148437072,0.11718033209441325,0.042332603045627124
1592167793.799534,0.03357597425813372,9.193212012870932,3.0571519485162675,-0.38222222222222224,-0.6288888888888889,-0.41,0.13942783001714712,0.13121036812243375,0.04437368583101582
1592167793.809534,-0.01287766110950785,9.202988878282682,2.985166825759762,-0.38222222222222224,-0.6288888888888889,-0.41,0.15346897237680765,0.13188993394194443,0.04428530338703529
1592167793.819534,-0.09485700890764182,9.212428504453822,2.8605719643694325,-0.38222222222222224,-0.6288888888888889,-0.41,0.15955739880288175,0.1278609144764177,0.043960531675290834
1592167793.829534,-0.08210889764633574,9.233945551176832,2.794770418308688,-0.38222222222222224,-0.6288888888888889,-0.41,0.15860085632974646,0.12533517121219762,0.0416018306004538
1592167793.839534,0.039205683502657365,9.29460284175133,2.7720239343432516,-0.38222222222222224,-0.6288888888888889,-0.41,0.1652175403038958,0.09638717882529443,0.05648936954228971
1592167793.849534,0.09,9.32798764279043,2.79056613262447,-0.3888888888888889,-0.6088888888888889,-0.3977777777777778,0.1274351952716689,0.08371270064389463,0.04921089619109003
1592167793.859534,0.07847960551926986,9.274239802759634,2.7354388165578096,-0.3888888888888889,-0.6088888888888889,-0.3977777777777778,0.10579305730508468,0.0782081177195212,0.04252487192029022
1592167793.869534,0.043529524264881665,9.26215682524504,2.65,-0.3888888888888889,-0.6088888888888889,-0.3977777777777778,0.09988588571572304,0.06728936890525711,0.035911880920002255
1592167793.879534,0.03153762878227451,9.283185861465457,2.6450553019504537,-0.3888888888888889,-0.6088888888888889,-0.3977777777777778,0.09511826741387709,0.045683358626007635,0.030555326923878183
1592167793.889534,0.08451220612381141,9.34372823557007,2.622351911661224,-0.3888888888888889,-0.6088888888888889,-0.3977777777777778,0.08108445178364722,0.025045394463904882,0.025602215524973517
1592167793.899534,0.11,9.39,2.62,-0.3688888888888889,-0.6222222222222222,-0.4033333333333333,0.04036073895236887,0.001090830782496456,0.014180800172453926
1592167793.909534,0.10525621621621621,9.343461621621621,2.616923243243243,-0.3688888888888889,-0.6222222222222222,-0.4033333333333333,-0.007887473087188427,-0.0156492352971724,0.0031746123961950913
1592167793.919534,0.14870769896817954,9.32,2.5880676816509127,-0.3688888888888889,-0.6222222222222222,-0.4033333333333333,-0.03328879617319836,-0.009887292101568641,-0.0028153493223981338
1592167793.929534,0.10156332693405282,9.318312665386811,2.666873346131894,-0.3688888888888889,-0.6222222222222222,-0.4033333333333333,-0.05220287218491963,0.004035785240798515,-0.009462884874547162
1592167793.939534,0.06529237793804804,9.31105847558761,2.739415244123904,-0.3688888888888889,-0.6222222222222222,-0.4033333333333333,-0.06090727507346384,0.01669673489686281,-0.012628122288563236
1592167793.949534,0.05894524998787644,9.284345812521217,2.806835749963629,-0.37666666666666665,-0.6088888888888889,-0.41888888888888887,-0.08062025562151641,0.017453292519943295,-0.010664363973867018
1592167793.959534,0.07877146930370438,9.223262881582222,2.9,-0.37666666666666665,-0.6088888888888889,-0.41888888888888887,-0.09260965988376035,0.01696335544291427,-0.010797351196526153
1592167793.969534,0.04187778267038505,9.2,2.90751113068154,-0.37666666666666665,-0.6088888888888889,-0.41888888888888887,-0.0918964225802993,0.014861962327011502,-0.013975965858484487
1592167793.979534,0.04536892483752473,9.210805842045774,2.9492621503249503,-0.37666666666666665,-0.6088888888888889,-0.41888888888888887,-0.07047189902468494,0.012753188100405283,-0.012416406810853096
1592167793.989534,0.023147075445040972,9.26265682396157,2.993705849109918,-0.37666666666666665,-0.6088888888888889,-0.41888888888888887,-0.052695695626382544,0.011137169609650522,-0.00918436982934357
1592167793.999534,0.07248383415747432,9.21467335488779,3.053137124381894,-0.3622222222222222,-0.6166666666666667,-0.43333333333333335,-0.048609705890032016,0.020797047776102792,-0.0028981805484556613
1592167794.009534,0.0038607195929211517,9.153860719592922,3.0877214391858425,-0.3622222222222222,-0.6166666666666667,-0.43333333333333335,-0.04244111294706829,0.032501692939879714,-0.004338001237412449
1592167794.0195339,-0.01685441323256809,9.144155140453444,3.0289904463139883,-0.3622222222222222,-0.6166666666666667,-0.43333333333333335,-0.01925589311004046,0.030261571542425925,0.0012009560062248876
1592167794.0295339,0.0046185082282539005,9.228082389399445,2.959608356486429,-0.3622222222222222,-0.6166666666666667,-0.43333333333333335,0.014140293258912837,0.02227769506435151,0.008769367940008509
1592167794.0395339,0.03449882453515708,9.280372942936523,2.8923776447958964,-0.3622222222222222,-0.6166666666666667,-0.43333333333333335,0.027992900006690684,0.018203398962063907,0.016103100924126194
1592167794.0495338,0.08,9.321509751176867,2.792451244115669,-0.37666666666666665,-0.6166666666666667,-0.4122222222222222,0.013336084875853613,0.022640057178747057,0.019634954084936207
1592167794.0595338,0.0769247632818695,9.32384952656374,2.751537618359065,-0.37666666666666665,-0.6166666666666667,-0.4122222222222222,-0.013339768061848247,0.028109410281311434,0.01846085707847616
1592167794.0695338,0.05864534201642445,9.281872052098546,2.7762558958029064,-0.37666666666666665,-0.6166666666666667,-0.4122222222222222,-0.034498166628780226,0.032872693737717555,0.011851368344637136
1592167794.0795338,0.051039169234605726,9.22792166153079,2.8924700308152684,-0.37666666666666665,-0.6166666666666667,-0.4122222222222222,-0.04547482552805179,0.03370239847845701,0.010568240488165197
1592167794.0895338,0.05851017972604691,9.212979640547907,2.982122156712563,-0.37666666666666665,-0.6166666666666667,-0.4122222222222222,-0.04302994306192638,0.032887437656415205,0.008123358022039789
1592167794.0995338,0.04,9.16,3.15,-0.38222222222222224,-0.6222222222222222,-0.43333333333333335,-0.030543261909900768,0.031634092692397225,0.007635815477475192
1592167794.1095338,0.01885809090649046,9.162283818187019,3.1068680454246405,-0.38222222222222224,-0.6222222222222222,-0.43333333333333335,-0.0068582018749524035,0.024341730243410787,0.0021193800854922705
1592167794.1195338,0.0,9.2,2.89,-0.38222222222222224,-0.6222222222222222,-0.43333333333333335,0.02399827721492203,0.011999138607461015,0.001090830782496456
1592167794.1295338,0.003083565301369085,9.245396239277396,2.8430619780719195,-0.38222222222222224,-0.6222222222222222,-0.43333333333333335,0.03591096982217953,0.001677114372407208,0.00427923193122154
1592167794.1395338,0.03485315003124467,9.30099301255468,2.7715804124296994,-0.38222222222222224,-0.6222222222222222,-0.43333333333333335,0.023781635482512352,-0.003521171773164439,0.0034128509069595984
1592167794.1495337,0.07,9.32,2.74,-0.37666666666666665,-0.6166666666666667,-0.4033333333333333,-0.0032724923474893677,-0.002181661564992912,0.006544984694978735
1592167794.1595337,0.08118562903661501,9.31525748385354,2.8017784435549222,-0.37666666666666665,-0.6166666666666667,-0.4033333333333333,-0.029590254962181064,0.004945317422378398,0.00859731419499552
1592167794.1695337,0.09742231254578539,9.237422312545785,2.8403107498168585,-0.37666666666666665,-0.6166666666666667,-0.4033333333333333,-0.050118386180668335,0.015024346419267596,0.006451257334221661
1592167794.1795337,0.06824862194860049,9.2082486219486,2.9564217195217983,-0.37666666666666665,-0.6166666666666667,-0.4033333333333333,-0.06057706859573347,0.024189322923947557,0.005263108203456753
1592167794.1895337,0.045729293435464245,9.185729293435465,3.038992590736631,-0.37666666666666665,-0.6166666666666667,-0.4033333333333333,-0.054026461464192356,0.02664580059827547,0.0028066305291288385
1592167794.1995337,0.01,9.18,3.06,-0.3888888888888889,-0.5955555555555555,-0.4122222222222222,-0.030543261909900768,0.019634954084936207,0.002181661564992912
1592167794.2095337,0.000895991132458895,9.234624053205247,2.9052318492518014,-0.3888888888888889,-0.5955555555555555,-0.4122222222222222,-0.014653768922965507,0.006724741033051309,0.0011885682533094581
1592167794.2195337,0.07,9.27,2.8481253767329715,-0.3888888888888889,-0.5955555555555555,-0.4122222222222222,-0.01758118075815641,-0.0032724923474893677,0.004030945215246849
1592167794.2295337,0.0671688735844368,9.266602648301324,2.9273609286804643,-0.3888888888888889,-0.5955555555555555,-0.4122222222222222,-0.02879395952296078,-0.0035195547349481837,0.0009055339919023439
1592167794.2395337,0.029944442472221243,9.221933330966666,3.0241444495722245,-0.3888888888888889,-0.5955555555555555,-0.4122222222222222,-0.03447873726749807,-0.006767999160398066,-0.0015307993271850672
1592167794.2495337,0.01,9.18,3.15,-0.37666666666666665,-0.6222222222222222,-0.43333333333333335,-0.02399827721492203,-0.02399827721492203,0.0
1592167794.2595336,0.01817043795620438,9.171829562043795,3.125488686131387,-0.37666666666666665,-0.6222222222222222,-0.43333333333333335,-0.0017168641421591128,-0.03558461201275875,-0.0017825130458210335
1592167794.2695336,0.09,9.191584811111921,2.947464302220925,-0.37666666666666665,-0.6222222222222222,-0.43333333333333335,0.0242403037192678,-0.03937363381459203,-0.0033416427773024443
1592167794.2795336,0.09,9.241531789835854,2.869234105082073,-0.37666666666666665,-0.6222222222222222,-0.43333333333333335,0.031383454166607504,-0.042333535079203684,-0.00562124626300876
1592167794.2895336,0.09,9.271596301340406,2.8542018493297974,-0.37666666666666665,-0.6222222222222222,-0.43333333333333335,0.026464159975124933,-0.03823412325296821,-0.008900775723997138
1592167794.2995336,0.06,9.309311480970033,2.8310327785449525,-0.35,-0.6222222222222222,-0.4122222222222222,0.013542401083063543,-0.028399153232519053,-0.010758096274519763
1592167794.3095336,0.05755391467416784,9.286086263478667,2.86,-0.35,-0.6222222222222222,-0.4122222222222222,-0.005163802680995002,-0.02891877809339819,-0.006651715301779959
1592167794.3195336,0.010984218970760795,9.208687708038987,2.8649210948538038,-0.35,-0.6222222222222222,-0.4122222222222222,-0.020761572079100094,-0.018615697725774608,-0.008655071836636791
1592167794.3295336,0.03917702301934755,9.169725674339782,3.0119202796215223,-0.35,-0.6222222222222222,-0.4122222222222222,-0.021427599912957056,-0.020785633442351445,-0.006515060407519346
1592167794.3395336,0.016964588334980938,9.162321529444993,3.0637492938850444,-0.35,-0.6222222222222222,-0.4122222222222222,-0.010927929992867466,-0.02240096727621138,-0.005707393490589378
1592167794.3495336,0.0601415421398685,9.21014154213987,3.069433831440526,-0.3622222222222222,-0.6288888888888889,-0.4033333333333333,0.012122657426012198,-0.025042788440461792,-0.004347883277666926
1592167794.3595335,0.07979862833795419,9.230100685831024,2.9886910841967023,-0.3622222222222222,-0.6288888888888889,-0.4033333333333333,0.029507346729324823,-0.01842330897821462,-0.002192644685377015
1592167794.3695335,0.0594521456523181,9.240821781521523,2.859452145652318,-0.3622222222222222,-0.6288888888888889,-0.4033333333333333,0.034966346678564186,-0.006395580598284752,-0.0031529690701341813
1592167794.3795335,0.04090601578563374,9.26864097632155,2.8409060157856336,-0.3622222222222222,-0.6288888888888889,-0.4033333333333333,0.036989415614039796,-0.0013379082595957057,0.0008931688008170561
