time,acc_x,acc_y,acc_z,mag_x,mag_y,mag_z,gyr_x,gyr_y,gyr_z
1592167856.4894743,-0.1462443588716001,8.4181221794358,4.8396945514105,-0.44222222222222224,-0.2911111111111111,-0.22333333333333333,0.015747946394816584,-0.00044299616747651895,0.019601634812546523
1592167856.4994743,-0.15730449434086663,8.416826123585217,4.88047837075565,-0.4300868914040593,-0.2994541510485981,-0.23774403867990182,0.01160074024358159,0.005212302012315581,0.02181661564992912
1592167856.5094743,-0.18561724194570242,8.42,4.89,-0.42444444444444446,-0.30333333333333334,-0.24444444444444444,0.008352942587154502,0.012746545953095306,0.02181661564992912
1592167856.5194743,-0.1514992206319966,8.389199376505598,4.805298285390393,-0.42444444444444446,-0.30333333333333334,-0.24444444444444444,0.002596075243308485,0.01754062699523173,0.026856355884095823
1592167856.5294743,-0.12478671642496103,8.395213283575039,4.7952132835750385,-0.42444444444444446,-0.30333333333333334,-0.24444444444444444,0.001090830782496456,0.0218631469077398,0.0316806239502079
1592167856.5394742,-0.19267662565905097,8.388818980667839,4.878267135325132,-0.42444444444444446,-0.30333333333333334,-0.24444444444444444,0.0047498108026594365,0.02595659644922806,0.033334753478254174
1592167856.5494742,-0.25,8.38,4.968192881937184,-0.42836012249127553,-0.29863451967713606,-0.22486605421028907,0.0053292907176475685,0.023748550825252606,0.03535343743060854
1592167856.5594742,-0.26026390197926486,8.369736098020736,4.976578699340245,-0.43,-0.2966666666666667,-0.21666666666666667,0.00510973514515305,0.015472113521007696,0.03786344586030111
1592167856.5694742,-0.19847770227830755,8.390761148860847,4.874890652658025,-0.43,-0.2966666666666667,-0.21666666666666667,0.016919805073356067,-0.003397035038610345,0.044415804128687425
1592167856.5794742,-0.11682373064036178,8.41,4.858784179573092,-0.43,-0.2966666666666667,-0.21666666666666667,0.0335911165726421,-0.010469818335883063,0.05052469323393634
1592167856.5894742,-0.07837502479845618,8.404593756199615,4.89703121900193,-0.43,-0.2966666666666667,-0.21666666666666667,0.03876880710289012,-0.014358057469517665,0.05471879642188653
1592167856.5994742,-0.11594264150943395,8.4,4.951079245283019,-0.4341438993710692,-0.30564511530398325,-0.22978901467505242,0.03723577632278392,-0.014328329890358354,0.054689068842727215
1592167856.6094742,-0.3591226444936509,8.407211125672195,4.890677617605856,-0.43666666666666665,-0.3111111111111111,-0.23777777777777778,0.04229031011012752,-0.009943522246085232,0.03535863726506096
1592167856.6194742,-0.4779623454573437,8.394815061817063,4.776482839993844,-0.43666666666666665,-0.3111111111111111,-0.23777777777777778,0.053006161082481684,-0.00458559675990815,-0.00476679565560012
1592167856.6294742,-0.4645856993857921,8.39847143353807,4.75847143353807,-0.43666666666666665,-0.3111111111111111,-0.23777777777777778,0.05563236990731925,-0.008817032632608681,-0.01157527076487084
1592167856.6394742,-0.38892762820391025,8.425402139423534,4.775134046474511,-0.43666666666666665,-0.3111111111111111,-0.23777777777777778,0.054512294720686395,-0.03036340157035745,0.004655767171349753
1592167856.6494741,-0.3046970717597179,8.452943693782938,4.78,-0.4287566315770936,-0.3111111111111111,-0.22411498989578793,0.05486264630408998,-0.05281082805132196,0.016683568916714034
1592167856.6594741,-0.2968275084554679,8.468413754227734,4.782804584742578,-0.42444444444444446,-0.3111111111111111,-0.21666666666666667,0.05471457169652206,-0.060873358841636124,0.014088032413686943
1592167856.6694741,-0.302452027342356,8.458710022785297,4.739936036456474,-0.42444444444444446,-0.3111111111111111,-0.21666666666666667,0.04007233224124186,-0.07486611195657074,-0.00068961874681173
1592167856.679474,-0.25985818966539403,8.419858189665394,4.770425431003818,-0.42444444444444446,-0.3111111111111111,-0.21666666666666667,0.0275982852383152,-0.08879309281290178,-0.007292830693744951
1592167856.689474,-0.22504664427741353,8.41,4.814972013433552,-0.42444444444444446,-0.3111111111111111,-0.21666666666666667,0.024544710226442855,-0.10252181163030527,-0.01253743065680105
1592167856.699474,-0.14141058910104962,8.43130524032689,4.835326310081722,-0.42444444444444446,-0.3146619844989263,-0.2314619724492299,0.02632231841262779,-0.11939888400660867,-0.015200441138593958
1592167856.709474,-0.07327207088939941,8.45,4.843717317580134,-0.42444444444444446,-0.31777777777777777,-0.24444444444444444,0.028969845011616577,-0.12755011188077012,-0.013369807283508962
1592167856.719474,0.09269917777147717,8.456179945184765,4.798200548152349,-0.42444444444444446,-0.31777777777777777,-0.24444444444444444,0.029611710359892452,-0.13131639723790292,-0.009143349598299847
1592167856.729474,0.16078169723845998,8.45460915138077,4.757304575690385,-0.42444444444444446,-0.31777777777777777,-0.24444444444444444,0.028361600344907853,-0.12737139172899395,-0.009608721802616836
1592167856.739474,0.16610623019216111,8.449557507923135,4.764336261884703,-0.42444444444444446,-0.31777777777777777,-0.24444444444444444,0.030968006306535362,-0.1052989758938052,-0.018254512915367036
1592167856.749474,0.070787966654585,8.488838347227256,4.797303008336353,-0.4314938182111071,-0.3023973259232411,-0.2367542185171761,0.03570321966969888,-0.07653006243123232,-0.030122349096908474
1592167856.759474,0.02432722776103254,8.497018316716902,4.807836386119483,-0.43666666666666665,-0.2911111111111111,-0.2311111111111111,0.035908178293727624,-0.06167362835410135,-0.03169163129731675
1592167856.769474,0.03430209620998922,8.432906288629967,4.765812577259935,-0.43666666666666665,-0.2911111111111111,-0.2311111111111111,0.026040188727534937,-0.04488883000492057,-0.01653973859510565
1592167856.779474,0.023958584212887536,8.426041415787113,4.770207078935562,-0.43666666666666665,-0.2911111111111111,-0.2311111111111111,0.02181661564992912,-0.03924731936214062,-0.007613226669743393
1592167856.789474,0.0016185435298412126,8.43,4.822167548822778,-0.43666666666666665,-0.2911111111111111,-0.2311111111111111,0.0243229979680251,-0.03157420550506834,-0.006456706839720673
1592167856.799474,-0.010740406998573253,8.453148982503567,4.84611061049786,-0.4459262596680934,-0.30037070411253786,-0.24397165694642603,0.031311029194149416,-0.02205891327361497,-0.007130783023507939
1592167856.809474,-0.006708086593534608,8.486708086593534,4.816583826812931,-0.45666666666666667,-0.3111111111111111,-0.2588888888888889,0.03380219961801924,-0.02000760077201562,-0.006544984694978735
1592167856.819474,-0.017764344504390975,8.466706966486827,4.79253022486512,-0.45666666666666667,-0.3111111111111111,-0.2588888888888889,0.030395787327287038,-0.02136100381677993,-0.005909765745631471
1592167856.829474,-0.033434366805491285,8.430740655046533,4.714478122268497,-0.45666666666666667,-0.3111111111111111,-0.2588888888888889,0.032772653280842806,-0.024600620635592537,-0.001465462085477847
1592167856.839474,-0.03334639455782313,8.533385578231293,4.687756009070295,-0.45666666666666667,-0.3111111111111111,-0.2588888888888889,0.059527501539547875,-0.02411853079615071,0.0024264430031694408
1592167856.849474,-0.07048401661549576,8.591806393353801,4.668193606646199,-0.4484730600204684,-0.30291750446491283,-0.2415912748580258,0.07401809914273225,-0.019332311092689312,0.005007261995015247
1592167856.859474,-0.17843137254901964,8.477435897435898,4.698099547511312,-0.43666666666666665,-0.2911111111111111,-0.21666666666666667,0.031453110209630084,-0.011548327695841062,0.0030470868916793914
1592167856.869474,-0.29429321248431783,8.422858642496863,4.677853393757841,-0.43666666666666665,-0.2911111111111111,-0.21666666666666667,0.0007001850556157957,-0.007713486583963725,0.002181661564992912
1592167856.879474,-0.34800614353532533,8.448006143535325,4.665144612438665,-0.43666666666666665,-0.2911111111111111,-0.21666666666666667,0.0004067932403070511,-0.007947960098006052,0.0016204714037819853
1592167856.889474,-0.4924385226565007,8.495598165587786,4.6623926623511425,-0.43666666666666665,-0.2911111111111111,-0.21666666666666667,0.01514113146771304,-0.0211222859124226,-0.002400828238147785
1592167856.899474,-0.5750938032973281,8.511816372939169,4.657453098351335,-0.433757816941444,-0.2998376602867791,-0.2229691744046491,0.002559638462054644,-0.05461905694620543,-0.018305058341295703
1592167856.909474,-0.48911924939467316,8.541572336561742,4.6784276634382564,-0.43,-0.3111111111111111,-0.2311111111111111,-0.018187391262340653,-0.08907769070891006,-0.03199082473249632
1592167856.919474,-0.1686127089212069,8.53399148035598,4.643319133926633,-0.43,-0.3111111111111111,-0.2311111111111111,-0.049532081666296704,-0.1279939096429018,-0.012287858335137729
1592167856.9294739,-0.050023492940008234,8.490023492940008,4.679953014119984,-0.43,-0.3111111111111111,-0.2311111111111111,-0.06588412911701536,-0.12654149613401536,-0.010688604059137328
1592167856.9394739,-0.030957698495315603,8.47,4.72215482161446,-0.43,-0.3111111111111111,-0.2311111111111111,-0.06757927416482823,-0.12175517283998676,-0.011999138607461015
1592167856.9494739,-0.0788269277060098,8.452346144587981,4.854134638530049,-0.4353942335981171,-0.3076784170032184,-0.23405342034644772,-0.06593128117261667,-0.09797967600004935,-0.007666230601997177
1592167856.9594738,-0.09716934004605238,8.425698395972368,4.919320142059868,-0.44222222222222224,-0.30333333333333334,-0.23777777777777778,-0.06614965089166289,-0.0883532490109708,-0.0010085810431301387
1592167856.9694738,-0.19518297556519754,8.333719171043617,4.967438342087235,-0.44222222222222224,-0.30333333333333334,-0.23777777777777778,-0.04582140073290156,-0.06852274391831456,0.017007674818176145
1592167856.9794738,-0.19834298596804914,8.303866366074553,4.901104676021301,-0.44222222222222224,-0.30333333333333334,-0.23777777777777778,-0.029826570779316653,-0.06302718246305038,0.01951445262406417
1592167856.9894738,-0.14971748380419367,8.38352167746387,4.913239161268065,-0.44222222222222224,-0.30333333333333334,-0.23777777777777778,0.0014595773327109305,-0.05890486225480862,0.015609559768870922
1592167856.9994738,-0.11263859199087929,8.41,4.889445632036483,-0.44222222222222224,-0.30333333333333334,-0.23777777777777778,0.0010303586185530155,-0.05948051372802857,0.014013918763730834
1592167857.0094738,-0.03237083686568973,8.435773283274798,4.77237083686569,-0.44222222222222224,-0.30333333333333334,-0.23777777777777778,-0.006679948086936878,-0.06221109545028753,0.016823525008721227
1592167857.0194738,-0.005112037781350484,8.476533611334405,4.618354350884244,-0.44222222222222224,-0.30333333333333334,-0.23777777777777778,-0.007902412460064321,-0.06086346909287425,0.006365472223713304
1592167857.0294738,-0.03867905008229485,8.506981424876557,4.588302374794263,-0.44222222222222224,-0.30333333333333334,-0.23777777777777778,-0.011011312208282352,-0.06075724835340864,-0.004322234230066724
1592167857.0394738,-0.017491834126251507,8.511661222750835,4.6767102179933255,-0.44222222222222224,-0.30333333333333334,-0.23777777777777778,-0.03300921103290388,-0.06399659358465219,-0.009909864205417947
1592167857.0494738,-0.008799406796053903,8.4618692372171,4.813997033980269,-0.43505233520321535,-0.30561466102119916,-0.23582235404532134,-0.06901247257329696,-0.06782049957239636,-0.012770013929929333
1592167857.0594738,-0.00041955975771901244,8.355209779878859,4.969300733737135,-0.4177777777777778,-0.3111111111111111,-0.2311111111111111,-0.090077445484074,-0.06821506296426322,-0.014688076505467433
1592167857.0694737,-0.007749153912208928,8.313036318634136,5.063141890185381,-0.4177777777777778,-0.3111111111111111,-0.2311111111111111,-0.0598754630647129,-0.061920309312590155,-0.013923754882746095
1592167857.0794737,-0.03570676326698286,8.294293236733017,5.1,-0.4177777777777778,-0.3111111111111111,-0.2311111111111111,-0.03645999129892064,-0.05835848952990133,-0.010674148085718578
1592167857.0894737,0.04312888063598909,8.366520629025706,5.086783496779434,-0.4177777777777778,-0.3111111111111111,-0.2311111111111111,0.012254423267462651,-0.04622310778484881,-0.003310724912488373
1592167857.0994737,0.09,8.41888561537895,5.051906164837593,-0.4261713846128666,-0.3072140793662485,-0.2311111111111111,0.03885404751360065,-0.030994313247673107,0.009868656184285163
1592167857.1094737,0.09,8.47,5.03,-0.4488888888888889,-0.2966666666666667,-0.2311111111111111,0.04363323129985824,-0.017453292519943295,0.02181661564992912
1592167857.1194737,-0.25182464950826533,8.357361372672107,4.782182464950826,-0.4488888888888889,-0.2966666666666667,-0.2311111111111111,0.06087675744836102,0.008339297476147315,0.01090830782496456
1592167857.1294737,-0.13,8.4,4.77,-0.4488888888888889,-0.2966666666666667,-0.2311111111111111,0.08944812416470939,0.019634954084936207,0.01090830782496456
1592167857.1394737,-0.6584397847979031,8.438670161401573,4.819769623396331,-0.4488888888888889,-0.2966666666666667,-0.2311111111111111,0.11393185042147629,0.05015308580575201,-0.008556453182995031
1592167857.1494737,-0.5197623120882321,8.561233210788775,4.5915156699304776,-0.44705630174272115,-0.29849925381283443,-0.2311111111111111,0.1221211921814463,0.02465472919785123,0.00896976338883365
1592167857.1594737,-0.440126246882793,8.66962125935162,4.490315617206983,-0.44222222222222224,-0.30333333333333334,-0.2311111111111111,0.10418267057447486,0.011888967418705139,0.02390876312405788
1592167857.1694736,-0.47337972005208334,8.556481119791666,4.522160373263889,-0.44222222222222224,-0.30333333333333334,-0.2311111111111111,-0.0012845609564603316,-0.009832657060681555,0.007384975293468507
1592167857.1794736,-0.49,8.49,4.5,-0.44222222222222224,-0.30333333333333334,-0.2311111111111111,-0.0272707695624114,-0.015271630954950384,0.004363323129985824
1592167857.1894736,-0.455602295153863,8.516386229076822,4.595210328192384,-0.44222222222222224,-0.30333333333333334,-0.2311111111111111,-0.06571577731798568,-0.03927303770047785,-0.010559993061910999
1592167857.1994736,-0.46398796649494667,8.43200401116835,4.664008022336702,-0.4404408789614657,-0.3053373445016844,-0.2332264562332595,-0.09294140797224475,-0.0615281067398935,-0.016473951343947617
1592167857.2094736,-0.4375376206871644,8.463768810343582,4.741306431030747,-0.42444444444444446,-0.3233333333333333,-0.25222222222222224,-0.10572105126373543,-0.09559841054751814,-0.03828502714724379
1592167857.2194736,-0.4657317901843449,8.48,4.79853641963131,-0.42444444444444446,-0.3233333333333333,-0.25222222222222224,-0.12273145850509093,-0.11544167891206127,-0.06244319394470161
1592167857.2294736,-0.4476644711150452,8.42654604149853,4.871677644424774,-0.42444444444444446,-0.3233333333333333,-0.25222222222222224,-0.15206324806518193,-0.1299308648624534,-0.08552257033289812
1592167857.2394736,-0.43,8.318806112017791,4.991193887982209,-0.42444444444444446,-0.3233333333333333,-0.25222222222222224,-0.15039179667129174,-0.1390004119526923,-0.0997305037828199
1592167857.2494736,-0.42151818356744275,8.29180681162209,5.054240908216278,-0.42562247450452184,-0.32074166720116304,-0.25057298013811385,-0.11064197765730407,-0.144683580273741,-0.10263800416703328
1592167857.2594736,-0.39,8.41,5.07,-0.43,-0.3111111111111111,-0.24444444444444444,-0.05563236990731925,-0.14726215563702155,-0.09490227807719166
1592167857.2694736,-0.35612904958899694,8.453064524794499,5.008387148766991,-0.43,-0.3111111111111111,-0.24444444444444444,-0.04402908454868284,-0.14953178459064215,-0.05750614561211525
1592167857.2794735,-0.32221122403888647,8.404950508174988,4.945577551922227,-0.43,-0.3111111111111111,-0.24444444444444444,-0.05944487892543645,-0.15338232850318273,-0.03277172845455802
1592167857.2894735,-0.26148625981441825,8.337233226266951,5.000640256959315,-0.43,-0.3111111111111111,-0.24444444444444444,-0.04286665210863276,-0.14770280922828055,-0.014946542359331658
1592167857.2994735,-0.12,8.300235494501425,5.090392490835709,-0.43,-0.3112070533153956,-0.24450549857444365,-0.011785068064741305,-0.13273884259621607,-0.007627252655766403
1592167857.3094735,-0.10221773530861879,8.305104829432066,5.147112905876552,-0.43,-0.3233333333333333,-0.25222222222222224,0.012168040281693028,-0.0727663242959511,-0.012364217207336277
1592167857.3194735,-0.09704661520882402,8.26,5.122810904087867,-0.43,-0.3233333333333333,-0.25222222222222224,0.012445640781403144,-0.02889713331750534,-0.028070520508046932
1592167857.3294735,-0.16609028981035343,8.298616695544847,5.05,-0.43,-0.3233333333333333,-0.25222222222222224,0.04751766700364828,0.012210800843033604,-0.03537079203946834
1592167857.3394735,-0.2738899264397606,8.377452071502077,5.057643785493768,-0.43,-0.3233333333333333,-0.25222222222222224,0.10708963145586743,0.04921286172648369,-0.026951008173983597
1592167857.3494735,-0.5032840226037505,8.372043695785191,5.0728470647518265,-0.431248925202062,-0.32480933584486116,-0.2543794566621475,0.1369111793801935,0.06872233929727672,-0.02030375196670004
1592167857.3594735,-0.62,8.39,5.01,-0.44222222222222224,-0.3377777777777778,-0.2733333333333333,0.14180800172453928,0.06872233929727672,-0.02617993877991494
1592167857.3694735,-0.978375077992691,8.460847074902695,4.749930772201919,-0.44222222222222224,-0.3377777777777778,-0.2733333333333333,0.199197783413957,0.04017593587658093,-0.012955142873774054
1592167857.3794734,-0.8475865437304935,8.632909251185286,4.524892430848403,-0.44222222222222224,-0.3377777777777778,-0.2733333333333333,0.22043251578710962,-0.005872522719492214,0.006754169098483703
1592167857.3894734,-0.6650784805590396,8.641433434868302,4.496354954309263,-0.44222222222222224,-0.3377777777777778,-0.2733333333333333,0.17209660614895095,-0.04595413455083045,0.02583668183309174
1592167857.3994734,-0.44130685893322263,8.485980144199917,4.574019855800083,-0.4420145206548136,-0.3370508222918476,-0.2711524668755426,0.09383129480657332,-0.07720447409348846,0.037975166850404064
1592167857.4094734,-0.26,8.35,4.71,-0.44,-0.33,-0.25,0.030543261909900768,-0.09599310885968812,0.03599741582238304
1592167857.4194734,-0.20650567859170926,8.305818852924475,4.841856615559341,-0.44,-0.33,-0.25,0.025191191423287546,-0.08942260330824213,-0.0018021317407819074
1592167857.4294734,-0.00733093490203704,8.429123438183675,4.802071564004084,-0.44,-0.33,-0.25,0.041933955694201594,-0.08033471000660236,-0.02999999434531845
1592167857.4394734,0.11,8.46,4.87,-0.44,-0.33,-0.25,0.04799655442984406,-0.07090400086226964,-0.04145156973486533
1592167857.4494734,0.15,8.44,4.86,-0.44014361129875657,-0.3301436112987566,-0.2502667066976907,0.049329082462954456,-0.05854231637888771,-0.024766844996599896
1592167857.4594734,0.15,8.44,4.86,-0.4477777777777778,-0.3377777777777778,-0.2644444444444444,0.062177354602297986,-0.039269908169872414,-0.007635815477475192
1592167857.4694734,0.03191005761128149,8.51,4.731603657313193,-0.4477777777777778,-0.3377777777777778,-0.2644444444444444,0.08978945236708015,-0.01409760200935888,0.012024026145162504
1592167857.4794734,-0.22,8.51,4.64,-0.4477777777777778,-0.3377777777777778,-0.2644444444444444,0.10144726277217041,-0.0032724923474893677,0.02617993877991494
1592167857.4894733,-0.3588983069266045,8.48724391993219,4.746378040033905,-0.4477777777777778,-0.3377777777777778,-0.2644444444444444,0.08898430000464418,-0.01081385498026512,0.029314971892071145
1592167857.4994733,-0.5168317634582996,8.434653483874992,4.773564344083338,-0.45114410274537525,-0.338965892472224,-0.27117709437963944,0.0903769395961283,-0.022626624360230274,0.020531380055156926
1592167857.5094733,-0.41,8.41,4.79,-0.4666666666666667,-0.34444444444444444,-0.3022222222222222,0.10471975511965977,-0.04145156973486533,0.019634954084936207
1592167857.5194733,-0.19493794850147741,8.47587505276488,4.723500211059519,-0.4666666666666667,-0.34444444444444444,-0.3022222222222222,0.10574243775702771,-0.05450746505225853,0.018925937099335516
1592167857.5294733,-0.06,8.46,4.66,-0.4666666666666667,-0.34444444444444444,-0.3022222222222222,0.09708393964218458,-0.05017821599483697,0.011999138607461015
1592167857.5394733,0.03180877879182964,8.416034767492395,4.681982616253802,-0.4666666666666667,-0.34444444444444444,-0.3022222222222222,0.08530107091867616,-0.03908208237412053,0.005050058232777813
1592167857.5494733,0.116812454605741,8.406375090788519,4.677249818422965,-0.46896878278474263,-0.34444444444444444,-0.29992010610414627,0.08565407092172064,-0.021264328097089703,-0.011729866992632494
1592167857.5594733,0.1,8.44,4.61,-0.4811111111111111,-0.34444444444444444,-0.2877777777777778,0.08290313946973066,-0.001090830782496456,-0.02181661564992912
1592167857.5694733,0.093812416935637,8.617008869239742,4.576392904608207,-0.4811111111111111,-0.34444444444444444,-0.2877777777777778,0.0658433200186642,0.009708716458876008,-0.03152533210880513
1592167857.5794733,-0.07,8.5,4.67,-0.4811111111111111,-0.34444444444444444,-0.2877777777777778,0.05563236990731925,0.00545415391248228,-0.0272707695624114
1592167857.5894732,-0.018228691614085503,8.436457383228172,4.59847983174028,-0.4811111111111111,-0.34444444444444444,-0.2877777777777778,0.02576610409934768,-0.009817477042468103,-0.003852151661284261
1592167857.5994732,-0.06652018578063594,8.52889116242814,4.543556464971256,-0.4799914832497898,-0.34635439785493377,-0.28902912656396046,0.047560668525233524,-0.009235551822340647,0.009170893464548706
1592167857.6094732,-0.17,8.67,4.6,-0.4622222222222222,-0.37666666666666665,-0.3088888888888889,0.07526732399225547,0.0,-0.001090830782496456
1592167857.6194732,-0.4268315342892433,8.55,4.537425487352988,-0.4622222222222222,-0.37666666666666665,-0.3088888888888889,0.0480613446583732,-0.004503741012250149,-0.003952906908398897
1592167857.6294732,-0.36716345221942237,8.561346191122311,4.448509643341733,-0.4622222222222222,-0.37666666666666665,-0.3088888888888889,0.05322523156859409,-0.01043631576948332,0.0009125320700831708
1592167857.6394732,-0.36,8.59,4.47,-0.4622222222222222,-0.37666666666666665,-0.3088888888888889,0.07744898555724837,-0.011999138607461015,0.008726646259971648
1592167857.6494732,-0.2758993614001892,8.64,4.4250792336802265,-0.46258672343109425,-0.3754820377378324,-0.3088888888888889,0.07496133408969141,-0.023354756713682253,0.018650871466171517
1592167857.6594732,-0.28779929694236256,8.63518339192147,4.403716256549711,-0.4666666666666667,-0.3622222222222222,-0.3088888888888889,0.024398376321322867,-0.028361600344907853,0.00579687895172654
1592167857.6694732,-0.49566655416807287,8.609000048213682,4.522833277084036,-0.4666666666666667,-0.3622222222222222,-0.3088888888888889,-0.01712600647011564,-0.029961478480173373,0.0013998933683573315
1592167857.6794732,-0.61,8.539784461152882,4.606280200501253,-0.4666666666666667,-0.3622222222222222,-0.3088888888888889,-0.05873136821606871,-0.039513937131390287,0.006312711553923852
1592167857.6894732,-0.5997509986414421,8.466149400815135,4.714099600543423,-0.4666666666666667,-0.3622222222222222,-0.3088888888888889,-0.07034815647667977,-0.05042897635295207,-0.000697957404985617
1592167857.6994731,-0.5514961756109695,8.493401529755612,4.734251912194516,-0.46732807523025793,-0.3626946569105017,-0.3106841407043509,-0.049228275426583736,-0.05563236990731925,-0.007543053143350206
1592167857.7094731,-0.46,8.53,4.78,-0.47444444444444445,-0.36777777777777776,-0.33,-0.0272707695624114,-0.05563236990731925,-0.006544984694978735
1592167857.7194731,-0.4170365626736908,8.496552524105265,4.694757980715788,-0.47444444444444445,-0.36777777777777776,-0.33,-0.03201015397518629,-0.06099637033689542,-0.02083138570150339
1592167857.729473,-0.527196261682243,8.544205607476634,4.668411214953271,-0.47444444444444445,-0.36777777777777776,-0.33,-0.02604740793718173,-0.06931363074947107,-0.03599741582238304
1592167857.739473,-0.5140935215232435,8.564883098095946,4.725116901904054,-0.47444444444444445,-0.36777777777777776,-0.33,-0.018990657231076333,-0.08164004980110591,-0.03532761492942817
1592167857.749473,-0.5468909567189272,8.52388630410134,4.7661136958986585,-0.47444444444444445,-0.36777777777777776,-0.33,-0.022568302420914774,-0.09773945315537888,-0.029961147144670516
1592167857.759473,-0.47217415470125057,8.44630477072719,4.87,-0.4866666666666667,-0.36777777777777776,-0.33,-0.01320870270810785,-0.11017390903214205,-0.016386208401076914
1592167857.769473,-0.42696463676420743,8.39814710202237,4.847188114337363,-0.4866666666666667,-0.36777777777777776,-0.33,0.014592138644904518,-0.10999616683865925,-0.011999138607461015
1592167857.779473,-0.35533961187214613,8.44699058219178,4.728834902968037,-0.4866666666666667,-0.36777777777777776,-0.33,0.04802846372071332,-0.10717669268905408,-0.011872046236754913
1592167857.789473,-0.3209531194083264,8.503812477633305,4.724765597041632,-0.4866666666666667,-0.36777777777777776,-0.33,0.07246184723326422,-0.09136901692520237,-0.01153212301896289
1592167857.799473,-0.32929201956340215,8.537168078253607,4.76646009781701,-0.4866666666666667,-0.36777777777777776,-0.33,0.06700404984447156,-0.07954378924948494,-0.01698992040775555
1592167857.809473,-0.2804928131416838,8.453018480492814,4.846488706365503,-0.4722222222222222,-0.39444444444444443,-0.35888888888888887,0.017018752126094605,-0.06179657178294605,-0.025687161013694778
1592167857.819473,-0.3388100296500362,8.329749258749096,4.910250741250905,-0.4722222222222222,-0.39444444444444443,-0.35888888888888887,0.010878638694583583,-0.05228245768312759,-0.0435284597956631
1592167857.829473,-0.33,8.565861256421133,4.678104057684151,-0.4722222222222222,-0.39444444444444443,-0.35888888888888887,0.08240437702796712,-0.04309254546381948,-0.05858045075318536
1592167857.839473,-0.33809371840868996,8.711471585165217,4.567792622252176,-0.4722222222222222,-0.39444444444444443,-0.35888888888888887,0.14461349248150437,-0.0380988148675118,-0.055471844867590936
1592167857.849473,-0.42954706733532877,8.728099466788242,4.5428507998176375,-0.4722222222222222,-0.39444444444444443,-0.35888888888888887,0.11468545403003433,-0.037191904611406645,-0.053658024355380626
1592167857.859473,-0.5005999429461719,8.62324570450506,4.594239977178469,-0.46555555555555556,-0.37444444444444447,-0.34444444444444444,0.03126570302039924,-0.05673753892331322,-0.0516230982158339
1592167857.869473,-0.192606216845967,8.571489266769124,4.468510733230875,-0.46555555555555556,-0.37444444444444447,-0.34444444444444444,0.02990491147826187,-0.06508432589188771,-0.04488078349466319
1592167857.879473,-0.25275282210977035,8.60516854807318,4.436441935902426,-0.46555555555555556,-0.37444444444444447,-0.34444444444444444,0.07007668490406953,-0.05501750198396112,-0.018354151448765593
1592167857.889473,-0.15541828694749274,8.530115845837491,4.523256102775006,-0.46555555555555556,-0.37444444444444447,-0.34444444444444444,0.0765561020183619,-0.04828575772910234,0.010895671004408733
1592167857.899473,-0.06148482195573833,8.40202475721237,4.60865016185842,-0.46555555555555556,-0.37444444444444447,-0.34444444444444444,0.09891221440808383,-0.0501487670949125,0.024868241247984944
1592167857.909473,-0.06,8.77,4.48,-0.4722222222222222,-0.4,-0.34444444444444444,0.15707963267948966,-0.04363323129985824,0.017453292519943295
1592167857.919473,-0.05,8.758836076011363,4.337173327456166,-0.4722222222222222,-0.4,-0.34444444444444444,0.15595509074880262,-0.046851310328120815,0.025433725685854836
1592167857.929473,-0.05083954215338332,8.68748137353985,4.176716337227067,-0.4722222222222222,-0.4,-0.34444444444444444,0.0886239055830069,-0.04386218090588671,0.04590647270726254
1592167857.939473,-0.0648988759636699,8.633941777664438,4.3279131765305925,-0.4722222222222222,-0.4,-0.34444444444444444,0.07011668625018198,-0.04934031535434786,0.04819889854344993
1592167857.949473,0.11611334523412517,8.773814857680916,4.253862722404222,-0.4722222222222222,-0.4,-0.34444444444444444,0.08088688822603357,-0.05831548366755751,0.05537903319401765
1592167857.959473,0.08539869165487977,8.832637906647808,4.339325495049505,-0.4922222222222222,-0.4,-0.38333333333333336,0.03194180494725456,-0.06486094104555239,0.052975591363422524
1592167857.969473,0.043460590549315135,8.750636049101853,4.529592871700081,-0.4922222222222222,-0.4,-0.38333333333333336,-0.041604241581906044,-0.06981317007977318,0.06999081331256421
1592167857.9794729,0.20864715544273554,8.301653476681102,4.510450948185754,-0.4922222222222222,-0.4,-0.38333333333333336,-0.10100454542607135,-0.06958361293735145,0.0778019540962464
1592167857.9894729,0.12228044123886296,8.418665676707679,4.541824352991091,-0.4922222222222222,-0.4,-0.38333333333333336,-0.06965651067380157,-0.05304899382420716,0.027114110156439802
1592167857.9994729,0.1627238014425117,8.572350445481543,4.574179041154009,-0.4922222222222222,-0.4,-0.38333333333333336,-0.02818666015153337,-0.026578876469567865,-0.014355740365828408
1592167858.0094728,0.3211244451750781,8.598750616472135,4.700249876705573,-0.49,-0.4,-0.39111111111111113,-0.024148192476169283,0.0046495249923669425,-0.05368239556425391
1592167858.0194728,0.40977595641248443,8.500248937319462,4.719950212536108,-0.49,-0.4,-0.39111111111111113,-0.035967545488375136,0.027213744379305387,-0.0719486684012993
1592167858.0294728,0.4193248188106424,8.509932481881064,4.709729927524257,-0.49,-0.4,-0.39111111111111113,-0.01155723355239269,0.038208537724380515,-0.08408235126324076
1592167858.0394728,0.3203069005406171,8.500030690054063,4.6701227602162465,-0.49,-0.4,-0.39111111111111113,0.053249842408204365,0.04252900945508699,-0.09704376645536018
1592167858.0494728,0.31192549822338944,8.540372508883053,4.6457764946701685,-0.49,-0.4,-0.39111111111111113,0.11510611398107001,0.042542400517361786,-0.0997263141695593
1592167858.0594728,0.24821101235137943,8.625366962945861,4.525825695486552,-0.49777777777777776,-0.40444444444444444,-0.41,0.19180607890863638,0.045569704627557245,-0.09226527052632046
1592167858.0694728,0.21945886768845793,8.711352830778855,4.456212073819206,-0.49777777777777776,-0.40444444444444444,-0.41,0.20554721991985495,0.059111461578800366,-0.08414034698218989
1592167858.0794728,0.20071674337548595,8.758208141561285,4.325017203628402,-0.49777777777777776,-0.40444444444444444,-0.41,0.1840805094833916,0.06626703172428813,-0.05142916917424575
1592167858.0894728,0.09271283154815155,8.584439178896975,4.407780410551513,-0.49777777777777776,-0.40444444444444444,-0.41,0.144958141887498,0.0782438923236997,-0.018260358018248178
1592167858.0994728,0.017905925186446653,8.652094074813553,4.450052263785308,-0.49777777777777776,-0.40444444444444444,-0.41,0.11864932278703699,0.08203503571939934,-0.014831877985202413
1592167858.1094728,-0.001160937314142976,8.630464374925658,4.439767812537172,-0.49777777777777776,-0.4033333333333333,-0.4266666666666667,0.11296517463928137,0.0763328270515756,7.5983169528955e-05
1592167858.1194727,-0.05058157894736842,8.649612280701755,4.428836842105263,-0.49777777777777776,-0.4033333333333333,-0.4266666666666667,0.09238226759580336,0.07520388357043133,0.0032301987329399436
1592167858.1294727,-0.07817565789473685,8.631216228070176,4.373648684210527,-0.49777777777777776,-0.4033333333333333,-0.4266666666666667,0.07632868320624236,0.07219383649738863,0.001223500684244819
1592167858.1394727,-0.04311936539321611,8.593119365393216,4.434541110561872,-0.49777777777777776,-0.4033333333333333,-0.4266666666666667,0.06319816454013027,0.0649544886310264,8.506749481935723e-05
1592167858.1494727,-0.01679786978457596,8.574531913189718,4.478670217025707,-0.49777777777777776,-0.4033333333333333,-0.4266666666666667,0.06386466112619636,0.0643590161672909,-0.015185758715085401
1592167858.1594727,-0.01,8.608704581358609,4.5383807266982625,-0.4848762506582412,-0.4237607512725996,-0.46537124802527646,0.08124707567513492,0.07596955707893366,-0.038634021031260735
1592167858.1694727,-0.04715427222373559,8.68430854444747,4.502845727776265,-0.48444444444444446,-0.42444444444444446,-0.4666666666666667,0.10815617418512169,0.07737138037082451,-0.03724345697772722
1592167858.1794727,-0.06797836610844742,8.734945915271119,4.338194705023974,-0.48444444444444446,-0.42444444444444446,-0.4666666666666667,0.12488242540970615,0.0764684177987441,-0.019438026951802596
1592167858.1894727,-0.09717405452310363,8.721883963651266,4.383406127220574,-0.48444444444444446,-0.42444444444444446,-0.4666666666666667,0.10183445813705683,0.0654893132164378,0.0062605436072874915
1592167858.1994727,-0.039813276366801174,8.599626552733604,4.420093361816599,-0.48444444444444446,-0.42444444444444446,-0.4666666666666667,0.08695556417529621,0.055331655677244615,0.03170538205281672
1592167858.2094727,0.10486979719283351,8.551080728771941,4.358645830175523,-0.4705700225341296,-0.41651620335283596,-0.455765335165705,0.07706549010192926,0.05235987755982988,0.05483697315067611
1592167858.2194726,0.01219915264155802,8.621867231572296,4.421867231572294,-0.4688888888888889,-0.41555555555555557,-0.45444444444444443,0.0930170898207722,0.07783824880668445,0.019485581175182128
1592167858.2294726,-0.1357041457135295,8.711422487428118,4.3033427973340395,-0.4688888888888889,-0.41555555555555557,-0.45444444444444443,0.11463964600475199,0.10045884583229808,-0.0015051317834758986
1592167858.2394726,-0.24810322156476003,8.693244575936884,4.334592373438527,-0.4688888888888889,-0.41555555555555557,-0.45444444444444443,0.09726180028259163,0.10642951224357268,0.008401763719228128
1592167858.2494726,-0.28230628298317234,8.675129144677886,4.392047993627402,-0.4688888888888889,-0.41555555555555557,-0.45444444444444443,0.0730031359681825,0.09716846463620417,0.027661222464623714
1592167858.2594726,-0.20226984606097193,8.631008820471544,4.2832786665325155,-0.49704918521499664,-0.42205408547696505,-0.4750231225289078,0.05694329117469006,0.0746716968007263,0.05295550475135903
1592167858.2694726,-0.33802104275566275,8.768021042755663,4.141978957244337,-0.49777777777777776,-0.4222222222222222,-0.47555555555555556,0.051704613954144496,0.05109099422567141,0.06047672977226604
1592167858.2794726,-0.43020998350793244,8.833473322338621,4.156736661169311,-0.49777777777777776,-0.4222222222222222,-0.47555555555555556,0.052241219211488825,0.025755246792610976,0.04261524757084898
1592167858.2894726,-0.19452812874991177,8.769865179642832,4.107398884732124,-0.49777777777777776,-0.4222222222222222,-0.47555555555555556,0.028451996006561755,-0.007694641955757628,0.05470546788432974
1592167858.2994726,-0.04249249609797094,8.64249249609797,4.195474846920399,-0.49777777777777776,-0.4222222222222222,-0.47555555555555556,-0.007757222625437033,-0.025618348865718184,0.0599277207505821
1592167858.3094726,0.08,8.66,4.27,-0.4777777777777778,-0.42777777777777776,-0.45444444444444443,-0.022907446432425576,-0.0272707695624114,0.05563236990731925
1592167858.3194726,0.01395502958579882,8.684766863905326,4.2534887573964495,-0.4777777777777778,-0.42777777777777776,-0.45444444444444443,-0.021106349263503618,-0.019165832302262584,0.022312072282263014
1592167858.3294725,-0.10099865410497981,8.708363391655451,4.1490013458950195,-0.4777777777777778,-0.42777777777777776,-0.45444444444444443,-0.018722649578552224,-0.010442319008861767,-0.02679421011153879
1592167858.3394725,-0.31734036124353726,8.779113453747845,4.286866089214172,-0.4777777777777778,-0.42777777777777776,-0.45444444444444443,-0.02137128890866957,-0.022068528002797322,-0.04750625554727968
1592167858.3494725,-0.12994784476146648,8.721233701487957,4.282493480595183,-0.4777777777777778,-0.42777777777777776,-0.45444444444444443,-0.0398195905015952,-0.04125112811443536,-0.03742610880824017
1592167858.3594725,0.01232774551214362,8.723862196409716,4.278465549102429,-0.4777777777777778,-0.4324808606124604,-0.47231615921623843,-0.08216413617100268,-0.07956117433283336,-0.014088577744234686
1592167858.3694725,0.061892833071219955,8.671350033700293,4.296757133228488,-0.4777777777777778,-0.43333333333333335,-0.47555555555555556,-0.08287353435660426,-0.0960523190859409,-0.011822267662566005
1592167858.3794725,0.07,8.609948111847794,4.3083419813587005,-0.4777777777777778,-0.43333333333333335,-0.47555555555555556,-0.09455187476154973,-0.11364424351492132,-0.011089169602152763
1592167858.3894725,0.02878790017171219,8.616484839931314,4.359454519793945,-0.4777777777777778,-0.43333333333333335,-0.47555555555555556,-0.1069741336050675,-0.10413137413799708,-0.045074432424014634
1592167858.3994725,-0.033723480937445205,8.660292610703083,4.464016091640529,-0.4777777777777778,-0.43333333333333335,-0.47555555555555556,-0.10395529590907075,-0.08826153675354938,-0.05235987755982988
1592167858.4094725,0.1457440065620223,8.623887998210357,4.650280004474106,-0.4777777777777778,-0.4219031107465543,-0.48906400043083986,-0.09328610292955197,-0.06446984402167004,-0.03501741289426573
1592167858.4194725,0.05932399271748595,8.569661996358741,4.666292250455157,-0.4777777777777778,-0.4211111111111111,-0.49,-0.08585683602453602,-0.05022700245823526,-0.03587488840368895
1592167858.4294724,0.04530220009456791,8.512818679943258,4.579395599810865,-0.4777777777777778,-0.4211111111111111,-0.49,-0.04030199980974063,-0.02771729020397122,-0.029181521104404536
1592167858.4394724,0.05,8.5863565859831,4.556116984366708,-0.4777777777777778,-0.4211111111111111,-0.49,-0.0034377710880349743,-0.02617993877991494,-0.01170317745756698
1592167858.4494724,0.023219838308457714,8.599914878731344,4.556695040422885,-0.4777777777777778,-0.4211111111111111,-0.49,0.029896513901652905,-0.025449623161580774,0.014624882946702524
1592167858.4594724,0.1352132433704692,8.574348344578691,4.450438412050839,-0.48299499625154735,-0.4211111111111111,-0.5065211918336036,0.05548955032393387,-0.031064765633125338,0.047047242381219885
1592167858.4694724,0.10534001200313928,8.626577489497254,4.428082498499608,-0.48444444444444446,-0.4211111111111111,-0.5111111111111111,0.07145732264901447,-0.019499966230613612,0.0384624234654756
1592167858.4794724,-0.01985489665469138,8.67923389166239,4.351532216675221,-0.48444444444444446,-0.4211111111111111,-0.5111111111111111,0.07760029614915627,0.009316060308032649,-0.005323099498031274
1592167858.4894724,-0.07344289706901083,8.62748560781597,4.400328691207032,-0.48444444444444446,-0.4211111111111111,-0.5111111111111111,0.08024463192332969,0.030000986406125744,-0.014657646153861975
1592167858.4994724,0.04763058707853661,8.643586996599614,4.366260805440616,-0.48444444444444446,-0.4211111111111111,-0.5111111111111111,0.07852321411778991,0.03161749047044231,0.014396629057867774
1592167858.5094724,0.06432280804817153,8.667612865325305,4.35522573065061,-0.4793692008942413,-0.41011475008567094,-0.506035867560908,0.07080550728537452,0.028051957557948072,0.020057252505065543
1592167858.5194724,0.1348601542181868,8.708572797371904,4.251996167358671,-0.4777777777777778,-0.4066666666666667,-0.5044444444444445,0.0788206740349416,0.03231993693124383,0.019977876204359514
1592167858.5294724,0.13698435585033525,8.758359406916108,4.104921779251677,-0.4777777777777778,-0.4066666666666667,-0.5044444444444445,0.08013856381273828,0.03130513694564625,0.03327887142615206
1592167858.5394723,0.1761213984414099,8.77,4.08537379948047,-0.4777777777777778,-0.4066666666666667,-0.5044444444444445,0.07879213643638006,0.0338973046533457,0.04715037483521429
1592167858.5494723,0.15205923891722245,8.656177716751667,4.115293840721852,-0.4777777777777778,-0.4066666666666667,-0.5044444444444445,0.05646677628617825,0.04387375756164801,0.05776582351325048
1592167858.5594723,0.1756318636289133,8.65844779544337,4.145210621209638,-0.4777777777777778,-0.43201770201606293,-0.5205001001657288,0.014596857086217122,0.06070193489779696,0.053881247684114814
1592167858.5694723,0.1902489619254491,8.680248961925448,4.149958506345759,-0.4775380366643824,-0.44004840926328176,-0.5256777313152666,0.005786833694120363,0.06429112233430354,0.051201152944346066
1592167858.5794723,0.19111726477253965,8.681117264772539,4.149813789204577,-0.47670189318199885,-0.4402172459279938,-0.5261038428976352,0.0069471187499366045,0.06405432946576961,0.05096436007581214
1592167858.5894723,0.19198556761963023,8.68198556761963,4.1496690720633955,-0.47586574969961537,-0.4403860825927059,-0.5265299544800037,0.008107403805752847,0.06381753659723567,0.05072756720727822
1592167858.5994723,0.1928538704667208,8.68285387046672,4.149524354922214,-0.47502960621723184,-0.4405549192574179,-0.5269560660623722,0.00926768886156909,0.06358074372870175,0.050490774338744285
1592167858.6094723,0.19372217331381136,8.68372217331381,4.149379637781032,-0.4741934627348483,-0.44072375592213,-0.5273821776447407,0.010427973917385331,0.06334395086016782,0.05025398147021036
1592167858.6194723,0.19459047616090194,8.684590476160901,4.14923492063985,-0.4733573192524648,-0.44089259258684205,-0.5278082892271093,0.011588258973201574,0.0631071579916339,0.050017188601676435
1592167858.6294723,0.19545877900799252,8.685458779007993,4.149090203498668,-0.4725211757700813,-0.4410614292515541,-0.5282344008094778,0.012748544029017816,0.06287036512309997,0.04978039573314251
1592167858.6394722,0.19632708185508307,8.686327081855083,4.148945486357486,-0.4716850322876978,-0.44123026591626613,-0.5286605123918463,0.013908829084834057,0.06263357225456605,0.04954360286460858
1592167858.6494722,0.19719538470217365,8.687195384702173,4.1488007692163045,-0.4708488888053143,-0.4413991025809782,-0.5290866239742148,0.015069114140650298,0.062396779386032115,0.04930680999607465
1592167858.6594722,0.19806368754926423,8.688063687549263,4.148656052075123,-0.47001274532293075,-0.44156793924569027,-0.5295127355565834,0.016229399196466543,0.06215998651749819,0.04907001712754073
1592167858.6694722,0.19893199039635479,8.688931990396355,4.148511334933941,-0.46917660184054727,-0.44173677591040234,-0.5299388471389519,0.017389684252282784,0.06192319364896426,0.0488332242590068
1592167858.6794722,0.19980029324344536,8.689800293243445,4.148366617792759,-0.46834045835816374,-0.4419056125751144,-0.5303649587213204,0.018549969308099025,0.061686400780430334,0.04859643139047287
1592167858.6894722,0.20066859609053594,8.690668596090536,4.148221900651578,-0.46750431487578026,-0.4420744492398264,-0.5307910703036889,0.01971025436391527,0.06144960791189641,0.04835963852193895
1592167858.6994722,0.2015368989376265,8.691536898937626,4.148077183510396,-0.4666681713933967,-0.4422432859045385,-0.5312171818860575,0.02087053941973151,0.061212815043362484,0.048122845653405015
1592167858.7094722,0.20240520178471708,8.692405201784718,4.147932466369214,-0.4658320279110132,-0.44241212256925055,-0.531643293468426,0.022030824475547755,0.06097602217482855,0.04788605278487109
1592167858.7194722,0.20327350463180766,8.693273504631808,4.147787749228033,-0.4649958844286297,-0.4425809592339626,-0.5320694050507945,0.023191109531363996,0.06073922930629463,0.047649259916337165
1592167858.7294722,0.20414180747889824,8.694141807478898,4.147643032086851,-0.4641597409462462,-0.44274979589867464,-0.532495516633163,0.024351394587180237,0.0605024364377607,0.04741246704780324
1592167858.7394722,0.2050101103259888,8.695010110325988,4.147498314945669,-0.46332359746386265,-0.4429186325633867,-0.5329216282155316,0.025511679642996478,0.06026564356922677,0.04717567417926931
1592167858.7494721,0.20587841317307937,8.695878413173078,4.147353597804487,-0.46248745398147917,-0.4430874692280988,-0.5333477397979001,0.026671964698812722,0.060028850700692846,0.046938881310735384
1592167858.7594721,0.20674671602016995,8.69674671602017,4.147208880663305,-0.46165131049909564,-0.44325630589281084,-0.5337738513802686,0.027832249754628963,0.05979205783215892,0.04670208844220146
1592167858.7694721,0.2076150188672605,8.69761501886726,4.147064163522123,-0.4608151670167121,-0.44342514255752286,-0.534199962962637,0.028992534810445204,0.059555264963624996,0.04646529557366753
1592167858.779472,0.20848332171435108,8.69848332171435,4.146919446380942,-0.4599790235343286,-0.4435939792222349,-0.5346260745450057,0.03015281986626145,0.059318472095091064,0.0462285027051336
1592167858.789472,0.20935162456144166,8.69935162456144,4.14677472923976,-0.4591428800519451,-0.443762815886947,-0.5350521861273742,0.031313104922077686,0.05908167922655714,0.04599170983659968
1592167858.799472,0.2102199274085322,8.700219927408533,4.146630012098578,-0.4583067365695616,-0.44393165255165906,-0.5354782977097426,0.03247338997789393,0.058844886358023214,0.045754916968065745
1592167858.809472,0.2110882302556228,8.701088230255623,4.1464852949573965,-0.4574705930871781,-0.4441004892163711,-0.5359044092921111,0.033633675033710175,0.05860809348948928,0.04551812409953182
1592167858.819472,0.21195653310271337,8.701956533102713,4.146340577816215,-0.45663444960479455,-0.44426932588108314,-0.5363305208744797,0.03479396008952641,0.05837130062095536,0.045281331230997895
1592167858.829472,0.21282483594980392,8.702824835949803,4.146195860675033,-0.45579830612241107,-0.4444381625457952,-0.5367566324568482,0.03595424514534266,0.05813450775242143,0.04504453836246397
1592167858.839472,0.2136931387968945,8.703693138796895,4.146051143533851,-0.45496216264002753,-0.4446069992105073,-0.5371827440392167,0.0371145302011589,0.05789771488388751,0.04480774549393004
1592167858.849472,0.21456144164398508,8.704561441643985,4.14590642639267,-0.45412601915764406,-0.4447758358752193,-0.5376088556215852,0.03827481525697514,0.057660922015353576,0.044570952625396114
1592167858.859472,0.21542974449107563,8.705429744491076,4.145761709251488,-0.4532898756752605,-0.44494467253993136,-0.5380349672039538,0.039435100312791384,0.05742412914681965,0.04433415975686219
1592167858.869472,0.2162980473381662,8.706298047338166,4.145616992110306,-0.452453732192877,-0.44511350920464343,-0.5384610787863223,0.04059538536860763,0.057187336278285726,0.04409736688832826
1592167858.879472,0.2171663501852568,8.707166350185256,4.145472274969124,-0.4516175887104935,-0.4452823458693555,-0.5388871903686908,0.041755670424423866,0.056950543409751794,0.04386057401979433
1592167858.889472,0.21803465303234734,8.708034653032348,4.145327557827942,-0.45078144522811,-0.4454511825340675,-0.5393133019510593,0.04291595548024011,0.05671375054121787,0.04362378115126041
1592167858.899472,0.21890295587943792,8.708902955879438,4.14518284068676,-0.44994530174572644,-0.4456200191987796,-0.5397394135334279,0.044076240536056355,0.056476957672683945,0.04338698828272648
1592167858.909472,0.2197712587265285,8.709771258726528,4.145038123545579,-0.44910915826334297,-0.44578885586349165,-0.5401655251157964,0.04523652559187259,0.05624016480415002,0.04315019541419255
1592167858.919472,0.22063956157361905,8.710639561573618,4.144893406404397,-0.44827301478095943,-0.4459576925282037,-0.5405916366981649,0.04639681064768884,0.056003371935616095,0.042913402545658626
1592167858.929472,0.22150786442070963,8.71150786442071,4.144748689263215,-0.4474368712985759,-0.44612652919291573,-0.5410177482805334,0.04755709570350508,0.05576657906708216,0.042676609677124694
1592167858.939472,0.2223761672678002,8.7123761672678,4.144603972122034,-0.4466007278161924,-0.4462953658576278,-0.541443859862902,0.04871738075932132,0.05552978619854824,0.04243981680859077
1592167858.949472,0.2232444701148908,8.71324447011489,4.144459254980852,-0.4457645843338089,-0.44646420252233987,-0.5418699714452705,0.04987766581513756,0.055292993330014306,0.042203023940056844
1592167858.959472,0.22411277296198134,8.71411277296198,4.14431453783967,-0.4449284408514254,-0.44663303918705194,-0.542296083027639,0.05103795087095381,0.05505620046148038,0.04196623107152292
1592167858.969472,0.22498107580907192,8.714981075809073,4.1441698206984885,-0.4440922973690419,-0.446801875851764,-0.5427221946100075,0.052198235926770045,0.054819407592946456,0.041729438202988994
1592167858.979472,0.2258493786561625,8.715849378656163,4.144025103557307,-0.44325615388665834,-0.446970712516476,-0.5431483061923761,0.05335852098258629,0.05458261472441253,0.04149264533445506
1592167858.989472,0.22671768150325305,8.716717681503253,4.143880386416125,-0.44242001040427487,-0.4471395491811881,-0.5435744177747446,0.054518806038402534,0.05434582185587861,0.04125585246592114
1592167858.999472,0.22758598435034363,8.717585984350343,4.1437356692749425,-0.44158386692189133,-0.44730838584590016,-0.5440005293571131,0.05567909109421877,0.054109028987344675,0.041019059597387206
1592167859.009472,0.2284542871974342,8.718454287197435,4.143590952133761,-0.44074772343950785,-0.4474772225106122,-0.5444266409394816,0.056839376150035016,0.05387223611881075,0.04078226672885328
1592167859.019472,0.22932259004452477,8.719322590044525,4.143446234992579,-0.4399115799571243,-0.44764605917532424,-0.5448527525218501,0.05799966120585126,0.05363544325027682,0.040545473860319356
1592167859.0294719,0.23019089289161535,8.720190892891615,4.143301517851397,-0.4390754364747408,-0.4478148958400363,-0.5452788641042187,0.0591599462616675,0.05339865038174289,0.04030868099178543
1592167859.0394719,0.23105919573870592,8.721059195738706,4.143156800710216,-0.4382392929923573,-0.4479837325047484,-0.5457049756865872,0.06032023131748374,0.05316185751320897,0.0400718881232515
1592167859.0494719,0.23192749858579648,8.721927498585796,4.143012083569034,-0.4374031495099738,-0.44815256916946045,-0.5461310872689557,0.06148051637329999,0.05292506464467504,0.039835095254717574
1592167859.0594718,0.23279580143288706,8.722795801432888,4.142867366427852,-0.43656700602759024,-0.44832140583417246,-0.5465571988513241,0.06264080142911622,0.05268827177614112,0.03959830238618365
1592167859.0694718,0.23366410427997764,8.723664104279978,4.142722649286671,-0.43573086254520677,-0.44849024249888453,-0.5469833104336927,0.06380108648493246,0.05245147890760719,0.03936150951764972
1592167859.0794718,0.2345324071270682,8.724532407127068,4.142577932145489,-0.43489471906282323,-0.4486590791635966,-0.5474094220160612,0.06496137154074871,0.05221468603907326,0.03912471664911579
1592167859.0894718,0.23540070997415877,8.725400709974158,4.142433215004307,-0.4340585755804397,-0.44882791582830867,-0.5478355335984297,0.06612165659656495,0.05197789317053934,0.03888792378058187
1592167859.0994718,0.23626901282124935,8.72626901282125,4.142288497863126,-0.4332224320980562,-0.4489967524930207,-0.5482616451807982,0.06728194165238119,0.051741100302005405,0.03865113091204794
1592167859.1094718,0.2371373156683399,8.72713731566834,4.142143780721944,-0.4323862886156727,-0.44916558915773275,-0.5486877567631668,0.06844222670819743,0.05150430743347148,0.03841433804351401
1592167859.1194718,0.23800561851543048,8.72800561851543,4.141999063580762,-0.4315501451332892,-0.4493344258224448,-0.5491138683455353,0.06960251176401368,0.051267514564937555,0.038177545174980086
1592167859.1294718,0.23887392136252106,8.72887392136252,4.14185434643958,-0.4307140016509057,-0.4495032624871569,-0.5495399799279038,0.07076279681982992,0.05103072169640363,0.03794075230644616
1592167859.1394718,0.2397422242096116,8.729742224209613,4.141709629298398,-0.42987785816852214,-0.4496720991518689,-0.5499660915102723,0.07192308187564615,0.0507939288278697,0.03770395943791223
1592167859.1494718,0.2406105270567022,8.730610527056703,4.141564912157216,-0.42904171468613866,-0.44984093581658097,-0.5503922030926409,0.0730833669314624,0.050557135959335774,0.037467166569378305
1592167859.1594718,0.24147882990379277,8.731478829903793,4.1414201950160345,-0.42820557120375513,-0.45000977248129304,-0.5508183146750094,0.07424365198727864,0.05032034309080185,0.03723037370084438
1592167859.1694717,0.24234713275088332,8.732347132750883,4.141275477874853,-0.42736942772137165,-0.4501786091460051,-0.5512444262573779,0.07540393704309488,0.05008355022226792,0.036993580832310455
1592167859.1794717,0.2432154355979739,8.733215435597973,4.141130760733671,-0.4265332842389881,-0.4503474458107171,-0.5516705378397464,0.07656422209891113,0.04984675735373399,0.03675678796377652
1592167859.1894717,0.24408373844506448,8.734083738445065,4.1409860435924895,-0.4256971407566046,-0.4505162824754292,-0.552096649422115,0.07772450715472737,0.04960996448520007,0.0365199950952426
1592167859.1994717,0.24495204129215503,8.734952041292155,4.140841326451308,-0.4248609972742211,-0.45068511914014125,-0.5525227610044835,0.0788847922105436,0.04937317161666614,0.036283202226708666
1592167859.2094717,0.2458203441392456,8.735820344139245,4.140696609310126,-0.4240248537918376,-0.4508539558048533,-0.552948872586852,0.08004507726635986,0.04913637874813221,0.03604640935817474
1592167859.2194717,0.2466886469863362,8.736688646986336,4.140551892168944,-0.42318871030945404,-0.45102279246956534,-0.5533749841692205,0.0812053623221761,0.048899585879598285,0.035809616489640816
1592167859.2294717,0.24755694983342674,8.737556949833428,4.140407175027763,-0.42235256682707056,-0.4511916291342774,-0.5538010957515891,0.08236564737799233,0.048662793011064354,0.03557282362110689
1592167859.2394717,0.24842525268051732,8.738425252680518,4.140262457886581,-0.42151642334468703,-0.4513604657989895,-0.5542272073339576,0.08352593243380858,0.04842600014253043,0.03533603075257297
1592167859.2494717,0.2492935555276079,8.739293555527608,4.140117740745398,-0.4206802798623035,-0.45152930246370154,-0.5546533189163261,0.08468621748962482,0.048189207273996504,0.035099237884039035
1592167859.2594717,0.25016185837469845,8.740161858374698,4.139973023604217,-0.41984413637992,-0.4516981391284136,-0.5550794304986946,0.08584650254544106,0.04795241440546258,0.03486244501550511
1592167859.2694716,0.25103016122178906,8.74103016122179,4.139828306463035,-0.4190079928975365,-0.4518669757931256,-0.5555055420810632,0.08700678760125731,0.047715621536928654,0.03462565214697118
1592167859.2794716,0.2518984640688796,8.74189846406888,4.139683589321853,-0.418171849415153,-0.4520358124578377,-0.5559316536634317,0.08816707265707355,0.04747882866839473,0.03438885927843725
1592167859.2894716,0.25276676691597016,8.74276676691597,4.139538872180672,-0.4173357059327695,-0.45220464912254976,-0.5563577652458002,0.08932735771288978,0.0472420357998608,0.03415206640990333
1592167859.2994716,0.2536350697630607,8.74363506976306,4.13939415503949,-0.41649956245038594,-0.45237348578726183,-0.5567838768281687,0.09048764276870604,0.047005242931326865,0.0339152735413694
1592167859.3094716,0.2545033726101513,8.744503372610152,4.139249437898308,-0.41566341896800246,-0.45254232245197384,-0.5572099884105373,0.09164792782452227,0.04676845006279294,0.03367848067283548
1592167859.3194716,0.2553716754572419,8.745371675457243,4.1391047207571265,-0.41482727548561893,-0.4527111591166859,-0.5576360999929058,0.09280821288033851,0.046531657194259016,0.03344168780430155
1592167859.3294716,0.2562399783043324,8.746239978304333,4.138960003615945,-0.41399113200323545,-0.452879995781398,-0.5580622115752742,0.09396849793615476,0.04629486432572509,0.033204894935767615
1592167859.3394716,0.25710828115142303,8.747108281151423,4.138815286474763,-0.4131549885208519,-0.45304883244611005,-0.5584883231576427,0.095128782991971,0.046058071457191166,0.03296810206723369
1592167859.3494716,0.2579765839985136,8.747976583998513,4.1386705693335815,-0.4123188450384684,-0.45321766911082206,-0.5589144347400113,0.09628906804778724,0.04582127858865724,0.032731309198699765
1592167859.3594716,0.25884488684560414,8.748844886845605,4.1385258521924,-0.4114827015560849,-0.45338650577553413,-0.5593405463223798,0.09744935310360349,0.04558448572012331,0.03249451633016584
1592167859.3694715,0.25971318969269475,8.749713189692695,4.138381135051218,-0.4106465580737014,-0.4535553424402462,-0.5597666579047483,0.09860963815941973,0.04534769285158938,0.032257723461631915
1592167859.3794715,0.2605814925397853,8.750581492539785,4.1382364179100355,-0.40981041459131784,-0.45372417910495827,-0.5601927694871168,0.09976992321523596,0.04511089998305545,0.03202093059309798
1592167859.3894715,0.2614497953868759,8.751449795386876,4.138091700768854,-0.40897427110893436,-0.4538930157696703,-0.5606188810694854,0.10093020827105222,0.04487410711452153,0.03178413772456406
1592167859.3994715,0.26231809823396646,8.752318098233967,4.137946983627672,-0.40813812762655083,-0.45406185243438235,-0.5610449926518539,0.10209049332686845,0.0446373142459876,0.03154734485603013
1592167859.4094715,0.263186401081057,8.753186401081058,4.13780226648649,-0.4073019841441673,-0.4542306890990944,-0.5614711042342224,0.10325077838268469,0.04440052137745368,0.0313105519874962
1592167859.4194715,0.2640547039281476,8.754054703928148,4.137657549345309,-0.4064658406617838,-0.4543995257638065,-0.5618972158165909,0.10441106343850093,0.04416372850891975,0.031073759118962277
1592167859.4294715,0.26492300677523817,8.754923006775238,4.137512832204127,-0.4056296971794003,-0.4545683624285185,-0.5623233273989594,0.10557134849431718,0.04392693564038582,0.03083696625042835
1592167859.4394715,0.2657913096223287,8.75579130962233,4.137368115062945,-0.4047935536970168,-0.45473719909323057,-0.562749438981328,0.10673163355013342,0.043690142771851896,0.030600173381894424
1592167859.4494715,0.2666596124694193,8.75665961246942,4.137223397921764,-0.4039574102146333,-0.45490603575794264,-0.5631755505636965,0.10789191860594965,0.043453349903317964,0.030363380513360495
1592167859.4594715,0.2675279153165099,8.75752791531651,4.137078680780582,-0.4031212667322498,-0.4550748724226547,-0.563601662146065,0.1090522036617659,0.04321655703478404,0.03012658764482657
1592167859.4694715,0.26839621816360043,8.7583962181636,4.1369339636394,-0.40228512324986626,-0.4552437090873667,-0.5640277737284336,0.11021248871758214,0.042979764166250115,0.029889794776292642
1592167859.4794714,0.26926452101069104,8.75926452101069,4.1367892464982186,-0.4014489797674827,-0.4554125457520788,-0.5644538853108021,0.11137277377339838,0.04274297129771619,0.029653001907758717
1592167859.4894714,0.2701328238577816,8.760132823857782,4.136644529357037,-0.40061283628509925,-0.45558138241679086,-0.5648799968931706,0.11253305882921463,0.042506178429182265,0.02941620903922479
1592167859.4994714,0.27100112670487214,8.761001126704873,4.136499812215854,-0.3997766928027157,-0.4557502190815029,-0.5653061084755391,0.11369334388503087,0.04226938556064833,0.02917941617069086
1592167859.5094714,0.27186942955196275,8.761869429551963,4.136355095074673,-0.3989405493203322,-0.45591905574621494,-0.5657322200579076,0.11485362894084711,0.04203259269211441,0.028942623302156936
1592167859.5194714,0.2727377323990533,8.762737732399053,4.136210377933491,-0.3981044058379487,-0.456087892410927,-0.5661583316402762,0.11601391399666336,0.041795799823580476,0.028705830433623007
1592167859.5294714,0.27360603524614385,8.763606035246145,4.136065660792309,-0.39726826235556517,-0.4562567290756391,-0.5665844432226447,0.1171741990524796,0.04155900695504655,0.028469037565089082
1592167859.5394714,0.27447433809323446,8.764474338093235,4.1359209436511275,-0.39643211887318164,-0.45642556574035115,-0.5670105548050132,0.11833448410829583,0.041322214086512626,0.028232244696555154
1592167859.5494714,0.275342640940325,8.765342640940325,4.135776226509946,-0.39559597539079816,-0.4565944024050632,-0.5674366663873817,0.11949476916411209,0.0410854212179787,0.027995451828021226
1592167859.5594714,0.2762109437874156,8.766210943787415,4.135631509368764,-0.3947598319084146,-0.45676323906977523,-0.5678627779697503,0.12065505421992832,0.04084862834944478,0.0277586589594873
1592167859.5694714,0.27707924663450617,8.767079246634507,4.135486792227582,-0.3939236884260311,-0.4569320757344873,-0.5682888895521188,0.12181533927574456,0.040611835480910845,0.027521866090953372
1592167859.5794713,0.2779475494815967,8.767947549481597,4.135342075086401,-0.3930875449436476,-0.45710091239919937,-0.5687150011344873,0.12297562433156081,0.04037504261237692,0.027285073222419447
1592167859.5894713,0.27881585232868733,8.768815852328688,4.135197357945219,-0.3922514014612641,-0.4572697490639114,-0.5691411127168557,0.12413590938737705,0.04013824974384299,0.02704828035388552
1592167859.5994713,0.2796841551757779,8.769684155175778,4.135052640804037,-0.3914152579788806,-0.45743858572862345,-0.5695672242992244,0.1252961944431933,0.03990145687530906,0.02681148748535159
1592167859.6094713,0.28055245802286843,8.77055245802287,4.134907923662856,-0.39057911449649707,-0.4576074223933355,-0.5699933358815928,0.12645647949900954,0.03966466400677514,0.026574694616817666
1592167859.6194713,0.28142076086995904,8.77142076086996,4.134763206521673,-0.3897429710141136,-0.4577762590580476,-0.5704194474639613,0.1276167645548258,0.03942787113824121,0.026337901748283737
1592167859.6294713,0.2822890637170496,8.77228906371705,4.134618489380491,-0.38890682753173006,-0.45794509572275965,-0.5708455590463298,0.128777049610642,0.03919107826970729,0.026101108879749813
1592167859.6394713,0.28315736656414014,8.77315736656414,4.13447377223931,-0.3880706840493465,-0.45811393238747167,-0.5712716706286984,0.12993733466645827,0.03895428540117336,0.025864316011215884
1592167859.6494713,0.28402566941123075,8.77402566941123,4.134329055098128,-0.38723454056696305,-0.45828276905218374,-0.5716977822110669,0.13109761972227452,0.03871749253263943,0.025627523142681956
1592167859.6594713,0.2848939722583213,8.774893972258322,4.134184337956946,-0.3863983970845795,-0.4584516057168958,-0.5721238937934354,0.13225790477809074,0.0384806996641055,0.02539073027414803
1592167859.6694713,0.28576227510541186,8.775762275105413,4.134039620815765,-0.385562253602196,-0.4586204423816079,-0.5725500053758039,0.133418189833907,0.038243906795571575,0.025153937405614103
1592167859.6794713,0.28663057795250246,8.776630577952503,4.133894903674583,-0.3847261101198125,-0.4587892790463199,-0.5729761169581725,0.13457847488972324,0.03800711392703765,0.024917144537080178
1592167859.6894712,0.287498880799593,8.777498880799593,4.133750186533401,-0.38388996663742897,-0.45895811571103196,-0.573402228540541,0.13573875994553947,0.037770321058503725,0.02468035166854625
1592167859.6994712,0.28836718364668357,8.778367183646685,4.1336054693922195,-0.38305382315504544,-0.459126952375744,-0.5738283401229095,0.13689904500135572,0.0375335281899698,0.02444355880001232
1592167859.7094712,0.2892354864937742,8.779235486493775,4.133460752251038,-0.38221767967266196,-0.4592957890404561,-0.574254451705278,0.13805933005717197,0.03729673532143587,0.024206765931478396
1592167859.7194712,0.2901037893408647,8.780103789340865,4.133316035109856,-0.3813815361902784,-0.4594646257051681,-0.5746805632876466,0.1392196151129882,0.037059942452901944,0.023969973062944468
1592167859.7294712,0.2909720921879553,8.780972092187955,4.133171317968674,-0.3805453927078949,-0.4596334623698802,-0.5751066748700151,0.14037990016880444,0.03682314958436801,0.023733180194410543
1592167859.7394712,0.2918403950350459,8.781840395035047,4.133026600827493,-0.3797092492255114,-0.45980229903459224,-0.5755327864523836,0.1415401852246207,0.03658635671583409,0.023496387325876614
1592167859.7494712,0.29270869788213644,8.782708697882137,4.13288188368631,-0.3788731057431279,-0.4599711356993043,-0.5759588980347521,0.14270047028043692,0.03634956384730016,0.023259594457342686
1592167859.7594712,0.293577000729227,8.783577000729228,4.1327371665451285,-0.3780369622607444,-0.4601399723640163,-0.5763850096171207,0.14386075533625317,0.03611277097876624,0.02302280158880876
1592167859.7694712,0.2944453035763176,8.784445303576318,4.132592449403947,-0.37720081877836087,-0.4603088090287284,-0.5768111211994892,0.14502104039206942,0.03587597811023231,0.022786008720274833
1592167859.7794712,0.29531360642340815,8.785313606423408,4.132447732262765,-0.3763646752959774,-0.46047764569344046,-0.5772372327818577,0.14618132544788565,0.03563918524169838,0.022549215851740908
1592167859.7894711,0.2961819092704987,8.7861819092705,4.132303015121583,-0.37552853181359386,-0.46064648235815253,-0.5776633443642262,0.1473416105037019,0.035402392373164455,0.02231242298320698
1592167859.7994711,0.2970502121175893,8.78705021211759,4.132158297980402,-0.3746923883312103,-0.46081531902286454,-0.5780894559465948,0.14850189555951815,0.035165599504630524,0.022075630114673055
1592167859.8094711,0.29791851496467986,8.78791851496468,4.13201358083922,-0.37385624484882685,-0.4609841556875766,-0.5785155675289633,0.14966218061533437,0.0349288066360966,0.021838837246139126
1592167859.8194711,0.2987868178117704,8.78878681781177,4.131868863698038,-0.3730201013664433,-0.4611529923522887,-0.5789416791113318,0.15082246567115062,0.034692013767562674,0.021602044377605198
1592167859.829471,0.299655120658861,8.789655120658862,4.131724146556857,-0.3721839578840598,-0.46132182901700075,-0.5793677906937003,0.15198275072696685,0.03445522089902875,0.021365251509071273
1592167859.839471,0.30052342350595157,8.790523423505952,4.131579429415675,-0.3713478144016763,-0.46149066568171276,-0.5797939022760689,0.1531430357827831,0.034218428030494824,0.021128458640537345
1592167859.849471,0.3013917263530421,8.791391726353043,4.131434712274493,-0.37051167091929277,-0.46165950234642483,-0.5802200138584374,0.15430332083859935,0.03398163516196089,0.02089166577200342
1592167859.859471,0.30226002920013273,8.792260029200133,4.1312899951333115,-0.36967552743690923,-0.4618283390111369,-0.5806461254408058,0.15546360589441557,0.03374484229342697,0.02065487290346949
1592167859.869471,0.3031283320472233,8.793128332047225,4.131145277992129,-0.36883938395452576,-0.46199717567584897,-0.5810722370231743,0.15662389095023183,0.033508049424893036,0.020418080034935563
1592167859.879471,0.30399663489431383,8.793996634894315,4.131000560850947,-0.3680032404721422,-0.462166012340561,-0.581498348605543,0.15778417600604808,0.03327125655635911,0.020181287166401638
1592167859.889471,0.30486493774140444,8.794864937741405,4.1308558437097656,-0.3671670969897587,-0.46233484900527305,-0.5819244601879114,0.1589444610618643,0.033034463687825186,0.01994449429786771
1592167859.899471,0.305733240588495,8.795733240588495,4.130711126568584,-0.3663309535073752,-0.4625036856699851,-0.5823505717702799,0.16010474611768055,0.03279767081929126,0.019707701429333785
1592167859.909471,0.30660154343558554,8.796601543435587,4.130566409427402,-0.3654948100249917,-0.4626725223346972,-0.5827766833526484,0.1612650311734968,0.03256087795075733,0.019470908560799853
1592167859.919471,0.30746984628267615,8.797469846282677,4.1304216922862205,-0.3646586665426082,-0.46284135899940926,-0.5832027949350169,0.16242531622931303,0.032324085082223404,0.019234115692265928
1592167859.929471,0.3083381491297667,8.798338149129767,4.130276975145039,-0.36382252306022467,-0.46301019566412127,-0.5836289065173855,0.16358560128512928,0.03208729221368948,0.018997322823732003
1592167859.939471,0.30920645197685726,8.799206451976858,4.130132258003857,-0.3629863795778412,-0.46317903232883334,-0.584055018099754,0.16474588634094553,0.031850499345155554,0.01876052995519808
1592167859.949471,0.31,8.803805525793477,4.126194474206524,-0.3622222222222222,-0.4633333333333333,-0.5844444444444444,0.16739756639978623,0.029074195473613673,0.017713886366618057
1592167859.959471,0.31,8.848008009414574,4.081991990585426,-0.3622222222222222,-0.4633333333333333,-0.5844444444444444,0.18588091448851723,-0.0006598862343449377,0.008070400407280132
1592167859.969471,0.2698589750412432,8.84,4.031126603161088,-0.3477777777777778,-0.4633333333333333,-0.5777777777777777,0.17708326678675756,-0.046414150284238676,-0.013673843372733765
1592167859.979471,0.2,8.84,3.97,-0.3477777777777778,-0.4633333333333333,-0.5777777777777777,0.15707963267948966,-0.07308566242726255,-0.032724923474893676
1592167859.989471,0.09915523989735349,8.897465719692061,3.788447601026465,-0.3477777777777778,-0.4633333333333333,-0.5777777777777777,0.1384134451325636,-0.09291987218301066,-0.05374211304551742
1592167859.999471,0.09228332069227056,8.863150037923187,3.8902749431152173,-0.3477777777777778,-0.4633333333333333,-0.5777777777777777,0.1087140400344957,-0.10814677493337259,-0.06934501842163669
1592167860.009471,0.10674343239329794,8.819769702820107,3.955345445769841,-0.3477777777777778,-0.4633333333333333,-0.5777777777777777,0.07874432360704178,-0.11603354241428153,-0.07328840216209115
1592167860.019471,0.013982699205288699,8.814040368520994,3.9569625149447925,-0.35555555555555557,-0.45111111111111113,-0.5844444444444444,0.06196170474438973,-0.12239184287075013,-0.08246554900743656
1592167860.029471,-0.03511546631946824,8.939185911053244,3.8367436442129788,-0.35555555555555557,-0.45111111111111113,-0.5844444444444444,0.06848112015555699,-0.12462111918943922,-0.07747417640037188
1592167860.039471,0.020823308002001096,8.928353383995997,3.8049398480120065,-0.35555555555555557,-0.45111111111111113,-0.5844444444444444,0.0517892423750182,-0.12717815669605612,-0.06491099312255229
1592167860.049471,0.04060677698975571,8.8872695035461,3.9251576044129233,-0.35555555555555557,-0.45111111111111113,-0.5844444444444444,0.0123949838204946,-0.11622247546321873,-0.05196274294870824
1592167860.059471,0.05563041765169424,8.819663120567377,4.052858550039401,-0.35555555555555557,-0.45111111111111113,-0.5844444444444444,-0.004812678363673785,-0.10393128818881274,-0.042129793129183454
1592167860.069471,0.05,8.82,4.14,-0.3622222222222222,-0.48444444444444446,-0.57,-0.01090830782496456,-0.08072147790473774,-0.032724923474893676
1592167860.0794709,0.040642846629378865,8.801285693258759,4.205500073594348,-0.3622222222222222,-0.48444444444444446,-0.57,-0.004784065265036158,-0.06336945731827393,-0.019455731261715473
1592167860.0894709,0.04,8.78,4.14,-0.3622222222222222,-0.48444444444444446,-0.57,0.004363323129985824,-0.04581489286485115,-0.007635815477475192
1592167860.0994709,0.06928734383487235,8.750712656165128,4.120237552055043,-0.3622222222222222,-0.48444444444444446,-0.57,0.024412883765459158,-0.029115563305092892,-0.002000271199132918
1592167860.1094708,0.046504617055947856,8.773495382944052,4.127831794314684,-0.3622222222222222,-0.48444444444444446,-0.57,0.03766733692794299,-0.018346320110574785,0.003798552059453755
1592167860.1194708,0.09361197815060476,8.803611978150606,4.109164065548186,-0.35555555555555557,-0.4711111111111111,-0.57,0.052155559591619896,-0.008135637717114005,0.008825147683781256
1592167860.1294708,0.13,8.84,4.0,-0.35555555555555557,-0.4711111111111111,-0.57,0.061086523819801536,-0.002181661564992912,0.009817477042468103
1592167860.1394708,0.13,8.849388993267574,3.971833020197276,-0.35555555555555557,-0.4711111111111111,-0.57,0.06415906468167829,0.009084321595221876,0.0046965756060068364
1592167860.1494708,0.1100272028093083,8.869972797190691,4.009945594381383,-0.35555555555555557,-0.4711111111111111,-0.57,0.0643590161672909,0.02506833643418377,5.934732352776487e-06
1592167860.1594708,0.06532343791662965,8.847661718958314,4.039784374722247,-0.35555555555555557,-0.4711111111111111,-0.57,0.05948555924962546,0.034836021832749364,-0.0056856997372763465
1592167860.1694708,0.02,8.82,4.05,-0.3688888888888889,-0.4711111111111111,-0.5633333333333334,0.0545415391248228,0.03599741582238304,-0.009817477042468103
1592167860.1794708,0.02,8.828223310406699,4.041776689593301,-0.3688888888888889,-0.4711111111111111,-0.5633333333333334,0.060820707212777964,0.030615271746992898,-0.00712640500477303
1592167860.1894708,0.02,8.859615374406072,3.931410293844398,-0.3688888888888889,-0.4711111111111111,-0.5633333333333334,0.06540789080602823,0.021914513318700403,-0.005468139293735319
1592167860.1994708,0.06915816931467869,8.840336732274128,4.018484704766421,-0.3688888888888889,-0.4711111111111111,-0.5633333333333334,0.0622324522918099,0.01216443167599676,-0.003309224140497311
1592167860.2094707,0.07,8.824805895900507,4.073179364348227,-0.3688888888888889,-0.4711111111111111,-0.5633333333333334,0.058862515309461405,0.007026879668206143,-0.0024437825242802223
1592167860.2194707,0.09966140009138351,8.800169299954309,4.120846499771542,-0.3688888888888889,-0.4777777777777778,-0.5555555555555556,0.06121579814094581,-0.0022740003658102536,-0.007672750997802129
1592167860.2294707,0.07813128430296377,8.81,4.165328210757409,-0.3688888888888889,-0.4777777777777778,-0.5555555555555556,0.06910454916091324,-0.007635815477475192,-0.00999584164549848
1592167860.2394707,0.004466300768386389,8.81,3.9811657519209662,-0.3688888888888889,-0.4777777777777778,-0.5555555555555556,0.08417130509184043,-0.007635815477475192,-0.017026994413264492
1592167860.2494707,0.00922500585343011,8.83767501756029,3.9607749941465697,-0.3688888888888889,-0.4777777777777778,-0.5555555555555556,0.10319805767126036,-0.017698735831106746,-0.015440708449216986
1592167860.2594707,0.030997336811783252,8.84,3.9460017754588113,-0.3688888888888889,-0.4777777777777778,-0.5555555555555556,0.11464505636904673,-0.024652000994370194,-0.013744661531967772
1592167860.2694707,0.08,8.890088350372334,3.909734948882999,-0.35555555555555557,-0.48444444444444446,-0.5633333333333334,0.11670925619654213,-0.03926798066375668,-0.014180800172453926
1592167860.2794707,0.08,8.94,3.76,-0.35555555555555557,-0.48444444444444446,-0.5633333333333334,0.1112647398146385,-0.038179077387375956,-0.014180800172453926
1592167860.2894707,0.10573809899117276,8.957158732660783,3.614150772383354,-0.35555555555555557,-0.48444444444444446,-0.5633333333333334,0.10097023923838402,-0.03724321369862555,-0.016052527549954742
1592167860.2994707,0.08984065335753176,8.979840653357533,3.600876406533575,-0.35555555555555557,-0.48444444444444446,-0.5633333333333334,0.07610611545184878,-0.03485443897307905,-0.0218339976721983
1592167860.3094707,0.07461633393829402,8.964616333938295,3.684610163339383,-0.35555555555555557,-0.48444444444444446,-0.5633333333333334,0.05202573886750729,-0.029872292093560113,-0.02349471329870461
1592167860.3194706,0.0,8.92,3.81,-0.3477777777777778,-0.4777777777777778,-0.5544444444444444,0.008726646259971648,-0.015271630954950384,-0.02617993877991494
1592167860.3294706,-0.025696866235824897,8.911434377921392,3.8785249766288663,-0.3477777777777778,-0.4777777777777778,-0.5544444444444444,-0.009960642209182776,-0.004059257873457728,-0.020573752239168616
