time,acc_x,acc_y,acc_z,mag_x,mag_y,mag_z,gyr_x,gyr_y,gyr_z
1592167877.1894546,-0.0868824892299895,8.366882489229988,4.960647467689968,-0.43333333333333335,-0.2588888888888889,-0.21444444444444444,0.04200352071220135,-0.007494559940097289,0.003612560018758536
1592167877.1994545,-0.11,8.4,4.96,-0.4211111111111111,-0.25222222222222224,-0.24333333333333335,0.042542400517361786,-0.00545415391248228,0.002181661564992912
1592167877.2094545,-0.11635419305801875,8.380937420825944,4.928229034709906,-0.4211111111111111,-0.25222222222222224,-0.24333333333333335,0.03769045594743328,-0.0012953442811149962,0.004954201319237767
1592167877.2194545,-0.14607592865324823,8.396075928653248,4.805696285387007,-0.4211111111111111,-0.25222222222222224,-0.24333333333333335,0.027321404864648048,0.005831568392020545,0.006544984694978735
1592167877.2294545,-0.17641094916459296,8.382392700556938,4.825214598886124,-0.4211111111111111,-0.25222222222222224,-0.24333333333333335,0.022338621934090003,0.010386301540803677,0.011346630752259912
1592167877.2394545,-0.1864475822658721,8.405790329063489,4.868685493595232,-0.4211111111111111,-0.25222222222222224,-0.24333333333333335,0.01759668292495419,0.008095019341647938,0.014812427090777635
1592167877.2494545,-0.1818313744756434,8.403662748951287,4.96351762971921,-0.4310949867519914,-0.2576679725717933,-0.2487790836829044,0.005469983965030506,-0.0014745446604102546,0.020817755823774056
1592167877.2594545,-0.17111810759690665,8.337826753178346,5.068818924030934,-0.43333333333333335,-0.2588888888888889,-0.25,-0.003509556800591586,-0.01199226982359345,0.025692072305975377
1592167877.2694545,-0.10022813955120854,8.303835552331703,5.045114069775605,-0.43333333333333335,-0.2588888888888889,-0.25,0.007053070839452482,-0.016895434046436907,0.03188813576463409
1592167877.2794545,-0.11573716516544766,8.325737165165448,5.057158110110298,-0.43333333333333335,-0.2588888888888889,-0.25,0.03305821934108201,-0.014645803318276715,0.03085326400711596
1592167877.2894545,-0.11325929402929028,8.343481411941418,5.04651858805858,-0.43333333333333335,-0.2588888888888889,-0.25,0.0495882948715128,-0.014180800172453926,0.029807964953039983
1592167877.2994545,-0.09324370377943632,8.366756296220563,4.981352963228027,-0.42309337453187773,-0.2588888888888889,-0.22672736636032823,0.05928802665092323,-0.014180800172453926,0.034022002056909285
1592167877.3094544,-0.13541168999291664,8.451741041987251,4.72477687403825,-0.4211111111111111,-0.2588888888888889,-0.2222222222222222,0.06395861058366185,-0.009227153239507953,0.03688804381306498
1592167877.3194544,-0.15291200777831795,8.485824015556636,4.64189596499757,-0.4211111111111111,-0.2588888888888889,-0.2222222222222222,0.05661236761565831,-0.005909683150287071,0.03990520971456408
1592167877.3294544,-0.1513104368995576,8.465241747598231,4.696895631004424,-0.4211111111111111,-0.2588888888888889,-0.2222222222222222,0.023923348810606156,-0.010050628879830568,0.04524310690142849
1592167877.3394544,-0.16997818483395233,8.433362420221398,4.763275159557206,-0.4211111111111111,-0.2588888888888889,-0.2222222222222222,-0.0028842922101854768,-0.018899008123233543,0.05017345666390696
1592167877.3494544,-0.21082513247539741,8.373762301286904,4.944125662376988,-0.4356674236689377,-0.2606013962486332,-0.2273597443014551,-0.018383925594790764,-0.03551682269943608,0.05572237789769935
1592167877.3594544,-0.23674959890807212,8.351625200545964,5.03187399727018,-0.44,-0.2611111111111111,-0.2288888888888889,-0.014153660659917976,-0.05662733734909681,0.06129094521066423
1592167877.3694544,-0.2571626635422769,8.324256004686585,5.09148799062683,-0.44,-0.2611111111111111,-0.2288888888888889,-0.007473500879493879,-0.08246156707915944,0.06779382311276158
1592167877.3794544,0.014695177001663118,8.277078878593489,5.125752672843905,-0.44,-0.2611111111111111,-0.2288888888888889,0.005628132221888284,-0.1058398976060052,0.07527709456020512
1592167877.3894544,0.07313140896982082,8.27656570448491,5.064342955150896,-0.44,-0.2611111111111111,-0.2288888888888889,0.03198686218458725,-0.1090830782496456,0.07349332575038578
1592167877.3994544,0.07165698408689064,8.371773175044204,4.879825713564031,-0.4298029805506441,-0.2611111111111111,-0.23445089949762846,0.07111643595529937,-0.09725201409970487,0.036501639194943925
1592167877.4094543,-0.007245834250899211,8.438278646406813,4.796893488952507,-0.42777777777777776,-0.2611111111111111,-0.23555555555555555,0.08267781481128941,-0.08436951134962918,0.0031205143084980895
1592167877.4194543,-0.09,8.515267025523164,4.638931897907343,-0.42777777777777776,-0.2611111111111111,-0.23555555555555555,0.06372354489010415,-0.0638983126863321,-0.018657963178767174
1592167877.4294543,-0.13403966808338394,8.475960331916616,4.708079336166768,-0.42777777777777776,-0.2611111111111111,-0.23555555555555555,0.02407598869750425,-0.058574367682576844,-0.014450803420175677
1592167877.4394543,-0.2301470616917946,8.367823525969847,4.840147061691795,-0.42777777777777776,-0.2611111111111111,-0.23555555555555555,-0.01814147906771163,-0.050383548597709424,-0.010686933280058557
1592167877.4494543,-0.430576312940913,8.368172893882274,5.040576312940913,-0.42777777777777776,-0.2655715642483587,-0.21860583363401473,-0.013257842754752846,-0.03989926024351833,-0.010693284967946763
1592167877.4594543,-0.5283458767658067,8.36541353080855,5.0945864691914515,-0.42777777777777776,-0.26666666666666666,-0.21444444444444444,-0.002392171228214649,-0.03977021434757313,-0.01090830782496456
1592167877.4694543,-0.5186044045676999,8.31033578031539,5.022738716693856,-0.42777777777777776,-0.26666666666666666,-0.21444444444444444,0.009780849092049855,-0.06048902852496266,-0.008312290717224013
1592167877.4794543,-0.450880873483205,8.283626957827735,4.96725391565547,-0.42777777777777776,-0.26666666666666666,-0.21444444444444444,0.024303471628429038,-0.08420307627463762,-0.015672913759553878
1592167877.4894543,-0.38075659715814725,8.339243402841852,4.882243033770068,-0.42777777777777776,-0.26666666666666666,-0.21444444444444444,0.0401956750583576,-0.09522364942693434,-0.023915745267916393
1592167877.4994543,-0.26563292621716583,8.504651832022754,4.75,-0.44054851002918594,-0.2626758128381016,-0.2399859089472608,0.06139375228546232,-0.11317023521933801,-0.042742608208243264
1592167877.5094543,-0.3154096425367144,8.498337347121877,4.7737469896585925,-0.44555555555555554,-0.2611111111111111,-0.25,0.027411392315219413,-0.12685310677948503,-0.04840528759597285
1592167877.5194542,-0.2787961388085088,8.424166464182369,4.809259349252281,-0.44555555555555554,-0.2611111111111111,-0.25,-0.016564575421782954,-0.13539433791411368,-0.0514811601253557
1592167877.5294542,-0.26706673625774,8.35759958245356,4.9613347251548,-0.44555555555555554,-0.2611111111111111,-0.25,-0.047182242043375566,-0.14515329203628008,-0.05544332293652054
1592167877.5394542,-0.34419147581469833,8.260101487584171,5.11131258561809,-0.44555555555555554,-0.2611111111111111,-0.25,-0.047071045683206095,-0.1508431509000569,-0.058590824050219883
1592167877.5494542,-0.5665241957181842,8.192430718376446,5.240554252988431,-0.4363042113489898,-0.265316267568641,-0.22897421771235046,0.004786540484735376,-0.15932175386658964,-0.05421592925985499
1592167877.5594542,-0.5377371616493802,8.280097394384011,5.185571717682772,-0.43333333333333335,-0.26666666666666666,-0.2222222222222222,0.04356424377250582,-0.16827989572020965,-0.05663296500403875
1592167877.5694542,-0.23853752370631262,8.427454890273639,5.002905987537253,-0.43333333333333335,-0.26666666666666666,-0.2222222222222222,0.07909507314661406,-0.1935338911525319,-0.07383981631259835
1592167877.5794542,-0.003266129984182825,8.353159186949645,5.072208975660426,-0.43333333333333335,-0.26666666666666666,-0.2222222222222222,0.06261395473654206,-0.19434018620298582,-0.07074335961905774
1592167877.5894542,0.06151968165196817,8.295440955044095,5.128799204129921,-0.43333333333333335,-0.26666666666666666,-0.2222222222222222,0.06535364548262806,-0.17422801347608294,-0.05741291828180287
1592167877.5994542,-0.04252931808310409,8.263380628348052,5.183096858259737,-0.4414236764634911,-0.2629892379711404,-0.21707382204848544,0.10411882691242089,-0.12424905323333635,-0.041866770853611984
1592167877.6094542,-0.18748623853211008,8.270935779816513,5.16445871559633,-0.44555555555555554,-0.2611111111111111,-0.21444444444444444,0.13688825481926167,-0.09447795491042241,-0.03489857894240038
1592167877.6194541,-0.6700649920955559,8.3,4.819935007904444,-0.44555555555555554,-0.2611111111111111,-0.21444444444444444,0.21299357220473947,-0.0643590161672909,-0.026937657088255403
1592167877.6294541,-0.8249529243937233,8.389905848787446,4.9047960057061335,-0.44555555555555554,-0.2611111111111111,-0.21444444444444444,0.25331891761591235,-0.08070436073126061,-0.02972257124700686
1592167877.6394541,-0.8343952512719807,8.453628492368116,4.852300276711595,-0.44555555555555554,-0.2611111111111111,-0.21444444444444444,0.2404009742567649,-0.07333658369178932,-0.0715059392624654
1592167877.649454,-0.9159341372204838,8.526272227734108,4.574911089063574,-0.4506969141926785,-0.27873862643838987,-0.2239926819133871,0.22001494109841277,-0.09211113989168004,-0.11300288455190113
1592167877.659454,-0.8791440222877216,8.601978842815036,4.482887713489725,-0.4533333333333333,-0.2877777777777778,-0.2288888888888889,0.2181661564992912,-0.11635143698151704,-0.1001696866221371
1592167877.669454,-0.6327073787108779,8.513805159821157,4.483243911244411,-0.4533333333333333,-0.2877777777777778,-0.2288888888888889,0.1422577357853836,-0.14847003966019579,-0.056723200689815706
1592167877.679454,-0.602790126986396,8.44604936506802,4.465580253972792,-0.4533333333333333,-0.2877777777777778,-0.2288888888888889,0.06570035365439467,-0.15035688412316492,-0.07481212895841405
1592167877.689454,-0.5906923735569399,8.49723050577224,4.45069237355694,-0.4533333333333333,-0.2877777777777778,-0.2288888888888889,0.05880830461549466,-0.14817468652250598,-0.07698961210510197
1592167877.699454,-0.56,8.66434253951711,4.453256904637833,-0.4533333333333333,-0.2834666975469477,-0.2251936772624631,0.0685230073564766,-0.14701280123199023,-0.05987726864281832
1592167877.709454,-0.5460833193909989,8.57474987451899,4.556541743349507,-0.4533333333333333,-0.28,-0.2222222222222222,-0.008790340411400671,-0.15703418900124946,-0.06801330841389061
1592167877.719454,-0.4822715697036224,8.468685839736553,4.564342919868277,-0.4533333333333333,-0.28,-0.2222222222222222,-0.055588688780046504,-0.1708474498257273,-0.05590200028668539
1592167877.729454,-0.39512926724753605,8.476580488501643,4.525613007665571,-0.4533333333333333,-0.28,-0.2222222222222222,-0.05722994905646894,-0.17671458676442586,-0.0402552031646227
1592167877.739454,-0.4241056065385718,8.527473831373674,4.5512107470605105,-0.4533333333333333,-0.28,-0.2222222222222222,-0.05176853512692543,-0.16522635472380984,-0.03899434591993506
1592167877.749454,-0.5,8.50598430044636,4.64051177466523,-0.45633420553075776,-0.2850014536623741,-0.23172498418073298,-0.07101850703337362,-0.13591294868402318,-0.04106935082208202
1592167877.759454,-0.6028910552165501,8.453718807362208,4.703718807362207,-0.46,-0.2911111111111111,-0.24333333333333335,-0.09830091650564542,-0.08379611951348587,-0.03852166330138071
1592167877.769454,-0.781875888878354,8.5224675263108,4.69611832748649,-0.46,-0.2911111111111111,-0.24333333333333335,-0.08975664300648306,-0.04600850576186768,-0.02455077726613053
1592167877.779454,-0.8469106097386834,8.529268170783949,4.7107318292160505,-0.46,-0.2911111111111111,-0.24333333333333335,-0.09639225977788707,-0.032228262907995214,-0.0019598504791332842
1592167877.789454,-0.8307743849909065,8.506689958839859,4.727394467311189,-0.46,-0.2911111111111111,-0.24333333333333335,-0.10709354156641716,-0.03134987316622173,0.00916456569155872
1592167877.799454,-0.6569898496240602,8.401359022556392,4.815825563909774,-0.46,-0.28792878028404345,-0.25160739348370925,-0.14774937971697796,-0.037871963412559564,0.030543261909900768
1592167877.809454,-0.5675671786894808,8.382020610538596,4.866164884308769,-0.46,-0.28555555555555556,-0.2577777777777778,-0.15182341057455662,-0.04081280909232861,0.030102433074913282
1592167877.819454,-0.35780778753094755,8.38397254107585,4.911917623227549,-0.46,-0.28555555555555556,-0.2577777777777778,-0.1295248002732006,-0.045590736100408376,0.039538994493891345
1592167877.829454,-0.32335570149253734,8.35342280597015,4.959798686567164,-0.46,-0.28555555555555556,-0.2577777777777778,-0.10767011699654971,-0.030953231936287136,0.04908006524935827
1592167877.839454,-0.32,8.299244538613282,5.010377730693359,-0.46,-0.28555555555555556,-0.2577777777777778,-0.09200008400713156,-0.01177251646016587,0.047955350403063125
1592167877.849454,-0.3938578822212897,8.29165337809484,5.0774800671422575,-0.4494488739683872,-0.2884864238976702,-0.24605430440931908,-0.06851627313812698,0.01841518890445269,0.026824229307134313
1592167877.859454,-0.48448766530044085,8.337141365710309,5.110204933879824,-0.44,-0.2911111111111111,-0.23555555555555555,-0.04708456219493808,0.041050321833160555,0.005009335204253696
1592167877.869454,-0.5544755003450657,8.417622498274673,5.03027950310559,-0.44,-0.2911111111111111,-0.23555555555555555,-0.006865308019997537,0.06180358132175314,-0.00740695932987069
1592167877.879454,-0.527474192631878,8.32737096315939,5.001262903684061,-0.44,-0.2911111111111111,-0.23555555555555555,0.0006775465183258833,0.05773952046730453,-0.0005397850969356931
1592167877.889454,-0.5369904065258603,8.275987208701148,4.992006395649426,-0.44,-0.2911111111111111,-0.23555555555555555,0.007632327191840952,0.0563949049693765,-0.00261590090661095
1592167877.8994539,-0.587552809884416,8.390211239537665,4.952447190115584,-0.4458509366281387,-0.29403657942518047,-0.26090961427748993,0.054578494332679396,0.05760229986965144,-0.012689548843652474
1592167877.9094539,-0.5917005990940528,8.540998003019824,4.942199600603964,-0.4533333333333333,-0.29777777777777775,-0.29333333333333333,0.10458868115636434,0.04189922424550406,-0.012370151775556712
1592167877.9194539,-0.5761279568185426,8.53740752500397,4.9383838704556275,-0.4533333333333333,-0.29777777777777775,-0.29333333333333333,0.09510982859200705,0.029169635974551997,-0.007916792290397958
1592167877.9294538,-0.5137224177287426,8.34971609282861,4.8951419535856955,-0.4533333333333333,-0.29777777777777775,-0.29333333333333333,0.02350276572384318,-0.0019614255897651804,0.012339802757577727
1592167877.9394538,-0.44866888783119147,8.327201332698715,4.882935110264953,-0.4533333333333333,-0.29777777777777775,-0.29333333333333333,0.020506164962151366,-0.015416832767819575,0.030978867348508347
1592167877.9494538,-0.3987255926337099,8.386587866518644,4.88127440736629,-0.45238780411705376,-0.30108713003475623,-0.296169920982172,0.055514653074035414,-0.01529517432160715,0.04268141679582073
1592167877.9594538,-0.31874584834167563,8.427356036862049,4.8872203770407445,-0.45111111111111113,-0.3055555555555556,-0.3,0.08303994619321257,-0.005938565037440826,0.037739060835125085
1592167877.9694538,-0.23760722245986898,8.390598194385033,4.8223081252673525,-0.45111111111111113,-0.3055555555555556,-0.3,0.08148604426267905,0.0018646312709332783,0.032790176359804704
1592167877.9794538,-0.26488243146113566,8.464882431461136,4.812441215730568,-0.45111111111111113,-0.3055555555555556,-0.3,0.07989694244880308,0.010172537477883829,0.024968785072262224
1592167877.9894538,-0.0478807104034914,8.485985088800437,4.830281453942982,-0.45111111111111113,-0.3055555555555556,-0.3,0.09032404190980413,0.006759897732380447,0.03812580646014799
1592167877.9994538,0.0651854094142576,8.440010594823672,4.810010594823672,-0.46110051628743925,-0.3116601920522005,-0.3,0.07474675649456947,0.0038127070168292197,0.06598890590314757
1592167878.0094538,-0.11118929633300298,8.429405351833498,4.802378592666006,-0.4711111111111111,-0.31777777777777777,-0.3,0.051496077961004645,0.009342873758507802,0.07170293440861737
1592167878.0194538,-0.10110240228013029,8.383328583061889,4.822211929967427,-0.4711111111111111,-0.31777777777777777,-0.3,0.07199716342880848,0.026543030866515452,0.07526965577629785
1592167878.0294538,-0.016312442591676676,8.387900091853316,4.721574931110013,-0.4711111111111111,-0.31777777777777777,-0.3,0.09765937542414732,0.02497457577507766,0.09989830310031064
1592167878.0394537,-0.0296468017963345,8.481540842335235,4.662247238742566,-0.4711111111111111,-0.31777777777777777,-0.3,0.11274952216811666,0.03592035992780689,0.09870356981117101
1592167878.0494537,-0.0820670903492105,8.583798728952369,4.6239664548253945,-0.4737554143280409,-0.3204220809947076,-0.3057293236366813,0.11912603987042572,0.0555774817437238,0.07900908155090068
1592167878.0594537,-0.07,8.62,4.63,-0.4777777777777778,-0.3244444444444444,-0.31444444444444447,0.11780972450961724,0.06544984694978735,0.07308566242726255
1592167878.0694537,-0.11445610510454943,8.478315842343175,4.54465489439319,-0.4777777777777778,-0.3244444444444444,-0.31444444444444447,0.05994208722100909,0.0626634402641062,0.07946861856830521
1592167878.0794537,-0.05147566423700917,8.577540559604985,4.465245944039501,-0.4777777777777778,-0.3244444444444444,-0.31444444444444447,0.028898167003027435,0.053200404613043886,0.07449843320463076
1592167878.0894537,-0.07960153314864711,8.607649425069258,4.504701149861486,-0.4777777777777778,-0.3244444444444444,-0.31444444444444447,0.009326394139627396,0.04446765413325284,0.06844419835281186
1592167878.0994537,-0.12469928326581489,8.517771545306603,4.653734288978914,-0.4757296030839191,-0.3261512566893267,-0.3229785056688557,-0.018773990555729925,0.03667428914578317,0.06847264287737838
1592167878.1094537,0.0,8.4,4.82,-0.4711111111111111,-0.33,-0.3422222222222222,-0.05126904677733343,0.028361600344907853,0.06544984694978735
1592167878.1194537,0.03233168441351555,8.402815181241442,4.775336631172969,-0.4711111111111111,-0.33,-0.3422222222222222,-0.03886669618783452,0.01188231505421973,0.06914625148616506
1592167878.1294537,0.04188923133538801,8.499342656055937,4.673121118726713,-0.4711111111111111,-0.33,-0.3422222222222222,-0.00804572378338685,-0.005248070742892466,0.07581386840013768
1592167878.1394536,-0.02,8.565484489740559,4.686612931351844,-0.4711111111111111,-0.33,-0.3422222222222222,-0.01027487312012608,-0.00978230736115842,0.06868716961596705
1592167878.1494536,0.005230083637420481,8.417476991636258,4.687569025091226,-0.4772784648891472,-0.329719665737362,-0.3478289074749823,-0.03530227406949174,-0.008481546618914705,0.06243249353592481
1592167878.1594536,0.0008939723528173515,8.383631324117605,4.714394779313732,-0.4955555555555556,-0.3288888888888889,-0.36444444444444446,-0.0853346411634211,-0.01361812407378496,0.03467098212440528
1592167878.1694536,-0.058431018935978365,8.449765554553652,4.641018935978359,-0.4955555555555556,-0.3288888888888889,-0.36444444444444446,-0.07776964456093985,-0.009180093501388119,-0.0016170656505177404
1592167878.1794536,-0.024201204906728606,8.581932931697757,4.538067068302243,-0.4955555555555556,-0.3288888888888889,-0.36444444444444446,-0.050407356176628705,-0.009817477042468103,-0.023209746782833607
1592167878.1894536,-0.040096353166986565,8.556730902111324,4.589807293666027,-0.4955555555555556,-0.3288888888888889,-0.36444444444444446,-0.06032076479793924,-0.01343606215069963,-0.03854093589819911
1592167878.1994536,0.024355580412627392,8.536642431021626,4.645644419587373,-0.4928493799541525,-0.33036498467147235,-0.36444444444444446,-0.07949798767398467,-0.026763925058264866,-0.03975295938513899
1592167878.2094536,0.18723800375097205,8.567723800375097,4.544552399249805,-0.48333333333333334,-0.33555555555555555,-0.36444444444444446,-0.09685797435246611,-0.051366698112649545,-0.026707191122591345
1592167878.2194536,0.2216737319105394,8.5174355601033,4.531040783511182,-0.48333333333333334,-0.33555555555555555,-0.36444444444444446,-0.13620757454238733,-0.060737742862108125,-0.015717573081595868
1592167878.2294536,0.09259885144040671,8.379868198079459,4.602730653360949,-0.48333333333333334,-0.33555555555555555,-0.36444444444444446,-0.18529948766688098,-0.0622903452413906,-0.03297965947150283
1592167878.2394536,0.15128070485967707,8.384721812496313,4.714320805553917,-0.48333333333333334,-0.33555555555555555,-0.36444444444444446,-0.16203566477674616,-0.05046609646507749,-0.023526950444582636
1592167878.2494535,0.19149024572337456,8.520637192845781,4.759362807154218,-0.4847516257127709,-0.33555555555555555,-0.37035399602543434,-0.1064843749423135,-0.03922394788955689,-0.0169891574241221
1592167878.2594535,0.16,8.56,4.744904385368028,-0.49,-0.33555555555555555,-0.39222222222222225,-0.08977696796427095,-0.012493632863962378,-0.02477989551746026
1592167878.2694535,0.1408292957746479,8.506322028169015,4.7608292957746485,-0.49,-0.33555555555555555,-0.39222222222222225,-0.11299409070024134,0.008037019966514621,-0.03734259761573
1592167878.2794535,0.05169120760220164,8.40971021310627,4.802028508256104,-0.49,-0.33555555555555555,-0.39222222222222225,-0.13429862963268158,0.02082061740664579,-0.03973888791871915
1592167878.2894535,-0.06,8.410003059289021,4.97429095878118,-0.49,-0.33555555555555555,-0.39222222222222225,-0.13230056971041793,0.02695905595074617,-0.05563370477397402
1592167878.2994535,-0.03840880738522953,8.472954715568862,5.049204403692614,-0.4911995107008206,-0.33819447909736083,-0.4003788949878022,-0.09309232363325527,0.020998424522214554,-0.06190444278414721
1592167878.3094535,0.04393913818164768,8.456973789093636,5.002121723636705,-0.4955555555555556,-0.3477777777777778,-0.43,-0.04690572364734761,0.002181661564992912,-0.00545415391248228
1592167878.3194535,0.016208787362624544,8.375018316727722,4.978736262454208,-0.4955555555555556,-0.3477777777777778,-0.43,-0.0391240636081041,0.0025912226196899385,0.0031466282361552805
1592167878.3294535,-0.05797881918119788,8.40359576383624,4.974383055344958,-0.4955555555555556,-0.3477777777777778,-0.43,-0.017942962033683826,-0.004572247410825982,0.022160136374932506
1592167878.3394535,-0.1240307704010802,8.415671795066848,5.0311948728676565,-0.4955555555555556,-0.3477777777777778,-0.43,-0.0020350986173037827,-0.025659137251006863,0.03178065564008635
1592167878.3494534,-0.1991704163761962,8.401572342987516,5.130305469294632,-0.4955555555555556,-0.3488306539634254,-0.42879671293068844,0.005373131434689906,-0.04658654209447441,0.033282264102847695
1592167878.3594534,-0.1232356470371054,8.260586117777368,5.22279605870408,-0.4955555555555556,-0.35555555555555557,-0.4211111111111111,0.060395290108380656,-0.07282861138538388,0.02253850821064575
1592167878.3694534,-0.10061597962456373,8.358768040750872,5.099951891331007,-0.4955555555555556,-0.35555555555555557,-0.4211111111111111,0.1302330122054143,-0.09511435262135969,0.015333576066832551
1592167878.3794534,0.013706292055247316,8.390931649155943,4.971863298311888,-0.4955555555555556,-0.35555555555555557,-0.4211111111111111,0.16240730636595752,-0.11004742880612764,-0.006493063673670441
1592167878.3894534,0.19620811905875019,8.367586294218482,4.915517765310892,-0.4955555555555556,-0.35555555555555557,-0.4211111111111111,0.16155563844231752,-0.09892727707364725,-0.03137052200075615
1592167878.3994534,0.09276925919083687,8.364615431984728,4.87,-0.4966837722629336,-0.35319655698558344,-0.42193163235284054,0.17914801468035152,-0.0796138537423765,-0.055749856392853236
1592167878.4094534,0.11045492839090143,8.413181690536366,4.838183094636338,-0.5077777777777778,-0.33,-0.43,0.21935593093321878,-0.06802820210178755,-0.07214340028545994
1592167878.4194534,0.09365338960696386,8.463840675283565,4.707892376681614,-0.5077777777777778,-0.33,-0.43,0.23165464887362153,-0.06853329265414822,-0.07981969376536979
1592167878.4294534,0.078015625,8.536335937499999,4.58534375,-0.5077777777777778,-0.33,-0.43,0.22195508904536873,-0.07399326772676154,-0.06796472323037098
1592167878.4394534,0.018407266668021376,8.557762085712543,4.578508057141696,-0.5077777777777778,-0.33,-0.43,0.18749754358910561,-0.0808138452996426,-0.041673699243946566
1592167878.4494534,0.06073956977248776,8.585666108734733,4.6249048416093235,-0.5061428305746699,-0.3384472272160574,-0.4313624560025899,0.14036897878414348,-0.08942736382435687,-0.015004113344414398
1592167878.4594533,0.34,8.48,4.64,-0.5011111111111111,-0.36444444444444446,-0.43555555555555553,0.1090830782496456,-0.09272061651219875,-0.014180800172453926
1592167878.4694533,0.07010685706071206,8.560106857060713,4.519786285878576,-0.5011111111111111,-0.36444444444444446,-0.43555555555555553,0.11698285919990851,-0.08261586140271256,-0.010011504732564748
1592167878.4794533,0.1415447409733124,8.561437990580847,4.467789638932496,-0.5011111111111111,-0.36444444444444446,-0.43555555555555553,0.09612667997591219,-0.075140945166905,0.003501960675361463
1592167878.4894533,0.2533286713286713,8.466657342657342,4.5455944055944055,-0.5011111111111111,-0.36444444444444446,-0.43555555555555553,0.04169262045323517,-0.06035574347740181,-0.02654761740730186
1592167878.4994533,0.2269899033035415,8.426772717567031,4.733979806607083,-0.5001913593427487,-0.36494612722718756,-0.43714421770090867,0.036876688720759304,-0.04098273510333755,-0.04509979527321429
1592167878.5094533,0.1844695222013461,8.52659143339596,4.671060955597308,-0.4888888888888889,-0.3711111111111111,-0.45666666666666667,0.05264058222524268,-0.019705130251289404,-0.02260580566119133
1592167878.5194533,0.13437428652968036,8.556297802511416,4.716442636986302,-0.4888888888888889,-0.3711111111111111,-0.45666666666666667,0.020379452320193135,-0.017170155934132642,-0.015538968550403816
1592167878.5294533,0.09889430741817501,8.50393791615868,4.7573229860264465,-0.4888888888888889,-0.3711111111111111,-0.45666666666666667,-0.006837001619731256,-0.026549192621181092,-0.0012453046155237134
1592167878.5394533,0.21678718424663063,8.479445767089016,4.767285126301347,-0.4888888888888889,-0.3711111111111111,-0.45666666666666667,-0.001036513730377958,-0.03195739799856446,-0.00834288352180704
1592167878.5494533,0.0757711950970378,8.549072282641351,4.830927717358649,-0.4893012077149552,-0.3709049516980779,-0.458831340503515,0.022907446432425576,-0.03739184140056078,-0.007366368542016264
1592167878.5594532,0.21976336776049157,8.52208589358086,4.814408419401229,-0.49333333333333335,-0.3688888888888889,-0.48,0.02123248139903286,-0.03812745224117858,0.0272707695624114
1592167878.5694532,0.2416237835634585,8.446173638355328,4.6983038671218225,-0.49333333333333335,-0.3688888888888889,-0.48,0.02221033069874987,-0.02730233790624683,0.028570295998256518
1592167878.5794532,0.43816389666696776,8.390242751332309,4.532367220666607,-0.49333333333333335,-0.3688888888888889,-0.48,0.04865535375415685,-0.0018125418089702076,0.022712134417376927
1592167878.5894532,0.3641321585903084,8.537933920704846,4.54489106928314,-0.49333333333333335,-0.3688888888888889,-0.48,0.05816972006787028,0.026132408788270722,-0.010422304923271605
1592167878.5994532,0.17985562083042914,8.629614988881146,4.570192505559428,-0.49333333333333335,-0.3688888888888889,-0.47993048410353994,0.05975945317352635,0.037145994127136525,0.003414236265756606
1592167878.6094532,0.15,8.55,4.61,-0.49333333333333335,-0.3688888888888889,-0.46555555555555556,0.01090830782496456,0.04908738521234052,0.032724923474893676
1592167878.6194532,0.23441815902155144,8.511976768943248,4.646046462113506,-0.49333333333333335,-0.3688888888888889,-0.46555555555555556,-0.029262140237902554,0.054084933890371466,0.036390668177294534
1592167878.6294532,0.1396711246489934,8.53910427871115,4.654835562324497,-0.49333333333333335,-0.3688888888888889,-0.46555555555555556,-0.019843349437891362,0.06025294240798091,0.04855990718891641
1592167878.6394532,0.3300005806077027,8.607692664989354,4.761538416876331,-0.49333333333333335,-0.3688888888888889,-0.46555555555555556,-0.017872925642909855,0.05722664643531973,0.04195488881141841
1592167878.6494532,0.22447338881362494,8.542752854654537,4.769655893168182,-0.49333333333333335,-0.3688888888888889,-0.46555555555555556,-0.0028197775168361076,0.05988308433992098,0.06763378855589716
1592167878.6594532,0.3849012976256212,8.437645637769188,4.737645637769188,-0.4988888888888889,-0.3688888888888889,-0.5011111111111111,0.012320033195740964,0.053621922395294105,0.10452700754903643
1592167878.6694531,0.2608791208791209,8.374175824175824,4.56956043956044,-0.4988888888888889,-0.3688888888888889,-0.5011111111111111,0.022751613463497508,0.06319626247605842,0.07971455718243331
1592167878.6794531,-0.014924359655403376,8.61,4.362537820172298,-0.4988888888888889,-0.3688888888888889,-0.5011111111111111,0.034482819565105655,0.06665460564411255,0.05698353176299713
1592167878.6894531,0.08883330102733088,8.592629579375847,4.444814886605931,-0.4988888888888889,-0.3688888888888889,-0.5011111111111111,-0.02638601043733325,0.06271873144577617,0.03290065316346371
1592167878.699453,0.01566272533436712,8.47880868385346,4.607416165923628,-0.4988888888888889,-0.3688888888888889,-0.5011111111111111,-0.08491826908583924,0.06626614106083713,-0.0016865905833807412
1592167878.709453,0.13629072170208426,8.432134748335416,4.840673741677084,-0.48,-0.37333333333333335,-0.5011111111111111,-0.05331610418163511,0.062496096809566394,-0.0035053572672049307
1592167878.719453,0.27,8.44,4.88,-0.48,-0.37333333333333335,-0.5011111111111111,-0.032724923474893676,0.05563236990731925,-0.004363323129985824
1592167878.729453,0.22674242232727457,8.58651515534545,4.74,-0.48,-0.37333333333333335,-0.5011111111111111,-0.016486416647256016,0.04512899064645658,0.0024667716456418694
1592167878.739453,0.21,8.62,4.74,-0.48,-0.37333333333333335,-0.5011111111111111,0.01090830782496456,0.03599741582238304,0.05999569303730508
1592167878.749453,0.3647493852846605,8.50823655507219,4.576653426643969,-0.48,-0.37333333333333335,-0.5011111111111111,-0.0003453850444295574,0.034121800344150695,0.09563238712371978
1592167878.759453,0.19,8.52,4.46,-0.5066666666666667,-0.36,-0.5366666666666666,-0.039269908169872414,0.044724062082354694,0.07744898555724837
1592167878.769453,0.03779365343080246,8.642941795425598,4.427058204574403,-0.5066666666666667,-0.36,-0.5366666666666666,-0.04841441323931009,0.040649319483353284,0.055584464451788454
1592167878.779453,0.01,8.68,4.39,-0.5066666666666667,-0.36,-0.5366666666666666,-0.09490227807719166,0.030543261909900768,0.06872233929727672
1592167878.789453,0.12763724256671743,8.447637242566717,4.70945102973313,-0.5066666666666667,-0.36,-0.5366666666666666,-0.1612496531689907,0.015078328314465613,0.06930224721873103
1592167878.799453,0.09060393351433679,8.410603933514336,4.857584265942653,-0.5066666666666667,-0.36,-0.5366666666666666,-0.15821987265708762,0.012048547802562504,0.07839158875444036
1592167878.809453,0.08,8.28,4.95,-0.4922222222222222,-0.37333333333333335,-0.5366666666666666,-0.12435470920459597,0.001090830782496456,0.07635815477475191
1592167878.819453,0.016569528286767457,8.342670815748704,4.822455793578717,-0.4922222222222222,-0.37333333333333335,-0.5366666666666666,-0.0898541190395239,0.01231810128110781,-0.0018309104308593485
1592167878.829453,0.17,8.46,4.66,-0.4922222222222222,-0.37333333333333335,-0.5366666666666666,-0.022907446432425576,0.015271630954950384,-0.04908738521234052
1592167878.839453,0.15,8.659397590361445,4.5763855421686745,-0.4922222222222222,-0.37333333333333335,-0.5366666666666666,0.0005125590423778526,0.01088202274586826,-0.05874715178023082
1592167878.849453,0.15,8.651180722891567,4.527084337349398,-0.4922222222222222,-0.37333333333333335,-0.5366666666666666,-0.03713293123934321,-0.004355437606256934,-0.04171704903373796
1592167878.859453,0.10753362206519262,8.515479826760885,4.716573968543424,-0.4988888888888889,-0.38666666666666666,-0.5288888888888889,-0.0862353079940605,-0.030333897989485444,-0.02272841790190416
1592167878.869453,0.15348904783191775,8.49465206377589,4.8158150797198624,-0.4988888888888889,-0.38666666666666666,-0.5288888888888889,-0.0923400204345329,-0.04183216581253117,-0.00022772372616264823
1592167878.879453,0.172425505561775,8.4997020222471,4.888783078865255,-0.4988888888888889,-0.38666666666666666,-0.5288888888888889,-0.08961337399861068,-0.044724062082354694,0.023403195934129418
1592167878.889453,0.13,8.33,5.05,-0.4988888888888889,-0.38666666666666666,-0.5288888888888889,-0.09053895494720585,-0.044724062082354694,0.02617993877991494
1592167878.899453,0.21513936342384465,8.270402445603308,5.1351393634238445,-0.4988888888888889,-0.38666666666666666,-0.5288888888888889,-0.04967499404025751,-0.048438967619349994,0.018750127705924335
1592167878.909453,0.29,8.33,5.12,-0.4988888888888889,-0.36777777777777776,-0.5644444444444444,0.030543261909900768,-0.03599741582238304,0.0032724923474893677
1592167878.919453,0.14545444188748888,8.520908883774977,4.9018177675499555,-0.4988888888888889,-0.36777777777777776,-0.5644444444444444,0.08072147790473774,-0.026940207248227824,0.018643267142385487
1592167878.929453,0.08785319529851326,8.410357800783581,4.68322020705223,-0.4988888888888889,-0.36777777777777776,-0.5644444444444444,0.08095565796997672,-0.023024536465045067,0.0049447542491790125
1592167878.939453,0.03,8.42,4.77,-0.4988888888888889,-0.36777777777777776,-0.5644444444444444,0.08726646259971647,-0.02617993877991494,-0.038179077387375956
1592167878.9494529,0.08187025338916884,8.497805380083753,4.674904535453191,-0.4988888888888889,-0.36777777777777776,-0.5644444444444444,0.11932940841896783,-0.029009022234554767,-0.034406966114522854
1592167878.9594529,0.18,8.5,4.55,-0.5066666666666667,-0.36777777777777776,-0.5555555555555556,0.12108221685710661,-0.03381575425739013,-0.025089107997418484
1592167878.9694529,0.19994711067580803,8.459994123408425,4.639988246816846,-0.5066666666666667,-0.36777777777777776,-0.5555555555555556,0.06325215946732389,-0.019631107864743272,-0.020730913161023247
1592167878.9794528,0.10736448248444881,8.450790655254664,4.62052710350311,-0.5066666666666667,-0.36777777777777776,-0.5555555555555556,0.036284906185760225,-0.013061220353619753,-0.029107442691351692
1592167878.9894528,0.010982416969020374,8.479754395757745,4.6407368127267645,-0.5066666666666667,-0.36777777777777776,-0.5555555555555556,0.046932514914123966,-0.012072814591095998,-0.01634236828736457
1592167878.9994528,0.14476655635740202,8.446308360910649,4.741074917268051,-0.5066666666666667,-0.36777777777777776,-0.5555555555555556,0.050580911350490046,-0.022105904791102724,-0.013606070960090009
1592167879.0094528,0.2533656545036999,8.474824978542765,4.694571899139391,-0.4866666666666667,-0.37333333333333335,-0.5511111111111111,0.050638749067778474,-0.023471953702988876,0.0001697646366134386
1592167879.0194528,0.15,8.549660688088592,4.61033931191141,-0.4866666666666667,-0.37333333333333335,-0.5511111111111111,0.05707376771664517,-0.015419683706083782,-0.014439892486937373
1592167879.0294528,0.15338510042036432,8.536875291919662,4.621562354040169,-0.4866666666666667,-0.37333333333333335,-0.5511111111111111,0.03494645309627629,-0.019720167278944864,-0.02161778486390892
1592167879.0394528,0.27957181409295356,8.419904847576213,4.680142728635682,-0.4866666666666667,-0.37333333333333335,-0.5511111111111111,-0.004378892408920406,-0.022886687393846132,-0.014180800172453926
1592167879.0494528,0.204112143928036,8.403136031984008,4.705295952023988,-0.4866666666666667,-0.37333333333333335,-0.5511111111111111,-0.007122683444017789,-0.019228299347049622,-0.014180800172453926
1592167879.0594528,0.13087607227596276,8.478685891586057,4.774743566344224,-0.4866666666666667,-0.39444444444444443,-0.5844444444444444,0.003941444971907709,-0.005024112939641917,-0.03547997300367374
1592167879.0694528,0.15004331625523987,8.450108290638099,4.659906148113647,-0.4866666666666667,-0.39444444444444443,-0.5844444444444444,0.01854412330243975,0.004370410735675542,-0.04800049198856057
1592167879.0794528,0.20865020959478342,8.596625523986958,4.53292454587797,-0.4866666666666667,-0.39444444444444443,-0.5844444444444444,0.01854412330243975,0.013959941233864636,-0.053328008931998946
1592167879.0894527,0.2671665736607143,8.685749860491072,4.53,-0.4866666666666667,-0.39444444444444443,-0.5844444444444444,0.012308217474543925,0.011062847258506014,-0.01707459101293403
1592167879.0994527,0.3398033424018655,8.666732219199378,4.53,-0.4866666666666667,-0.39444444444444443,-0.5844444444444444,-0.03537912292957589,0.005832065517424892,0.032106630582086515
1592167879.1094527,0.23190155959364717,8.380316926598942,4.641478990795059,-0.4922222222222222,-0.36777777777777776,-0.5911111111111111,-0.10715493976392511,0.00879578891795504,0.07179892744714647
1592167879.1194527,0.4078555452635384,8.410204233784425,4.78,-0.4922222222222222,-0.36777777777777776,-0.5911111111111111,-0.1305877956011477,0.015349605529557138,0.05323906306839371
1592167879.1294527,0.20886248107900504,8.429155954182951,4.78,-0.4922222222222222,-0.36777777777777776,-0.5911111111111111,-0.10164542761237674,0.022585197526749874,0.03359959907601344
1592167879.1394527,0.4281240038253108,8.420875039846987,4.789124960153012,-0.4922222222222222,-0.36777777777777776,-0.5911111111111111,-0.06352741852102367,0.02489820391721748,0.05263249832281275
1592167879.1494527,0.36149638890062086,8.347587954555053,4.79,-0.4922222222222222,-0.36777777777777776,-0.5911111111111111,-0.039809541609724636,0.032988036816906485,0.05541919788254368
1592167879.1594527,0.22750406693004882,8.382329537531955,4.799500813386009,-0.4722222222222222,-0.4,-0.5844444444444444,-0.008254721885187683,0.044705911144863004,0.013763328610145033
1592167879.1694527,0.08129328375551939,8.518792935161514,4.770258656751103,-0.4722222222222222,-0.4,-0.5844444444444444,0.019390423438225522,0.043642636324731726,-0.01069199225287434
1592167879.1794527,0.17094926600888227,8.492715220197335,4.6608608807893415,-0.4722222222222222,-0.4,-0.5844444444444444,0.013682338544459365,0.015854358777632967,-0.01388461559520298
1592167879.1894526,0.11716056418293204,8.418183501923352,4.703862373557487,-0.4722222222222222,-0.4,-0.5844444444444444,-0.029017590761337198,-0.0006194687988361411,-0.03376571187073051
1592167879.1994526,0.1847720183577375,8.43243160550732,4.739908807343095,-0.4722222222222222,-0.4,-0.5844444444444444,-0.04441902476561145,-0.009522387301453824,-0.05475704826000538
1592167879.2094526,0.20024386175607153,8.498536829463571,4.75,-0.4863144219078967,-0.38699181567476204,-0.6050407362927378,-0.05012501361279768,-0.015191827381891445,-0.05576537586241748
1592167879.2194526,0.3453750165351206,8.5,4.868117200934785,-0.4866666666666667,-0.38666666666666666,-0.6055555555555555,-0.0848674910353709,-0.018244997386996146,-0.051667881331258235
1592167879.2294526,0.3422761482731941,8.455690370682985,4.9243096293170145,-0.4866666666666667,-0.38666666666666666,-0.6055555555555555,-0.10865770258261595,-0.026277612521640903,-0.034835382186530976
1592167879.2394526,0.3,8.3,4.96,-0.4866666666666667,-0.38666666666666666,-0.6055555555555555,-0.10035643198967394,-0.02181661564992912,0.02181661564992912
1592167879.2494526,0.25255133614627284,8.306778380550533,5.102345991561181,-0.4866666666666667,-0.38666666666666666,-0.6055555555555555,-0.0744772004296877,-0.019598395801930298,-0.0048020225260567324
1592167879.2594526,0.14076540900721865,8.319914954554754,5.209659818219014,-0.47234506564313383,-0.3800566969634977,-0.6264871262822574,0.00487897873704899,-0.008810139430599061,-0.031513491445935404
1592167879.2694526,0.17048176105600127,8.312379559736,5.103313836303996,-0.4722222222222222,-0.38,-0.6266666666666667,0.0495109912380612,-0.008726646259971648,-0.01833391538656208
1592167879.2794526,0.23277085424674973,8.397951423744583,4.92048257963421,-0.4722222222222222,-0.38,-0.6266666666666667,0.08821261668488944,-0.008726646259971648,-0.030490620637900652
1592167879.2894526,0.292136318828334,8.488204478242501,4.830484908228888,-0.4722222222222222,-0.38,-0.6266666666666667,0.10963922119330113,-0.005883051186771831,-0.013767622986894903
1592167879.2994525,0.3626460769744352,8.437353923025565,4.804338480756391,-0.4722222222222222,-0.38,-0.6266666666666667,0.10637614704507878,-0.0020373404541644624,0.005321556102045074
1592167879.3094525,0.39,8.37,4.8,-0.4722222222222222,-0.38666666666666666,-0.6266666666666667,0.08617563181722002,0.025089107997418484,0.01854412330243975
1592167879.3194525,0.23642181729637596,8.491582727973702,4.7744036362160625,-0.4722222222222222,-0.38666666666666666,-0.6266666666666667,0.09175989212431927,0.03974779130355405,0.006677570149853818
1592167879.3294525,0.15,8.627244490760745,4.650727702513789,-0.4722222222222222,-0.38666666666666666,-0.6266666666666667,0.11140655918409355,0.056248694983294996,-0.0009169045059389929
1592167879.3394525,0.1669869276376884,8.427663404528895,4.570545753268091,-0.4722222222222222,-0.38666666666666666,-0.6266666666666667,0.09415438223817453,0.05596104511558913,0.03596889635196419
1592167879.3494525,0.08011473277552368,8.403828502649919,4.6429710158995166,-0.4722222222222222,-0.38666666666666666,-0.6266666666666667,0.056598703122882496,0.06015773681722903,-0.0034654964000543076
1592167879.3594525,0.07386375455018201,8.604716588663546,4.815455018200728,-0.45623100479574735,-0.3979545848500607,-0.6332512856069799,0.053456948143994286,0.05386593878059332,-0.0461620527394678
1592167879.3694525,0.12426672057844163,8.507199838264675,4.7603199029588055,-0.4533333333333333,-0.4,-0.6344444444444445,0.07011862034145928,0.031113376923091164,0.002938035597009822
1592167879.3794525,0.15489794093317535,8.382108922622907,4.667006863556082,-0.4533333333333333,-0.4,-0.6344444444444445,0.04211944721501126,0.01930845354801245,0.020681253198742585
1592167879.3894525,0.22675934477227433,8.518553443834152,4.758483935254946,-0.4533333333333333,-0.4,-0.6344444444444445,0.047831177420627785,0.0256458967033435,-0.007132102240041838
1592167879.3994524,0.2736155921694701,8.597061829037258,4.840508065905047,-0.4533333333333333,-0.4,-0.6344444444444445,0.07071281271260768,0.03900482482970895,-0.010156455573133084
1592167879.4094524,0.39497145101356457,8.537522431346485,4.922485725506783,-0.4624975076281683,-0.40499864052445544,-0.6394430849688999,0.07008876954305278,0.04881356529838737,0.01908197560905056
1592167879.4194524,0.3908911351225747,8.361386313465784,5.010395956779366,-0.46555555555555556,-0.4066666666666667,-0.6411111111111111,0.0588616700704616,0.054444331362515974,0.05054540025683868
1592167879.4294524,0.3640057948239454,8.335994205176055,4.7900869223591815,-0.46555555555555556,-0.4066666666666667,-0.6411111111111111,0.10034062905882699,0.06697290128326219,0.06719138349837842
1592167879.4394524,0.35199990528509184,8.476001610153437,4.681999431710551,-0.46555555555555556,-0.4066666666666667,-0.6411111111111111,0.15489848770418346,0.09075736906675476,0.05846839562849149
1592167879.4494524,0.2527249143321782,8.574850057111881,4.657029988577624,-0.46555555555555556,-0.4066666666666667,-0.6411111111111111,0.17853955787743409,0.10518936587044625,0.041484282198460606
1592167879.4594524,0.23238970588235294,8.512830882352942,4.690487132352941,-0.46555555555555556,-0.39676981209150325,-0.6411111111111111,0.17749160317659016,0.11017390903214205,0.04883172174769291
1592167879.4694524,0.1126625256865309,8.48151083504577,4.7,-0.46555555555555556,-0.39444444444444443,-0.6411111111111111,0.14599098014267953,0.10832186054218894,0.05328590180480644
1592167879.4794524,0.0505443463172647,8.464217738526907,4.581633038951794,-0.46555555555555556,-0.39444444444444443,-0.6411111111111111,0.13985638211042986,0.09852357031940673,0.037956509373293305
1592167879.4894524,0.09354406220546654,8.46,4.504105089538172,-0.46555555555555556,-0.39444444444444443,-0.6411111111111111,0.1604861656144135,0.08764917867774127,0.029643789166416704
1592167879.4994524,0.10372982091367372,8.623024656244484,4.49,-0.46555555555555556,-0.39444444444444443,-0.6411111111111111,0.174420784517001,0.0796130375474194,0.011262339447082336
1592167879.5094523,0.13645266940125284,8.690837864478997,4.497290533880251,-0.44611413187488735,-0.40821545288491773,-0.6257199840305822,0.17094350955200813,0.05806685558670743,0.009838843437648166
1592167879.5194523,0.2536563603397271,8.60026433820021,4.523920698539937,-0.4388888888888889,-0.41333333333333333,-0.62,0.1331966947628791,0.03909211076778214,0.019178437394733114
1592167879.5294523,0.23441880535998183,8.542015671133317,4.476821939586645,-0.4388888888888889,-0.41333333333333333,-0.62,0.10032271360005374,0.031025278800753616,0.0058093738025443795
1592167879.5394523,0.22749982064710525,8.567499103235527,4.4000014348231575,-0.4388888888888889,-0.41333333333333333,-0.62,0.10908268696232853,0.024543809992365377,0.001090830782496456
1592167879.5494523,0.196472999591844,8.630290500612235,4.374412166598641,-0.4388888888888889,-0.41333333333333333,-0.62,0.12002307477562606,0.019859756091593257,-0.00012824535383647176
1592167879.5594523,0.15705128691103445,8.74121792198931,4.357051286911034,-0.43097578644563217,-0.42196580872597705,-0.6243162376963218,0.11587979630590094,0.020278263486174973,-0.007447015456517729
1592167879.5694523,0.1739603621238072,8.692145338879373,4.310066063126988,-0.4266666666666667,-0.4266666666666667,-0.6266666666666667,0.08774170930666857,0.01658927553704691,0.0030312658093879993
1592167879.5794523,0.1954990116305797,8.62350296510826,4.261252470923551,-0.4266666666666667,-0.4266666666666667,-0.6266666666666667,0.040390651174212255,0.010199591259478308,0.014998384187432195
1592167879.5894523,0.1712234851875056,8.61,4.2787765148124945,-0.4266666666666667,-0.4266666666666667,-0.6266666666666667,0.015020719372473349,0.013435192485536767,0.019807565632725857
1592167879.5994523,0.10048632834063224,8.637051668936076,4.322462002723292,-0.4266666666666667,-0.4266666666666667,-0.6266666666666667,0.015129059817275626,0.015861806818817884,0.02013560900356516
1592167879.6094522,0.10381875741986546,8.63981796596755,4.518183616937079,-0.4176968737633558,-0.42292925295695377,-0.6221817702150112,0.008627362096942688,0.00388719081772085,0.021102633016668676
1592167879.6194522,0.09172115384615384,8.61298717948718,4.642532051282052,-0.41333333333333333,-0.4211111111111111,-0.62,-0.008326325347805481,-0.01146071572122879,0.02181661564992912
1592167879.6294522,0.07051299060254285,8.597628247650636,4.654230514096185,-0.41333333333333333,-0.4211111111111111,-0.62,-0.02566250268568597,-0.048961659276381145,0.042619434034478376
1592167879.6394522,0.23392860611947547,8.462274405050996,4.607593977659057,-0.41333333333333333,-0.4211111111111111,-0.62,-0.012923881264502085,-0.07439794404369951,0.06587839139853013
1592167879.6494522,0.25436530745809977,8.43625387701676,4.61250775403352,-0.41333333333333333,-0.4211111111111111,-0.62,-0.008111996652510849,-0.07717543202777902,0.05889809558404676
1592167879.6594522,0.17136960087479497,8.565497197922362,4.585290800984144,-0.4092808000728996,-0.4163831556406051,-0.62,0.02282353923958114,-0.06290389173945074,0.015013758915813205
1592167879.6694522,0.24481388895259498,8.66795037038736,4.570962777790519,-0.4066666666666667,-0.41333333333333333,-0.62,0.06398981036291775,-0.054107913687283835,-0.006965075755219556
1592167879.6794522,0.29,8.567876620691333,4.565984577586416,-0.4066666666666667,-0.41333333333333333,-0.62,0.04436400752282528,-0.05421513105224772,-0.018552534924178334
1592167879.6894522,0.3106987570411061,8.47170290023742,4.594497928401844,-0.4066666666666667,-0.41333333333333333,-0.62,0.021849928111793916,-0.04927314281219025,-0.032353408275194215
1592167879.6994522,0.29769317694735614,8.461153411526322,4.615576705763162,-0.4066666666666667,-0.41333333333333333,-0.62,0.041786261765468805,-0.044472426722795055,-0.042563164685122744
1592167879.7094522,0.2915358095752016,8.562286476601614,4.591160476061996,-0.4182024762418683,-0.42102387305013445,-0.6334584445044018,0.09317474509320209,-0.044429942945208876,-0.05508507416801834
1592167879.7194521,0.24448401416529503,8.699394982293382,4.45896802833059,-0.4266666666666667,-0.4266666666666667,-0.6433333333333333,0.13261551212276831,-0.04959980200667199,-0.05427368736452403
1592167879.7294521,0.3004473666372941,8.74340789443955,4.3496644750220295,-0.4266666666666667,-0.4266666666666667,-0.6433333333333333,0.13158218096882865,-0.058581918768895,-0.03956845159083492
1592167879.7394521,0.34651294016809125,8.691383538487178,4.32,-0.4266666666666667,-0.4266666666666667,-0.6433333333333333,0.10489275156836834,-0.07070277334619186,-0.013923110521637763
1592167879.749452,0.286127447157008,8.542900319787847,4.378549840106076,-0.4266666666666667,-0.4266666666666667,-0.6433333333333333,0.0811082587125709,-0.07817041344216243,-0.0026918744575079746
1592167879.759452,0.4121452879581152,8.598642670157068,4.359492146596859,-0.4188324607329843,-0.42209671320535197,-0.6348462769051775,0.08756829719058003,-0.08200334685306931,-0.002181661564992912
1592167879.769452,0.5125200206060039,8.696260010303002,4.303130005151501,-0.41333333333333333,-0.41888888888888887,-0.6288888888888889,0.11725120566238108,-0.08440193984099763,-0.01791906546329605
1592167879.779452,0.3717040429209599,8.65792601073024,4.287170404292096,-0.41333333333333333,-0.41888888888888887,-0.6288888888888889,0.094656720551727,-0.07039013721329915,-0.046081484885167646
1592167879.789452,0.2322121248072132,8.590699727132519,4.409413216277139,-0.41333333333333333,-0.41888888888888887,-0.6288888888888889,0.03240969680269,-0.04873279079496713,-0.09478658194247203
1592167879.799452,0.1849320537277036,8.595475623906076,4.530543570178372,-0.41333333333333333,-0.41888888888888887,-0.6288888888888889,0.0076802862087012765,-0.02764571381729297,-0.12554930502661996
1592167879.809452,0.2243497698882314,8.696524654832347,4.547825115055884,-0.41333333333333333,-0.42196873402001606,-0.6251930747315363,0.04356352140369871,-0.014062178600182452,-0.11493957014304865
1592167879.819452,0.22648840723426358,8.763404637106294,4.389251310383908,-0.41333333333333333,-0.42444444444444446,-0.6222222222222222,0.07273760823652124,-0.01820773616426659,-0.06818761226544522
1592167879.829452,0.26014069361053854,8.751197239896047,4.288662066493413,-0.41333333333333333,-0.42444444444444446,-0.6222222222222222,0.05571692664420064,-0.033032162577804905,-0.02501237153678046
1592167879.839452,0.33901442126463394,8.680093485121002,4.310845351053861,-0.41333333333333333,-0.42444444444444446,-0.6222222222222222,0.0349218815070409,-0.054024384602806286,0.009095500240598886
1592167879.849452,0.420326444011244,8.580712123986258,4.37860537000937,-0.41333333333333333,-0.42444444444444446,-0.6222222222222222,0.018660644317214276,-0.07669156371589794,0.03866138604028366
1592167879.859452,0.45329580348004095,8.514431934493347,4.436704196519959,-0.402815876265211,-0.42444444444444446,-0.6259342658933242,0.009941409710694415,-0.09053895494720585,0.035464840302167275
1592167879.869452,0.44381211180124225,8.551933229813665,4.43284549689441,-0.39444444444444443,-0.42444444444444446,-0.6288888888888889,0.021304230072747163,-0.0867964229380041,0.007732364164745839
1592167879.879452,0.4003248373241429,8.762550088732285,4.311174866901571,-0.39444444444444443,-0.42444444444444446,-0.6288888888888889,0.09267160333411636,-0.06972044623686403,-0.04646395976521522
1592167879.889452,0.3213993085156768,8.68131737235957,4.212798617031353,-0.39444444444444443,-0.42444444444444446,-0.6288888888888889,0.09878086502186097,-0.066226458123534,-0.05407467863576202
1592167879.899452,0.218408852998355,8.67139225362644,4.144502766561986,-0.39444444444444443,-0.42444444444444446,-0.6288888888888889,0.07282531160793185,-0.06324648948318355,-0.06344175259768157
1592167879.909452,0.14,8.813040804560886,4.0652193965793355,-0.38971031822290547,-0.4318837856497199,-0.6160391177161403,0.07393884568613654,-0.06483319320207541,-0.08129026674398705
1592167879.919452,0.16327467422542422,8.886184008503601,4.0329093342781785,-0.38666666666666666,-0.43666666666666665,-0.6077777777777778,0.077190674972755,-0.07003162825821338,-0.08790118087715822
1592167879.929452,0.18046631268436578,8.837046607669617,4.130362713864307,-0.38666666666666666,-0.43666666666666665,-0.6077777777777778,0.011518709701414262,-0.08778079414034842,-0.08636779823117485
1592167879.939452,0.21661512691663445,8.731832238113645,4.339286174462054,-0.38666666666666666,-0.43666666666666665,-0.6077777777777778,-0.07130050049342831,-0.1087748458174829,-0.05757003169929144
1592167879.949452,0.2266166571183042,8.7247690489831,4.487228587797192,-0.38666666666666666,-0.43666666666666665,-0.6077777777777778,-0.10394760409777591,-0.13289617826821215,-0.023193395020174666
1592167879.959452,0.25788114797823536,8.653068032291333,4.572627049326078,-0.3901864298951678,-0.4341525500748802,-0.6012410746391329,-0.10167839367305997,-0.15882308433235626,0.014395211130697742
1592167879.969452,0.3410360396039604,8.56,4.596114851485148,-0.39444444444444443,-0.4311111111111111,-0.5933333333333334,-0.09218379816355317,-0.17048039163971565,0.037059993007582365
1592167879.979452,0.39041017793380745,8.627666156569749,4.377128754463348,-0.39444444444444443,-0.4311111111111111,-0.5933333333333334,-0.04530883667232923,-0.17762644366032312,0.014989292120677438
1592167879.989452,0.41722920696324955,8.698614603481625,4.308564232753062,-0.39444444444444443,-0.4311111111111111,-0.5933333333333334,-0.016340483360945863,-0.17218915112936883,-0.005459648506607524
1592167879.9994519,0.5237927115412817,8.666560346091803,4.349305250036662,-0.39444444444444443,-0.4311111111111111,-0.5933333333333334,-0.006731348950970578,-0.15850963840942534,-0.015308903806148752
1592167880.0094519,0.5481738445968739,8.508797181303647,4.426971025900521,-0.392761681055845,-0.4311111111111111,-0.591314017267014,-0.041084770269001696,-0.14207519986403527,-0.025351522329367295
1592167880.0194519,0.6258006389776358,8.531601277955271,4.425966773162939,-0.3888888888888889,-0.4311111111111111,-0.5866666666666667,-0.02917557618375729,-0.10745010805333077,-0.044458777612183344
1592167880.0294518,0.6401540012094336,8.595472283813747,4.418747429953638,-0.3888888888888889,-0.4311111111111111,-0.5866666666666667,-0.0032198527810048585,-0.08966875299098574,-0.052326279707871515
1592167880.0394518,0.595068303017021,8.669908929310639,4.400227676723403,-0.3888888888888889,-0.4311111111111111,-0.5866666666666667,0.03599244868681612,-0.053948935945688795,-0.061614554236565526
1592167880.0494518,0.5833237040319008,8.627134603455914,4.442378201151971,-0.3888888888888889,-0.4311111111111111,-0.5866666666666667,0.02326685511789109,-0.039891889539216824,-0.05282557579145695
1592167880.0594518,0.5518864011512253,8.619716002878063,4.400283997121937,-0.3888888888888889,-0.4334223557794049,-0.5902986225739855,0.017977678012286575,-0.026360274202796862,-0.039861792481532994
1592167880.0694518,0.5761455785338373,8.692312652879696,4.325952857460529,-0.3888888888888889,-0.4388888888888889,-0.5988888888888889,0.05017821599483697,-0.008726646259971648,-0.028361600344907853
1592167880.0794518,0.35069195090398514,8.83442337424668,4.090691950903985,-0.3888888888888889,-0.4388888888888889,-0.5988888888888889,0.05390806357653619,-0.006062469415900775,-0.01930339907506689
1592167880.0894518,0.3224719010269265,8.856292148459609,4.063707851540389,-0.3888888888888889,-0.4388888888888889,-0.5988888888888889,0.050129218137662496,-0.003946598780353374,-0.0055031958721384645
1592167880.0994518,0.35956064320599196,8.822175742717603,4.121297029129587,-0.3888888888888889,-0.4388888888888889,-0.5988888888888889,-0.017592481205392044,-0.012140622537495835,0.031490313517776335
1592167880.1094518,0.4619482070461045,8.760944404286747,4.235407460951004,-0.3867086401905221,-0.4410691375872557,-0.5894411445292994,-0.04995157523607384,-0.018166777238046196,0.04573247804348274
1592167880.1194518,0.6359755048332405,8.608048990333518,4.390780403866593,-0.38222222222222224,-0.44555555555555554,-0.57,-0.07530988842027837,-0.008301001979742503,0.05737502715112122
1592167880.1294518,0.7262370452304807,8.51032221607714,4.371361723615553,-0.38222222222222224,-0.44555555555555554,-0.57,-0.06190747319894824,0.029276689519624803,0.04795345839080201
1592167880.1394517,0.7255820902490838,8.562510446576558,4.405301491701099,-0.38222222222222224,-0.44555555555555554,-0.57,-0.0353380332259836,0.08213662693654847,0.01977725075399777
1592167880.1494517,0.6398743444251526,8.668087958902394,4.5001256555748474,-0.38222222222222224,-0.44555555555555554,-0.57,-0.016779604394780406,0.12374955556395101,0.00830265015418629
1592167880.1594517,0.5733207502654241,8.706660375132712,4.593396248672879,-0.3866750553786062,-0.4433291389773636,-0.5725974860078906,-0.008000112038198027,0.14507637627268455,0.022923917629801952
1592167880.1694517,0.5601082268057408,8.698809505136852,4.6609740412516665,-0.39555555555555555,-0.4388888888888889,-0.5777777777777777,-0.008644006268136373,0.14058730809773023,0.04050240750980077
1592167880.1794517,0.5790181798565032,8.549418190645735,4.709418190645736,-0.39555555555555555,-0.4388888888888889,-0.5777777777777777,0.017108189368195414,0.12576683987771284,0.053450708342326333
1592167880.1894517,0.59,8.5,4.66,-0.39555555555555555,-0.4388888888888889,-0.5777777777777777,0.039269908169872414,0.12217304763960307,0.053450708342326333
1592167880.1994517,0.6258838904432337,8.47117416433515,4.708232219113532,-0.39555555555555555,-0.4388888888888889,-0.5777777777777777,0.09657446496476106,0.13372461392758556,0.04068022981179833
1592167880.2094517,0.6428046926764626,8.455609385352924,4.672988268308844,-0.39555555555555555,-0.4388888888888889,-0.5766870639591534,0.141015887747508,0.15095351476040658,0.026525933280751212
1592167880.2194517,0.6195761225890066,8.626430586262103,4.488516429061523,-0.39555555555555555,-0.4388888888888889,-0.57,0.2117830042890832,0.17406264631897114,0.01637402120064475
1592167880.2294517,0.5779470765566266,8.760293274777625,4.345600878335628,-0.39555555555555555,-0.4388888888888889,-0.57,0.22641293302651846,0.18110990120992798,0.017901170937171362
1592167880.2394516,0.5057541690088064,8.75726250702642,4.204245830991193,-0.39555555555555555,-0.4388888888888889,-0.57,0.20265681967961469,0.17938985079142533,0.04013529650284786
1592167880.2494516,0.47415310710996333,8.74738482654001,4.180460693839958,-0.39555555555555555,-0.4388888888888889,-0.57,0.19198621771937624,0.17240151753663333,0.053400454440133055
1592167880.2594516,0.40048069843273376,8.772299708986361,4.120160232810911,-0.3903623450946476,-0.437522254557071,-0.571913288064545,0.18661945724814794,0.16555541960415068,0.058636524231247204
1592167880.2694516,0.31,8.81,4.09,-0.37444444444444447,-0.43333333333333335,-0.5777777777777777,0.17016960206944715,0.16144295580947549,0.05781403147231216
1592167880.2794516,0.23939734331817777,8.749397343318178,4.044657811060593,-0.37444444444444447,-0.43333333333333335,-0.5777777777777777,0.1165785000354328,0.1385265949773237,0.03919525412416532
1592167880.2894516,0.22,8.73,3.98,-0.37444444444444447,-0.43333333333333335,-0.5777777777777777,0.10035643198967394,0.1265363707695889,0.025089107997418484
1592167880.2994516,0.2294175480126761,8.848720743766943,4.044534572944905,-0.37444444444444447,-0.43333333333333335,-0.5777777777777777,0.07011779137499594,0.10291872440195163,0.016819102136793607
1592167880.3094516,0.36814573643410853,8.856803100775194,4.091547286821705,-0.3735279931093885,-0.43534952627045653,-0.5764947459086993,0.041867269279574834,0.09071889974605488,0.016891134144591632
1592167880.3194516,0.561966389194283,8.762190984765196,4.187078686979739,-0.3688888888888889,-0.44555555555555554,-0.57,0.013834550916693705,0.0936521143863048,0.027111436654020993
1592167880.3294516,0.68,8.73,4.23,-0.3688888888888889,-0.44555555555555554,-0.57,0.01090830782496456,0.09599310885968812,0.02945243112740431
1592167880.3394516,0.6692226809940246,8.68231092760239,4.2769117533916345,-0.3688888888888889,-0.44555555555555554,-0.57,0.026597018669542304,0.09968497505018532,0.035073875786413626
1592167880.3494515,0.7032330786419664,8.663533842716067,4.345864629135732,-0.3688888888888889,-0.44555555555555554,-0.57,0.04410892174362728,0.0992984094782073,0.037440920775368376
1592167880.3594515,0.6911913104414856,8.661969166082692,4.388030833917309,-0.3688888888888889,-0.44555555555555554,-0.565250330919567,0.06463038612369332,0.09633786336768105,0.03724648204424654
1592167880.3694515,0.6,8.72,4.33,-0.3688888888888889,-0.44555555555555554,-0.5422222222222223,0.0818123086872342,0.09272061651219875,0.032724923474893676
1592167880.3794515,0.6198316424055286,8.69983164240553,4.220673430377885,-0.3688888888888889,-0.44555555555555554,-0.5422222222222223,0.08436982382282703,0.0991921413485709,0.028059206632914526
1592167880.3894515,0.6098413431560472,8.7132980762569,4.176860580587054,-0.3688888888888889,-0.44555555555555554,-0.5422222222222223,0.08436527241391426,0.11274417953574586,0.015242786326744143
1592167880.3994515,0.5188278728873817,8.707193567795219,4.2380107203413,-0.3688888888888889,-0.44555555555555554,-0.5422222222222223,0.09275933823061697,0.1232193096645365,0.0017476680676522553
1592167880.4094515,0.4191159912158115,8.730491115991216,4.199901776801757,-0.3689434573323573,-0.44569743350857344,-0.5423422727978529,0.11028105392034095,0.1264399403702099,-0.00661998611671796
1592167880.4194515,0.33,8.78,4.19,-0.37444444444444447,-0.46,-0.5544444444444444,0.12108221685710661,0.11671889372712078,-0.014180800172453926
1592167880.4294515,0.20395489670398992,8.822020816905852,4.109913262892288,-0.37444444444444447,-0.46,-0.5544444444444444,0.11213134904818277,0.08463635793681917,-0.01614391711891924
1592167880.4394515,0.09194092929489205,8.87,3.914029535352554,-0.37444444444444447,-0.46,-0.5544444444444444,0.08718591742037206,0.04089925236361077,-0.013073860354088588
1592167880.4494514,0.08,8.87,3.92,-0.37444444444444447,-0.46,-0.5544444444444444,0.07090400086226964,0.017453292519943295,-0.009817477042468103
1592167880.4594514,0.09456047748589061,8.887719761257054,3.9245604774858904,-0.3753312039555899,-0.45835316090787287,-0.5572314029080442,0.030209090069633772,-0.015921948401025964,-0.0064206169643664475
1592167880.4694514,0.13,8.87,3.96,-0.38222222222222224,-0.44555555555555554,-0.5788888888888889,0.002181661564992912,-0.02945243112740431,-0.00545415391248228
1592167880.4794514,0.19313112993676174,8.820606610189715,3.960606610189715,-0.38222222222222224,-0.44555555555555554,-0.5788888888888889,-0.03123706725164705,-0.02787700648147977,-0.010842136918172865
1592167880.4894514,0.19393147020844864,8.790897205312673,3.976411178749308,-0.38222222222222224,-0.44555555555555554,-0.5788888888888889,-0.05001985336325153,-0.015663110624263583,-0.01606885198546194
1592167880.4994514,0.15243997181520894,8.767879997831939,4.083320023848669,-0.38222222222222224,-0.44555555555555554,-0.5788888888888889,-0.062177354602297986,-0.004926190158262735,-0.024526240969141577
1592167880.5094514,0.053927080886736894,8.760302083145133,4.16667708540353,-0.38222222222222224,-0.44555555555555554,-0.5788888888888889,-0.062177354602297986,0.0008601656669868975,-0.03031259679439121
1592167880.5194514,0.0,8.75,4.25,-0.37444444444444447,-0.4533333333333333,-0.57,-0.053450708342326333,-0.001090830782496456,-0.031634092692397225
1592167880.5294514,0.059641269449246734,8.761928253889849,4.2503587305507535,-0.37444444444444447,-0.4533333333333333,-0.57,-0.056894409127028964,-0.016112990434756863,-0.024037408647660387
1592167880.5394514,0.1,8.77,4.21,-0.37444444444444447,-0.4533333333333333,-0.57,-0.062177354602297986,-0.019634954084936207,-0.019634954084936207
1592167880.5494514,0.15435641970450398,8.698118806568168,4.333168354022824,-0.37444444444444447,-0.4533333333333333,-0.57,-0.062101746093691144,-0.010627492946030473,-0.02543472180721278
1592167880.5594513,0.13184917540156693,8.690616391800521,4.385685257396344,-0.37444444444444447,-0.4533333333333333,-0.57,-0.05309949462492684,-0.0008068549801057735,-0.031163427287335524
1592167880.5694513,0.06413675765629269,8.653232905292963,4.43,-0.3688888888888889,-0.44555555555555554,-0.5777777777777777,-0.014862105427083862,0.028484200610445137,-0.03237226821384766
1592167880.5794513,0.01,8.66,4.43,-0.3688888888888889,-0.44555555555555554,-0.5777777777777777,0.006544984694978735,0.044724062082354694,-0.031634092692397225
1592167880.5894513,-0.029157278712509144,8.66,4.341896122896855,-0.3688888888888889,-0.44555555555555554,-0.5777777777777777,0.031105514557557685,0.06928459194493364,-0.019887752323337726
1592167880.5994513,-0.05172382886096325,8.714965702683422,4.356689531544386,-0.3688888888888889,-0.44555555555555554,-0.5777777777777777,0.06052240214421317,0.06836870572142598,-0.005288560895160981
1592167880.6094513,-0.013362966214856685,8.737982220271086,4.341345186485943,-0.3688888888888889,-0.44555555555555554,-0.5777777777777777,0.07307596508946063,0.06167347215062734,0.005591193657386806
1592167880.6194513,0.04561847880837591,8.718427718212565,4.26,-0.3688888888888889,-0.4533333333333333,-0.5633333333333334,0.08068489971198799,0.04960191322408868,0.013224900534457105
1592167880.6294513,0.06266334231205895,8.745326684624118,4.230703234567351,-0.3688888888888889,-0.4533333333333333,-0.5633333333333334,0.08791878528421153,0.04312345167302562,0.016943512893110673
1592167880.6394513,0.07,8.76,4.162722038697499,-0.3688888888888889,-0.4533333333333333,-0.5633333333333334,0.09248932332174303,0.045880528034633265,0.019006709683351178
1592167880.6494513,0.07,8.758460083579509,4.211539916420492,-0.3688888888888889,-0.4533333333333333,-0.5633333333333334,0.09196574337649106,0.050010237171442595,0.020725784867432664
1592167880.6594512,0.07,8.750904964334607,4.219095035665394,-0.3688888888888889,-0.4533333333333333,-0.5633333333333334,0.09361401470404523,0.04918610150766551,0.020725784867432664
1592167880.6694512,0.07710704639150832,8.725785907216984,4.261321139174525,-0.3688888888888889,-0.44555555555555554,-0.5722222222222222,0.09883325942331736,0.04923149914029389,0.022132187934776813
1592167880.6794512,0.07,8.763714298317197,4.166222183013167,-0.3688888888888889,-0.44555555555555554,-0.5722222222222222,0.10954711618733536,0.044031469581825196,0.022620021025873335
1592167880.6894512,0.07436875590873088,8.838737511817461,3.944709354319442,-0.3688888888888889,-0.44555555555555554,-0.5722222222222222,0.1197531074032873,0.03218495708121752,0.020625222293314892
1592167880.6994512,0.08793056314926188,8.876208310552213,3.892069436850738,-0.3688888888888889,-0.44555555555555554,-0.5722222222222222,0.11325704174406956,0.0162867178832221,0.015459499569759777
1592167880.7094512,0.08028649535265173,8.899140513942045,3.899713504647348,-0.3688888888888889,-0.44555555555555554,-0.5722222222222222,0.092411080603989,0.007948333427189869,0.012124145787346885
1592167880.7194512,0.09,8.89,3.9,-0.3688888888888889,-0.46555555555555556,-0.5644444444444444,0.056723200689815706,-0.004363323129985824,0.00545415391248228
1592167880.7294512,0.05289456819871319,8.87565814770193,3.9156581477019303,-0.3688888888888889,-0.46555555555555556,-0.5644444444444444,0.023180328891382867,-0.011999138607461015,0.001865913155673746
1592167880.7394512,0.0680374751195406,8.84803747511954,3.903737674163216,-0.3688888888888889,-0.46555555555555556,-0.5644444444444444,0.0011725888104416934,-0.011356903842154927,0.0006422347653060878
1592167880.7494512,0.05627155133093722,8.835028735107917,3.9674568973381255,-0.3688888888888889,-0.46555555555555556,-0.5644444444444444,-0.017175883053281164,-0.00899778669858309,0.003408062566795088
1592167880.7594512,0.033314663115068144,8.804419550820091,4.013370673769863,-0.3688888888888889,-0.46555555555555556,-0.5644444444444444,-0.02218429912052119,-0.010667258720996432,0.00424279857800176
1592167880.7694511,0.03584119515351135,8.84,4.003894130102341,-0.3622222222222222,-0.46,-0.5866666666666667,-0.03309196410190848,-0.022424919662104477,0.007848207326809168
1592167880.7794511,0.06531963312874974,8.841773211042916,4.007587522699583,-0.3622222222222222,-0.46,-0.5866666666666667,-0.047501777678810336,-0.02945243112740431,0.008146364303128832
1592167880.7894511,0.09143546919829255,8.84425812320683,3.9629192227846333,-0.3622222222222222,-0.46,-0.5866666666666667,-0.06732887173637499,-0.029295845728522008,0.00608049550801149
1592167880.799451,0.10097396425443093,8.807078107236707,4.046817749781017,-0.3622222222222222,-0.46,-0.5866666666666667,-0.08002721860544307,-0.027936628268994068,0.009498747985532765
1592167880.809451,0.10879083810127291,8.783627485696181,4.101535866708911,-0.3622222222222222,-0.46,-0.5866666666666667,-0.09196485986648048,-0.024525873622983384,0.00694068200102475
1592167880.819451,0.07558762591983997,8.771470791360052,4.1597044604796265,-0.3622222222222222,-0.44555555555555554,-0.5511111111111111,-0.10003555509163874,-0.014822553968524332,0.0014117076805316591
1592167880.829451,0.05281527082280517,8.78,4.097184729177195,-0.3622222222222222,-0.44555555555555554,-0.5511111111111111,-0.09786767201722303,-0.02007961533972975,0.002965393940031368
1592167880.839451,0.06891576054486798,8.78,4.0875896761859245,-0.3622222222222222,-0.44555555555555554,-0.5511111111111111,-0.09634792539166469,-0.030516880723334,0.0012091029598219768
1592167880.849451,0.06166188598063822,8.780830942990319,4.154154714951596,-0.3622222222222222,-0.44555555555555554,-0.5511111111111111,-0.09990009394181532,-0.04008568454297818,0.0019097361072909897
1592167880.859451,0.07670060953746863,8.788350304768734,4.191751523843672,-0.3622222222222222,-0.44555555555555554,-0.5511111111111111,-0.10564173984665112,-0.04746780070633852,-0.0005509692804957899
1592167880.869451,0.10783579786855285,8.747835797868554,4.27,-0.38222222222222224,-0.44555555555555554,-0.5577777777777778,-0.11029194794736841,-0.05138708569255978,-0.005572192827708629
1592167880.879451,0.09103920496421863,8.73,4.260647155322032,-0.38222222222222224,-0.44555555555555554,-0.5577777777777778,-0.11013114305034569,-0.052473237236259164,-0.006658344371408017
1592167880.889451,0.1010100698237781,8.726969790528667,4.192120837885336,-0.38222222222222224,-0.44555555555555554,-0.5577777777777778,-0.0996953428359252,-0.052789619188577594,-0.007745997003099982
1592167880.899451,0.11073157207505321,8.698536855849893,4.301463144150106,-0.38222222222222224,-0.44555555555555554,-0.5577777777777778,-0.09341243662515379,-0.0464269108438979,-0.009285261197329645
1592167880.909451,0.11823385264814781,8.683532294703705,4.316467705296295,-0.38222222222222224,-0.44555555555555554,-0.5577777777777778,-0.08932057733112542,-0.041516679691063846,-0.015013864208969364
1592167880.919451,0.0785153037916857,8.674454088624943,4.3285153037916855,-0.37444444444444447,-0.46,-0.5722222222222222,-0.07283799550222796,-0.03583546058971454,-0.01886803376777675
1592167880.929451,0.07443892818280741,8.70591857091041,4.306683215451578,-0.37444444444444447,-0.46,-0.5722222222222222,-0.0582592463210623,-0.03555220097363291,-0.020564380883996085
1592167880.939451,0.09899832210908589,8.736994966327257,4.241018456800056,-0.37444444444444447,-0.46,-0.5722222222222222,-0.05486933744808937,-0.03905137595436137,-0.019853486300447254
1592167880.949451,0.09049983899245054,8.708500483022648,4.343498872947154,-0.37444444444444447,-0.46,-0.5722222222222222,-0.05770498352046075,-0.03697919865302809,-0.02154399577030059
1592167880.959451,0.09800332748935561,8.685990017531934,4.39602329242549,-0.37444444444444447,-0.46,-0.5722222222222222,-0.05606797627475432,-0.035342191407321664,-0.01745147765603453
1592167880.969451,0.10545846153846154,8.68,4.423944615384615,-0.38222222222222224,-0.46,-0.5933333333333334,-0.040330531330699734,-0.02201665723342693,-0.016692731734362688
1592167880.979451,0.07589680810440486,8.677264538736269,4.376322693681349,-0.38222222222222224,-0.46,-0.5933333333333334,-0.01823590522896499,-0.009416345149562839,-0.01794733823227906
