time,acc_x,acc_y,acc_z,mag_x,mag_y,mag_z,gyr_x,gyr_y,gyr_z
1592167794.889533,0.0790426213177743,9.224521310658888,2.933829514728903,-0.3888888888888889,-0.6022222222222222,-0.41888888888888887,-0.009579638830908064,0.007949116918598498,-0.0038701246455914804
1592167794.899533,0.0640194694749032,9.214019469474904,2.97,-0.3815793515804372,-0.6141832832724158,-0.40958584140540494,0.007603958623660019,0.01612730525891279,-0.0069728218469599385
1592167794.909533,0.08959451029320026,9.224797255146601,2.9847972551466,-0.37666666666666665,-0.6222222222222222,-0.4033333333333333,0.02628677623022807,0.019634954084936207,-0.009533711330489924
1592167794.919533,0.0783524744205471,9.215568316280365,2.9178415814018237,-0.37666666666666665,-0.6222222222222222,-0.4033333333333333,0.03841452433221632,0.021209206569399317,-0.01375310825362588
1592167794.929533,0.09836585827965139,9.21,2.93964025198939,-0.37666666666666665,-0.6222222222222222,-0.4033333333333333,0.0546020690728,0.013307469019500804,-0.02068654244704113
1592167794.939533,0.16466037666310396,9.220932075332621,3.020126414329414,-0.37666666666666665,-0.6222222222222222,-0.4033333333333333,0.07072823289775873,0.003258702683301985,-0.027677464148182757
1592167794.949533,0.2414408500761587,9.211135489954305,3.139169870167549,-0.3633916410789552,-0.6264143355657101,-0.42219784337902855,0.08786184242406447,-0.002867594506811511,-0.043294952703313405
1592167794.959533,0.4407987973978177,9.117818728455537,3.138909364227769,-0.35555555555555557,-0.6288888888888889,-0.43333333333333335,0.11961437473581871,-0.0032724923474893677,-0.07258968118118694
1592167794.969533,0.49425718559243237,9.123761975987387,3.0016853296681085,-0.35555555555555557,-0.6288888888888889,-0.43333333333333335,0.15292105253867516,-0.006382927730687412,-0.07589376786564934
1592167794.979533,0.5764012227741688,9.238534963698891,2.8231104317921285,-0.35555555555555557,-0.6288888888888889,-0.43333333333333335,0.22913348673113443,-0.01303669916680002,-0.05727557705701644
1592167794.989533,0.5731514548328552,9.288793981617001,2.783151454832855,-0.35555555555555557,-0.6288888888888889,-0.43333333333333335,0.2524658587497589,-0.012716439195775527,-0.05536925751203295
1592167794.999533,0.40462063976852597,9.333187188554895,2.6282462626587364,-0.36993815749522224,-0.624347014592152,-0.4174367732947543,0.2656715652898855,-0.005753996484105643,-0.0605953781805518
1592167795.009533,0.37711829869215663,9.342838724019117,2.5429246785965693,-0.37666666666666665,-0.6222222222222222,-0.41,0.25822192679230255,-0.004363323129985824,-0.051278422967231514
1592167795.019533,0.41416780263544756,9.381251703953172,2.409160986822762,-0.37666666666666665,-0.6222222222222222,-0.41,0.24270910561563294,-0.005136056891739855,-0.041769666755607754
1592167795.029533,0.523239538821253,9.380321293235507,2.3896787067644922,-0.37666666666666665,-0.6222222222222222,-0.41,0.2311495317661828,-0.003342587657789269,-0.04039578660751882
1592167795.039533,0.7898404076049246,9.374952122281478,2.4249521222814776,-0.37666666666666665,-0.6222222222222222,-0.41,0.19749607988696272,0.004896552340430009,-0.033829681321166184
1592167795.049533,0.7798532653872565,9.39,2.4520293469225485,-0.3719885873078977,-0.6262320045297385,-0.4113365941025054,0.16620899809964784,0.027753520038817092,-0.024203638360826257
1592167795.0595329,0.7148314606741573,9.393146067415731,2.466292134831461,-0.3688888888888889,-0.6288888888888889,-0.4122222222222222,0.15296144006242438,0.046194845159878005,-0.0227848811759653
1592167795.0695329,0.8088813651137595,9.427069339111592,2.3649553087757313,-0.3688888888888889,-0.6288888888888889,-0.4122222222222222,0.13070203252538995,0.06111946738216566,-0.011030331961793118
1592167795.0795329,0.990574617969004,9.413982442830823,2.3034956107077056,-0.3688888888888889,-0.6288888888888889,-0.4122222222222222,0.11300240830639594,0.0643059110207105,0.006660770938435659
1592167795.0895329,1.0358322509832618,9.4,2.290554833988841,-0.3688888888888889,-0.6288888888888889,-0.4122222222222222,0.09711349274542938,0.07266200143132032,0.014059754173613288
1592167795.0995328,0.8331816475182098,9.463911541638508,2.1964233686265673,-0.3688888888888889,-0.6288888888888889,-0.40512093981794367,0.08456678542546416,0.09198340264702883,0.01689874386803213
1592167795.1095328,0.5583779194315273,9.559680756570353,2.072899054287058,-0.3688888888888889,-0.6288888888888889,-0.3977777777777778,0.06509596386663147,0.1125325121387129,0.013406207155602572
1592167795.1195328,0.5157387116195064,9.55930403371463,2.0564346779048766,-0.3688888888888889,-0.6288888888888889,-0.3977777777777778,0.03401421847320617,0.1144613140173617,0.015110469080161323
1592167795.1295328,0.4634430009993082,9.466968252748098,2.1296709970020755,-0.3688888888888889,-0.6288888888888889,-0.3977777777777778,-0.06015593422612442,0.10583750239698145,0.022898474267483832
1592167795.1395328,0.5014703519202957,9.41970592961594,2.2832347742246504,-0.3688888888888889,-0.6288888888888889,-0.3977777777777778,-0.10024407098508128,0.0946777313581851,0.019506641674075304
1592167795.1495328,0.6065523846006513,9.404344761539935,2.4522076230607164,-0.37328740769116175,-0.6401993658090191,-0.4009195769222584,-0.12193992199564414,0.0798637727662002,0.01773919423278914
1592167795.1595328,0.6626852883544012,9.3936573558228,2.5253705767088026,-0.37666666666666665,-0.6488888888888888,-0.4033333333333333,-0.1331622027608152,0.06864149200102915,0.018943078933844976
1592167795.1695328,0.6644022875903519,9.328804575180705,2.554402287590352,-0.37666666666666665,-0.6488888888888888,-0.4033333333333333,-0.15136311792006418,0.05183671547467696,0.011170668671907762
1592167795.1795328,0.6674828897338403,9.293642585551332,2.5686083650190117,-0.37666666666666665,-0.6488888888888888,-0.4033333333333333,-0.15611157220559355,0.044753095601280456,0.005902099633051167
1592167795.1895328,0.8151622975082619,9.264243253654481,2.7539460292358533,-0.37666666666666665,-0.6488888888888888,-0.4033333333333333,-0.16068231791027227,0.01487360809355532,0.00043044501590999186
1592167795.1995327,0.8851962418010991,9.27,2.8240187909945043,-0.3729304102897437,-0.642483877957021,-0.3894558096476196,-0.15031033248943987,0.0002140665974514405,0.0080741975699977
1592167795.2095327,0.8623850085178876,9.27800681431005,2.833986371379898,-0.3688888888888889,-0.6355555555555555,-0.37444444444444447,-0.13551946447076074,-0.005803517093247754,0.005842541703865174
1592167795.2195327,0.7873672313230821,9.296843691569224,2.744210922892306,-0.3688888888888889,-0.6355555555555555,-0.37444444444444447,-0.08548785407410775,-0.013950718988793385,-0.025777707676487217
1592167795.2295327,0.8407416719044626,9.250898805782526,2.815663104965431,-0.3688888888888889,-0.6355555555555555,-0.37444444444444447,-0.07879966855003155,-0.020448792010029415,-0.014215081466687002
1592167795.2395327,0.9230928819913842,9.209579660772544,2.902672542763929,-0.3688888888888889,-0.6355555555555555,-0.37444444444444447,-0.08067562600789782,-0.020925610265195987,0.006528566884575079
1592167795.2495327,0.9652309803323678,9.20086141180058,2.95,-0.3665709542443801,-0.642509359489082,-0.38448882790398264,-0.0637952234622043,-0.013187344206720953,0.01465744615852419
1592167795.2595327,0.8277859376136116,9.288142708257592,2.9379643229356023,-0.3622222222222222,-0.6555555555555556,-0.4033333333333333,-0.014547080733318365,0.01335094495053874,-0.006574172925034628
1592167795.2695327,0.7491394910005806,9.289139491000581,2.8497626766015096,-0.3622222222222222,-0.6555555555555556,-0.4033333333333333,0.01657608364533122,0.03637288370445581,-0.03530794088880735
1592167795.2795327,0.5288060851145773,9.332873098401693,2.5862314654342384,-0.3622222222222222,-0.6555555555555556,-0.4033333333333333,0.041954238339239294,0.048153257638729546,-0.07034839766186465
1592167795.2895327,0.40386188136188134,9.371227623727624,2.458772376272376,-0.3622222222222222,-0.6555555555555556,-0.4033333333333333,0.05247426355360694,0.047232130541723955,-0.07968922806633463
1592167795.2995327,0.38903319838056677,9.399355465587044,2.488710931174089,-0.35899631129104814,-0.6458778227620333,-0.41784993252361674,0.05264110875104193,0.01034478552599068,-0.0440550780866763
1592167795.3095326,0.4642778876883275,9.407924212448638,2.5642147313955257,-0.35555555555555557,-0.6355555555555555,-0.43333333333333335,0.0335342066988581,-0.012911761073870126,-0.025932837635531142
1592167795.3195326,0.787588131689473,9.354323533396558,2.7283823330172066,-0.35555555555555557,-0.6355555555555555,-0.43333333333333335,-0.02821721046894267,-0.045609554795592165,-0.011970260632267977
1592167795.3295326,0.9086364731390026,9.3465454107444,2.7690002409058057,-0.35555555555555557,-0.6355555555555555,-0.43333333333333335,-0.04811559715315673,-0.048442767551665065,-0.015836886800084056
1592167795.3395326,0.8474977368041827,9.3221152105234,2.8521152105233987,-0.35555555555555557,-0.6355555555555555,-0.43333333333333335,-0.06048857918372952,-0.015554400122079686,-0.023274657393459217
1592167795.3495326,0.4470329087048832,9.253930671239589,2.7764547607382,-0.3605394958898144,-0.6430314660569437,-0.4279340646378863,-0.043532352166984055,0.03375268809750058,-0.044406682523475474
1592167795.3595326,0.03590376651548018,9.166827055807532,2.6597594162887006,-0.3688888888888889,-0.6555555555555556,-0.41888888888888887,-0.021961299693373626,0.06721092236886485,-0.06778045176735382
1592167795.3695326,0.0007733741566025958,9.317126778930657,2.462873221069343,-0.3688888888888889,-0.6555555555555556,-0.41888888888888887,0.038853973656503435,0.05992948368465653,-0.04828594589275163
1592167795.3795326,0.02972654198812457,9.365831482005088,2.407220988003393,-0.3688888888888889,-0.6555555555555556,-0.41888888888888887,0.05805751537197995,0.0398737711530333,-0.026845884429494916
1592167795.3895326,0.14871335041275263,9.351742670082551,2.4173995635259513,-0.3688888888888889,-0.6555555555555556,-0.41888888888888887,0.055579665567775924,-0.005126666618069263,-0.012756561655202982
1592167795.3995326,0.2834706680852625,9.359132332978684,2.4817353340426314,-0.3717064321907114,-0.6458954070921639,-0.42412146930655936,0.003466550331285286,-0.03745026939750022,0.007981269904393393
1592167795.4095325,0.36,9.34,2.52,-0.37666666666666665,-0.6288888888888889,-0.43333333333333335,-0.04036073895236887,-0.053450708342326333,0.031634092692397225
1592167795.4195325,0.3380033748843285,9.473993250231343,2.398347395351369,-0.37666666666666665,-0.6288888888888889,-0.43333333333333335,-0.07602961704030345,-0.05032464181322662,0.06094009800141188
1592167795.4295325,0.27332777791004975,9.4966555558201,2.2622268517416253,-0.37666666666666665,-0.6288888888888889,-0.43333333333333335,-0.11332994498029059,-0.03442076135432247,0.06569094078455116
1592167795.4395325,0.23664558102652825,9.426645581026529,2.2698734861591694,-0.37666666666666665,-0.6288888888888889,-0.43333333333333335,-0.16449444326118873,-0.025434317565985343,0.054520838346024336
1592167795.4495325,0.24246609037880384,9.42356174010823,2.242466090378804,-0.38141565347763956,-0.6300761355916321,-0.4307609654773897,-0.21779281010033427,-0.018469377360143452,0.04799655442984406
1592167795.4595325,0.2912251992338071,9.483874003830964,2.405297609194315,-0.4033333333333333,-0.6355555555555555,-0.41888888888888887,-0.26543846553340206,-0.011654195972051962,0.04703937215124039
1592167795.4695325,0.2895638015704194,9.430016281940176,2.563909503926048,-0.4033333333333333,-0.6355555555555555,-0.41888888888888887,-0.30889011066373917,-0.0072093547547927486,0.038512150459360156
1592167795.4795325,0.2787932939424509,9.219871499255417,2.727843589374069,-0.4033333333333333,-0.6355555555555555,-0.41888888888888887,-0.38640761284780156,-0.00205003035369296,0.021290090804729312
1592167795.4895325,0.26,9.14,2.85,-0.4033333333333333,-0.6355555555555555,-0.41888888888888887,-0.42433317439112134,0.0,0.01308996938995747
1592167795.4995325,0.15494038532942778,9.12124097528776,2.984272040925781,-0.4012357495496239,-0.6337576265980903,-0.4227844016300636,-0.3748631275944099,0.008101822852067824,-0.007463993540614286
1592167795.5095325,0.06,9.26,3.05,-0.39555555555555555,-0.6288888888888889,-0.43333333333333335,-0.2999784651865254,0.015271630954950384,-0.001090830782496456
1592167795.5195324,-0.05,9.199738337063177,2.9808486830779826,-0.39555555555555555,-0.6288888888888889,-0.43333333333333335,-0.21539973902851517,0.01344638130684132,-0.0005276699085582795
1592167795.5295324,-0.05,9.17,2.85,-0.39555555555555555,-0.6288888888888889,-0.43333333333333335,-0.19853120241435498,0.004363323129985824,-0.01090830782496456
1592167795.5395324,0.4052346482803243,9.331204076268273,2.857224457609641,-0.39555555555555555,-0.6288888888888889,-0.43333333333333335,-0.19508451063058446,-0.041411493718693786,0.01819850350419644
1592167795.5495324,0.6645975820379966,9.325938975244675,3.0762256764536557,-0.39393360199577815,-0.6288888888888889,-0.43684756604618435,-0.21309847193830475,-0.06176363018116462,0.03590761225191846
1592167795.5595324,0.7094291803029149,9.216917573635742,3.222511606667174,-0.3888888888888889,-0.6288888888888889,-0.4477777777777778,-0.2617993877991494,-0.04690572364734761,0.015271630954950384
1592167795.5695324,0.5182530671545416,9.014430424020663,3.3540927679724497,-0.3888888888888889,-0.6288888888888889,-0.4477777777777778,-0.23649761945277567,-0.03238063441146638,0.0185514898146655
1592167795.5795324,0.33,9.1,3.24,-0.3888888888888889,-0.6288888888888889,-0.4477777777777778,-0.20289452554434081,-0.01308996938995747,0.022907446432425576
1592167795.5895324,0.20273497791008552,9.340911659303362,3.2081766813932764,-0.3888888888888889,-0.6288888888888889,-0.4477777777777778,-0.07311162030723814,0.02968344591740228,0.00886129629872953
1592167795.5995324,0.10973336115167955,9.229200083455039,3.25216190277488,-0.39201163734149336,-0.6274476203723023,-0.45546454319957347,-0.13066386689001433,0.030602480388850394,-0.010672480815404195
1592167795.6095324,0.0012758718457612703,8.902835270768358,3.2573064927700592,-0.4033333333333333,-0.6222222222222222,-0.48333333333333334,-0.12833978281743036,0.022598166369341807,-0.009075204891067057
1592167795.6195323,0.10993030670692136,9.187693349510454,3.0022369571964673,-0.4033333333333333,-0.6222222222222222,-0.48333333333333334,-0.00965708881393084,-0.009344653406546133,0.042542400517361786
1592167795.6295323,0.14,9.32,2.9,-0.4033333333333333,-0.6222222222222222,-0.48333333333333334,0.015271630954950384,-0.025089107997418484,0.042542400517361786
1592167795.6395323,0.20103096304928772,9.305205851031767,3.052732222869658,-0.4033333333333333,-0.6222222222222222,-0.48333333333333334,-0.07014776837842476,-0.04208977445516776,-0.003421511988032546
1592167795.6495323,0.2504529408056484,9.01140641744941,3.268140641744941,-0.4082916220134905,-0.6222222222222222,-0.48064759363158155,-0.08631213179220934,-0.051548579471707004,-0.012837736690581754
1592167795.6595323,0.37692773016818665,8.970620503185005,3.2636927730168184,-0.43,-0.6222222222222222,-0.4688888888888889,0.0290384643197487,-0.03591198299128977,-0.005001394900655581
1592167795.6695323,0.358419352556999,9.148774196590667,3.1646249970527904,-0.43,-0.6222222222222222,-0.4688888888888889,0.11287723425595125,-0.0056309737938786235,-0.019828928709734933
1592167795.6795323,0.15908170749596598,9.342950711456652,2.9293112806219743,-0.43,-0.6222222222222222,-0.4688888888888889,0.11123601689759902,0.018297378243526806,-0.040757739270892226
1592167795.6895323,0.08,9.279334642769458,2.8669334642769457,-0.43,-0.6222222222222222,-0.4688888888888889,0.06607574224531748,0.028361600344907853,-0.028245902113128215
1592167795.6995323,0.0825955403750725,9.21,2.8574044596249273,-0.43,-0.6187615017221255,-0.46658174188882445,0.04517394102754939,0.02892785941257615,0.014189482108500734
1592167795.7095323,0.09,9.21,2.85,-0.43,-0.6088888888888889,-0.46,0.05890486225480862,0.030543261909900768,0.03599741582238304
1592167795.7195323,0.08669332982502302,9.333266675437443,2.623366662281279,-0.43,-0.6088888888888889,-0.46,0.04294236702056105,0.025095652121044566,0.010899582326796452
1592167795.7295322,0.06397873974180544,9.396021260258195,2.637744876901665,-0.43,-0.6088888888888889,-0.46,-0.020363832377622206,0.018110110123849412,0.030485283549694653
1592167795.7395322,0.07,9.39,2.71,-0.43,-0.6088888888888889,-0.46,-0.061086523819801536,0.017453292519943295,0.04690572364734761
1592167795.7495322,0.031281450201506085,9.25171946500538,2.931248855991394,-0.43307290077765825,-0.6021285071780408,-0.4403334350229872,-0.0984950085394699,0.017453292519943295,0.016134228152136533
1592167795.7595322,0.04250941406838379,9.154169804689461,3.099372646482904,-0.43555555555555553,-0.5966666666666667,-0.42444444444444446,-0.12098960276596829,0.01358907773563655,-0.007567381824679624
1592167795.7695322,0.12,9.18,3.08,-0.43555555555555553,-0.5966666666666667,-0.42444444444444446,-0.10690141668465267,0.006544984694978735,-0.00545415391248228
1592167795.7795322,0.2029011758955001,9.188065882736334,3.1085441164489587,-0.43555555555555553,-0.5966666666666667,-0.42444444444444446,-0.10542340510952042,0.030982609908032505,-0.04625424086298288
1592167795.7895322,0.21321511475343655,9.114643022950688,3.2807858137704122,-0.43555555555555553,-0.5966666666666667,-0.42444444444444446,-0.10682353637384567,0.058055511078933725,-0.07031180664141737
1592167795.7995322,0.015537001897533206,9.093343453510437,3.2444326375711574,-0.4382736664558296,-0.5979021716213367,-0.43111617119966267,-0.09441378459584601,0.06653736591207131,-0.06277306826302376
1592167795.8095322,-0.07,9.14,3.19,-0.4477777777777778,-0.6022222222222222,-0.45444444444444443,-0.07744898555724837,0.05126904677733343,-0.015271630954950384
1592167795.8195322,0.057679522745685316,9.18071809098274,3.114640954508629,-0.4477777777777778,-0.6022222222222222,-0.45444444444444443,-0.08494626796232885,0.04304865012117965,0.021075371321529063
1592167795.8295321,0.042431319656420816,9.15,3.137568680343579,-0.4477777777777778,-0.6022222222222222,-0.45444444444444443,-0.10281329853805526,0.0466504969660735,0.030002841094181113
1592167795.8395321,0.02,9.15,3.16,-0.4477777777777778,-0.6022222222222222,-0.45444444444444443,-0.1012436471753108,0.05395006233439823,0.03004390791782888
1592167795.8495321,0.02,9.15,3.16,-0.4477777777777778,-0.6022222222222222,-0.45444444444444443,-0.0915717910268595,0.060397966433365764,0.023596003818861348
1592167795.859532,-0.3032143796790165,9.113571240641967,3.363571240641967,-0.44222222222222224,-0.6022222222222222,-0.42444444444444446,-0.07577366839168881,0.06202135763397666,0.009661767073084984
1592167795.869532,-0.26822866061418743,9.102983667098986,3.329114330307094,-0.44222222222222224,-0.6022222222222222,-0.42444444444444446,-0.06177309186544657,0.04204152620409572,0.020171461260587997
1592167795.879532,-0.14857041065957297,9.11476213096454,3.2966674583758877,-0.44222222222222224,-0.6022222222222222,-0.42444444444444446,-0.04591868281128444,0.017453033433706567,0.013089451217484015
1592167795.889532,-0.11364054058904823,9.103441678482332,3.369476102446291,-0.44222222222222224,-0.6022222222222222,-0.42444444444444446,-0.03965618329844457,-0.0015451005142886427,-0.030314668478516653
1592167795.899532,-0.25666995710465385,8.990523718075274,3.4522826067447996,-0.44222222222222224,-0.6022222222222222,-0.42444444444444446,-0.04129850845989436,-0.008114401160087785,-0.06644582203041194
1592167795.909532,-0.3720529408732409,9.075533017165833,3.2826960152585185,-0.45444444444444443,-0.59,-0.42444444444444446,-0.011604141915278617,-0.03596665730709744,-0.05136132232319025
1592167795.919532,-0.15,9.14,3.34,-0.45444444444444443,-0.59,-0.42444444444444446,0.014180800172453926,-0.04690572364734761,-0.01854412330243975
1592167795.929532,-0.08454139876656608,9.177270699383282,3.1977270699383284,-0.45444444444444443,-0.59,-0.42444444444444446,-0.005355562619609487,-0.05553329195591602,-0.0020816102965287957
1592167795.939532,0.09288821518678278,9.102543135020753,3.2128882151867826,-0.45444444444444443,-0.59,-0.42444444444444446,-0.021445096636577444,-0.05613073229012579,0.036072700635889764
1592167795.949532,0.15327553904290114,9.118405576196373,3.283362230478549,-0.45444444444444443,-0.5920546964035579,-0.41846714581591216,-0.00014555495055889288,-0.042495117674069806,0.04541976070849101
1592167795.959532,0.12,9.16,3.3,-0.45444444444444443,-0.6022222222222222,-0.3888888888888889,0.020725784867432664,-0.015271630954950384,0.0272707695624114
1592167795.969532,-0.04760376572115031,9.193629900218195,3.117259800436392,-0.45444444444444443,-0.6022222222222222,-0.3888888888888889,0.0012176473156450549,0.0024132849293117676,-0.004990907183844568
1592167795.979532,-0.1296439681991013,9.163214656066367,3.0745235626224217,-0.45444444444444443,-0.6022222222222222,-0.3888888888888889,-0.01977773364121181,0.0017921599409628948,-0.004012658550752604
1592167795.989532,-0.06635052016098412,9.143175260080493,3.093175260080492,-0.45444444444444443,-0.6022222222222222,-0.3888888888888889,-0.024171460786833677,-0.00275294163175443,-0.009489105417476716
1592167795.999532,-0.0982003189308224,9.159100159465412,3.109100159465411,-0.45444444444444443,-0.6022222222222222,-0.3888888888888889,-0.025040029309695108,-0.0001472360631701304,-0.02425477030612108
1592167796.009532,-0.2959953211399404,9.273603431164045,3.14,-0.45444444444444443,-0.5822222222222222,-0.41,-0.06954970343607791,0.0025309655948055087,-0.06510054291997476
1592167796.019532,-0.36810146561443063,9.17676888387824,3.14,-0.45444444444444443,-0.5822222222222222,-0.41,-0.11330103926182862,-0.007842913452415893,-0.062484804090036566
1592167796.029532,-0.20456813953488373,9.119712093023256,3.1622904651162793,-0.45444444444444443,-0.5822222222222222,-0.41,-0.11575089556436498,-0.02437235606884512,-0.03777498800285535
1592167796.039532,-0.16829525895790956,9.068764669065875,3.258882021592865,-0.45444444444444443,-0.5822222222222222,-0.41,-0.06636077855457277,-0.025910431378011967,-0.06729799523845448
1592167796.049532,-0.42260463933656706,9.060561140666563,3.1850502659990614,-0.45444444444444443,-0.5822222222222222,-0.41,-0.014458542996865976,-0.02412069911740139,-0.1013029081900555
1592167796.059532,-0.49,9.22,3.04,-0.47444444444444445,-0.59,-0.4033333333333333,-0.007635815477475192,-0.042542400517361786,-0.05563236990731925
1592167796.069532,-0.24756880857119842,9.27473241857093,3.07473241857093,-0.47444444444444445,-0.59,-0.4033333333333333,-0.038370055521740686,-0.06685007988462961,-0.028803603419687573
1592167796.079532,-0.18268588520690549,9.145611531124143,2.964628229586189,-0.47444444444444445,-0.59,-0.4033333333333333,-0.0717541546912244,-0.0746552009035402,-0.03719550816348716
1592167796.089532,-0.1344507239880732,9.12443942080954,3.05,-0.47444444444444445,-0.59,-0.4033333333333333,-0.09005345627414728,-0.07696471986969805,-0.022425646715891756
1592167796.099532,-0.09358096388829341,9.157135228889365,3.05,-0.47444444444444445,-0.59,-0.4033333333333333,-0.0945116555131558,-0.07339816047849125,-0.002809570064254266
1592167796.1095319,-0.22389856810326583,9.350734287931155,3.0623542827584584,-0.4688888888888889,-0.5755555555555556,-0.3888888888888889,-0.1184364822118078,-0.06393374835782077,0.006713440094086133
1592167796.1195319,-0.29860067860067857,9.274812214812215,3.1453925353925354,-0.4688888888888889,-0.5755555555555556,-0.3888888888888889,-0.1847822931238442,-0.05532708533592209,0.006262034906187974
1592167796.1295319,-0.2926711976109566,9.106644011945216,3.2533559880547833,-0.4688888888888889,-0.5755555555555556,-0.3888888888888889,-0.24019945555766803,-0.052285178510261335,-0.0036385738550741634
1592167796.1395319,-0.31327821511926895,9.03475196803671,3.3531128604770757,-0.4688888888888889,-0.5755555555555556,-0.3888888888888889,-0.2266614667165015,-0.04293607310048276,-0.014877958371829406
1592167796.1495318,-0.3298702480319633,9.109416116143834,3.4194809921278533,-0.4688888888888889,-0.5755555555555556,-0.3888888888888889,-0.18684344617670662,-0.033886522977802105,-0.023927508494510058
1592167796.1595318,-0.28921500155468916,9.08129350139922,3.4987064986007796,-0.4688888888888889,-0.5688888888888889,-0.38222222222222224,-0.17221016452009288,-0.025273022135183502,-0.027540313747012102
1592167796.1695318,-0.21,9.01,3.57,-0.4688888888888889,-0.5688888888888889,-0.38222222222222224,-0.17998707911191522,-0.02181661564992912,-0.032724923474893676
1592167796.1795318,-0.24521281464530892,8.97240122044241,3.5127963386727687,-0.4688888888888889,-0.5688888888888889,-0.38222222222222224,-0.14830655746630422,-0.008028714253596341,-0.04083983915417014
1592167796.1895318,-0.40656681637945613,9.010676338488716,3.447594196906771,-0.4688888888888889,-0.5688888888888889,-0.38222222222222224,-0.1046842707815375,-0.011660120708058117,-0.019790933477641288
1592167796.1995318,-0.2725711762163381,9.128907785691467,3.3766553285851204,-0.4688888888888889,-0.5688888888888889,-0.38222222222222224,-0.0857685971449172,-0.015959137443653633,0.029217857308147605
1592167796.2095318,-0.2933838501231928,9.173939379852168,3.3766919250615963,-0.4811111111111111,-0.5755555555555556,-0.37666666666666665,-0.10103407467232468,-0.01599334094967353,0.02675565361761111
1592167796.2195318,-0.3821689148472628,9.060239883187318,3.4243378296945255,-0.4811111111111111,-0.5755555555555556,-0.37666666666666665,-0.14320138597605103,-0.005953504924976775,0.015534390059444094
1592167796.2295318,-0.4031887714148109,8.978405614292596,3.463188771414811,-0.4811111111111111,-0.5755555555555556,-0.37666666666666665,-0.16136365086301507,-0.00022122827809132781,0.00820488475732857
1592167796.2395318,-0.44,8.96114197077997,3.4996193430733435,-0.4811111111111111,-0.5755555555555556,-0.37666666666666665,-0.13368513431552453,0.009568337666567683,0.00259689385816028
1592167796.2495317,-0.44,8.98751734546293,3.490827551512357,-0.4811111111111111,-0.5755555555555556,-0.37666666666666665,-0.09724177821705982,0.0038141235457574635,0.012187250726177311
1592167796.2595317,-0.3256439089692102,9.094554886211512,3.6108902275769745,-0.4811111111111111,-0.5688888888888889,-0.3477777777777778,-0.07960896193198684,-0.0020628676102993557,0.030824220199796772
1592167796.2695317,-0.29098544453186465,9.044087332808813,3.7004927222659325,-0.4811111111111111,-0.5688888888888889,-0.3477777777777778,-0.08846478870519302,-0.0007145971520661776,0.014089182402169508
1592167796.2795317,-0.323353880840449,8.922144775976205,3.7131420896095175,-0.4811111111111111,-0.5688888888888889,-0.3477777777777778,-0.08771127729158115,0.007316169510149104,-0.009583518276827614
1592167796.2895317,-0.47728288510441547,8.843585574477922,3.7418486553132464,-0.4811111111111111,-0.5688888888888889,-0.3477777777777778,-0.05046615934425838,0.016510657365831,-0.016967432774021317
1592167796.2995317,-0.44496185559066037,9.005190722046697,3.6448855667719813,-0.4811111111111111,-0.5688888888888889,-0.3477777777777778,-0.0019880952103351543,0.018273496061610023,0.014763663750001155
1592167796.3095317,-0.38,9.16,3.6,-0.4811111111111111,-0.5611111111111111,-0.35555555555555557,0.020725784867432664,0.01308996938995747,0.061086523819801536
1592167796.3195317,-0.4243859970674487,9.053473607038123,3.706526392961877,-0.4811111111111111,-0.5611111111111111,-0.35555555555555557,-0.005419725565571371,0.007279855960401017,0.044624535769391585
1592167796.3295317,-0.384705474064134,8.905294525935867,3.576470316042756,-0.4811111111111111,-0.5611111111111111,-0.35555555555555557,0.016314585517133207,0.001235216579235668,0.020677656268519595
1592167796.3395317,-0.26886533365454107,9.022269332690918,3.4984871115393883,-0.4811111111111111,-0.5611111111111111,-0.35555555555555557,0.08632690980335761,0.004500848571929086,0.019634954084936207
1592167796.3495317,-0.19308299205010843,9.173834015899782,3.3974439894001445,-0.4811111111111111,-0.5611111111111111,-0.35555555555555557,0.09643049670235257,0.013685927571015423,0.019634954084936207
1592167796.3595316,-0.10503691058411,9.04992617883178,3.539234336070868,-0.47444444444444445,-0.5544444444444444,-0.31222222222222223,0.03369197007774863,0.02618799142018436,0.008169151908319287
1592167796.3695316,-0.1717543980051701,8.936422574520165,3.634889392171665,-0.47444444444444445,-0.5544444444444444,-0.31222222222222223,-0.014546905871216436,0.03873655822101745,-0.010597950209566201
1592167796.3795316,-0.3911917298060871,8.871668421728522,3.539284962116348,-0.47444444444444445,-0.5544444444444444,-0.31222222222222223,-0.00042784324847831975,0.04903538619006458,-0.02494611068615967
1592167796.3895316,-0.49423905744460045,9.0149455670187,3.4764674521294996,-0.47444444444444445,-0.5544444444444444,-0.31222222222222223,0.05685358629949327,0.042797356103462636,-0.0133982423465802
1592167796.3995316,-0.5454483853244613,9.074689782878538,3.4337930122296156,-0.47444444444444445,-0.5544444444444444,-0.31222222222222223,0.08478394190064634,0.019522059769168407,-0.01712228976006728
1592167796.4095316,-0.45,9.11,3.37,-0.4888888888888889,-0.5488888888888889,-0.3333333333333333,0.09599310885968812,-0.00545415391248228,0.014180800172453926
1592167796.4195316,-0.39182159099976066,9.187571212000318,3.3021251894997206,-0.4888888888888889,-0.5488888888888889,-0.3333333333333333,0.0885891155947063,-0.0287238470309966,0.011007660201747428
1592167796.4295316,-0.34428812496986644,9.23273034087074,3.140519261366376,-0.4888888888888889,-0.5488888888888889,-0.3333333333333333,0.04448471147770008,-0.04827976757114599,-0.017608599559175347
1592167796.4395316,-0.24,9.1,3.15,-0.4888888888888889,-0.5488888888888889,-0.3333333333333333,-0.019634954084936207,-0.053450708342326333,-0.04036073895236887
1592167796.4495316,-0.27838921412098633,9.061610785879013,3.2421341138903674,-0.4888888888888889,-0.5488888888888889,-0.3333333333333333,-0.03387284048780284,-0.050938140153585165,-0.04873596624817278
1592167796.4595315,-0.3105878404961929,9.129559119627856,3.3313226411164343,-0.4811111111111111,-0.5422222222222223,-0.32666666666666666,-0.020003663927292213,-0.04692175451005874,-0.05118889246377778
1592167796.4695315,-0.34941586243606654,9.10043810317295,3.4186856904811496,-0.4811111111111111,-0.5422222222222223,-0.32666666666666666,-0.04435767482168282,-0.047980624548945285,-0.045894542269345036
1592167796.4795315,-0.23769080899843684,9.006409007498698,3.3919227022496092,-0.4811111111111111,-0.5422222222222223,-0.32666666666666666,-0.09474911051891449,-0.05820574798832565,-0.03560569930636956
1592167796.4895315,-0.1367626516650378,8.953381325832519,3.4552661438344736,-0.4811111111111111,-0.5422222222222223,-0.32666666666666666,-0.11851600435310533,-0.06297310904049348,-0.007445919236513793
1592167796.4995315,-0.13,8.95,3.522105054194624,-0.4811111111111111,-0.5422222222222223,-0.32666666666666666,-0.0911992915073648,-0.05141261703357577,0.005554588127935062
1592167796.5095315,-0.00016261660716342279,9.048861683749857,3.6209756996429805,-0.47444444444444445,-0.5344444444444445,-0.29777777777777775,-0.05368131170341703,-0.02364350281324404,0.011644364205783025
1592167796.5195315,-0.009823563284579062,8.981235057007947,3.6789413797074744,-0.47444444444444445,-0.5344444444444445,-0.29777777777777775,-0.06738130713433342,-0.002566586765680362,-0.009432551841780653
1592167796.5295315,-0.03749226626310284,8.925015467473795,3.588359112456324,-0.47444444444444445,-0.5344444444444445,-0.29777777777777775,-0.07762797862157407,0.02380916071267096,-0.02081359415994128
1592167796.5395315,-0.4070415224913495,9.002584342560553,3.616704152249135,-0.47444444444444445,-0.5344444444444445,-0.29777777777777775,-0.07153316299395607,0.041194195949462296,-0.02582041756180841
1592167796.5495315,-0.4147735906728964,9.018408803109034,3.695679227981311,-0.47444444444444445,-0.5344444444444445,-0.29777777777777775,-0.0598969033319255,0.03520433549713236,0.015096676958875562
1592167796.5595315,-0.35,8.96,3.69,-0.47444444444444445,-0.5277777777777778,-0.29333333333333333,-0.06872233929727672,0.011999138607461015,0.05890486225480862
1592167796.5695314,-0.31709866543238446,8.910647998148578,3.681774666358096,-0.47444444444444445,-0.5277777777777778,-0.29333333333333333,-0.04898295560491337,0.003923936187857824,0.03916547856244527
1592167796.5795314,-0.3399743136940119,9.129803071654091,3.5301284315299406,-0.47444444444444445,-0.5277777777777778,-0.29333333333333333,-0.0022180868022315184,0.013080629585537316,-0.005419596636127705
1592167796.5895314,-0.3307760195435438,9.102328058630631,3.585343882738737,-0.47444444444444445,-0.5277777777777778,-0.29333333333333333,-0.002181661564992912,0.022145591027100786,-0.010485054822006342
1592167796.5995314,-0.3225454545454546,8.965818181818182,3.6347272727272726,-0.47444444444444445,-0.5277777777777778,-0.29333333333333333,-0.017631792102533624,0.03022592931862907,-0.006842483999295951
1592167796.6095314,-0.1986551601308248,9.0320106214177,3.6126631261941,-0.47444444444444445,-0.5412605377632418,-0.29333333333333333,-0.008652572488044085,0.043925181574050565,0.009818925313640745
1592167796.6195314,-0.3377775204927522,9.067708285092392,3.591527809938406,-0.47444444444444445,-0.5422222222222223,-0.29333333333333333,0.027626743216320592,0.06789660065256335,-0.003196715652553757
1592167796.6295314,-0.4596828212587809,9.042579294685304,3.526018354265711,-0.47444444444444445,-0.5422222222222223,-0.29333333333333333,0.022566902060558437,0.07679248494794771,-0.025301267734509438
1592167796.6395314,-0.3887184383619775,8.976781007614871,3.5741877077586817,-0.47444444444444445,-0.5422222222222223,-0.29333333333333333,0.002113409097898457,0.06267158064322538,-0.008552723337982269
1592167796.6495314,-0.4582281954887218,8.977111654135339,3.6084466165413533,-0.47444444444444445,-0.5422222222222223,-0.29333333333333333,0.0162909836151201,0.04479554020468143,-0.00421770132139015
1592167796.6595314,-0.4016514859384349,9.024174257030783,3.602330297187687,-0.4695361936632464,-0.5225892190974301,-0.25995722802118654,0.04025463660313729,0.021795620003926014,0.015038430610484104
1592167796.6695313,-0.4346258155896626,9.003224510646202,3.5553741844103373,-0.4688888888888889,-0.52,-0.25555555555555554,0.07953860265516458,0.004057605816387656,0.021347629587080433
1592167796.6795313,-0.4770518581039148,9.037051858103913,3.392529603058362,-0.4688888888888889,-0.52,-0.25555555555555554,0.13956776788383352,0.002181661564992912,0.00666012538676373
1592167796.6895313,-0.5352783490532587,9.178195872633147,3.195738836489138,-0.4688888888888889,-0.52,-0.25555555555555554,0.17514431441185266,0.009216582786162053,-0.028715463447482117
1592167796.6995313,-0.5166969081289855,9.15116151354831,3.1644646054193237,-0.4688888888888889,-0.52,-0.25555555555555554,0.16424822824545804,0.008970152711126587,-0.055359173969959694
1592167796.7095313,-0.44395062861337986,9.14,3.2260493713866203,-0.48776013785649464,-0.5074191673549295,-0.25031354195344285,0.11197657772363477,-0.008770892126344356,-0.05600175281889233
1592167796.7195313,-0.288873097266524,9.134187426817943,3.2241874268179433,-0.4888888888888889,-0.5066666666666667,-0.25,0.0957679573693937,-0.018694224295969362,-0.04675562265381799
1592167796.7295313,-0.10716745004181205,9.120895931255227,3.128959312552265,-0.4888888888888889,-0.5066666666666667,-0.25,0.07922393291428606,-0.03502010643018128,-0.032415940206158636
1592167796.7395313,-0.0171076222548973,9.156841056775601,3.1107897358060996,-0.4888888888888889,-0.5066666666666667,-0.25,0.0634695567932978,-0.029969312003804233,-0.022591936964529005
1592167796.7495313,-0.01,9.164706288419184,3.128825153676736,-0.4888888888888889,-0.5066666666666667,-0.25,0.05293657890018327,-0.02072503185318486,-0.015142722087290715
1592167796.7595313,-0.09456000261805805,9.27147200314167,3.15,-0.48231199979637324,-0.5179413336824078,-0.23778577739961382,0.019482237061422127,0.012151855630975096,0.009889908749038952
1592167796.7695312,-0.15956834372711334,9.29,3.199568343727113,-0.4811111111111111,-0.52,-0.23555555555555555,-0.030688442943714908,0.04429897724447868,0.02390410442493754
1592167796.7795312,-0.14363997011772586,9.193346557098328,3.2539333831371233,-0.4811111111111111,-0.52,-0.23555555555555555,-0.12183134635118356,0.07893254801794805,0.024262983311707537
1592167796.7895312,-0.322634074558535,8.858216154349249,3.5730869849574884,-0.4811111111111111,-0.52,-0.23555555555555555,-0.1805153722410445,0.10851750852902815,0.008819391846449434
1592167796.7995312,-0.35,8.868625609608642,3.62,-0.4811111111111111,-0.52,-0.23555555555555555,-0.1572463502776206,0.12674446000797332,0.01613757763553763
1592167796.8095312,-0.30521187896199603,9.02436436311401,3.5393813821315927,-0.47513936163937726,-0.5319434989434677,-0.23555555555555555,-0.08265818540056374,0.13199052468207118,0.05969708820205029
1592167796.8195312,-0.23152767706067198,9.129540729997583,3.508931592941745,-0.47444444444444445,-0.5333333333333333,-0.23555555555555555,-0.06952180725292799,0.13141597300813843,0.08446832475493707
1592167796.8295312,-0.11957134109001838,8.966261481935089,3.6917146356399266,-0.47444444444444445,-0.5333333333333333,-0.23555555555555555,-0.10653268515254122,0.13915106391842802,0.09795399909974835
1592167796.8395312,-0.10197500221611559,8.831725024377272,3.8022249800549597,-0.47444444444444445,-0.5333333333333333,-0.23555555555555555,-0.1267927126191056,0.1634773489335729,0.08570385064641954
1592167796.8495312,-0.1,8.841777687985838,3.813644462402832,-0.47444444444444445,-0.5333333333333333,-0.23555555555555555,-0.07989258755488879,0.1940369090680454,0.0718106337892441
1592167796.8595312,-0.17151029036871232,9.110286016290493,3.6455263321519618,-0.460142386370702,-0.5142639225683434,-0.23952834946492846,-0.0036856149176681882,0.23253042351665298,0.05452905930986418
1592167796.8695312,-0.2294940951524013,9.092023619390396,3.5578794286356987,-0.45444444444444443,-0.5066666666666667,-0.2411111111111111,-0.0008149024921090368,0.2542293337995078,0.049373889322484
1592167796.8795311,-0.19075333550276602,8.910467783924505,3.476130003254149,-0.45444444444444443,-0.5066666666666667,-0.2411111111111111,-0.05847410301154164,0.2576315658255124,0.03744810007242125
1592167796.8895311,-0.1506196725211117,8.889793442492964,3.381652460056298,-0.45444444444444443,-0.5066666666666667,-0.2411111111111111,-0.05432283669977088,0.2595726623767501,0.03864563102816301
1592167796.8995311,-0.061016502096577836,9.175256323549304,3.1689255602146176,-0.45444444444444443,-0.5066666666666667,-0.2411111111111111,-0.0024340689582825897,0.2668036889792225,0.07185330742921833
1592167796.909531,-0.07366686324618307,9.276333136753816,3.1349334905969464,-0.46705931604889733,-0.49987404349503817,-0.22267399107383382,-0.003643464876233002,0.2703878664487046,0.12632565265499618
1592167796.919531,-0.15196422007106974,9.174047706571907,3.192773761385451,-0.4688888888888889,-0.4988888888888889,-0.22,-0.04527203936430233,0.271572711212346,0.13303720183529613
1592167796.929531,-0.285375822747095,9.006713345431892,3.265821663642027,-0.4688888888888889,-0.4988888888888889,-0.22,-0.10366228244419326,0.27615944717031965,0.12813162104120424
1592167796.939531,-0.36789571120024683,8.99,3.420879358222771,-0.4688888888888889,-0.4988888888888889,-0.22,-0.08412758945020646,0.2754251802701727,0.1265363707695889
1592167796.949531,-0.28239688670639157,9.031845655169738,3.4580440985229326,-0.4688888888888889,-0.4988888888888889,-0.22,-0.05679535672923164,0.27162889084818687,0.12588427750140488
1592167796.959531,-0.13105282738095236,9.138947172619048,3.4105264136904765,-0.4674269042107584,-0.4988888888888889,-0.2353508391203704,-0.029997880336571144,0.2701528533273239,0.1275984901391904
1592167796.969531,-0.025452942268423984,9.151312418785967,3.3684843140894745,-0.4666666666666667,-0.4988888888888889,-0.24333333333333335,-0.03933642718083401,0.27756702580843895,0.11307138400276423
1592167796.979531,0.0,9.033098368901344,3.3528732245934227,-0.4666666666666667,-0.4988888888888889,-0.24333333333333335,-0.08157578043464286,0.29122725949239536,0.08902097289975683
1592167796.989531,0.01410764338711577,8.968838534919326,3.399376751854905,-0.4666666666666667,-0.4988888888888889,-0.24333333333333335,-0.11292106570235141,0.30254021531035635,0.07565668801717482
1592167796.999531,0.061164542294322125,8.977641946697567,3.4435225955967557,-0.4666666666666667,-0.4988888888888889,-0.24333333333333335,-0.11550103108640776,0.3144133290754124,0.10323518877662143
1592167797.009531,-0.14498773594966408,8.982419750453237,3.634345739575557,-0.46161316696882443,-0.48962413944284483,-0.23743758368585072,-0.09333740064452212,0.3430299278244166,0.1433728791572088
1592167797.019531,-0.30118368337987134,8.844693861033548,3.7325247865323132,-0.46,-0.4866666666666667,-0.23555555555555555,-0.08431454057080949,0.36196436929699033,0.1473353014670809
1592167797.029531,-0.3556736132308461,8.63,3.666212503815523,-0.46,-0.4866666666666667,-0.23555555555555555,-0.027741040312941827,0.3879969190488209,0.17236679201336783
1592167797.039531,-0.33,9.192345183486239,3.4481723050458717,-0.46,-0.4866666666666667,-0.23555555555555555,0.11371918725980128,0.39051742013373125,0.2315834063978159
1592167797.049531,-0.3513844543313269,9.33778031181067,3.3877803118106704,-0.46,-0.4866666666666667,-0.23555555555555555,0.15968315664453278,0.38785149772784544,0.24277100365581675
1592167797.059531,-0.4296253565768621,9.272968304278923,3.374812678288431,-0.46,-0.4759686212361331,-0.23226384926923754,0.10303479323838616,0.3680563672427577,0.2148968104466103
1592167797.069531,-0.41285456484291694,9.219281847264375,3.407145435157083,-0.46,-0.4722222222222222,-0.2311111111111111,0.018408966227797724,0.3494281483103029,0.19788100785435084
1592167797.079531,-0.32177375012727827,9.060825781488646,3.469113124936361,-0.46,-0.4722222222222222,-0.2311111111111111,-0.0983114991379743,0.30332770777031504,0.1682715054151266
1592167797.089531,-0.30644341159178484,9.000669765224645,3.4993302347753548,-0.46,-0.4722222222222222,-0.2311111111111111,-0.12269326467944218,0.2828539429024221,0.1505485146611247
1592167797.099531,-0.3505976879560548,8.944701156021972,3.570597687956055,-0.46,-0.4722222222222222,-0.2311111111111111,-0.12469366539592676,0.2523208669480121,0.11705784991845156
1592167797.109531,-0.39217429458620223,8.948261441879303,3.551302821655191,-0.45120745390996503,-0.4647823755306542,-0.22231856502107616,-0.08200099870209496,0.2282203336599134,0.08764527851442912
1592167797.119531,-0.3785689066729434,9.095730257738026,3.3628386489349182,-0.44555555555555554,-0.46,-0.21666666666666667,-0.004980052690902972,0.19432077789116606,0.0542273973189185
1592167797.129531,-0.35544104718179154,9.259192146136565,3.0961746605450817,-0.44555555555555554,-0.46,-0.21666666666666667,0.0404812556677155,0.1605283713993781,0.037874215917343496
1592167797.139531,-0.35,9.306342090463566,3.016828954768217,-0.44555555555555554,-0.46,-0.21666666666666667,0.029370664828692238,0.14159416488760737,0.03317704816412797
1592167797.149531,-0.3722730215425829,9.141815827659338,3.2494349815827657,-0.44555555555555554,-0.46,-0.21666666666666667,-0.07808203025022255,0.10237671537416448,0.030059833565350715
1592167797.1595309,-0.35539955517965105,8.965399555179651,3.5230410675688377,-0.44940004942448325,-0.46,-0.21666666666666667,-0.1894431669880869,0.06722108441527318,0.03507244954567357
1592167797.1695309,-0.38210654046838977,8.97456214860656,3.581053270234195,-0.45111111111111113,-0.46,-0.21666666666666667,-0.2144534579180532,0.04633125385047409,0.029050302269592848
1592167797.1795309,-0.5206661286963765,9.013259319033736,3.606518638067472,-0.45111111111111113,-0.46,-0.21666666666666667,-0.196179992989036,0.009647929182142032,-0.003466261330719162
1592167797.1895308,-0.613388231914588,8.862094125532629,3.726776463829176,-0.45111111111111113,-0.46,-0.21666666666666667,-0.19409173473125574,-0.02009866292382097,-0.02813316668556762
1592167797.1995308,-0.5510116481886165,8.823730227149703,3.738472102488021,-0.45111111111111113,-0.46,-0.21666666666666667,-0.1788767188302554,-0.05274952715287985,-0.0420251421587819
1592167797.2095308,-0.38208919895353183,8.961399651177276,3.635811324280553,-0.44661482773417494,-0.45175681380895033,-0.20092967484739005,-0.11245511383223881,-0.08196498694612728,-0.05573415541324798
1592167797.2195308,-0.3250030728889253,9.039987708444299,3.6249846355553736,-0.4444444444444444,-0.4477777777777778,-0.19333333333333333,-0.07881704923784068,-0.08917491366881064,-0.06381125437476104
1592167797.2295308,-0.3216435116760272,8.942812592373633,3.787326337570204,-0.4444444444444444,-0.4477777777777778,-0.19333333333333333,-0.10117705402380149,-0.0916297857297023,-0.08161787446853914
1592167797.2395308,-0.3039896400031236,8.751968920009372,3.9475388499882866,-0.4444444444444444,-0.4477777777777778,-0.19333333333333333,-0.1791873201557293,-0.09446707586454302,-0.0762451163452775
1592167797.2495308,-0.255808012154166,8.704301335359027,4.034191987845833,-0.4444444444444444,-0.4477777777777778,-0.19333333333333333,-0.19093117082689412,-0.10096613190728551,-0.05225516443377943
1592167797.2595308,-0.2363377703310683,8.852106487945639,4.015635607682522,-0.4395150675202802,-0.4400316140398054,-0.1947417267402374,-0.13337520860470956,-0.10195438113185094,-0.01813011597576202
1592167797.2695308,-0.24564924944631286,8.934350750553687,3.9928246247231565,-0.43666666666666665,-0.43555555555555553,-0.19555555555555557,-0.09718326063050145,-0.09511841307474068,-0.001923203299449395
1592167797.2795308,-0.254326030449313,8.874608243594505,3.9148904567396956,-0.43666666666666665,-0.43555555555555553,-0.19555555555555557,-0.08331346683054347,-0.06200641862375603,0.010436411106951796
1592167797.2895308,-0.26119771269311165,8.884790850772447,3.889191994425891,-0.43666666666666665,-0.43555555555555553,-0.19555555555555557,-0.08944812416470939,-0.029804990068471135,0.014572750734723803
1592167797.2995307,-0.24250829115028802,8.855852679350672,3.98872927212428,-0.43666666666666665,-0.43555555555555553,-0.19555555555555557,-0.09344663113493554,-0.002367687341655338,0.022451426232725974
1592167797.3095307,-0.2609083199563861,8.750303480025442,4.103938879970924,-0.43666666666666665,-0.43744104888727353,-0.19555555555555557,-0.10372800667404149,0.02251065454649462,0.0329892972193749
1592167797.3195307,-0.34187192628254903,8.72187192628255,4.161871926282549,-0.43666666666666665,-0.44,-0.19555555555555557,-0.1028470691008919,0.04029088557565674,0.047687578883619006
1592167797.3295307,-0.5262264060438901,8.786644201942678,4.000067394171963,-0.43666666666666665,-0.44,-0.19555555555555557,-0.07992026210634576,0.05227608019812378,0.04864487863229147
1592167797.3395307,-0.6361056092378012,8.833737620785053,3.8923679884527482,-0.43666666666666665,-0.44,-0.19555555555555557,-0.06748210480390228,0.05639019136469129,0.04315081826385584
1592167797.3495307,-0.6201537422965528,8.919062955946082,3.818279654188715,-0.43666666666666665,-0.44,-0.19555555555555557,-0.04564400293106749,0.042183849966829313,0.03676482897234343
1592167797.3595307,-0.44444215585307245,9.010890490902849,3.7279989701338825,-0.44822245108135944,-0.43614807186176907,-0.1891356753251707,-0.030494693165482714,0.0014296885837601185,0.03934248043408382
1592167797.3695307,-0.32895656515227156,9.038956565152272,3.697760858711932,-0.45666666666666667,-0.43333333333333335,-0.18444444444444444,-0.0272707695624114,-0.017453292519943295,0.03381575425739013
1592167797.3795307,-0.24,8.888291341603786,3.7138291341603784,-0.45666666666666667,-0.43333333333333335,-0.18444444444444444,-0.04948429192371057,-0.022838388849955215,0.011602231896090966
1592167797.3895307,-0.25476431509016134,8.85184553938627,3.7173821575450807,-0.45666666666666667,-0.43333333333333335,-0.18444444444444444,-0.058839208804517595,-0.0271865243663415,-0.004597466972416651
1592167797.3995306,-0.341120091921233,8.881120091921233,3.7753441103054795,-0.45666666666666667,-0.43333333333333335,-0.18444444444444444,-0.026829147115581146,-0.03578101304382765,-0.016653937738760526
1592167797.4095306,-0.36184632552207874,8.91,3.818153674477921,-0.4408122996262642,-0.43061544184069295,-0.1894272455142852,-0.007149193309176438,-0.044564567423705605,-0.01854412330243975
1592167797.4195306,-0.38653880523658457,8.946538805236585,3.809120682721952,-0.4177777777777778,-0.4266666666666667,-0.19666666666666666,-0.01466039334969199,-0.048517990162230386,-0.02366867875343093
1592167797.4295306,-0.45998832230439857,8.9899970805761,3.7800029194239,-0.4177777777777778,-0.4266666666666667,-0.19666666666666666,-0.03762999970905142,-0.0545396283663482,-0.04690030983166958
1592167797.4395306,-0.5752216021011163,8.894689757058437,3.8552511490479318,-0.4177777777777778,-0.4266666666666667,-0.19666666666666666,-0.05346037755806088,-0.07366814314549318,-0.06654390080419532
1592167797.4495306,-0.5817743844467297,8.802039814509401,3.94,-0.4177777777777778,-0.4266666666666667,-0.19666666666666666,-0.0527831806050952,-0.09712013205255476,-0.054935888241791964
1592167797.4595306,-0.4690578947368421,8.830942105263158,3.9327052631578945,-0.4246672514619883,-0.4213982456140351,-0.19423508771929823,-0.03576547075073643,-0.12021012635257391,-0.030825155548956425
1592167797.4695306,-0.45536610233793334,8.882196614027599,3.9146338976620667,-0.43666666666666665,-0.4122222222222222,-0.19,-0.014606408853773678,-0.13608798141064188,-0.017133807960134022
1592167797.4795306,-0.4398352612864023,8.904958815321601,3.884794076608003,-0.43666666666666665,-0.4122222222222222,-0.19,-0.021888496473873614,-0.14072615604503588,-0.015839509103681263
1592167797.4895306,-0.4294103467019592,8.876474133245102,3.8788206934039184,-0.43666666666666665,-0.4122222222222222,-0.19,-0.01822514688214744,-0.14180800172453928,-0.031375493123016136
1592167797.4995306,-0.4475017277125086,8.861252591568762,3.9150034554250173,-0.43666666666666665,-0.4122222222222222,-0.19,0.011184596340365355,-0.14385378060221707,-0.05849872190645343
1592167797.5095305,-0.4437560114866969,8.902741583918624,3.8912680344600905,-0.4377495992342202,-0.410417334609633,-0.18061458441453598,0.04453041253922805,-0.1547043215713701,-0.07963064712224129
1592167797.5195305,-0.3522840300357903,8.965740719081149,3.758518561837704,-0.44,-0.4066666666666667,-0.16111111111111112,0.06342978521977422,-0.18047187861685454,-0.0739071601514594
1592167797.5295305,-0.2661785275388225,8.984831638923026,3.676851971846721,-0.44,-0.4066666666666667,-0.16111111111111112,0.05336442656442359,-0.19929145699524267,-0.07030348943741994
1592167797.5395305,-0.22110501678566363,8.954420067142655,3.6778173908931864,-0.44,-0.4066666666666667,-0.16111111111111112,0.03393330134487935,-0.2147761170643126,-0.07102453949476735
1592167797.5495305,-0.19548892426833342,8.917255537865833,3.7645110757316664,-0.44,-0.4066666666666667,-0.16111111111111112,0.029249410574316296,-0.22183437704916154,-0.07100035468691612
1592167797.5595305,-0.16041694619616262,8.939583053803837,3.8123604588756206,-0.43609579289473294,-0.41057087377193374,-0.16111111111111112,0.02924042678171182,-0.21939343260541333,-0.07517636044317166
1592167797.5695305,-0.16435222672064778,8.935647773279353,3.903834008097166,-0.42777777777777776,-0.41888888888888887,-0.16111111111111112,0.012784801749995913,-0.20102377283395417,-0.08016193029282559
1592167797.5795305,-0.14105967963173924,8.843263199497827,3.963347360100435,-0.42777777777777776,-0.41888888888888887,-0.16111111111111112,0.008125729435029106,-0.1756099852355296,-0.08072147790473774
1592167797.5895305,-0.07574192788121613,8.78129036059392,3.9629677115248643,-0.42777777777777776,-0.41888888888888887,-0.16111111111111112,0.034618079193995115,-0.14253988413594887,-0.07607664176347838
1592167797.5995305,-0.0870729338642323,8.844145867728464,3.94,-0.42777777777777776,-0.41888888888888887,-0.16111111111111112,0.0744689845946743,-0.1088171769906317,-0.06906822280750795
1592167797.6095304,-0.14313907369498463,8.91,3.932286975435005,-0.4297774508131468,-0.42088856192425794,-0.15968277322870467,0.09733340996251626,-0.08474238121322215,-0.0639856131787329
1592167797.6195304,-0.24080263312566122,8.901199247678383,3.865996238391913,-0.43555555555555553,-0.4266666666666667,-0.15555555555555556,0.09346225834595955,-0.07936901186555788,-0.04769062941739783
1592167797.6295304,-0.3131420996091518,8.885857237548857,3.7727151379397044,-0.43555555555555553,-0.4266666666666667,-0.15555555555555556,0.1002159860616311,-0.0917542248610465,-0.03674549670734622
1592167797.6395304,-0.34822897128841435,8.891771028711586,3.7160763237628047,-0.43555555555555553,-0.4266666666666667,-0.15555555555555556,0.1234837443293492,-0.12335885986449407,-0.030350072646372503
1592167797.6495304,-0.29938022220181804,8.931433844458727,3.7008140666605454,-0.43555555555555553,-0.4266666666666667,-0.15555555555555556,0.14606133033011617,-0.15821687710486637,-0.030699670077189944
1592167797.6595304,-0.220169388581455,8.974382507760831,3.6842131191793768,-0.43399514104467535,-0.42557437650905056,-0.15664784571317167,0.15755769011649412,-0.17577694931830243,-0.03783573585885905
1592167797.6695304,-0.14023166486616254,8.951861001080303,3.69418533189293,-0.42444444444444446,-0.41888888888888887,-0.16333333333333333,0.15251330582303854,-0.1775771431037337,-0.05685039226611112
1592167797.6795304,-0.12572319962467746,8.97,3.630692000938306,-0.42444444444444446,-0.41888888888888887,-0.16333333333333333,0.15182099924575604,-0.1767523295606769,-0.07043747431227021
1592167797.6895304,-0.11198609074135402,9.004212518332782,3.5471916544448123,-0.42444444444444446,-0.41888888888888887,-0.16333333333333333,0.15007513351758806,-0.17468609668840723,-0.07350032985108614
1592167797.6995304,-0.04423004307579507,9.07153991384841,3.51,-0.42444444444444446,-0.41888888888888887,-0.16333333333333333,0.1354927003436204,-0.17828809842107618,-0.0732323862157688
1592167797.7095304,-0.026798621301573216,9.1,3.5153356311640445,-0.4270529752357552,-0.4197188759588514,-0.16179192877483153,0.10941539393047507,-0.1826343623343311,-0.06997275754742367
1592167797.7195303,0.0470294051850563,9.056889711913698,3.556080882901245,-0.4488888888888889,-0.4266666666666667,-0.14888888888888888,0.04901279408901155,-0.1882421012355059,-0.06003980781653308
1592167797.7295303,0.10832684045324013,9.021128425458027,3.518871574541974,-0.4488888888888889,-0.4266666666666667,-0.14888888888888888,0.012478758357357221,-0.18580201023184056,-0.05969433710108858
1592167797.7395303,0.06237970524511321,9.07345253684436,3.4838101473774437,-0.4488888888888889,-0.4266666666666667,-0.14888888888888888,-0.013480061967588879,-0.17253283069237751,-0.06624208290105689
1592167797.7495303,-0.010577738201246663,9.054277827248441,3.522861086375779,-0.4488888888888889,-0.4266666666666667,-0.14888888888888888,-0.043324146388914006,-0.15832500591745824,-0.06925199932317136
1592167797.7595303,-0.07240492397994538,8.979711409122407,3.5615391513471653,-0.44882475758275703,-0.42647427274827104,-0.14888888888888888,-0.06746361314793942,-0.14602441640853936,-0.06758953467307005
1592167797.7695303,-0.3284390243902439,8.958439024390243,3.6904634146341464,-0.44222222222222224,-0.4066666666666667,-0.14888888888888888,-0.04051239103676472,-0.12307497845732573,-0.05820513421628041
1592167797.7795303,-0.3314830081963284,8.974258495901836,3.5988980491779703,-0.44222222222222224,-0.4066666666666667,-0.14888888888888888,-0.0272707695624114,-0.10956839154702047,-0.045230158835418706
1592167797.7895303,-0.2609215897893107,9.005319318661725,3.555319318661724,-0.44222222222222224,-0.4066666666666667,-0.14888888888888888,-0.03417554260942277,-0.10488994949588805,-0.028342200745331756
1592167797.7995303,-0.14499924161989988,9.034166540269982,3.6220840285150917,-0.44222222222222224,-0.4066666666666667,-0.14888888888888888,-0.052541875718596164,-0.10331075846506554,-0.013817134760664573
1592167797.8095303,-0.06017594418322464,9.020029324030537,3.699838717832044,-0.44222222222222224,-0.4066666666666667,-0.14888888888888888,-0.07413171063251105,-0.10253969293242572,-0.007648610499546033
1592167797.8195302,0.0,8.95,3.72,-0.4033333333333333,-0.4266666666666667,-0.13444444444444445,-0.09926560120717749,-0.09272061651219875,0.001090830782496456
1592167797.8295302,-0.037427317175753115,8.937385784133326,3.6801661321697074,-0.4033333333333333,-0.4266666666666667,-0.13444444444444445,-0.09109116616662954,-0.06793479743719405,-0.002724811680182646
1592167797.8395302,-0.09628945016697239,9.02,3.591447250834862,-0.4033333333333333,-0.4266666666666667,-0.13444444444444445,-0.09132117620255324,-0.037582021848318,-0.0012759964987858925
1592167797.8495302,-0.10767061179898034,8.989717953386744,3.683293882010197,-0.4033333333333333,-0.4266666666666667,-0.13444444444444445,-0.110669192287647,-0.019380857249530578,0.004437766570859762
1592167797.8595302,-0.10003350327749454,8.89043554260743,3.7596649672250546,-0.4033333333333333,-0.4266666666666667,-0.13444444444444445,-0.13732773009405563,-0.018547777943080306,0.001105449345058681
1592167797.8695302,-0.040497298595269536,8.887495497658781,3.8774954976587823,-0.43666666666666665,-0.4122222222222222,-0.16111111111111112,-0.12053778372433703,-0.023178680740331706,0.01205338546904224
1592167797.8795302,-0.04004517903871531,8.886741965064525,3.91,-0.43666666666666665,-0.4122222222222222,-0.16111111111111112,-0.11344640137963141,-0.038532009732874684,0.015631955703372252
1592167797.8895302,0.01631789008144113,8.810209265951135,3.9393722021465942,-0.43666666666666665,-0.4122222222222222,-0.16111111111111112,-0.10490237411264121,-0.04799655442984406,0.019256125574688934
1592167797.8995302,0.05,8.79,4.0,-0.43666666666666665,-0.4122222222222222,-0.16111111111111112,-0.08726646259971647,-0.04799655442984406,0.020725784867432664
1592167797.9095302,0.09936793183578621,8.656952749806353,4.146839659178931,-0.43589413891040535,-0.4126436009983647,-0.15935536621051727,-0.03477595573006943,-0.03543349602049448,0.013767112526357672
1592167797.9195302,0.09,8.76,4.1,-0.42444444444444446,-0.41888888888888887,-0.13333333333333333,0.04799655442984406,-0.01090830782496456,0.007635815477475192
1592167797.9295301,-0.0030942767597481446,8.953094276759748,3.968901092695598,-0.42444444444444446,-0.41888888888888887,-0.13333333333333333,0.11693655476955526,0.01779082575385296,0.002162103794801048
1592167797.9395301,-0.0787269250743591,8.985092299702563,3.833271800198291,-0.42444444444444446,-0.41888888888888887,-0.13333333333333333,0.09071809922164585,0.02159858854461309,0.009539735179005407
1592167797.9495301,-0.09174479889042997,8.887617198335645,3.927148404993065,-0.42444444444444446,-0.41888888888888887,-0.13333333333333333,0.04564090459857224,0.008137204272647625,0.01305517173670169
1592167797.95953,-0.06265811373092926,8.843987170596394,4.058038488210818,-0.42444444444444446,-0.41888888888888887,-0.13333333333333333,0.025810497390593372,-0.00931355407037378,0.009089090295105916
1592167797.96953,0.023545046435951636,8.818386261608989,3.9885007482007553,-0.41,-0.4266666666666667,-0.13333333333333333,0.057355219769586636,-0.03237286037253122,0.010216670170087944
1592167797.97953,0.11,8.869122811017876,3.798229660707771,-0.41,-0.4266666666666667,-0.13333333333333333,0.10773824427600416,-0.03160103646041214,-0.0031768058731126837
1592167797.98953,0.09380504795076101,8.945372870843073,3.7123135645784626,-0.41,-0.4266666666666667,-0.13333333333333333,0.1522198954074431,-0.013586383532018218,-0.014018104575045466
1592167797.99953,0.025877995642701525,8.919408496732025,3.727061002178649,-0.41,-0.4266666666666667,-0.13333333333333333,0.16336854544241178,-0.004555882093279452,-0.021688579683900804
1592167798.00953,-0.03504139433551199,8.873718954248366,3.757520697167756,-0.41,-0.4266666666666667,-0.13333333333333333,0.17167513867230444,-0.005386541416268719,-0.02584187629884714
1592167798.01953,-0.05,9.064907462122108,3.6150925378778926,-0.43,-0.41888888888888887,-0.16111111111111112,0.18636534643530955,-0.02093287950531792,-0.01854412330243975
1592167798.02953,-0.054741326264969,9.065776021205092,3.5834053580726084,-0.43,-0.41888888888888887,-0.16111111111111112,0.15847620277559205,-0.03551308117216257,-0.017509726374502325
1592167798.03953,-0.04276782791676409,9.01319195697919,3.53,-0.43,-0.41888888888888887,-0.16111111111111112,0.1184135708880691,-0.05047202872839693,-0.014428347602309214
1592167798.04953,0.05,9.001309181556826,3.53,-0.43,-0.41888888888888887,-0.16111111111111112,0.09799853609086638,-0.05767122191810601,-0.015095396621135725
1592167798.05953,0.05,9.054731977146185,3.53,-0.43,-0.41888888888888887,-0.16111111111111112,0.09716603280635368,-0.05184369892651713,-0.014262893336623025
1592167798.06953,-0.006515506071877232,9.08131265857083,3.53,-0.42444444444444446,-0.4122222222222222,-0.13333333333333333,0.07807120809660523,-0.036900803307623666,-0.01674256106126867
1592167798.07953,-0.041678387571244715,9.035985934914507,3.518321612428755,-0.42444444444444446,-0.4122222222222222,-0.13333333333333333,0.05290145729402438,-0.028361600344907853,-0.014180800172453926
1592167798.08953,-0.0758635958895868,8.994136404110414,3.4986138184968594,-0.42444444444444446,-0.4122222222222222,-0.13333333333333333,0.03968392141249633,-0.03309932312401563,-0.013729588479205567
1592167798.09953,-0.05370780221319513,9.01,3.579438296680207,-0.42444444444444446,-0.4122222222222222,-0.13333333333333333,0.036573467377224285,-0.05487250137091992,-0.011655952455690873
1592167798.10953,-0.024331839193164312,9.01,3.6235022412102533,-0.42444444444444446,-0.4122222222222222,-0.13333333333333333,0.03417015202264475,-0.07169570885297667,-0.010053742219304515
1592167798.11953,0.03430423820386601,9.015913074798895,3.6195653739944773,-0.43,-0.4266666666666667,-0.12555555555555556,0.02397457204363714,-0.09053895494720585,-0.013758690962226278
1592167798.12953,0.08793287960572635,9.002067120394274,3.5255301572400843,-0.43,-0.4266666666666667,-0.12555555555555556,0.018733002662056245,-0.08715663711140599,-0.016362461737446838
1592167798.13953,0.07442473633748801,9.011858421220838,3.481150527325024,-0.43,-0.4266666666666667,-0.12555555555555556,0.014663464032590183,-0.06971660244578419,-0.01697062865980704
1592167798.14953,0.044294387087392764,9.018858877417479,3.5391289806601716,-0.43,-0.4266666666666667,-0.12555555555555556,0.011501229951614516,-0.04843553569937422,-0.019634954084936207
1592167798.15953,0.006175476225098155,9.01123509524502,3.600119238039843,-0.43,-0.4266666666666667,-0.12555555555555556,0.008174727442508158,-0.036792776917501976,-0.019634954084936207
1592167798.16953,-0.05650581754177429,8.987831394152742,3.689517452625323,-0.42444444444444446,-0.41888888888888887,-0.14,-0.0079643339029533,-0.03296148167622277,-0.014653916575112114
1592167798.17953,-0.0817672631917928,8.969396420849243,3.7653017895753784,-0.42444444444444446,-0.41888888888888887,-0.14,-0.01308996938995747,-0.03535798232969455,-0.014820233665142422
1592167798.18953,-0.06764968029451657,8.909569850804107,3.7989401278821933,-0.42444444444444446,-0.41888888888888887,-0.14,-0.0100017832703962,-0.04416776163292035,-0.006660598808140054
1592167798.19953,0.06491453531397216,8.857371802970958,3.842628197029042,-0.42444444444444446,-0.41888888888888887,-0.14,0.012460649239407245,-0.05358473150238,-0.0006887613023354516
1592167798.2095299,0.09519665000090248,8.902794975001354,3.797205024998646,-0.42444444444444446,-0.41888888888888887,-0.14,0.0421900458130397,-0.0544105480738698,0.0017886884121339197
1592167798.2195299,0.07397134059113061,8.97200955313629,3.7358853623645225,-0.42444444444444446,-0.4122222222222222,-0.13333333333333333,0.08531443013187058,-0.03336170649066325,-0.00458774179956569
1592167798.2295299,0.042027320707854705,8.98,3.608109282831419,-0.42444444444444446,-0.4122222222222222,-0.13333333333333333,0.09468485697742056,-0.0155002279056443,-0.009817477042468103
1592167798.2395298,0.005916849321456886,8.986805251130905,3.482722100452362,-0.42444444444444446,-0.4122222222222222,-0.13333333333333333,0.09514765522961305,-0.0011939466709505117,-0.009520541945819696
1592167798.2495298,-0.02178154747820389,9.03445386869551,3.4991092262608983,-0.42444444444444446,-0.4122222222222222,-0.13333333333333333,0.10333741931270776,0.012096306948946202,-0.00705280542856407
1592167798.2595298,-0.0370499262845598,9.0726248157114,3.4914750368577203,-0.42444444444444446,-0.4122222222222222,-0.13333333333333333,0.10083913667258931,0.012929067828985678,-0.0020562401483272133
1592167798.2695298,0.01,9.07,3.5,-0.43666666666666665,-0.41888888888888887,-0.11888888888888889,0.07963064712224129,0.00545415391248228,0.002181661564992912
1592167798.2795298,0.01157534066741933,9.039606164833144,3.506455483498306,-0.43666666666666665,-0.41888888888888887,-0.11888888888888889,0.05406897084926443,-0.009156253783206527,0.0029717670812249523
1592167798.2895298,0.04875334590228802,9.026260037706864,3.427479924586272,-0.43666666666666665,-0.41888888888888887,-0.11888888888888889,0.04199844505139796,-0.020450887283881954,-0.004907278595949655
1592167798.2995298,0.039245480014617085,9.0,3.486036159883063,-0.43666666666666665,-0.41888888888888887,-0.11888888888888889,0.038014466662163064,-0.02667377095555362,-0.009302783798216769
1592167798.3095298,0.03194685645674909,9.0,3.5444251483460074,-0.43666666666666665,-0.41888888888888887,-0.11888888888888889,0.03642215401280782,-0.03145070890361934,-0.014875878070960117
1592167798.3195298,0.0,9.02,3.53,-0.43,-0.4266666666666667,-0.12555555555555556,0.03490658503988659,-0.03381575425739013,-0.017453292519943295
1592167798.3295298,-0.009986495350542116,9.049959486051627,3.539986495350542,-0.43,-0.4266666666666667,-0.12555555555555556,0.03490658503988659,-0.02619025068104978,-0.014185219558654571
1592167798.3395298,-0.05,9.045477182397166,3.4772365081645358,-0.43,-0.4266666666666667,-0.12555555555555556,0.027177529465358476,-0.029150980931274106,-0.011604448314277888
1592167798.3495297,-0.04654071547275431,8.998616286189101,3.554842998338144,-0.43,-0.4266666666666667,-0.12555555555555556,0.015045221312086385,-0.03746559600965283,-0.007182996191747196
1592167798.3595297,-0.009854806262573255,8.98394192250503,3.6062032712323977,-0.43,-0.4266666666666667,-0.12555555555555556,0.012644134169066241,-0.04146740791468641,-0.002380821905706906
1592167798.3695297,0.053927916490337145,8.989165138477453,3.611669723045093,-0.4177777777777778,-0.4122222222222222,-0.13333333333333333,0.022816377167634,-0.04524360056901979,-0.0019477692262434955
1592167798.3795297,0.0766711989835722,9.05221920067762,3.4833423979671445,-0.4177777777777778,-0.4122222222222222,-0.13333333333333333,0.029573469747988475,-0.040483260770192014,-0.007998931339227685
1592167798.3895297,0.04900562897108207,9.069005628971082,3.430994371028918,-0.4177777777777778,-0.4122222222222222,-0.13333333333333333,0.029838213066982637,-0.032507985369380404,-0.010962542351342877
1592167798.3995297,0.02813220654587123,9.046731361455276,3.4574711738165154,-0.4177777777777778,-0.4122222222222222,-0.13333333333333333,0.01595497241842503,-0.028310664180030125,-0.011999138607461015
1592167798.4095297,-0.0019064670915992302,8.994163682589702,3.577625868366397,-0.4177777777777778,-0.4122222222222222,-0.13333333333333333,0.009401550444601517,-0.02749148643330219,-0.011999138607461015
1592167798.4195297,-0.05647136106949406,8.99764757404633,3.6711762129768353,-0.42444444444444446,-0.43333333333333335,-0.11888888888888889,0.015078934697786551,-0.02945243112740431,-0.01437349642961776
1592167798.4295297,-0.026626739150465307,8.979156684787617,3.6715668478761634,-0.42444444444444446,-0.43333333333333335,-0.11888888888888889,0.022460555585040072,-0.029360439708102745,-0.007175858380967369
1592167798.4395297,0.012522497640912334,8.972017998112731,3.5815134985845476,-0.42444444444444446,-0.43333333333333335,-0.11888888888888889,0.03027791655004887,-0.028141470898869304,-0.0022917262880121866
1592167798.4495296,0.06012649358312435,9.009873506416875,3.609747012833751,-0.42444444444444446,-0.43333333333333335,-0.11888888888888889,0.04599427088738957,-0.023832697501809646,-0.004363323129985824
1592167798.4595296,0.06786048827260659,9.002139511727393,3.594279023454787,-0.42444444444444446,-0.43333333333333335,-0.11888888888888889,0.056961694210026295,-0.013708922127068049,-0.004363323129985824
1592167798.4695296,0.044015791406536914,9.034488156445097,3.5642914524421596,-0.41,-0.41888888888888887,-0.12555555555555556,0.0692935182047568,0.00946101914101745,-0.00545415391248228
1592167798.4795296,-0.029149113442861977,9.091276329835706,3.365320123935741,-0.41,-0.41888888888888887,-0.12555555555555556,0.0761725201249642,0.018868983939568255,-0.005361336587588421
1592167798.4895296,-0.01,9.12,3.26,-0.41,-0.41888888888888887,-0.12555555555555556,0.07199483164476608,0.02617993877991494,-0.0032724923474893677
1592167798.4995296,2.9348684953154983e-05,9.110014674342477,3.2700880460548594,-0.41,-0.41888888888888887,-0.12555555555555556,0.05123223016101484,0.019625349750244398,0.002181661564992912
1592167798.5095296,0.015811039620724686,9.117905519810362,3.317433118862174,-0.41,-0.41888888888888887,-0.12555555555555556,0.03143480274754221,0.014460803468468932,0.002181661564992912
1592167798.5195296,0.020718709905764722,9.087843870282706,3.4492812900942353,-0.43,-0.4388888888888889,-0.12555555555555556,0.0032657358855352247,0.010516312380517917,0.0
1592167798.5295296,0.029996903065964694,9.060009290802107,3.4400030969340354,-0.43,-0.4388888888888889,-0.12555555555555556,-0.010903578301596658,0.005455843027970815,0.0
