time,acc_x,acc_y,acc_z,mag_x,mag_y,mag_z,gyr_x,gyr_y,gyr_z
1592167892.2894402,0.04,9.057343897377853,3.464529334087908,-0.3711111111111111,-0.4444444444444444,-0.54,-0.02283933381423913,-0.008368797791614481,-0.005164418062311556
1592167892.2994401,0.0546109011429352,9.067305450571467,3.4446109011429353,-0.3711111111111111,-0.4444444444444444,-0.54,-0.031170386541948897,-0.009020576006131785,-0.006251054948818598
1592167892.3094401,0.06,9.081737782889222,3.4676066743338336,-0.3711111111111111,-0.4444444444444444,-0.54,-0.04021772170430214,-0.01064723649404525,-0.005904787950287534
1592167892.3194401,0.09400635877937658,9.069596184732374,3.520807630535252,-0.35750856759936045,-0.448978625615028,-0.549824059202931,-0.05436880965121696,-0.011257234948317764,-0.006937961230768783
1592167892.32944,0.07371998647277647,9.001951978356443,3.6488400405816708,-0.3511111111111111,-0.45111111111111113,-0.5544444444444444,-0.07156897602917126,-0.004576250937783238,-0.008427322588372857
1592167892.33944,0.0743614481078604,8.97281927594607,3.654096379730349,-0.3511111111111111,-0.45111111111111113,-0.5544444444444444,-0.07557485929088795,0.0025181113381909695,-0.008726646259971648
1592167892.34944,0.09475984876204416,8.955240151237955,3.6695196975240885,-0.3511111111111111,-0.45111111111111113,-0.5544444444444444,-0.06399697583001449,0.009998497211106312,-0.009531671128703146
1592167892.35944,0.06479654005265137,8.961734486649116,3.668265513350884,-0.3511111111111111,-0.45111111111111113,-0.5544444444444444,-0.049115404671702875,0.019679342159650802,-0.011097510967833069
1592167892.36944,0.006340155781097208,9.003659844218904,3.6398040934686584,-0.34662313188192406,-0.44662313188192404,-0.5544444444444444,-0.030436411472460963,0.02802648353405965,-0.014936514144102178
1592167892.37944,0.002904980188019579,9.03935747028203,3.62354750990599,-0.34444444444444444,-0.4444444444444444,-0.5544444444444444,-0.020865963106438887,0.025933143718254646,-0.017770176701106706
1592167892.38944,0.05004908778532275,9.08,3.576584853691129,-0.34444444444444444,-0.4444444444444444,-0.5544444444444444,-0.014915160223088182,0.0032350098203971223,-0.022183795675246247
1592167892.39944,0.16878290449989725,8.978016027031346,3.7435711513435765,-0.34444444444444444,-0.4444444444444444,-0.5544444444444444,-0.029712132581706102,-0.011779806932352085,-0.024390743192898825
1592167892.40944,0.31056579294127185,8.884717103529363,3.9149054308824422,-0.34444444444444444,-0.4444444444444444,-0.5544444444444444,-0.04155446327884465,-0.015889080672335007,-0.03126360517126471
1592167892.41944,0.4843884916466163,8.78736690501203,4.021755396658646,-0.3490839329620718,-0.45372342147969924,-0.5590839329620718,-0.03215047126167077,0.006411574267853801,-0.047384433825033365
1592167892.42944,0.5258617355571671,8.805520908871163,3.9489581822576745,-0.3511111111111111,-0.4577777777777778,-0.5611111111111111,-0.0067691099463981184,0.03261338820271674,-0.052811292183865155
1592167892.43944,0.3398148101297847,9.008603992207858,3.55665241480507,-0.3511111111111111,-0.4577777777777778,-0.5611111111111111,0.052476420135651035,0.08209123263083457,-0.039087325720989455
1592167892.44944,0.16715573940020684,9.076877352637021,3.395297207859359,-0.3511111111111111,-0.4577777777777778,-0.5611111111111111,0.06729088052813846,0.11144121299727941,-0.032724923474893676
1592167892.45944,-0.052520480945587936,9.09,3.246219278581618,-0.3511111111111111,-0.4577777777777778,-0.5611111111111111,0.04900971325892616,0.1468198434283537,-0.020549477980618326
1592167892.46944,0.02559171882522869,9.193424169475204,3.1048271545498314,-0.34299941154442837,-0.44966607821109505,-0.5570552613277697,0.00973407601778807,0.12313478540027109,0.009427992156430854
1592167892.47944,0.13453512562009923,9.2649335893743,3.04753320531285,-0.3377777777777778,-0.4444444444444444,-0.5544444444444444,-0.01566491656112169,0.09425439546409586,0.02477655678665518
1592167892.48944,0.40672344911774494,9.22870047719454,3.052824880701365,-0.3377777777777778,-0.4444444444444444,-0.5544444444444444,-0.09914242727296485,0.028352309338076576,0.020525468339041137
1592167892.49944,0.5710289689966637,9.165906094881601,3.111140857677598,-0.3377777777777778,-0.4444444444444444,-0.5544444444444444,-0.1507103135487196,0.005651833150224945,0.00906097892676902
1592167892.50944,0.8407829977628636,9.034608501118568,3.4467834949043006,-0.3377777777777778,-0.4444444444444444,-0.5544444444444444,-0.24187999884201863,-0.009238845948794865,-0.0021911517656857714
1592167892.51944,0.9892092289489253,8.984079077105108,3.6973673831591403,-0.3417250597077061,-0.4483917263743728,-0.5583917263743727,-0.28453431475069113,0.0061715510056839515,-0.001334874861128329
1592167892.52944,0.9719985358711567,8.97033308931186,3.736444607125427,-0.34444444444444444,-0.45111111111111113,-0.5611111111111111,-0.3011664539084097,0.02050777842261456,0.012653956500321261
1592167892.53944,0.45501134129744436,8.918146075911084,3.7372584303644336,-0.34444444444444444,-0.45111111111111113,-0.5611111111111111,-0.32438120589436764,0.058833767733826314,0.04621935635777135
1592167892.54944,-0.07368600191754557,8.926407478427613,3.789416826462128,-0.34444444444444444,-0.45111111111111113,-0.5611111111111111,-0.3153773248708053,0.10117160052528977,0.010569841754029356
1592167892.55944,-0.2958703298792661,8.938003929397597,3.81001964698799,-0.34444444444444444,-0.45111111111111113,-0.5611111111111111,-0.304568098457938,0.11715222562461977,-0.01678507786530442
1592167892.56944,-0.5025408085956333,8.89552448515738,3.8102214339830565,-0.34444444444444444,-0.4440883210505774,-0.5572804983508199,-0.28735254403185195,0.09317831615590483,-0.012758152174522829
1592167892.5794399,-0.4169277566539924,8.861923954372623,3.870958174904943,-0.34444444444444444,-0.4388888888888889,-0.5544444444444444,-0.2864480158380085,0.060479308509697044,0.014872627451999208
1592167892.5894399,-0.022408101405345826,8.815599614218794,4.120396527969138,-0.34444444444444444,-0.4388888888888889,-0.5544444444444444,-0.2701778940171571,-0.035864496182807425,0.036695800016390286
1592167892.5994399,0.10841391345734344,8.808308808947766,4.190063062705747,-0.34444444444444444,-0.4388888888888889,-0.5544444444444444,-0.248868675463504,-0.06764985271228864,0.02124483047476261
1592167892.6094398,0.5841383989145184,8.634568775440977,4.442112237109905,-0.34444444444444444,-0.4388888888888889,-0.5544444444444444,-0.17201269166497454,-0.11368620006483549,-0.06421329608671698
1592167892.6194398,0.94,8.500411049650559,4.497122652446093,-0.34444444444444444,-0.4388888888888889,-0.5579147943279638,-0.10428607482148133,-0.125804248476663,-0.08306742709081015
1592167892.6294398,0.9124278659755948,8.548600987634167,4.398751581439007,-0.34444444444444444,-0.4388888888888889,-0.5611111111111111,-0.04987437890996825,-0.13096402277688393,-0.06595557431742233
1592167892.6394398,0.79,8.816457142857143,4.186238655462184,-0.34444444444444444,-0.4388888888888889,-0.5611111111111111,0.051764778951429294,-0.10557811977909648,-0.04492572827743807
1592167892.6494398,0.601873390299675,8.883931399687087,4.093588398122518,-0.34444444444444444,-0.4388888888888889,-0.5611111111111111,0.05287219649659895,-0.09708393964218458,-0.05208932947021998
1592167892.6594398,0.47900174912543725,8.870017491254373,4.066006996501749,-0.34444444444444444,-0.4388888888888889,-0.5611111111111111,0.04537741575193091,-0.09904400065091322,-0.04941406204712862
1592167892.6694398,0.4118521527213647,8.784845653939886,4.000926076360683,-0.36059662424406536,-0.435120046935644,-0.5681103890242802,0.07294077954104145,-0.11830463027080675,-0.05711708719088774
1592167892.6794398,0.3541918322641214,8.795589109685494,3.9651095290251916,-0.37777777777777777,-0.4311111111111111,-0.5755555555555556,0.09766972140490213,-0.12067727302492498,-0.05996727442906135
1592167892.6894398,0.5225940326261516,8.97235821147832,3.7259910404868566,-0.37777777777777777,-0.4311111111111111,-0.5755555555555556,0.11329205679930016,-0.11975986920411327,-0.030543261909900768
1592167892.6994398,0.6278557169139234,9.068570477942616,3.559642619485654,-0.37777777777777777,-0.4311111111111111,-0.5755555555555556,0.10592681251936979,-0.10919930486685918,-0.030933103576013917
1592167892.7094398,0.5623871308248851,9.018580696237327,3.569032172937787,-0.37777777777777777,-0.4311111111111111,-0.5755555555555556,0.06468281345144056,-0.07625965783826366,-0.04103635213289864
1592167892.7194397,0.504963229285831,8.981985291714333,3.631525739499918,-0.353758166730221,-0.4311111111111111,-0.5785580069365002,0.02513121524220124,-0.0595545474490773,-0.04232583878593889
1592167892.7294397,0.44766238429620175,8.958441589530802,3.67,-0.3244444444444444,-0.4311111111111111,-0.5822222222222222,0.005355011216881939,-0.051424898398468116,-0.0441290753433063
1592167892.7394397,0.433827402222331,8.94921826814822,3.633126927407117,-0.3244444444444444,-0.4311111111111111,-0.5822222222222222,-0.007721089194233077,-0.03432739655793745,-0.030049347144709505
1592167892.7494397,0.46886972998578874,8.978869729985789,3.618304594978683,-0.3244444444444444,-0.4311111111111111,-0.5822222222222222,-0.019924378206810325,-0.02212484898093771,-0.01255395860327648
1592167892.7594397,0.5009808599064428,9.0,3.6683014331774046,-0.3244444444444444,-0.4311111111111111,-0.5822222222222222,-0.05686672838097297,-0.011571157735755264,0.01019587377271032
1592167892.7694397,0.551470545769564,8.979973289055732,3.7143047935316202,-0.3301663618570924,-0.4368330285237591,-0.5822222222222222,-0.10114392172581058,0.0026570691186985945,0.031634092692397225
1592167892.7794397,0.536327479338843,8.91959194214876,3.776020144628099,-0.34444444444444444,-0.45111111111111113,-0.5822222222222222,-0.11444820774909355,0.03334809436613391,0.013468604868179385
1592167892.7894397,0.33856834046385953,8.91484485476244,3.756396307138032,-0.34444444444444444,-0.45111111111111113,-0.5822222222222222,-0.1081276372278589,0.05328147114143914,-0.008028917387924939
1592167892.7994397,0.22483833278301288,8.915161667216987,3.7583833278301286,-0.34444444444444444,-0.45111111111111113,-0.5822222222222222,-0.11049006737353717,0.05996042272194306,-0.004117705419314744
1592167892.8094397,0.23,8.91,3.81,-0.34444444444444444,-0.45111111111111113,-0.5822222222222222,-0.11780972450961724,0.061086523819801536,0.00545415391248228
1592167892.8194396,0.21750661510278851,8.927814980663545,3.8846784042336657,-0.34715222651921207,-0.4484033290363435,-0.5822222222222222,-0.14429528685397477,0.06769878344396742,-0.018235613354896738
1592167892.8294396,0.17,8.91,3.95,-0.3511111111111111,-0.4444444444444444,-0.5822222222222222,-0.15271630954950383,0.074176493209759,-0.030543261909900768
1592167892.8394396,0.037277595352361706,8.78,3.93212932558727,-0.3511111111111111,-0.4444444444444444,-0.5822222222222222,-0.14843677566957034,0.07662277560918222,-0.006796352445135722
1592167892.8494396,0.05749556076425883,8.804640954613253,3.894640954613254,-0.3511111111111111,-0.4444444444444444,-0.5822222222222222,-0.13111462142217184,0.07481933879555154,0.02769868762560679
1592167892.8594396,0.18593131313131314,8.843280808080808,3.9824929292929294,-0.3511111111111111,-0.4444444444444444,-0.5822222222222222,-0.11890055529211369,0.07954470287877186,0.03783838559146899
1592167892.8694396,0.266723822732144,8.843361911366072,4.09,-0.3511111111111111,-0.4432151687714948,-0.5854183389718912,-0.12155560014568415,0.09536630922642486,0.038768468463261804
1592167892.8794396,0.18323775444915757,8.811830612099813,4.069576530249532,-0.3511111111111111,-0.4388888888888889,-0.5966666666666667,-0.12911740994043905,0.11948470643367759,0.061716868345292095
1592167892.8894396,0.11411060166557499,8.815889398334425,3.9883594554131188,-0.3511111111111111,-0.4388888888888889,-0.5966666666666667,-0.12176989344449075,0.1345753404421764,0.07656727235364587
1592167892.8994396,0.07058289720074903,8.8633005233591,3.9410673644788017,-0.3511111111111111,-0.4388888888888889,-0.5966666666666667,-0.12216231060064346,0.14773861828782917,0.07557450805809988
1592167892.9094396,-0.002902343241080234,8.872419922202162,4.029837890152431,-0.3511111111111111,-0.4388888888888889,-0.5966666666666667,-0.1401892258161697,0.16309667224859525,0.07424680062288386
1592167892.9194396,-0.10308926449227519,8.800732206523175,4.133901690215239,-0.3500813562803527,-0.4370010050324985,-0.601128937599953,-0.15144823496958737,0.17772554620546,0.08265477488809596
1592167892.9294395,-0.14891069576873467,8.725219403626799,4.230650496977668,-0.34444444444444444,-0.4266666666666667,-0.6255555555555555,-0.12051455115537801,0.1841606193704882,0.08726646259971647
1592167892.9394395,-0.20799745418738141,8.7394929990153,4.174512092609938,-0.34444444444444444,-0.4266666666666667,-0.6255555555555555,-0.08066894972742177,0.18347801532098096,0.0833400271928834
1592167892.9494395,-0.2163129897203652,8.80456233675988,4.09737402055927,-0.34444444444444444,-0.4266666666666667,-0.6255555555555555,-0.06376585912257349,0.17460815130328422,0.08003283755308194
1592167892.9594395,-0.19664511406612176,8.803290228132244,4.156839087471026,-0.34444444444444444,-0.4266666666666667,-0.6255555555555555,-0.06765266773088578,0.16287153558867512,0.08217826997207808
1592167892.9694395,-0.1832600551353644,8.78056407718951,4.231567823566834,-0.3471404223902987,-0.4266666666666667,-0.6245071196877233,-0.07373536484991859,0.15195711538222736,0.08393243897602494
1592167892.9794395,-0.10273720897150174,8.72,4.378280620228555,-0.36444444444444446,-0.4266666666666667,-0.6177777777777778,-0.0605163321022782,0.131726442148047,0.09008731717503231
1592167892.9894395,-0.057695537588779204,8.712304462411222,4.370761156028052,-0.36444444444444446,-0.4266666666666667,-0.6177777777777778,-0.0323836460013329,0.13106804251053308,0.08567058598434488
1592167892.9994395,-0.07,8.686281058674988,4.326281058674988,-0.36444444444444446,-0.4266666666666667,-0.6177777777777778,0.004804987850649754,0.13195897720202374,0.07027749493437563
1592167893.0094395,-0.08081714113571321,8.695155708691068,4.259435720741076,-0.36444444444444446,-0.4266666666666667,-0.6177777777777778,0.04759123085903958,0.12833390430089767,0.04970495169070484
1592167893.0194395,-0.09785467367256637,8.798832964601768,4.136750553097346,-0.3638310441248771,-0.4274027470501475,-0.6193726186086529,0.08265539478496152,0.12194589178251793,0.04386725009950471
1592167893.0294394,0.0,8.885264149166588,4.03,-0.35888888888888887,-0.43333333333333335,-0.6322222222222222,0.07696017133006038,0.09879170770427216,0.05412527403033449
1592167893.0394394,0.013959970612462989,8.857650110203263,4.0963098604092,-0.35888888888888887,-0.43333333333333335,-0.6322222222222222,0.04416012901468877,0.09462411222055131,0.041649034950540426
1592167893.0494394,0.06441753171856979,8.73253027681661,4.229156574394463,-0.35888888888888887,-0.43333333333333335,-0.6322222222222222,0.017396360463532726,0.10050536750741099,0.02263143604844615
1592167893.0594394,0.13256315809773594,8.667487368380453,4.224873683804528,-0.35888888888888887,-0.43333333333333335,-0.6322222222222222,0.0194104727473341,0.10608467149372382,0.040141769198540705
1592167893.0694394,0.17636023662201675,8.672720473244034,4.139399605629972,-0.35947779968722376,-0.4312132544593278,-0.633517825978559,0.05377817267255833,0.10690141668465267,0.07361368475272607
1592167893.0794394,0.17897888030500653,8.85849403029999,3.9597318651550113,-0.36444444444444446,-0.41333333333333333,-0.6444444444444445,0.09996938241986371,0.1056170611172511,0.08255715885257736
1592167893.0894394,0.1,8.98,3.82,-0.36444444444444446,-0.41333333333333333,-0.6444444444444445,0.09599310885968812,0.10362892433716332,0.07526732399225547
1592167893.0994394,0.1218858421936206,8.982506195539212,3.6381141578063794,-0.36444444444444446,-0.41333333333333333,-0.6444444444444445,0.04642392333770711,0.09033324147563264,0.07144806459654059
1592167893.1094394,0.23190202391904324,8.99452449402024,3.6085706071757127,-0.36444444444444446,-0.41333333333333333,-0.6444444444444445,0.017064113299302165,0.08508480103472357,0.060723122626506656
1592167893.1194394,0.40229257641921395,8.965698689956332,3.6537991266375545,-0.3669771955361475,-0.41755458515283844,-0.6419116933527415,-0.012389741769752322,0.08612085210543527,0.04769169342512889
1592167893.1294394,0.54,8.99,3.67,-0.37777777777777777,-0.43555555555555553,-0.6311111111111111,-0.05126904677733343,0.09053895494720585,0.0370882466048795
1592167893.1394393,0.555914150276301,8.95704292486185,3.7081716994473983,-0.37777777777777777,-0.43555555555555553,-0.6311111111111111,-0.10606898792472336,0.1110184794017553,0.04646002658222105
1592167893.1494393,0.6017591203226109,8.914712088530433,3.785863734408703,-0.37777777777777777,-0.43555555555555553,-0.6311111111111111,-0.14180685084333294,0.1217869653575866,0.04722669162822378
1592167893.1594393,0.605836323123985,8.822918161561992,4.007081838438007,-0.37777777777777777,-0.43555555555555553,-0.6311111111111111,-0.15439797439229577,0.13810344497707924,0.04167905444278275
1592167893.1694393,0.4588118281489947,8.753564515553016,4.071682797042963,-0.37777777777777777,-0.43383930732632564,-0.6326953402457849,-0.15365583192304286,0.1507182126660267,0.03352427909883728
1592167893.1794393,0.45,8.78,4.01,-0.37777777777777777,-0.4211111111111111,-0.6444444444444445,-0.13635384781205698,0.14398966328953217,0.05563236990731925
1592167893.1894393,0.46806130268199236,8.880077421059585,3.9550387105297924,-0.37777777777777777,-0.4211111111111111,-0.6444444444444445,-0.13329283453581023,0.13007945948082714,0.07611289439350571
1592167893.1994393,0.23704546000336207,8.827329555005884,3.9853408899882328,-0.37777777777777777,-0.4211111111111111,-0.6444444444444445,-0.1715641239559392,0.12666033059915044,0.06439000612468129
1592167893.2094393,0.21,8.78,4.08,-0.37777777777777777,-0.4211111111111111,-0.6444444444444445,-0.20180369476184434,0.11780972450961724,0.062177354602297986
1592167893.2194393,0.11189457981103929,8.759656224100778,4.13,-0.37482726485809525,-0.4211111111111111,-0.6436397591027129,-0.2059411853628499,0.10723974961357816,0.08359897125878409
1592167893.2294393,-0.02,8.83,4.13,-0.35333333333333333,-0.4211111111111111,-0.6377777777777778,-0.19634954084936207,0.09381144729469522,0.08072147790473774
1592167893.2394392,0.07,8.722620639421452,4.224565698082776,-0.35333333333333333,-0.4211111111111111,-0.6377777777777778,-0.2029261088710211,0.07493934547494077,0.06373464245934184
1592167893.2494392,0.07,8.76,4.09,-0.35333333333333333,-0.4211111111111111,-0.6377777777777778,-0.2127120025868089,0.05781403147231216,0.039269908169872414
1592167893.2594392,0.22035878787878788,8.679396363636364,4.227226666666667,-0.35333333333333333,-0.4211111111111111,-0.6377777777777778,-0.18788628064014593,0.04427741646013978,0.042359140945902374
1592167893.2694392,0.3220387878787879,8.726325594405594,4.31326358974359,-0.35333333333333333,-0.4211111111111111,-0.6377777777777778,-0.16740954083136322,0.036598639031846264,0.014203623708826163
1592167893.2794392,0.41,8.71,4.45,-0.38666666666666666,-0.41555555555555557,-0.6444444444444445,-0.15271630954950383,0.038179077387375956,-0.007635815477475192
1592167893.2894392,0.5,8.632233057808142,4.588932231232563,-0.38666666666666666,-0.41555555555555557,-0.6444444444444445,-0.15623239071661457,0.03417581858102244,0.00730766458864148
1592167893.2994392,0.5,8.64,4.62,-0.38666666666666666,-0.41555555555555557,-0.6444444444444445,-0.15707963267948966,0.031634092692397225,0.032724923474893676
1592167893.3094392,0.3474404869659667,8.538604498551774,4.640231489862419,-0.38666666666666666,-0.41555555555555557,-0.6444444444444445,-0.09652482468802258,0.040031036138244026,0.04462233974223278
1592167893.3194392,0.2594793372895465,8.541572728981498,4.576843801186864,-0.3894721767227876,-0.41426969677983344,-0.6450289257061363,-0.03181033739093596,0.046330738865510236,0.0299694487730595
1592167893.3294392,0.15491877030742315,8.646463384153963,4.5370732316920765,-0.41333333333333333,-0.4033333333333333,-0.65,0.03727445940779005,0.061640799995961316,0.02485409271761045
1592167893.3394392,0.1,8.657411127546881,4.46230448060314,-0.41333333333333333,-0.4033333333333333,-0.65,0.055616858738106865,0.0659836289641263,0.02949120905043527
1592167893.3494391,0.10765775762253957,8.62510517174836,4.367237070629101,-0.41333333333333333,-0.4033333333333333,-0.65,0.05047960483560102,0.05774519672397632,0.046371780714155354
1592167893.3594391,0.13,8.64,4.33,-0.41333333333333333,-0.4033333333333333,-0.65,0.0545415391248228,0.04799655442984406,0.04799655442984406
1592167893.3694391,-0.026916932907348257,8.741534485998873,4.366921631272318,-0.41333333333333333,-0.4033333333333333,-0.65,0.06561723340607534,0.03893462274518289,0.02081075937586055
1592167893.379439,-0.15,8.75,4.36,-0.4066666666666667,-0.41,-0.6644444444444444,0.06326818538479445,0.022907446432425576,-0.00545415391248228
1592167893.389439,-0.13958310556146963,8.757386425755962,4.22128808585321,-0.4066666666666667,-0.41,-0.6644444444444444,0.0498931192710634,-0.0115776134977073,-0.01100742005016017
1592167893.399439,-0.24,8.73,4.13,-0.4066666666666667,-0.41,-0.6644444444444444,0.04690572364734761,-0.04145156973486533,-0.03490658503988659
1592167893.409439,-0.22745455349639523,8.768207793356627,4.140896103321686,-0.4066666666666667,-0.41,-0.6644444444444444,0.04859863666854428,-0.07701123476377716,-0.04778547102618083
1592167893.419439,-0.09800956365809922,8.751326957561266,4.15,-0.4066666666666667,-0.4095822541010825,-0.6637809656638108,0.043223110222637515,-0.10629308128712178,-0.05718157130553299
1592167893.429439,-0.008323500165727544,8.801617500828637,4.165088498508452,-0.4066666666666667,-0.39111111111111113,-0.6344444444444445,0.018322630780942456,-0.1278100793146928,-0.07927776318332297
1592167893.439439,0.009105188892734485,8.745204068049306,4.2343092569420415,-0.4066666666666667,-0.39111111111111113,-0.6344444444444445,-0.0197411301010382,-0.12921464335081376,-0.08810898787409695
1592167893.449439,0.08,8.63,4.19,-0.4066666666666667,-0.39111111111111113,-0.6344444444444445,-0.0545415391248228,-0.13308135546456762,-0.08617563181722002
1592167893.459439,0.2856423251509409,8.644030232250673,4.2256423251509405,-0.4066666666666667,-0.39111111111111113,-0.6344444444444445,-0.05401398295686563,-0.12548125843367455,-0.07984221762480913
1592167893.469439,0.3484286739286413,8.690071423912334,4.290642815211011,-0.4065634987932946,-0.39115872705266747,-0.6344920603860008,-0.04814458609398755,-0.113306160855706,-0.06989108148195397
1592167893.479439,0.13,8.7,4.38,-0.39222222222222225,-0.3977777777777778,-0.6411111111111111,-0.06872233929727672,-0.09381144729469522,-0.08072147790473774
1592167893.489439,0.21836165958510373,8.593276680829792,4.421808297925518,-0.39222222222222225,-0.3977777777777778,-0.6411111111111111,-0.09278018825075798,-0.0916297857297023,-0.02802270940198281
1592167893.499439,0.18118662608199373,8.651958527537335,4.281958527537335,-0.39222222222222225,-0.3977777777777778,-0.6411111111111111,-0.09242277291273561,-0.08895925807208768,-0.0058361988987994055
1592167893.509439,0.09140269817132608,8.666873708425937,4.306252583148126,-0.39222222222222225,-0.3977777777777778,-0.6411111111111111,-0.08073898002455672,-0.062227606739761215,-0.03064602040682093
1592167893.519439,0.0014559207704604726,8.634165789371076,4.371668421257847,-0.39222222222222225,-0.3977777777777778,-0.6411111111111111,-0.092334591628901,-0.03992835365448377,-0.0431336021345763
1592167893.529439,-0.14,8.56,4.44,-0.41888888888888887,-0.3977777777777778,-0.62,-0.12980886311707826,-0.017453292519943295,-0.04036073895236887
1592167893.539439,-0.313034081248873,8.676852314588217,4.428988639583709,-0.41888888888888887,-0.3977777777777778,-0.62,-0.13501758783111842,-0.0020713392575640475,-0.01649756862846008
1592167893.549439,-0.3500030742308511,8.591676401731029,4.409996925769149,-0.41888888888888887,-0.3977777777777778,-0.62,-0.11253709627208063,-0.004182468148169127,-0.03235986004561541
1592167893.559439,-0.3339496271281835,8.73382439848037,4.3707837343464195,-0.41888888888888887,-0.3977777777777778,-0.62,-0.10519848049050634,-0.02360504399911284,-0.005344717814561924
1592167893.569439,0.07916561136907274,8.632653319664717,4.438231120223523,-0.41888888888888887,-0.3977777777777778,-0.62,-0.08772473037101189,-0.04843616258997334,0.015807716540615538
1592167893.579439,-0.08584875700888205,8.61453580112142,4.445901850841066,-0.4311111111111111,-0.40444444444444444,-0.6133333333333333,-0.07591111604936918,-0.057718550625772004,-0.008667322559400212
1592167893.589439,0.13,8.58,4.42,-0.4311111111111111,-0.40444444444444444,-0.6133333333333333,-0.07308566242726255,-0.07090400086226964,0.02617993877991494
1592167893.599439,0.1756404778859087,8.627992457209167,4.3029063480760605,-0.4311111111111111,-0.40444444444444444,-0.6133333333333333,-0.0518843274679274,-0.0724328095394499,0.03112097040327607
1592167893.609439,0.12,8.73,4.34,-0.4311111111111111,-0.40444444444444444,-0.6133333333333333,-0.04581489286485115,-0.05017821599483697,-0.0032724923474893677
1592167893.619439,-0.17503016812137545,8.714870247788648,4.42321363716244,-0.4311111111111111,-0.40444444444444444,-0.6133333333333333,-0.059843292391985284,-0.028723016718043577,-0.0239024916520984
1592167893.6294389,-0.23,8.64,4.45,-0.4388888888888889,-0.39111111111111113,-0.6266666666666667,-0.07853981633974483,-0.011999138607461015,-0.01308996938995747
1592167893.6394389,-0.5610942100098135,8.64859382263313,4.491406177366872,-0.4388888888888889,-0.39111111111111113,-0.6266666666666667,-0.06485338601910719,-0.010431037665441421,-0.046172803228252256
1592167893.6494389,-0.38,8.62,4.52,-0.4388888888888889,-0.39111111111111113,-0.6266666666666667,-0.030543261909900768,-0.022907446432425576,-0.053450708342326333
1592167893.6594388,-0.11534205592564523,8.600395707846344,4.529802146076828,-0.4388888888888889,-0.39111111111111113,-0.6266666666666667,-0.005950551757099919,-0.0485694048527395,-0.053450708342326333
1592167893.6694388,0.04299741602067182,8.653999088007296,4.592998936008511,-0.4388888888888889,-0.39111111111111113,-0.6266666666666667,0.016143930810052047,-0.058904696449856124,-0.03185262361979201
1592167893.6794388,0.13,8.59,4.64,-0.4577777777777778,-0.39111111111111113,-0.6055555555555555,0.04908738521234052,-0.05563236990731925,-0.02945243112740431
1592167893.6894388,0.09154779233381853,8.666904415332363,4.543869480834546,-0.4577777777777778,-0.39111111111111113,-0.6055555555555555,0.06691394721765773,-0.037805807902002046,-0.05357072089930406
1592167893.6994388,-0.26522981753662456,8.618586328434075,4.300459635073249,-0.4577777777777778,-0.39111111111111113,-0.6055555555555555,0.09215013191661978,-0.02322344656463653,-0.09848318571677103
1592167893.7094388,-0.20271247191411962,8.707516316559078,4.206241841720461,-0.4577777777777778,-0.39111111111111113,-0.6055555555555555,0.09782185229481133,-0.04862751983681003,-0.07473618638898741
1592167893.7194388,-0.030686187096544082,8.782310353436285,4.168844823281858,-0.4577777777777778,-0.39111111111111113,-0.6055555555555555,0.10516473969436622,-0.06576092376910479,-0.015177210814819889
1592167893.7294388,0.16,8.8,4.29,-0.44555555555555554,-0.39111111111111113,-0.6055555555555555,0.09053895494720585,-0.06544984694978735,0.01308996938995747
1592167893.7394388,0.16967724028548772,8.741936558287074,4.2996772402854875,-0.44555555555555554,-0.39111111111111113,-0.6055555555555555,0.05992588332743397,-0.03800364480792291,-0.014356232751906966
1592167893.7494388,0.19,8.67,4.31,-0.44555555555555554,-0.39111111111111113,-0.6055555555555555,0.042542400517361786,-0.006544984694978735,-0.01090830782496456
1592167893.7594388,0.32608600935936743,8.679720429239955,4.251677424560271,-0.44555555555555554,-0.39111111111111113,-0.6055555555555555,0.04466306920416605,0.017842705203270356,0.01029837904307813
1592167893.7694387,0.20542939111396324,8.648857347778492,4.3278566305537725,-0.44555555555555554,-0.39111111111111113,-0.6055555555555555,0.057463323466781145,0.042324077886702456,0.004114035086603786
1592167893.7794387,0.024880221884050854,8.650602326837172,4.379698836581414,-0.4533333333333333,-0.37666666666666665,-0.6,0.06554840244805375,0.06551555061529828,-0.020029176078001785
1592167893.7894387,-0.14,8.67,4.37,-0.4533333333333333,-0.37666666666666665,-0.6,0.06872233929727672,0.06763150851478027,-0.032724923474893676
1592167893.7994387,0.007087909955365818,8.735372404424607,4.165711236173103,-0.4533333333333333,-0.37666666666666665,-0.6,0.06961371718567884,0.048912572858335945,-0.014897365706851465
1592167893.8094387,0.09699357077252782,8.787995713848352,4.21498928462088,-0.4533333333333333,-0.37666666666666665,-0.6,0.055306757085724995,0.02918147673158878,0.012923656379543175
1592167893.8194387,0.10727499363103687,8.731800050951705,4.2927499363103685,-0.4533333333333333,-0.37666666666666665,-0.6,0.03866996513442143,0.027568021645387786,0.007038591876773315
1592167893.8294387,0.10971631718486383,8.680257893468305,4.289793685225356,-0.4577777777777778,-0.3688888888888889,-0.5933333333333334,0.01966308589831946,0.03820158283808256,0.011979446338092737
1592167893.8394387,-0.00048630107246754376,8.779756849463766,4.208784247318831,-0.4577777777777778,-0.3688888888888889,-0.5933333333333334,0.030556523714385983,0.04697203266977369,0.004389846738956256
1592167893.8494387,-0.03690938300551431,8.761545308497242,4.117726542486214,-0.4577777777777778,-0.3688888888888889,-0.5933333333333334,0.031549809188534936,0.05193846004051843,0.006376417687254152
1592167893.8594387,-0.13979059818959608,8.678353146935786,4.227934343314978,-0.4577777777777778,-0.3688888888888889,-0.5933333333333334,-0.010918182046554599,0.042463999713562024,0.0015970457718448025
1592167893.8694386,0.031028571428571433,8.583106285714287,4.435510857142857,-0.4577777777777778,-0.3688888888888889,-0.5933333333333334,-0.039758101694930256,0.02170441591230091,0.018468326146353138
1592167893.8794386,0.12971753246753248,8.589623376623376,4.55952922077922,-0.4533751803751804,-0.3820966810966811,-0.5867294372294373,-0.010187226177833783,-0.0020275994252572094,0.03373358778286443
1592167893.8894386,0.1397360553115949,8.755512940297113,4.394487059702887,-0.4533333333333333,-0.38222222222222224,-0.5866666666666667,0.04434650601080858,-5.7583798197747855e-05,0.03062963760719739
1592167893.8994386,0.021011661807580184,8.778305898183449,4.206941018165509,-0.4533333333333333,-0.38222222222222224,-0.5866666666666667,0.04182116541690068,0.008985886757888556,0.010574624670148417
1592167893.9094386,0.07450383891061857,8.770785165869912,4.236074170650442,-0.4533333333333333,-0.38222222222222224,-0.5866666666666667,0.005265000725947697,0.009817477042468103,0.01877847098467099
1592167893.9194386,0.049029236957435315,8.746771927718077,4.278713453803206,-0.4533333333333333,-0.38222222222222224,-0.5866666666666667,-0.0037305142297478903,0.012351266668785589,0.006966005953348774
1592167893.9294386,-0.12263967468175391,8.658680162659124,4.27192892503536,-0.470400459688826,-0.38222222222222224,-0.5475126709099482,0.006373336994055497,0.030831205749764133,-0.0351668530987584
1592167893.9394386,-0.27366747321119944,8.730200483926719,4.207621845834773,-0.4722222222222222,-0.38222222222222224,-0.5433333333333333,0.019300503029258932,0.030780808882929722,-0.04607430924174627
1592167893.9494386,-0.029859725234996415,8.775881417208966,4.208970354302242,-0.4722222222222222,-0.38222222222222224,-0.5433333333333333,0.016811729426318842,0.011951498564610124,-0.009722196956766321
1592167893.9594386,0.06277603199542924,8.708255963433794,4.29071204113698,-0.4722222222222222,-0.38222222222222224,-0.5433333333333333,-0.011028749503991808,-0.0028998710339141233,0.0043284215308886645
1592167893.9694386,0.10292881534016285,8.57651694247439,4.431715261360651,-0.4722222222222222,-0.38222222222222224,-0.5433333333333333,-0.02136475325329216,-0.007955299670404939,0.0036581656422727217
1592167893.9794385,0.27983980163263034,8.70096871256234,4.375080099183685,-0.4523027393146915,-0.38851258524565296,-0.5506720901940025,-0.00746857278959516,-0.0035803550456948415,0.025916173690307312
1592167893.9894385,0.13738290957751864,8.795847113362646,4.312768591091569,-0.45111111111111113,-0.3888888888888889,-0.5511111111111111,0.02362941021045091,0.018577931549545894,0.029351762314509994
1592167893.9994385,0.11061882684942553,8.774158435799235,4.271237653698851,-0.45111111111111113,-0.3888888888888889,-0.5511111111111111,0.04200237221625086,0.03443406027641453,0.02381467638779352
1592167894.0094385,-0.05397198792849958,8.67446000670639,4.25,-0.45111111111111113,-0.3888888888888889,-0.5511111111111111,0.047536660464564985,0.053739559455667114,0.007662432772743104
1592167894.0194385,-0.06543081672747685,8.769268874543924,4.140731125456076,-0.45111111111111113,-0.3888888888888889,-0.5511111111111111,0.03975409253207229,0.04848073879204393,0.0022756511945821374
1592167894.0294385,-0.033929249036048714,8.87083175224922,4.0913097496786826,-0.46173252817049865,-0.3715083882462547,-0.5569046113253225,0.043723961395544186,0.035387341050949504,0.017206138131253542
1592167894.0394385,-0.04715307191328506,8.84569385617343,4.0814234640433575,-0.4633333333333333,-0.3688888888888889,-0.5577777777777778,0.033497402767922665,0.03381575425739013,0.00934384971337351
1592167894.0494385,-0.04154538563577791,8.789272313814667,4.063090771271556,-0.4633333333333333,-0.3688888888888889,-0.5577777777777778,0.006733197965295777,0.03012673281633807,-0.010809291727785136
1592167894.0594385,-0.14647896769419327,8.78819068982263,4.117334828758412,-0.4633333333333333,-0.3688888888888889,-0.5577777777777778,-0.021048445564861427,0.02766549980972321,-0.04366516691419212
1592167894.0694385,-0.24030641472109462,8.726724226751013,4.108908075583671,-0.4633333333333333,-0.3688888888888889,-0.5577777777777778,-0.03921764701531938,0.02957154160395336,-0.05554668409176821
1592167894.0794384,-0.22125033198571722,8.708124944669049,4.1,-0.4633333333333333,-0.36347225910952413,-0.5406251168097894,-0.055359589783647196,0.01015850048242347,-0.02679374234354236
1592167894.0894384,-0.23450976791166409,8.840718762195541,4.010130850990565,-0.4633333333333333,-0.3622222222222222,-0.5366666666666666,-0.0453372271276982,-0.012369852294109106,-0.0027021481886743866
1592167894.0994384,-0.08829741227348575,8.838062613110207,3.9660469598326555,-0.4633333333333333,-0.3622222222222222,-0.5366666666666666,-0.05038101458203576,-0.024201075802120824,0.025477630094815518
1592167894.1094384,-0.09016732875887806,8.84606693150355,4.03230119176598,-0.4633333333333333,-0.3622222222222222,-0.5366666666666666,-0.09442300587423566,-0.036695720858516384,0.01848936509414542
1592167894.1194384,0.02877295545529643,8.764151363029802,4.207389167778695,-0.4633333333333333,-0.3622222222222222,-0.5366666666666666,-0.1406175171926008,-0.03536797750977013,0.01605201708697084
1592167894.1294384,0.13842995251597037,8.691046698322687,4.338168277935298,-0.4633333333333333,-0.3622222222222222,-0.5366666666666666,-0.19207799909529563,-0.021068316092544795,-0.005945555051032503
1592167894.1394384,0.14619891061561974,8.652806536306281,4.358596731846859,-0.4633333333333333,-0.3622222222222222,-0.5366666666666666,-0.19104845974663406,0.0022648876919383436,-0.01804032097466424
1592167894.1494384,0.0236064288514308,8.613147523846857,4.260458905004573,-0.4633333333333333,-0.3622222222222222,-0.5366666666666666,-0.1760171563425318,0.04117978139877958,-0.04163398777164031
1592167894.1594384,-0.007861551256237416,8.688615512562375,4.295030858793662,-0.4633333333333333,-0.3622222222222222,-0.5366666666666666,-0.171726969995241,0.04838757949739439,-0.027572817865399783
1592167894.1694384,-0.07335939500167399,8.690992181499498,4.341679697500837,-0.4633333333333333,-0.3622222222222222,-0.5366666666666666,-0.1733338642047889,0.04908738521234052,-0.0028642766882539354
1592167894.1794384,-0.1612633362620811,8.64338333124137,4.4185866700138074,-0.4690292595846757,-0.3671044447233728,-0.5155103691616808,-0.19370536812793973,0.049886237001028295,0.01671516414684948
1592167894.1894383,-0.07912705232112584,8.64551891502752,4.486556745082558,-0.4711111111111111,-0.3688888888888889,-0.5077777777777778,-0.2159485231800161,0.041713960883354634,0.040795591863642046
1592167894.1994383,-0.08058962822637936,8.588820743547242,4.461762964717026,-0.4711111111111111,-0.3688888888888889,-0.5077777777777778,-0.2170110072548384,0.04844613789584811,0.04106630473081762
1592167894.2094383,-0.05238512703598374,8.61513784755682,4.4424770254071975,-0.4711111111111111,-0.3688888888888889,-0.5077777777777778,-0.2003925396369381,0.05865470981292511,0.01629228983692053
1592167894.2194383,-0.0339477335800185,8.67236586493987,4.476313598519889,-0.4711111111111111,-0.3688888888888889,-0.5077777777777778,-0.18997711125503727,0.06702832248310843,0.004105247299621838
1592167894.2294383,-0.014150817977030172,8.517734406735848,4.698114775287123,-0.4711111111111111,-0.3636058282145656,-0.5007336968786801,-0.2055497169977434,0.0683106845180629,-0.00928243459433051
1592167894.2394383,-0.0727126510362487,8.422965511722815,4.82316475954229,-0.4711111111111111,-0.3622222222222222,-0.4988888888888889,-0.2264924154023523,0.06706143442976112,-0.009148768182365251
1592167894.2494383,-0.15356823119813617,8.372143922933954,4.850719614669773,-0.4711111111111111,-0.3622222222222222,-0.4988888888888889,-0.2222203714064419,0.05882799210830773,0.010594316691634777
1592167894.2594383,-0.16804485651635048,8.466538278196206,4.815865430450948,-0.4711111111111111,-0.3622222222222222,-0.4988888888888889,-0.16529942065686123,0.05145785441253433,0.0433534777671177
1592167894.2694383,-0.23919322423198394,8.545354579385588,4.685452196382429,-0.4711111111111111,-0.3622222222222222,-0.4988888888888889,-0.10893901216869573,0.04791387302686414,0.053952120941458355
1592167894.2794383,-0.25487329325167163,8.615380120244986,4.614873293251672,-0.47615334669388726,-0.3420532798911177,-0.49384665330611277,-0.06717220973023022,0.04938082525117862,0.03995672641638947
1592167894.2894382,-0.34057542383368394,8.605297611681722,4.585297611681723,-0.4777777777777778,-0.33555555555555555,-0.4922222222222222,-0.060893897223263674,0.04119617413525101,0.017840705506673257
1592167894.2994382,-0.32777019481325226,8.583885097406625,4.494053852835339,-0.4777777777777778,-0.33555555555555555,-0.4922222222222222,-0.061086523819801536,0.03575418180871558,0.0024617123019311377
1592167894.3094382,-0.14344838118509468,8.577827580940745,4.513930971288943,-0.4777777777777778,-0.33555555555555555,-0.4922222222222222,-0.06791737681391953,0.022478643983716674,-0.0230052347142407
1592167894.3194382,-0.12134625071359012,8.576950535612344,4.573544108264213,-0.4777777777777778,-0.33555555555555555,-0.4922222222222222,-0.0728069747415366,0.014312634686245685,-0.03092986414901113
1592167894.3294382,-0.23337818084186035,8.487608364905581,4.738729453178605,-0.4643979396000517,-0.33414715153684754,-0.4887012121754522,-0.09553166736045482,-0.0005837332590442235,-0.048257441347993105
1592167894.3394382,-0.22244693274713198,8.412826818712647,4.823966476609192,-0.45666666666666667,-0.3333333333333333,-0.4866666666666667,-0.10471975511965977,-0.002181661564992912,-0.053450708342326333
1592167894.3494382,-0.15187553827604028,8.413749846206846,4.764375845862349,-0.45666666666666667,-0.3333333333333333,-0.4866666666666667,-0.09272075072204428,-0.020930105936267106,-0.006954566301566337
1592167894.3594382,-0.1925875722337162,8.50345009631162,4.71609165061473,-0.45666666666666667,-0.3333333333333333,-0.4866666666666667,-0.02430409168056734,-0.04083117285978066,0.011905051825978657
1592167894.3694382,-0.1466746040964882,8.48923626437449,4.721280830139002,-0.45666666666666667,-0.3333333333333333,-0.4866666666666667,-0.0034955198747659596,-0.045199619026464306,-0.0007818951043855518
1592167894.3794382,-0.15643409261919422,8.489860455571517,4.703426362952323,-0.45666666666666667,-0.3333333333333333,-0.49109560617461295,-0.0014798109363478845,-0.03457849262928142,-0.00836810997774335
1592167894.3894382,-0.18077893788026742,8.537663186359197,4.69,-0.45666666666666667,-0.3333333333333333,-0.49333333333333335,-0.003182934919015799,-0.02811128200640213,0.0007463665287884176
1592167894.3994381,-0.05676413255360624,8.587095516569201,4.670643274853801,-0.45666666666666667,-0.3333333333333333,-0.49333333333333335,-0.027236747549701956,-0.01242016101474035,0.011892819817744012
1592167894.4094381,-0.08826338199513382,8.471368145236758,4.782210836608646,-0.45666666666666667,-0.3333333333333333,-0.49333333333333335,-0.032334517118197285,0.012320691757831952,-0.01828583445839973
1592167894.4194381,-0.1853528696402652,8.353576556431682,4.795717704287788,-0.45666666666666667,-0.3333333333333333,-0.49333333333333335,-0.010500877756307044,0.02797145855980644,-0.03960035402536799
1592167894.429438,-0.23613438659332225,8.428822118459767,4.667984201100166,-0.4607562577288815,-0.3278805452503802,-0.4674325899393061,0.027288875650940105,0.021770914347477077,-0.019470254963656765
1592167894.439438,-0.1932964124282282,8.541135725047848,4.61,-0.4633333333333333,-0.3244444444444444,-0.45111111111111113,0.035266167854738115,0.005010572196718561,0.010724585215671677
1592167894.449438,0.03083843593587235,8.578200411595823,4.584560329276659,-0.4633333333333333,-0.3244444444444444,-0.45111111111111113,-0.003752098706672813,-0.024290503129468708,0.03857614877183254
1592167894.459438,0.12085328097863023,8.49744015706411,4.653413123914521,-0.4633333333333333,-0.3244444444444444,-0.45111111111111113,-0.021151447472105383,-0.021111717497973834,0.025288883596437946
1592167894.469438,0.11913162705667277,8.464565813528337,4.698151279707496,-0.4633333333333333,-0.3244444444444444,-0.45111111111111113,-0.015888837768812638,-0.008858014592324397,0.013114398415708078
1592167894.479438,-0.06106720391423226,8.502545114404949,4.674023024895669,-0.4574949872883388,-0.3244444444444444,-0.4430833852992437,0.008597674239407669,0.032809094357837215,-0.014393943075961438
1592167894.489438,-0.18458067383049204,8.544860224610163,4.65,-0.45444444444444443,-0.3244444444444444,-0.4388888888888889,0.01146897034599964,0.044163399561319615,-0.01866235465856151
1592167894.499438,-0.3103431128791646,8.586781037626388,4.609313774241671,-0.45444444444444443,-0.3244444444444444,-0.4388888888888889,-0.0049390243087474184,0.037640804017660734,-0.0023082290351980356
1592167894.509438,-0.3346909296320207,8.54005083925113,4.5870618140735955,-0.45444444444444443,-0.3244444444444444,-0.4388888888888889,-0.008023750537067015,0.02695580889909859,0.008209399513849216
1592167894.519438,-0.30513391573592835,8.544326661506137,4.617838549154042,-0.45444444444444443,-0.3244444444444444,-0.4388888888888889,0.01659864958131813,-0.0034202122829361404,0.016863643174482808
1592167894.529438,-0.22599750552752423,8.65,4.6560006236181195,-0.4671124276382511,-0.3277781242322883,-0.43355500122833873,0.012651664317620964,-0.03578115439903761,0.003925698319489981
1592167894.539438,-0.15998270401401649,8.568721894022776,4.672504323996495,-0.47555555555555556,-0.33,-0.43,-0.03069022844179532,-0.059590640730077846,-0.009137358665376207
1592167894.549438,-0.05889410219115093,8.496298034063717,4.567415661802656,-0.47555555555555556,-0.33,-0.43,-0.04585553095621803,-0.06847979028595731,-0.02557292648317549
1592167894.559438,-0.05024164873210443,8.577729718349397,4.512995227846917,-0.47555555555555556,-0.33,-0.43,-0.029209987427944714,-0.06228799936399221,-0.044940145994261216
1592167894.569438,-0.08928660728238788,8.640713392717613,4.562503125488358,-0.47555555555555556,-0.33,-0.43,-0.019557135011298195,-0.05115163629109426,-0.06502252392056045
1592167894.579438,-0.14959973916283692,8.584909328033785,4.609018134393243,-0.4695434659600602,-0.33,-0.4244889178707959,-0.03203863225379814,-0.043248473292828764,-0.08848417985939688
1592167894.589438,-0.31186144156752976,8.513023093072078,4.699225565663634,-0.4622222222222222,-0.33,-0.4177777777777778,-0.05075327490979895,-0.05071103606914245,-0.09864830345155902
1592167894.599438,-0.37890621656959467,8.494453108284798,4.776640675145608,-0.4622222222222222,-0.33,-0.4177777777777778,-0.06543283553903452,-0.06931039990953566,-0.09938491447070455
1592167894.609438,-0.3644743608055992,8.401589772889587,4.817628195972004,-0.4622222222222222,-0.33,-0.4177777777777778,-0.06332692602256064,-0.08637561486383252,-0.10819223051376164
1592167894.619438,-0.38712868192827565,8.384257363856552,4.826435659035862,-0.4622222222222222,-0.33,-0.4177777777777778,-0.03629264496767312,-0.09863917677938243,-0.09678155136057685
1592167894.629438,-0.3603096292379882,8.500507236798626,4.782450598109841,-0.45865100345868304,-0.3172456472730744,-0.4101251661416224,0.0008450676381219647,-0.11933386693167453,-0.059239731660974515
1592167894.639438,-0.28253226727584235,8.564267275842376,4.736131353512278,-0.45444444444444443,-0.3022222222222222,-0.4011111111111111,0.018195007613969725,-0.13526301702956053,-0.04105897032930892
1592167894.649438,-0.2534869272586073,8.59043230649754,4.557809992234015,-0.45444444444444443,-0.3022222222222222,-0.4011111111111111,0.003791222905979141,-0.1295228130050749,-0.05160225421283584
1592167894.659438,-0.22798823864175283,8.492150004742482,4.583017642037371,-0.45444444444444443,-0.3022222222222222,-0.4011111111111111,-0.03296586743626507,-0.12551868969431287,-0.055595795053709034
1592167894.669438,-0.11497791909556616,8.376140257904964,4.682697403285639,-0.45444444444444443,-0.3022222222222222,-0.4011111111111111,-0.06348111031230877,-0.12762720155208535,-0.038382367702785566
1592167894.6794379,-0.0073075170842824624,8.334086560364465,4.765384965831435,-0.45762288028347253,-0.3022222222222222,-0.4020192356365477,-0.04743001816923087,-0.1169286115358741,-0.006555420889253188
1592167894.6894379,-0.038089494802543596,8.423667315859868,4.815377431541404,-0.4622222222222222,-0.3022222222222222,-0.4033333333333333,0.034473011990992786,-0.07345875179267233,-0.005141548230556542
1592167894.6994379,-0.18361094142401413,8.60496504445802,4.612778117151972,-0.4622222222222222,-0.3022222222222222,-0.4033333333333333,0.051051295244629834,-0.04271854159056881,-0.02610227085818557
1592167894.7094378,-0.30941487960377256,8.671566204752622,4.4874527108909845,-0.4622222222222222,-0.3022222222222222,-0.4033333333333333,-0.017199911019093114,-0.02652163165108526,-0.04677807017941332
1592167894.7194378,-0.3995598187371489,8.550792326273132,4.529823927494859,-0.4622222222222222,-0.3022222222222222,-0.4033333333333333,-0.08810760848108694,-0.01747249905079914,-0.05887605245852485
1592167894.7294378,-0.368913235070658,8.475203768424253,4.61588299650509,-0.4656008374276115,-0.3022222222222222,-0.39263438518293403,-0.106768050562848,-0.01195468323352612,-0.034536123590429124
1592167894.7394378,-0.2924830515396553,8.50613983500776,4.676275422690517,-0.4688888888888889,-0.3022222222222222,-0.38222222222222224,-0.09627136292599021,-0.0068306339221847825,-0.003979220254600525
1592167894.7494378,-0.33949845290350433,8.575752320644742,4.610668729461994,-0.4688888888888889,-0.3022222222222222,-0.38222222222222224,-0.0883937669163282,0.01190795477217282,0.01752623958817385
1592167894.7594378,-0.4090909733179474,8.510454513341026,4.589545486658974,-0.4688888888888889,-0.3022222222222222,-0.38222222222222224,-0.07871334533995121,0.015321210669295064,0.020019235404564222
1592167894.7694378,-0.38303612111771007,8.497878103397916,4.649390516989582,-0.4688888888888889,-0.3022222222222222,-0.38222222222222224,-0.05629474878223639,0.008363446658182009,0.04016128610361721
1592167894.7794378,-0.2576554430902706,8.528620464091441,4.695103628726847,-0.463509643706917,-0.3022222222222222,-0.3739464604038039,-0.014316449858688768,0.0055594213738655186,0.049839805329648115
1592167894.7894378,-0.22134579578461308,8.56077642064497,4.669378863484025,-0.45444444444444443,-0.3022222222222222,-0.36,0.01840296604582341,0.013180310034191928,0.03243131638113169
1592167894.7994378,-0.5486728386874287,8.633248003819933,4.5823166299705544,-0.45444444444444443,-0.3022222222222222,-0.36,-0.04177537259599845,0.03362780970126327,-0.02399827721492203
1592167894.8094378,-0.6399080144067577,8.454402093643925,4.680459927966211,-0.45444444444444443,-0.3022222222222222,-0.36,-0.12521619785330712,0.03432605039780915,-0.008586169256654792
1592167894.8194377,-0.63,8.39,4.73,-0.45444444444444443,-0.3022222222222222,-0.36,-0.15926129424448257,0.030543261909900768,0.006544984694978735
1592167894.8294377,-0.6153553197205803,8.519180212251479,4.787213191832349,-0.4554523404382351,-0.29567089826258286,-0.35395262403725597,-0.1270906517253644,0.03271301724154093,0.00698602821292859
1592167894.8394377,-0.67,8.47,4.82,-0.45666666666666667,-0.2877777777777778,-0.3466666666666667,-0.09490227807719166,0.039269908169872414,-0.017453292519943295
1592167894.8494377,-0.6120227137767221,8.458242280285036,4.699848574821853,-0.45666666666666667,-0.2877777777777778,-0.3466666666666667,0.009417484163494489,0.050394730358880584,-0.033370337085885306
1592167894.8594377,-0.6048089541632121,8.662595522918394,4.600992538197323,-0.45666666666666667,-0.2877777777777778,-0.3466666666666667,-0.009451480898839543,0.038095717915521556,-0.017478202169933267
1592167894.8694377,-0.5357259569119581,8.61487931813272,4.698548086176084,-0.45666666666666667,-0.2877777777777778,-0.3466666666666667,-0.11340224885812225,0.023655190057246492,0.005014256835010565
1592167894.8794377,-0.4763808484209734,8.3942872736854,4.960807392629954,-0.4612750571929252,-0.28387837040940517,-0.3420582761404081,-0.1708711055858002,0.028221299641637238,0.02648119317262682
1592167894.8894377,-0.49,8.19,5.24,-0.4711111111111111,-0.27555555555555555,-0.3322222222222222,-0.13744467859455345,0.03490658503988659,0.02945243112740431
1592167894.8994377,-0.5984182500980887,8.369973375931842,5.1100266240681576,-0.4711111111111111,-0.27555555555555555,-0.3322222222222222,-0.010338007722742952,0.05442747910437848,0.038635317469153246
1592167894.9094377,-0.61,8.48,5.0,-0.4711111111111111,-0.27555555555555555,-0.3322222222222222,0.00545415391248228,0.05126904677733343,0.05126904677733343
1592167894.9194376,-0.5868910454344949,8.320336568151742,5.0,-0.4711111111111111,-0.27555555555555555,-0.3322222222222222,-0.002337226448972226,0.03810564960731025,0.05965655870316149
1592167894.9294376,-0.5792849275607896,8.329642463780395,4.996547487926798,-0.4711111111111111,-0.2728702683875098,-0.32493358562324076,0.032037505076163805,0.0398415245716127,0.052801089637745505
1592167894.9394376,-0.5231512293701583,8.356334119232065,4.981575614685079,-0.4711111111111111,-0.2677777777777778,-0.3111111111111111,0.09944783497885759,0.06275602030874189,0.02560127307347105
1592167894.9494376,-0.5192057307134881,8.416158853857302,4.893177077146047,-0.4711111111111111,-0.2677777777777778,-0.3111111111111111,0.13626720647332513,0.08691989724478899,0.003951420408937184
1592167894.9594376,-0.5538139789553874,8.448139789553874,4.7738139789553875,-0.4711111111111111,-0.2677777777777778,-0.3111111111111111,0.12048847417722758,0.09994039142484093,0.0024506168193450467
1592167894.9694376,-0.5695307678525213,8.48776154167745,4.814946148792578,-0.4711111111111111,-0.2677777777777778,-0.3111111111111111,0.07697237821947986,0.09441392222847712,0.02462844041387252
1592167894.9794376,-0.6545811069011301,8.412677224003367,4.885032222546067,-0.4608995685669153,-0.2655698766871408,-0.306143333657178,0.05017821599483697,0.07722021454304949,0.04391121139725338
1592167894.9894376,-0.85,8.33,4.87,-0.43,-0.2588888888888889,-0.2911111111111111,0.05017821599483697,0.056723200689815706,0.04145156973486533
1592167894.9994376,-0.6842272247425034,8.451463665154499,4.620503580701303,-0.43,-0.2588888888888889,-0.2911111111111111,0.14534488414014207,0.010931307737894027,0.034938517260002466
1592167895.0094376,-0.4238505844485855,8.646149415551415,4.379636020425449,-0.43,-0.2588888888888889,-0.2911111111111111,0.18762289458939044,-0.013497463496068536,0.0370882466048795
1592167895.0194376,-0.31,8.76,4.32,-0.43,-0.2588888888888889,-0.2911111111111111,0.18762289458939044,-0.015271630954950384,0.0370882466048795
1592167895.0294375,-0.12675439722685838,8.59947361663885,4.567280780588009,-0.4322514657422861,-0.261515598921556,-0.29336257685339723,0.08142472694496189,0.000794209958600257,-0.015740510330967607
1592167895.0394375,-0.14,8.52,4.66,-0.43666666666666665,-0.26666666666666666,-0.29777777777777775,0.022907446432425576,0.01090830782496456,-0.031634092692397225
1592167895.0494375,-0.22914109176326408,8.437822090588776,4.72,-0.43666666666666665,-0.26666666666666666,-0.29777777777777775,-0.00045005194848491597,0.02722392338521283,-0.022432300306975198
1592167895.0594375,-0.38468160724391626,8.39609417091115,4.716094170911148,-0.43666666666666665,-0.26666666666666666,-0.29777777777777775,0.012032400612305899,0.03528128263566704,-0.020571698074387322
1592167895.0694375,-0.49889895902357695,8.409265972682384,4.703578009105872,-0.43666666666666665,-0.26666666666666666,-0.29777777777777775,0.02925225622909227,0.03681805129659297,-0.028791935571844018
1592167895.0794375,-0.5661770861770862,8.44073437073437,4.677645827645828,-0.4328917806695584,-0.26666666666666666,-0.29777777777777775,0.03901310780274908,0.02759119924353785,-0.015318782162675
1592167895.0894375,-0.58,8.42,4.65,-0.42444444444444446,-0.26666666666666666,-0.29777777777777775,0.03599741582238304,0.01854412330243975,0.006544984694978735
1592167895.0994375,-0.7122232237974269,8.640416291075965,4.606111611898713,-0.42444444444444446,-0.26666666666666666,-0.29777777777777775,0.04514821942587233,0.007923741884950491,0.010635845952879893
1592167895.1094375,-0.66,8.66,4.58,-0.42444444444444446,-0.26666666666666666,-0.29777777777777775,0.04799655442984406,0.004363323129985824,-0.002181661564992912
1592167895.1194375,-0.78,8.529031062477939,4.733186330744794,-0.42444444444444446,-0.26666666666666666,-0.29777777777777775,-0.01724664400403046,-0.0068749436796859565,-0.025955674482745765
1592167895.1294374,-0.7892357501917014,8.3592357501917,4.85538212490415,-0.42906231954029517,-0.26358808326943284,-0.29623848607916087,-0.013333006153715521,-0.022238746809007157,-0.030876728796464394
1592167895.1394374,-0.810098161144177,8.436208581327174,4.770687128009238,-0.4444444444444444,-0.25333333333333335,-0.2911111111111111,0.0677238565414054,-0.04718010291008534,-0.016013128436309792
1592167895.1494374,-0.8013376654632972,8.56968182912154,4.567642839951866,-0.4444444444444444,-0.25333333333333335,-0.2911111111111111,0.13068436311550646,-0.07225195791874371,-0.015872651149985074
1592167895.1594374,-0.8098586154719122,8.66424531870626,4.427264043881218,-0.4444444444444444,-0.25333333333333335,-0.2911111111111111,0.13751678855454635,-0.09541163848844345,-0.027615484056426144
1592167895.1694374,-0.7438766957742087,8.629270037423982,4.488426633400904,-0.4444444444444444,-0.25333333333333335,-0.2911111111111111,0.09542953563497171,-0.11494773952836948,-0.041279942063020804
1592167895.1794374,-0.6840270557835537,8.560746618027057,4.55,-0.44295120839033286,-0.25233784263059233,-0.2900326628498083,0.05117029334762452,-0.13106258068491056,-0.047752224251840295
1592167895.1894374,-0.5966731540047728,8.577996107597137,4.560661476796182,-0.42444444444444446,-0.24,-0.27666666666666667,0.022616699755521906,-0.1304646353724346,-0.04792227552829505
1592167895.1994374,-0.5824688721147545,8.557558797116574,4.612468872114754,-0.42444444444444446,-0.24,-0.27666666666666667,0.015280685689729,-0.1202682438570078,-0.056723200689815706
1592167895.2094374,-0.642061237222249,8.422061237222248,4.698523779814752,-0.42444444444444446,-0.24,-0.27666666666666667,-0.007538600294718752,-0.1069348164081845,-0.05181595416250118
1592167895.2194374,-0.6069800230503265,8.410849980791395,4.75,-0.42444444444444446,-0.24,-0.27666666666666667,-0.009024456054662813,-0.0901680808624923,-0.0348651393370864
1592167895.2294374,-0.5653862359550562,8.452071629213483,4.75,-0.42393804619225967,-0.2407826154806492,-0.27666666666666667,0.018989954422814006,-0.07209135178422857,-0.02313342612402421
1592167895.2394373,-0.69,8.5,4.75,-0.4122222222222222,-0.2588888888888889,-0.27666666666666667,0.0545415391248228,-0.04908738521234052,-0.028361600344907853
1592167895.2494373,-0.6657073874819578,8.541426846870488,4.6357315312951055,-0.4122222222222222,-0.2588888888888889,-0.27666666666666667,0.06591809833698836,-0.027740337790341837,-0.03506354672943988
1592167895.2594373,-0.6977375841545517,8.55226241584545,4.545475168309103,-0.4122222222222222,-0.2588888888888889,-0.27666666666666667,0.0597094417552752,-0.014738588388218227,-0.0272313095650838
1592167895.2694373,-0.7054346759276735,8.56192933449096,4.541576006945755,-0.4122222222222222,-0.2588888888888889,-0.27666666666666667,0.04790172285338076,-0.005243696167235238,-0.018582665358700998
1592167895.2794373,-0.7687663734853347,8.569845796685668,4.589074780114001,-0.4122222222222222,-0.2588888888888889,-0.27666666666666667,0.03408488981265029,-0.004380144102189584,-0.014264905033472726
1592167895.2894373,-0.8534124601671823,8.49595252389969,4.638293769916409,-0.4122222222222222,-0.24666666666666667,-0.26222222222222225,0.01469158081734062,-0.02165638901603405,-0.003921811977822201
1592167895.2994373,-0.8989564909798373,8.47690437448414,4.554469520103761,-0.4122222222222222,-0.24666666666666667,-0.26222222222222225,0.02381236908934481,-0.05270136508813175,0.002445359391932451
1592167895.3094373,-0.725236338725826,8.59533382515677,4.388762185803868,-0.4122222222222222,-0.24666666666666667,-0.26222222222222225,0.05546624770879394,-0.10286050857595698,0.011220088726279876
1592167895.3194373,-0.416981927109336,8.654913829256117,4.429827658512232,-0.4122222222222222,-0.24666666666666667,-0.26222222222222225,0.05823243560290446,-0.15227910587891563,0.030966480291175675
1592167895.3294373,-0.03845600024200624,8.66747648001936,4.476402879874157,-0.4122222222222222,-0.24666666666666667,-0.2605398755684626,0.026806546933371853,-0.17873808661055424,0.054424427516174705
1592167895.3394372,0.18,8.65,4.59,-0.4122222222222222,-0.24666666666666667,-0.24888888888888888,-0.014180800172453926,-0.16253378659197193,0.06872233929727672
1592167895.3494372,0.3680224233418884,8.492089693367554,4.710224233418884,-0.4122222222222222,-0.24666666666666667,-0.24888888888888888,-0.041248079621313036,-0.08634685231826836,0.05915727251151758
1592167895.3594372,0.36,8.46,4.63,-0.4122222222222222,-0.24666666666666667,-0.24888888888888888,-0.03599741582238304,-0.025089107997418484,0.04690572364734761
1592167895.3694372,0.15366874287218177,8.528777085709272,4.56268576190894,-0.4122222222222222,-0.24666666666666667,-0.24888888888888888,0.0063305315163161725,0.06438265290764326,0.017720091030479317
1592167895.3794372,-0.027760762405520868,8.595863292803156,4.505128162997042,-0.4122222222222222,-0.2468869901778216,-0.25021082995581845,0.03086771506180269,0.11059719295852122,0.006220531543076816
1592167895.3894372,-0.28,8.74,4.37,-0.4122222222222222,-0.24888888888888888,-0.26222222222222225,0.03381575425739013,0.12435470920459597,0.0032724923474893677
1592167895.3994372,-0.20115762875616222,8.702283052988827,4.445530507592835,-0.4122222222222222,-0.24888888888888888,-0.26222222222222225,-0.027726698835388836,0.0970944785478544,0.015148866215314506
1592167895.4094372,-0.0495436797853738,8.537203391860492,4.563070400268283,-0.4122222222222222,-0.24888888888888888,-0.26222222222222225,-0.09411650991921065,0.07004854516513806,0.01854412330243975
1592167895.4194372,0.1,8.44,4.75,-0.4122222222222222,-0.24888888888888888,-0.26222222222222225,-0.10471975511965977,0.05781403147231216,0.01854412330243975
1592167895.4294372,0.026190139600636153,8.511904930199682,4.852857395299522,-0.41275136949991165,-0.25005301289980564,-0.2615872454889949,-0.045087415329395836,0.06233329771999363,0.005609904269834662
1592167895.4394372,-0.01,8.53,4.88,-0.4177777777777778,-0.2611111111111111,-0.25555555555555554,-0.017453292519943295,0.074176493209759,-0.0032724923474893677
1592167895.4494371,-0.13086134185303516,8.456751437699682,4.818884345047923,-0.4177777777777778,-0.2611111111111111,-0.25555555555555554,-0.015177673134196054,0.08016219188564819,-0.01073112623716226
1592167895.4594371,-0.29,8.44,4.71,-0.4177777777777778,-0.2611111111111111,-0.25555555555555554,0.002181661564992912,0.08290313946973066,-0.009817477042468103
1592167895.4694371,-0.26393449397222374,8.47303275301389,4.7207581882534715,-0.4177777777777778,-0.2611111111111111,-0.25555555555555554,0.03489092586894901,0.07604299191136368,-0.0025281427702562986
1592167895.479437,-0.2036488258861999,8.5031755870569,4.728293896764225,-0.4177777777777778,-0.2611111111111111,-0.25555555555555554,0.04557716352383385,0.0620686811318989,0.004870021760048587
1592167895.489437,-0.0037049220571989693,8.4918524610286,4.715180311771205,-0.4177777777777778,-0.2677777777777778,-0.25555555555555554,0.05312882823908325,0.04637997721914697,0.011999138607461015
1592167895.499437,-0.02,8.5,4.65,-0.4177777777777778,-0.2677777777777778,-0.25555555555555554,0.07090400086226964,0.039269908169872414,0.011999138607461015
1592167895.509437,-0.05755197253916071,8.62186738541868,4.53784229356024,-0.4177777777777778,-0.2677777777777778,-0.25555555555555554,0.11586343220503245,0.032756592585553565,0.003304161458149256
1592167895.519437,-0.12,8.697340601611975,4.530876511226252,-0.4177777777777778,-0.2677777777777778,-0.25555555555555554,0.11247072954632338,0.02221861222715741,-0.006047375575070486
1592167895.529437,-0.12,8.508693688831318,4.621427029360967,-0.4177777777777778,-0.2677777777777778,-0.25555555555555554,0.06802184789776557,0.007402318344304805,-0.010986140202688021
1592167895.539437,-0.09969890187743535,8.391315385523676,4.6967670327075215,-0.42444444444444446,-0.25555555555555554,-0.24888888888888888,0.03932696780343552,-0.012318955921540446,-0.013828138148309955
1592167895.549437,-0.13127913993875862,8.498962249390939,4.639678147560403,-0.42444444444444446,-0.25555555555555554,-0.24888888888888888,0.10043542646309404,-0.020263301482770377,-0.011999138607461015
1592167895.559437,-0.01822830340000486,8.787342455100006,4.4,-0.42444444444444446,-0.25555555555555554,-0.24888888888888888,0.15752193517481547,-0.02419153933377393,-0.012095769666886965
1592167895.569437,-0.0015987184333207337,8.748009611750094,4.402398077649981,-0.42444444444444446,-0.25555555555555554,-0.24888888888888888,0.13326099098896707,-0.026092742215934404,-0.0136131487738407
1592167895.579437,-0.016697805857047717,8.63476645607214,4.425046708785572,-0.42444444444444446,-0.25555555555555554,-0.24888888888888888,0.07314348586363334,-0.025269214748464077,-0.018554313578662652
1592167895.589437,-0.05846496753561392,8.542421746293245,4.470216106211843,-0.4122222222222222,-0.25555555555555554,-0.27,0.03420022480259215,-0.016302312235049275,-0.02879321795174311
1592167895.599437,-0.17862482559971196,8.69687587200144,4.322122732796255,-0.4122222222222222,-0.25555555555555554,-0.27,0.06754996254377676,-0.009476687543539298,-0.03148408443568369
1592167895.609437,-0.1717456792507483,8.73563580187313,4.215237037752245,-0.4122222222222222,-0.25555555555555554,-0.27,0.07757948081065313,-0.01484728440453248,-0.029971989710976293
1592167895.619437,-0.1885754189944134,8.68786312849162,4.279259776536312,-0.4122222222222222,-0.25555555555555554,-0.27,0.04177150613755284,-0.022438206375150562,-0.023609783011658628
1592167895.629437,-0.17411131802193255,8.6661669770329,4.3732764328574385,-0.4122222222222222,-0.25555555555555554,-0.27,0.01179352163190664,-0.02874936100791818,-0.019665311366178866
1592167895.639437,-0.15,8.61,4.56,-0.43,-0.2411111111111111,-0.26222222222222225,-0.02399827721492203,-0.0370882466048795,-0.01090830782496456
1592167895.649437,-0.10692224622030239,8.59276889848812,4.5858466522678185,-0.43,-0.2411111111111111,-0.26222222222222225,-0.030576952795839645,-0.038967868199427394,-0.007149064635868781
1592167895.659437,-0.08416731272410118,8.56,4.523240381819943,-0.43,-0.2411111111111111,-0.26222222222222225,-0.02814951785073366,-0.0368761641107053,-0.004434017294710556
1592167895.669437,-0.002306259057345939,8.56,4.57172969429301,-0.43,-0.2411111111111111,-0.26222222222222225,-0.024145706107856907,-0.03331260658295729,-0.0057057277496987005
1592167895.679437,-0.03125043130218757,8.56,4.59343782347664,-0.43,-0.2411111111111111,-0.26222222222222225,-0.01230575833589961,-0.02699796777124673,-0.00886304715555398
1592167895.689437,-0.04043567961165049,8.591307038834952,4.6069502427184466,-0.4122222222222222,-0.25555555555555554,-0.25555555555555554,0.0067350857876565156,-0.017263191427265515,-0.014418426538301152
1592167895.699437,-0.05173329083955564,8.62115552722637,4.5290224913494805,-0.4122222222222222,-0.25555555555555554,-0.25555555555555554,0.010530162424403277,-0.012774848222823069,-0.019634954084936207
1592167895.709437,-0.0801355159653981,8.639864484034602,4.351084127723184,-0.4122222222222222,-0.25555555555555554,-0.25555555555555554,0.004156368148779473,-0.007680162973447982,-0.019694084079566593
1592167895.719437,-0.0935747292673463,8.628808423577553,4.432383152844897,-0.4122222222222222,-0.25555555555555554,-0.25555555555555554,-0.011525716739584012,-0.010843317412899353,-0.02403077242095463
1592167895.7294369,-0.18234611450139332,8.599217961832869,4.491564076334262,-0.4122222222222222,-0.25555555555555554,-0.25555555555555554,-0.026857855345791076,-0.00922940808593019,-0.024837727084439213
1592167895.7394369,-0.1768864229765013,8.540889593435285,4.61822081312943,-0.4177777777777778,-0.2611111111111111,-0.25555555555555554,-0.04419034433564088,-0.016799139893849048,-0.020289106711030454
1592167895.7494369,-0.10887538566617207,8.560449845733531,4.577750771332345,-0.4177777777777778,-0.2611111111111111,-0.25555555555555554,-0.0324550354094629,-0.026302615173292566,-0.01081016671026246
1592167895.7594368,-0.05989482762751252,8.580315517117462,4.48042068948995,-0.4177777777777778,-0.2611111111111111,-0.25555555555555554,-0.0206684222367439,-0.031542312483295205,-0.006533512168840983
1592167895.7694368,-0.05078121735496901,8.60921878264503,4.521562434709938,-0.4177777777777778,-0.2611111111111111,-0.25555555555555554,-0.015369022490792745,-0.02279788095460292,-0.00547850179644287
1592167895.7794368,-0.10189915732293335,8.558100842677066,4.6237983146458665,-0.4177777777777778,-0.2611111111111111,-0.25555555555555554,-0.021741710771348333,-0.01562860663897788,-0.007071673866581767
