time,acc_x,acc_y,acc_z,mag_x,mag_y,mag_z,gyr_x,gyr_y,gyr_z
1592167904.8894281,-0.08442957935597276,8.455570420644028,4.862281682576109,-0.41888888888888887,-0.19,-0.2822222222222222,-0.02839078787786887,0.004363323129985824,0.009458731370462787
1592167904.8994281,-0.07430250652366474,8.391630078283978,4.862907519570994,-0.41888888888888887,-0.19,-0.2822222222222222,-0.04206024761852689,0.0024988227498680517,0.012772808205082331
1592167904.9094281,-0.07,8.345693418521245,4.8898539296487185,-0.41888888888888887,-0.19,-0.2822222222222222,-0.03774116983005807,0.002332942018618468,0.015422911408575938
1592167904.919428,-0.06189467951118222,8.358105320488818,4.928105320488818,-0.41888888888888887,-0.19,-0.2822222222222222,-0.025887096183116146,0.0023883390383692017,0.015920385082886755
1592167904.929428,-0.03625186581821039,8.372749626836358,4.9454992536727165,-0.42438814256160473,-0.18663934497778475,-0.2764174544565777,-0.017453292519943295,0.0028904573385829966,0.01557156871429814
1592167904.939428,-0.027430620444776677,8.374513875911045,4.949027751822089,-0.4388888888888889,-0.17777777777777778,-0.2611111111111111,-0.016854849216660514,0.011824918600454655,0.015165575130881277
1592167904.949428,-0.07698704335584243,8.37539740867117,4.9076155479729895,-0.4388888888888889,-0.17777777777777778,-0.2611111111111111,-0.015184929832602063,0.017626694764639933,0.014180800172453926
1592167904.959428,-0.1264032634032634,8.385280652680652,4.916964568764569,-0.4388888888888889,-0.17777777777777778,-0.2611111111111111,-0.013028740473308252,0.014450685438780673,0.017060949420318113
1592167904.969428,-0.13463521288837743,8.366952819332566,4.988411967779056,-0.4388888888888889,-0.17777777777777778,-0.2611111111111111,-0.009066071626585044,0.006046390924198997,0.021310992359722475
1592167904.979428,-0.0964519427402863,8.33,5.058128834355828,-0.4316632583503749,-0.17898204953419677,-0.2629175187457396,-0.0005208772754865497,-0.0005911455160768116,0.026362859279229274
1592167904.989428,-0.033848706956160976,8.345690775826304,5.0538487069561615,-0.4122222222222222,-0.18222222222222223,-0.2677777777777778,0.017804934969673517,-0.0004700634377346087,0.03329545618397978
1592167904.999428,-1.8820872347436596e-06,8.37999623582553,4.965012233567026,-0.4122222222222222,-0.18222222222222223,-0.2677777777777778,0.02945160991192791,0.003817394479064845,0.034906379736017484
1592167905.009428,0.005137168245609911,8.39027433649122,4.87082300947366,-0.4122222222222222,-0.18222222222222223,-0.2677777777777778,0.034346206914169126,0.007605890008536727,0.03387560519526706
1592167905.019428,-0.025333717641548525,8.398095512601106,4.847238205040442,-0.4122222222222222,-0.18222222222222223,-0.2677777777777778,0.03530136788329337,0.00991099479019199,0.030054961318770102
1592167905.029428,-0.06480567059573113,8.427402835297865,4.862597164702135,-0.40904790980850236,-0.17904790980850235,-0.2622948745177162,0.034297575499802155,0.011999138607461015,0.027554076282841546
1592167905.039428,-0.0443334465689605,8.42,4.881333106862079,-0.4,-0.17,-0.24666666666666667,0.02512555548813715,0.007054137876869976,0.029597850527555616
1592167905.049428,-0.023903938691855284,8.398538584922473,4.825615754767421,-0.4,-0.17,-0.24666666666666667,0.02181661564992912,0.0032724923474893677,0.03112853121496325
1592167905.059428,-0.0050844107524881405,8.399662356990047,4.7552532322574645,-0.4,-0.17,-0.24666666666666667,0.023425238469517475,0.0005914543148421046,0.028953054659749962
1592167905.069428,0.0,8.434701887345087,4.751026415508814,-0.4,-0.17,-0.24666666666666667,0.023485380869737022,-0.002181661564992912,0.024977143434153845
1592167905.079428,-0.03206997506054144,8.45732750207829,4.780689991686847,-0.4032663863487589,-0.17712666112456477,-0.25765360256703734,0.014895298869110623,-0.0027647101648251163,0.022907446432425576
1592167905.089428,-0.1465550708298613,8.42875594333611,4.841866084995833,-0.4122222222222222,-0.19666666666666666,-0.2877777777777778,-0.00804293206871719,-0.004942664903837552,0.02638349707553594
1592167905.099428,-0.17,8.41,4.87,-0.4122222222222222,-0.19666666666666666,-0.2877777777777778,-0.014180800172453926,-0.00545415391248228,0.02945243112740431
1592167905.109428,-0.2974601630291875,8.38,4.842486721009729,-0.4122222222222222,-0.19666666666666666,-0.2877777777777778,-0.02472356638573995,-0.007635815477475192,0.023007522914153953
1592167905.119428,-0.31593270060396894,8.393626919758413,4.836152890422778,-0.4122222222222222,-0.19666666666666666,-0.2877777777777778,-0.023926220265217173,-0.008379048654629464,0.008306991704924608
1592167905.129428,-0.2276677687113112,8.427881963984243,4.782118036015757,-0.41382780747827175,-0.19418530763459013,-0.28427468267366973,-0.017739888817961322,-0.011107160383549221,0.005278666433615553
1592167905.139428,-0.02047385419491629,8.475748132442494,4.717244397327482,-0.42444444444444446,-0.17777777777777778,-0.2611111111111111,-0.03401296493089538,-0.022881601695314085,0.012978441684649102
1592167905.149428,0.043084676503972755,8.461542338251986,4.674627014755959,-0.42444444444444446,-0.17777777777777778,-0.2611111111111111,-0.0663669372380728,-0.026348181784143793,-0.0010039605353909502
1592167905.159428,-0.015807966477217997,8.442042674116173,4.69172261824487,-0.42444444444444446,-0.17777777777777778,-0.2611111111111111,-0.09093804706857388,-0.025089107997418484,-0.014591529853706507
1592167905.1694279,-0.15386777363089343,8.420322949196436,4.824836621220199,-0.42444444444444446,-0.17777777777777778,-0.2611111111111111,-0.10813274520903364,-0.03107085544092769,-0.026039025610053265
1592167905.1794279,-0.42036902696735534,8.35983598801451,5.017817773221889,-0.42137636019555275,-0.17889344477737476,-0.2611111111111111,-0.12326835115516134,-0.049931226514318236,-0.03572806267655529
1592167905.1894279,-0.69,8.24,5.25,-0.4122222222222222,-0.18222222222222223,-0.2611111111111111,-0.1265363707695889,-0.06872233929727672,-0.038179077387375956
1592167905.1994278,-0.7781154137644809,8.19811541376448,5.303038723880328,-0.4122222222222222,-0.18222222222222223,-0.2611111111111111,-0.09950066384394843,-0.09656362095683846,-0.03367312623310255
1592167905.2094278,-0.714379645511721,8.208540118162759,5.23463502954069,-0.4122222222222222,-0.18222222222222223,-0.2611111111111111,-0.04740737691172038,-0.1279217903111472,-0.024316774024295877
1592167905.2194278,-0.5424375647575833,8.254288291828933,5.219181464146629,-0.4122222222222222,-0.18222222222222223,-0.2611111111111111,-0.01491447731277676,-0.144168240110619,-0.01622852912163173
1592167905.2294278,-0.30340640682186926,8.3,5.1617032034109345,-0.4122222222222222,-0.1838034268657217,-0.265402952286324,0.00439929589170721,-0.15293807298217527,-0.009817477042468103
1592167905.2394278,-0.16,8.3,5.09,-0.4122222222222222,-0.19,-0.2822222222222222,0.01308996938995747,-0.1538071403320003,-0.009817477042468103
1592167905.2494278,-0.05519836184320499,8.341598595865605,5.012800468044798,-0.4122222222222222,-0.19,-0.2822222222222222,0.020856888784401787,-0.14612804901359694,-0.01919836649310069
1592167905.2594278,-0.17225634433176212,8.294195591106032,5.0722563443317625,-0.4122222222222222,-0.19,-0.2822222222222222,0.009360172607869175,-0.12896452487820548,-0.030120911011302414
1592167905.2694278,-0.26,8.19,5.16,-0.4122222222222222,-0.19,-0.2822222222222222,0.002181661564992912,-0.11999138607461016,-0.03490658503988659
1592167905.2794278,-0.2610854821617803,8.229853761921584,5.162463440480396,-0.41454880489815144,-0.19082114682679854,-0.2814010753954237,0.03809931688862048,-0.1036448764369144,-0.047609427023565645
1592167905.2894278,-0.356171539224484,8.312128654418364,5.091056534265338,-0.4311111111111111,-0.19666666666666666,-0.27555555555555555,0.07812219605339352,-0.09687512949900892,-0.027386019572350685
1592167905.2994277,-0.3912962879538697,8.356358005225696,4.888456842958825,-0.4311111111111111,-0.19666666666666666,-0.27555555555555555,0.07456030859072524,-0.09899625966654936,-0.012268480148089138
1592167905.3094277,-0.3867297473664585,8.429918896243125,4.819864827071874,-0.4311111111111111,-0.19666666666666666,-0.27555555555555555,0.0639963889117318,-0.10398270454526484,-0.006556780758255476
1592167905.3194277,-0.39816160520607374,8.459755965292842,4.954896963123645,-0.4311111111111111,-0.19666666666666666,-0.27555555555555555,0.06098418448933956,-0.11481763009645722,0.01588566693772225
1592167905.3294277,-0.5815943600867679,8.36437093275488,5.064956616052061,-0.4311111111111111,-0.19666666666666666,-0.27555555555555555,0.05378079704982797,-0.12602289944680858,0.059105991574791704
1592167905.3394277,-0.4227716692845923,8.372849017087914,4.722771669284592,-0.41888888888888887,-0.18222222222222223,-0.27555555555555555,0.09448139777242151,-0.1490495729194929,0.001406491011074075
1592167905.3494277,-0.4003425076452599,8.677745001176193,4.661617501764291,-0.41888888888888887,-0.18222222222222223,-0.27555555555555555,0.10755945631265408,-0.12691624983108213,-0.04230160173912262
1592167905.3594277,-0.510873069826163,8.508620714771293,4.703154802369622,-0.41888888888888887,-0.18222222222222223,-0.27555555555555555,-0.001483776696838024,-0.09691187186531074,-0.08540732549012905
1592167905.3694277,-0.56,8.22,4.74,-0.41888888888888887,-0.18222222222222223,-0.27555555555555555,-0.10799224746714915,-0.09490227807719166,-0.11890055529211369
1592167905.3794277,-0.551481757259866,8.272457185405807,4.768451228592703,-0.42043766029618596,-0.18334077934971457,-0.2771903698188136,-0.05432873371528142,-0.0912918962244763,-0.10135548028637584
1592167905.3894277,-0.47194799228154005,8.576579987135899,4.76097399614077,-0.4388888888888889,-0.19666666666666666,-0.2966666666666667,0.012613062942919143,-0.08766548835962812,-0.0836752307605117
1592167905.3994277,-0.542420390808757,8.562191062058984,4.776757960919125,-0.4388888888888889,-0.19666666666666666,-0.2966666666666667,-0.039554087647517985,-0.0940157190261741,-0.06966865029680176
1592167905.4094276,-0.5814481844434976,8.39714481844435,4.795696634000852,-0.4388888888888889,-0.19666666666666666,-0.2966666666666667,-0.1064289970473721,-0.11048236579793533,-0.0437956965577162
1592167905.4194276,-0.49475487563202636,8.392177874909711,4.894845998555368,-0.4388888888888889,-0.19666666666666666,-0.2966666666666667,-0.11770276882716699,-0.12051006254524582,-0.014408429502670577
1592167905.4294276,-0.4403772711277388,8.39994610412461,5.01913766599374,-0.4388888888888889,-0.19666666666666666,-0.2966666666666667,-0.09397606287848906,-0.11457838605807634,0.004233982314147802
1592167905.4394276,-0.36,8.16,5.2,-0.42444444444444446,-0.19666666666666666,-0.2822222222222222,-0.07090400086226964,-0.09599310885968812,0.02181661564992912
1592167905.4494276,-0.3273994708994709,8.339597883597884,5.033136684303351,-0.42444444444444446,-0.19666666666666666,-0.2822222222222222,-0.01867571558731234,-0.06745018435031767,0.009577667418062137
1592167905.4594276,-0.35,8.43,4.89,-0.42444444444444446,-0.19666666666666666,-0.2822222222222222,0.01090830782496456,-0.04690572364734761,0.002181661564992912
1592167905.4694276,-0.3649744523611676,8.432366648397306,4.858816675801347,-0.42444444444444446,-0.19666666666666666,-0.2822222222222222,-0.04844755561173052,-0.02127398707376674,0.01229475315165411
1592167905.4794276,-0.4613763900921129,8.20990063824897,4.9700496808755155,-0.42444444444444446,-0.19666666666666666,-0.2822222222222222,-0.08808410836012948,-0.010758166956844567,0.005014569993784912
1592167905.4894276,-0.5992282865954242,8.274937961701212,5.055493796170121,-0.4388888888888889,-0.2088888888888889,-0.2822222222222222,-0.033997650661987726,0.002373572051219965,-0.01308996938995747
1592167905.4994276,-0.6378326517772884,8.444334696445424,5.027414281220509,-0.4388888888888889,-0.2088888888888889,-0.2822222222222222,0.0044130779155982765,-0.0013272517982687298,-0.010103652843852829
1592167905.5094275,-0.61,8.5,4.93,-0.4388888888888889,-0.2088888888888889,-0.2822222222222222,-0.00545415391248228,-0.004363323129985824,-0.0032724923474893677
1592167905.5194275,-0.8193829634390715,8.33,5.025670913834171,-0.4388888888888889,-0.2088888888888889,-0.2822222222222222,-0.03888742245484077,-0.012145509300004397,0.006500112530006293
1592167905.5294275,-0.9383184619456312,8.33,5.0891031797043365,-0.4388888888888889,-0.2088888888888889,-0.2822222222222222,-0.028508342222639427,-0.02598428294293951,0.015149346056840738
1592167905.5394275,-0.98,8.36,5.1,-0.4311111111111111,-0.19,-0.28888888888888886,-0.01308996938995747,-0.053450708342326333,0.04145156973486533
1592167905.5494275,-0.4895851427987534,8.288999131456599,4.756501302815102,-0.4311111111111111,-0.19,-0.28888888888888886,-0.0296796480640128,-0.09231143653952778,0.037379387462579475
1592167905.5594275,-0.27942420681551117,8.415272788316267,4.62,-0.4311111111111111,-0.19,-0.28888888888888886,-0.028685535153408145,-0.10343720034366427,0.0067400048029791935
1592167905.5694275,-0.23,8.5,4.62,-0.4311111111111111,-0.19,-0.28888888888888886,-0.016362461737446838,-0.10035643198967394,-0.0032724923474893677
1592167905.5794275,-0.08751824817518247,8.473284671532847,4.611094890510949,-0.4311111111111111,-0.19,-0.28888888888888886,-0.07756045731604364,-0.0896710676822999,-0.0091008728787843
1592167905.5894275,-0.2,8.44,4.9,-0.41888888888888887,-0.21666666666666667,-0.31777777777777777,-0.1778054175469223,-0.06763150851478027,-0.030543261909900768
1592167905.5994275,-0.3950953453866022,8.307111611804144,5.139809309226796,-0.41888888888888887,-0.21666666666666667,-0.31777777777777777,-0.1936328644613884,-0.051468186188195285,-0.008013293162663969
1592167905.6094275,-0.4053781890471908,8.179114403370095,5.214492592417287,-0.41888888888888887,-0.21666666666666667,-0.31777777777777777,-0.18288020481130537,-0.04334342048042564,-0.007925626296907795
1592167905.6194274,-0.46482989870764935,8.17149283967866,5.248737687740133,-0.41888888888888887,-0.21666666666666667,-0.31777777777777777,-0.1512123880459516,-0.03381575425739013,-0.01638760837790956
1592167905.6294274,-0.33297974152986376,8.25206793573175,5.131537548026546,-0.41888888888888887,-0.21666666666666667,-0.31777777777777777,-0.11285873201221175,-0.03381575425739013,-0.012392435874394987
1592167905.6394274,-0.37,8.37,5.04,-0.44555555555555554,-0.2088888888888889,-0.3322222222222222,-0.0818123086872342,-0.02945243112740431,-0.02181661564992912
1592167905.6494274,-0.34018834399431414,8.394687277896233,5.028937455579247,-0.44555555555555554,-0.2088888888888889,-0.3322222222222222,-0.0840621956316583,-0.03135460122325012,-0.013417141095866145
1592167905.6594274,-0.5020685593120509,8.34524113558723,5.01841371186241,-0.44555555555555554,-0.2088888888888889,-0.3322222222222222,-0.09606093080420476,-0.04233197002031664,0.00754581454920796
1592167905.6694274,-0.4468861209964413,8.317615658362989,5.001654804270462,-0.44555555555555554,-0.2088888888888889,-0.3322222222222222,-0.10981288674469662,-0.0677402033970219,0.037427918111884624
1592167905.6794274,-0.3586120996441281,8.301565836298932,4.945480427046264,-0.44555555555555554,-0.2088888888888889,-0.3322222222222222,-0.12206823471744148,-0.09050013534640525,0.04705712009046989
1592167905.6894274,-0.18721752443763984,8.313786597573902,4.99278247556236,-0.4488888888888889,-0.21666666666666667,-0.35333333333333333,-0.139407274719632,-0.1015955931480355,0.04528544617767362
1592167905.6994274,-0.12990250361097738,8.274051998074144,5.113889504092441,-0.4488888888888889,-0.21666666666666667,-0.35333333333333333,-0.17275781736998674,-0.0901146758679378,0.029687613613876104
1592167905.7094274,-0.2786587148177832,8.193623591532695,5.299129225401914,-0.4488888888888889,-0.21666666666666667,-0.35333333333333333,-0.206313329408317,-0.07705371303854262,0.011852827090974172
1592167905.7194273,-0.36061421834895246,8.115307109174477,5.4932650868501165,-0.4488888888888889,-0.21666666666666667,-0.35333333333333333,-0.18348290755347507,-0.08666521318495062,0.029518845942550637
1592167905.7294273,-0.21039754073897213,8.040198770369486,5.50995582880678,-0.4488888888888889,-0.21666666666666667,-0.35333333333333333,-0.12886258222637087,-0.10032029451672667,0.057739347361554484
1592167905.7394273,0.01,8.15,5.37,-0.4488888888888889,-0.23777777777777778,-0.36,-0.07526732399225547,-0.1112647398146385,0.05781403147231216
1592167905.7494273,-0.08588080238289797,8.28596594353797,5.2508382318053615,-0.4488888888888889,-0.23777777777777778,-0.36,-0.032394888002360414,-0.0975239869388956,0.0363274512949163
1592167905.7594273,0.04767579752045867,8.226972607438624,5.085756848140344,-0.4488888888888889,-0.23777777777777778,-0.36,-0.03698812772137797,-0.09767941447518358,0.032571511197451386
1592167905.7694273,0.08,8.13,5.11,-0.4488888888888889,-0.23777777777777778,-0.36,-0.06872233929727672,-0.0818123086872342,0.004363323129985824
1592167905.7794273,0.04022567388730237,8.149887163056349,5.169661489169046,-0.4488888888888889,-0.23777777777777778,-0.36,-0.03835139780352849,-0.051441367193485965,-0.026007618363762405
1592167905.7894273,0.07058612357611323,8.37789644459786,5.137310321021746,-0.4688888888888889,-0.21777777777777776,-0.37333333333333335,-0.009772367781942362,-0.022384585671440218,-0.021613435708529364
1592167905.7994273,0.01,8.27340574234983,5.127159992444277,-0.4688888888888889,-0.21777777777777776,-0.37333333333333335,-0.03779572063051259,-0.011218104591395127,0.02438287027414561
1592167905.8094273,-0.006817261663769085,8.046540046202576,5.200277215461193,-0.4688888888888889,-0.21777777777777776,-0.37333333333333335,-0.10195684018050755,-0.00415949216665097,0.04333868178898766
1592167905.8194273,-0.17667719157242093,8.125580113668981,5.302967640698854,-0.4688888888888889,-0.21777777777777776,-0.37333333333333335,-0.10107446779839455,-0.002990960021417651,0.009697804407681334
1592167905.8294272,-0.2489138297261611,8.294132269361043,5.335072813211627,-0.4688888888888889,-0.21777777777777776,-0.37333333333333335,-0.038036108980668365,-0.011746287634990731,0.02020419754396903
1592167905.8394272,0.0432696029362696,8.184556556556556,5.313565231898566,-0.4622222222222222,-0.24444444444444444,-0.37444444444444447,-0.015929914756492955,-0.03680747687994865,0.04150660263920749
1592167905.8494272,-0.047697864531197856,8.100586586586587,5.278577744411077,-0.4622222222222222,-0.24444444444444444,-0.37444444444444447,-0.03730255463448708,-0.03528085974580621,0.00028794001736168195
1592167905.8594272,0.01052718611940667,8.221598094626948,5.087364069402967,-0.4622222222222222,-0.24444444444444444,-0.37444444444444447,0.031752714516018896,-0.021069023548629377,-0.042772428856223246
1592167905.8694272,0.007607082109169631,8.420361063862687,5.051704422452451,-0.4622222222222222,-0.24444444444444444,-0.37444444444444447,0.06835416071516846,-0.00688478345968248,-0.048633097288270845
1592167905.8794272,-0.13832109169630433,8.306861373125097,5.189525475490954,-0.4622222222222222,-0.24444444444444444,-0.37444444444444447,0.012640130307992076,0.0019587134303455187,-0.06897314013533523
1592167905.8894272,-0.31031648248295324,8.110806959793086,5.362420879379262,-0.4811111111111111,-0.24666666666666667,-0.4011111111111111,-0.030451799352402942,-0.010223082450283739,-0.07053291833790663
1592167905.8994272,-0.19406040501983346,8.132539144958129,5.365581665081537,-0.4811111111111111,-0.24666666666666667,-0.4011111111111111,0.03826814752016464,-0.029070517629057817,-0.04109162012153605
1592167905.9094272,-0.10526029781928532,8.32145428027006,5.018815074454821,-0.4811111111111111,-0.24666666666666667,-0.4011111111111111,0.11779602144349352,-0.055403241297920985,-0.035609649844488854
1592167905.9194272,0.010647268638777962,8.596979413019035,4.988705462722444,-0.4811111111111111,-0.24666666666666667,-0.4011111111111111,0.14229511795579558,-0.07664057899704134,-0.025450342872333907
1592167905.9294271,0.035039351762106,8.48314969177684,4.939921296475788,-0.4811111111111111,-0.24666666666666667,-0.4011111111111111,0.07843679366746313,-0.08728363304509676,0.0020442134184758924
1592167905.9394271,0.10348439803736736,7.923484398037368,5.255226597056051,-0.48,-0.24,-0.43,-0.031105696402256033,-0.09082017219338347,0.009338516561119625
1592167905.9494271,0.14,7.96,5.31,-0.48,-0.24,-0.43,0.008726646259971648,-0.07090400086226964,-0.01854412330243975
1592167905.959427,0.10289024244595725,8.145548787770213,5.282167681834468,-0.48,-0.24,-0.43,0.1281440205792158,-0.05268779122035104,-0.04384441447177115
1592167905.969427,-0.017722469739384142,8.346204116232308,5.349240823246461,-0.48,-0.24,-0.43,0.2012240014013634,-0.038924397422280044,-0.07895388302580265
1592167905.979427,0.007083152623900954,8.3048614122935,5.3409722824587,-0.48,-0.24,-0.43,0.19491029622903083,-0.047042018358136206,-0.08346367243461163
1592167905.989427,0.052876810942139835,8.146423108071629,5.307138486457302,-0.46,-0.2611111111111111,-0.41555555555555557,0.1867678395235822,-0.061010156830799266,-0.09155175005327967
1592167905.999427,0.2213584714665317,8.099150955333418,5.264396305200556,-0.46,-0.2611111111111111,-0.41555555555555557,0.20472628757325523,-0.07399126039815451,-0.0904833851037245
1592167906.009427,0.2882857682857683,8.086606974106974,4.920232233982234,-0.46,-0.2611111111111111,-0.41555555555555557,0.2510527408487502,-0.061511176759557175,-0.08886374316811399
1592167906.019427,0.14214405624790158,8.549463985938026,4.672144056247902,-0.46,-0.2611111111111111,-0.41555555555555557,0.2926532692303512,-0.03798356676483423,-0.10744591646141517
1592167906.029427,0.17527896826180553,8.541180257934547,4.705278968261806,-0.46,-0.2611111111111111,-0.41555555555555557,0.26373760363028875,-0.01810404666479128,-0.08214470906136051
1592167906.039427,0.28,8.41,4.77,-0.4577777777777778,-0.2677777777777778,-0.43666666666666665,0.11562806294462433,-0.006544984694978735,-0.05017821599483697
1592167906.049427,0.12503442306935755,8.145646957000668,4.970543687792596,-0.4577777777777778,-0.2677777777777778,-0.43666666666666665,0.021163850905739592,0.014336577966248418,-0.02929665333360982
1592167906.059427,0.10041808482390713,8.302056388345765,4.8558531875346995,-0.4577777777777778,-0.2677777777777778,-0.43666666666666665,0.004682564986914567,0.02158858575212287,-0.041903916803504304
1592167906.069427,0.24750556357144604,8.398503338142868,4.859833704238096,-0.4577777777777778,-0.2677777777777778,-0.43666666666666665,0.024744446978860506,0.026107378565481683,-0.02645203958403966
1592167906.079427,0.26621813894074875,8.41621813894075,4.908654416822246,-0.4577777777777778,-0.2677777777777778,-0.43666666666666665,-0.001447759789641314,0.03502556137560154,-0.023526252001208964
1592167906.089427,0.20503316582914574,8.336471213208902,5.0963385498923195,-0.4949016830182659,-0.26159046023769644,-0.45007252133684295,-0.07242925324196475,0.04721222125558099,-0.019870254037215127
1592167906.099427,0.06667004732927653,8.241113364886186,5.163331981068289,-0.49777777777777776,-0.2611111111111111,-0.45111111111111113,-0.1026586577682653,0.05381417109392489,-0.009938926311468161
1592167906.109427,0.12573368800675244,8.277333555004219,5.084799600992404,-0.49777777777777776,-0.2611111111111111,-0.45111111111111113,-0.08722274231846287,0.058672171032310205,0.006763223393106145
1592167906.119427,0.17531687018214065,8.261873251927144,5.08,-0.49777777777777776,-0.2611111111111111,-0.45111111111111113,-0.054538488162132144,0.06582548742935909,0.023454387305019128
1592167906.129427,0.14271072815821126,8.386783524262082,5.087457854368358,-0.49777777777777776,-0.2611111111111111,-0.45111111111111113,-0.021168595446726335,0.07060830629047396,0.04054609651854105
1592167906.139427,0.06132851546670269,8.400569363771444,5.188102120761854,-0.4836074714455101,-0.2589310639830699,-0.4740016059555435,-0.0002070265094431343,0.07092470351321395,0.06828758362744614
1592167906.149427,0.16688998473640954,8.283392743923915,5.248303628038042,-0.48333333333333334,-0.2588888888888889,-0.47444444444444445,-0.02755973661788498,0.06878402112243233,0.11006194422410419
1592167906.159427,0.12041102004382051,8.164292380102248,5.2830593199707865,-0.48333333333333334,-0.2588888888888889,-0.47444444444444445,-0.04729421537798798,0.06060836142595667,0.1157725052987052
1592167906.169427,0.1274360313315927,8.131281984334205,5.19410182767624,-0.48333333333333334,-0.2588888888888889,-0.47444444444444445,-0.006572611479809587,0.05890486225480862,0.1100619778317449
1592167906.179427,0.2542497384988849,8.246940930351892,5.055750261501115,-0.48333333333333334,-0.2588888888888889,-0.47444444444444445,0.04544423558757626,0.062093931418849065,0.11227214741368603
1592167906.189427,0.36,8.4,4.88,-0.47555555555555556,-0.26666666666666666,-0.5011111111111111,0.074176493209759,0.074176493209759,0.09490227807719166
1592167906.199427,0.2570116219110706,8.436781563603189,4.865287374558725,-0.47555555555555556,-0.26666666666666666,-0.5011111111111111,0.05170791459800145,0.07818873939043,0.08366798877131289
1592167906.2094269,0.22,8.38209239653513,4.850298913790732,-0.47555555555555556,-0.26666666666666666,-0.5011111111111111,0.0013042574569763765,0.08703821754474561,0.06693195496937672
1592167906.2194269,0.11600222150229093,8.32327393900125,4.972906465497293,-0.47555555555555556,-0.26666666666666666,-0.5011111111111111,-0.030939266753604294,0.079015991465422,0.07788507554193871
1592167906.2294269,0.11727825991027432,8.203547841435611,5.125565198205487,-0.47555555555555556,-0.26666666666666666,-0.5011111111111111,-0.04384001340928566,0.06742472640535285,0.08568523129756825
1592167906.2394269,0.11138986707274515,8.228881063418038,5.136949335363726,-0.48225232561008713,-0.2704933924121133,-0.5011111111111111,-0.0442396752144697,0.05387598734635854,0.07802587553993344
1592167906.2494268,0.11858658132357984,8.403145045148017,5.13,-0.48333333333333334,-0.27111111111111114,-0.5011111111111111,-0.018343661794599106,0.05235987755982988,0.05106858526949279
1592167906.2594268,0.13705984781623454,8.378820456551296,4.925281826205185,-0.48333333333333334,-0.27111111111111114,-0.5011111111111111,0.0044286069701996375,0.04212470363137043,0.07388936400419527
1592167906.2694268,0.049063183042748953,8.35181263660855,4.8263442281299245,-0.48333333333333334,-0.27111111111111114,-0.5011111111111111,-0.02906695582623441,0.03440893820041596,0.09242735142763496
1592167906.2794268,0.2280610911466841,8.224625939235544,4.733805333224437,-0.48333333333333334,-0.27111111111111114,-0.5011111111111111,-0.04469158839563304,0.03808956315765419,0.10150430331517052
1592167906.2894268,0.22632263957072724,8.40470944171709,4.692107546523576,-0.48333333333333334,-0.2909916149738047,-0.5140334386218619,-0.06849007540763682,0.032438734510608164,0.06654541018687166
1592167906.2994268,0.14863452972317454,8.48352410270762,4.841651624338255,-0.48333333333333334,-0.29333333333333333,-0.5155555555555555,-0.08452733992469663,0.026768614455816152,0.02519972000428186
1592167906.3094268,0.09820733373653204,8.381339067714983,5.010453598548485,-0.48333333333333334,-0.29333333333333333,-0.5155555555555555,-0.1472645257865613,0.011591546190221508,0.006137392277739228
1592167906.3194268,0.1503394177851931,8.118642328859227,5.221018253355579,-0.48333333333333334,-0.29333333333333333,-0.5155555555555555,-0.21661880500731354,-0.008198520850371925,0.019257372396147186
1592167906.3294268,0.21237553956834532,8.00517780061665,5.257482219938335,-0.48333333333333334,-0.29333333333333333,-0.5155555555555555,-0.2315152570578676,-0.022334877987167004,0.0201842484839002
1592167906.3394268,0.27533296693230747,8.288264175139691,5.278133186772923,-0.4762815384771966,-0.26109655684813693,-0.547792332040752,-0.18003114399925432,-0.028157962611581135,-0.024870582127553165
1592167906.3494267,0.1815334973581253,8.375387407736055,5.261537530754649,-0.47555555555555556,-0.2577777777777778,-0.5511111111111111,-0.13291143700040428,-0.02231977141279079,-0.049591860901127854
1592167906.3594267,0.2073766513885144,8.392524669722297,5.328638986249663,-0.47555555555555556,-0.2577777777777778,-0.5511111111111111,-0.09927636540416843,-0.024262911762802944,-0.03644280653066362
1592167906.3694267,0.2362839786731929,8.129456341228915,5.4214198933659645,-0.47555555555555556,-0.2577777777777778,-0.5511111111111111,-0.1310364410414151,-0.03752325363618272,0.0019130536616638188
1592167906.3794267,0.16085987575189822,8.063404989645992,5.367454886105907,-0.47555555555555556,-0.2577777777777778,-0.5511111111111111,-0.13781610534654637,-0.04755477925740417,-0.004570603567602494
1592167906.3894267,0.21063353124808715,8.180844708330783,5.262024851563935,-0.48142995109941306,-0.2577777777777778,-0.5578247060183769,-0.0698863506231787,-0.05209292882576483,-0.012823020655892414
1592167906.3994267,0.23212512758652687,8.298748724134732,5.232125127586527,-0.48333333333333334,-0.2577777777777778,-0.56,-0.01621298745350403,-0.04119267835192663,-0.02339815327417586
1592167906.4094267,0.23805494127475552,8.175011057054402,5.1575055285272,-0.48333333333333334,-0.2577777777777778,-0.56,-0.022572997896772945,-0.02675652612556003,-0.021786649833062662
1592167906.4194267,0.4104881540333548,8.123763032949205,5.14,-0.48333333333333334,-0.2577777777777778,-0.56,-0.028836706300923238,-0.008057672088872252,0.002299533647972571
1592167906.4294267,0.26008864361804407,8.185486674614468,5.146548667461447,-0.48333333333333334,-0.2577777777777778,-0.56,-0.025166338296636885,0.00778060655718855,-0.007365509430210804
1592167906.4394267,-0.04859994435943801,8.261719988871887,5.300191959938796,-0.48889599851625165,-0.27539288419035257,-0.5776151064125747,-0.009254612000366197,0.03602533526374893,-0.0243735205763233
1592167906.4494267,-0.03433945063220896,8.209279400689683,5.335060049942526,-0.49,-0.2788888888888889,-0.5811111111111111,-0.00820088216646192,0.042016636423852054,-0.025627972956087212
1592167906.4594266,0.0030418775885872086,8.141520938794294,5.212814081914404,-0.49,-0.2788888888888889,-0.5811111111111111,-0.013517165430410524,0.03253416613603098,-0.02878879638536091
1592167906.4694266,-0.12815836091557503,8.233982798004755,5.20708778145541,-0.49,-0.2788888888888889,-0.5811111111111111,0.013779016851746057,0.027747280207480768,-0.04250034573869764
1592167906.4794266,-0.10001360326478355,8.307127310554533,5.1671545170841,-0.49,-0.2788888888888889,-0.5811111111111111,0.042691661991161006,0.011691712343881555,-0.037713486334016263
1592167906.4894266,-0.027031634831153194,8.224063269662306,5.180267637239341,-0.49,-0.269640444176868,-0.5701811309969046,0.031724333551011605,-0.006101750732455957,-0.017572728072479237
1592167906.4994266,-0.0021781522150700495,8.22910923892465,5.1978218477849305,-0.49,-0.26666666666666666,-0.5666666666666667,0.002905095913929883,-0.023469176786153397,-0.003466826267657706
1592167906.5094266,-0.02256150506512301,8.285123010130247,5.094712976362759,-0.49,-0.26666666666666666,-0.5666666666666667,0.004931102394005928,-0.03875580220050481,0.003010966588251192
1592167906.5194266,0.06042018432956772,8.277394953917607,5.044929969278405,-0.49,-0.26666666666666666,-0.5666666666666667,0.010923586158331729,-0.04993988454928899,0.015870520512983707
1592167906.5294266,0.023592600338422337,8.245851854668517,5.058111108998612,-0.49,-0.26666666666666666,-0.5666666666666667,-0.008415555100068101,-0.05038426203974642,0.011732492004602356
1592167906.5394266,-0.005759314254859611,8.26560171436285,5.1127220572354215,-0.47101241900647944,-0.26666666666666666,-0.591983441324694,-0.0389042118620525,-0.058407892237135085,0.00033131334511568925
1592167906.5494266,0.030501666134112385,8.211371251198246,5.152876249600585,-0.4633333333333333,-0.26666666666666666,-0.6022222222222222,-0.04581489286485115,-0.062177354602297986,-0.002181661564992912
1592167906.5594265,0.13794954490073819,8.092050455099262,5.084654196230201,-0.4633333333333333,-0.26666666666666666,-0.6022222222222222,-0.05074626418989318,-0.06628683070649968,0.033159832931141636
1592167906.5694265,0.22020092981063613,8.095857807007597,5.124544052613675,-0.4633333333333333,-0.26666666666666666,-0.6022222222222222,-0.035931661695614125,-0.05746166059883717,0.006391558399184587
1592167906.5794265,0.15716144317063868,8.186921517055836,5.15,-0.4633333333333333,-0.26666666666666666,-0.6022222222222222,-0.0023435767972895052,-0.04312352574037784,0.002245985254598631
1592167906.5894265,0.13457894568383316,8.295326313094133,5.184578945683834,-0.47178596450049254,-0.26282456159068524,-0.6006853801918296,-0.0009886363165243321,-0.03524302025481908,0.025659783961311345
1592167906.5994265,0.14272446796531923,8.261795743722555,5.2145510640693615,-0.47555555555555556,-0.2611111111111111,-0.6,-0.045233968051328434,-0.036493859900380364,0.032724923474893676
1592167906.6094265,0.16108938876457427,8.204851018725709,5.135642444941703,-0.47555555555555556,-0.2611111111111111,-0.6,-0.05123654410533112,-0.034787751160036254,0.04346056888416218
1592167906.6194265,0.14942506429740474,8.251724807107784,5.079425064297404,-0.47555555555555556,-0.2611111111111111,-0.6,-0.04575217710861643,-0.024838244972479627,0.04425592556113135
1592167906.6294265,0.1119991355938863,8.291200345762446,5.058799654237554,-0.47555555555555556,-0.2611111111111111,-0.6,-0.05205467124172226,-0.020725784867432664,0.03826621184106404
1592167906.6394265,0.10236525809716598,8.306182629048584,5.037634741902834,-0.47555555555555556,-0.2611111111111111,-0.6137391756635178,-0.0659070739718535,-0.013981582784481555,0.046371728580903465
1592167906.6494265,0.11,8.227181536755532,5.0714092316222334,-0.47555555555555556,-0.2611111111111111,-0.6222222222222222,-0.0919835509776967,-0.006806112740264238,0.02183138316918576
1592167906.6594265,0.029209967435933737,8.230395016282033,5.157325027136722,-0.47555555555555556,-0.2611111111111111,-0.6222222222222222,-0.09630644792985023,-0.007657360273476644,-0.009255433290148267
1592167906.6694264,0.06438707969287795,8.22024516812285,5.338774159385756,-0.47555555555555556,-0.2611111111111111,-0.6222222222222222,-0.0751483925344233,-0.016841017894872475,-0.002847423577121805
1592167906.6794264,0.11945676807911546,8.206317903990112,5.401046288029668,-0.47555555555555556,-0.2611111111111111,-0.6222222222222222,-0.06269752378973457,-0.020839917186444637,0.013829638212907731
1592167906.6894264,0.07210976478973627,8.095117605131861,5.447968638631504,-0.4670095826403738,-0.26965708402629285,-0.6268836619941396,-0.03634262527885377,-0.02672107792789608,0.01779850197641402
1592167906.6994264,0.009213596544346208,8.045842719308869,5.464157280691131,-0.4633333333333333,-0.2733333333333333,-0.6288888888888889,-0.009498916230204598,-0.029268578294780568,-0.005870784247680656
1592167906.7094264,-0.07497298379027416,8.060614868921352,5.353182409445667,-0.4633333333333333,-0.2733333333333333,-0.6288888888888889,0.046278501404840515,-0.03129283969645214,-0.051939764723945465
1592167906.7194264,-0.19651264453235995,8.153644291928044,5.27426329479137,-0.4633333333333333,-0.2733333333333333,-0.6288888888888889,0.06943275861041227,-0.040056409776880145,-0.07972384852830408
1592167906.7294264,-0.16053582856588772,8.224851158731697,5.314672549209735,-0.4633333333333333,-0.2733333333333333,-0.6288888888888889,0.0709299785642168,-0.056109593830956164,-0.0997493195563012
1592167906.7394264,-0.07548635865094598,8.195136413490541,5.31513641349054,-0.47003888279560063,-0.28125807360692195,-0.6173065761813362,0.05876058216193592,-0.07361619741504788,-0.09401524900141951
1592167906.7494264,0.08758689777280777,8.15,5.223075668623614,-0.47555555555555556,-0.2877777777777778,-0.6077777777777778,0.061865942795180484,-0.09023958893709941,-0.09827113680076961
1592167906.7594264,0.08931104560275135,8.20586158381348,5.187586314708115,-0.47555555555555556,-0.2877777777777778,-0.6077777777777778,0.07872778476883373,-0.09328486285156593,-0.09336018664404167
1592167906.7694263,0.19593292347678312,8.358509021842355,5.080202928974859,-0.47555555555555556,-0.2877777777777778,-0.6077777777777778,0.07869138876816188,-0.0902690142662372,-0.052426285911560816
1592167906.7794263,0.18884880177570446,8.364251721154208,5.02,-0.47555555555555556,-0.2877777777777778,-0.6077777777777778,0.05210872506786651,-0.08724134735052014,-0.021691039403947433
1592167906.7894263,0.15144313725490197,8.192474509803922,5.1121647058823525,-0.47214204793028325,-0.2911912854030501,-0.6293966594045025,0.00708483898812012,-0.07503119121110328,-0.03213259523038514
1592167906.7994263,0.17302648689343644,8.151622521844272,5.255460269659846,-0.4688888888888889,-0.29444444444444445,-0.65,-0.0011554847731638923,-0.055366885391368435,-0.05303207499705781
1592167906.8094263,0.2152137794968978,8.235649645647829,5.205222086654033,-0.4688888888888889,-0.29444444444444445,-0.65,0.04178167057418833,-0.04766464124997747,-0.015036621358524065
1592167906.8194263,0.5605500483558994,8.26,5.153098887814314,-0.4688888888888889,-0.29444444444444445,-0.65,0.041928623583844915,-0.03260262699669165,0.02577960704762496
1592167906.8294263,0.605967177092632,8.224737691409736,5.152350820572685,-0.4688888888888889,-0.29444444444444445,-0.65,0.028943494112251375,-0.015922549000675454,0.03131649861715277
1592167906.8394263,0.2677524803892093,8.088501653592806,5.19762210621259,-0.4724719466234212,-0.2956387970226219,-0.65,0.017193904545861814,0.03269648024187371,-0.01788673876904634
1592167906.8494263,0.1555889431186883,8.165665864465486,5.224372596207912,-0.47555555555555556,-0.2966666666666667,-0.65,0.036072148072298346,0.06116125606971684,-0.07166312448164894
1592167906.8594263,0.17261252661722593,8.350150035489634,5.148402476931738,-0.47555555555555556,-0.2966666666666667,-0.65,0.046194228688766506,0.07729108915644352,-0.04990767757255838
1592167906.8694263,0.34698527129932444,8.265445083669524,5.163200448783748,-0.47555555555555556,-0.2966666666666667,-0.65,0.013398566358360363,0.08502105574920756,0.009710245389790435
1592167906.8794262,0.35133265473906744,8.139254981795405,5.252392436283913,-0.47555555555555556,-0.2966666666666667,-0.65,-0.023527831617303076,0.09340510289914834,0.02002413080344579
1592167906.8894262,0.18671126689359982,8.174429577702133,5.299771831080853,-0.46198356794325923,-0.2896092331082726,-0.65,-0.00993162990484724,0.099798571914395,0.016138457424894146
1592167906.8994262,0.18349241574961678,8.261243679791347,5.242631952229518,-0.4477777777777778,-0.2822222222222222,-0.65,0.026983668111409564,0.08833126358271755,0.03887317209836892
1592167906.9094262,0.15672535449401476,8.226725354494015,5.104179309722943,-0.4477777777777778,-0.2822222222222222,-0.65,0.014418348930516911,0.0727284540152933,0.05489874753679204
1592167906.9194262,0.1893868286891543,8.143709756267896,5.077322438717788,-0.4477777777777778,-0.2822222222222222,-0.65,-0.022998863217047107,0.06539354944659126,0.045026727820105826
1592167906.9294262,0.17049154683833706,8.137305817941158,5.176243908308766,-0.4477777777777778,-0.2822222222222222,-0.65,-0.04047657532389322,0.0709662177915643,0.010721657037080563
1592167906.9394262,0.06117794874976733,8.117644102500465,5.33471179499907,-0.45060150427774676,-0.28834029630548835,-0.6650598746665012,-0.027514086349845458,0.07870658478598615,-0.01804381796371581
1592167906.9494262,0.0959810547875064,8.054018945212494,5.467943164362519,-0.45444444444444443,-0.2966666666666667,-0.6855555555555556,-0.017453292519943295,0.07027223501583761,-0.04987118594817117
1592167906.9594262,0.10761672360501058,8.084275256222549,5.4704790954937375,-0.45444444444444443,-0.2966666666666667,-0.6855555555555556,-0.006652168978796511,0.0631649938930063,-0.0693454810400352
1592167906.9694262,0.20780093838935468,8.269550547393791,5.441300156398226,-0.45444444444444443,-0.2966666666666667,-0.6855555555555556,0.06638833675153212,0.042356805740738274,-0.04117843552924369
1592167906.9794261,0.3439563025210084,8.206166485417697,5.420368363816115,-0.45444444444444443,-0.2966666666666667,-0.6855555555555556,0.08672774425163117,0.02465754233994006,0.005172878099639244
1592167906.9894261,0.5041830559757943,8.080326777609683,5.399891074130106,-0.45114741973440914,-0.2966666666666667,-0.6894020843839301,0.09642564554364019,0.010416361295067143,0.038072139664674334
1592167906.9994261,0.5660536124990087,8.061157110000794,5.4044214449996035,-0.4477777777777778,-0.2966666666666667,-0.6933333333333334,0.11526864851954052,0.006671205815738695,0.04784442294193701
1592167907.009426,0.6613321389049902,8.209999473046318,5.242000843125889,-0.4477777777777778,-0.2966666666666667,-0.6933333333333334,0.1750419259149837,0.02756156963242508,0.05388699466994125
1592167907.019426,0.5667664243978908,8.193670371953827,5.153021234145646,-0.4477777777777778,-0.2966666666666667,-0.6933333333333334,0.17589067296262578,0.05998753162700424,0.07506305555158276
1592167907.029426,0.5019894302468689,8.095145877072325,5.196140592195758,-0.4477777777777778,-0.2966666666666667,-0.6933333333333334,0.1579534502866947,0.08144556589754959,0.07381914800663177
1592167907.039426,0.5101496693351897,8.087462582666204,5.242487527555401,-0.44269026655150334,-0.3077666911603563,-0.6863958180247773,0.1597876621786284,0.09444277663143417,0.0396516588660402
1592167907.049426,0.29982330768022614,8.14025914873567,5.259729071776347,-0.43555555555555553,-0.3233333333333333,-0.6766666666666666,0.18658731634770676,0.101429273572836,0.014178230286834726
1592167907.059426,0.1640871717545307,8.331825656490938,4.987738484736409,-0.43555555555555553,-0.3233333333333333,-0.6766666666666666,0.21960773892490054,0.07337003132708943,0.007389122431014003
1592167907.069426,0.20776665474913597,8.294446669050172,4.956659992849482,-0.43555555555555553,-0.3233333333333333,-0.6766666666666666,0.18823522102863663,0.046789373563885045,-0.007510729387745947
1592167907.079426,0.22068445475638052,8.29,4.997946635730859,-0.43555555555555553,-0.3233333333333333,-0.6766666666666666,0.18070459773566871,0.03251548902651414,-0.013239294253454666
1592167907.089426,0.37216302525481015,8.318378529419592,5.034054075631371,-0.426546498596955,-0.3201801633978231,-0.6834234593856171,0.1816675222642998,0.02903969375971837,-0.01621508041688547
1592167907.099426,0.5667763593148906,8.35519737325721,5.04960525348558,-0.41333333333333333,-0.31555555555555553,-0.6933333333333334,0.17138961334670738,0.0447312254120871,-0.02818935968522279
1592167907.109426,0.5452367620206938,8.339905295191722,5.029715885575167,-0.41333333333333333,-0.31555555555555553,-0.6933333333333334,0.1679879405044542,0.07156821921165536,-0.021162727992555343
1592167907.119426,0.5646203083360315,8.286962466688252,5.021518766655874,-0.41333333333333333,-0.31555555555555553,-0.6933333333333334,0.17092210713815242,0.09807797009397856,-0.01216481034942668
1592167907.129426,0.5586512657809506,8.25134873421905,5.039807323682993,-0.41333333333333333,-0.31555555555555553,-0.6933333333333334,0.17419873254447418,0.11040510401555635,-0.014390977430103287
1592167907.139426,0.49,8.360319091723932,5.015338512100389,-0.4096679613584304,-0.31514829200278854,-0.6880389071473625,0.23070435519466648,0.12297270775550785,-0.013893866374751542
1592167907.149426,0.5375885646108663,8.453794282305433,4.94717029185022,-0.4033333333333333,-0.31444444444444447,-0.6788888888888889,0.26128027708742585,0.12435470920459597,0.021027475264188633
1592167907.159426,0.59946552023193,8.45160343930421,4.75801719652105,-0.4033333333333333,-0.31444444444444447,-0.6788888888888889,0.2534808604277204,0.12435470920459597,0.051085678439041285
1592167907.169426,0.5602321664862264,8.424976783351378,4.629860700108264,-0.4033333333333333,-0.31444444444444447,-0.6788888888888889,0.24489404321395275,0.1281548891388448,0.0752217382092843
1592167907.179426,0.51,8.43,4.66,-0.4033333333333333,-0.31444444444444447,-0.6788888888888889,0.24434609527920614,0.13199052468207118,0.08508480103472357
1592167907.189426,0.39116136134299606,8.491816347124116,4.712228235941657,-0.40586765740146163,-0.31444444444444447,-0.6843799243698335,0.2078176236855444,0.1418529318246531,0.07875636141022666
1592167907.199426,0.23,8.559394228097338,4.83,-0.41,-0.31444444444444447,-0.6933333333333334,0.17653050825795957,0.14722911590509172,0.07205619114692151
1592167907.209426,0.3178886601162397,8.42,4.794844535953504,-0.41,-0.31444444444444447,-0.6933333333333334,0.12602309549665525,0.12955981629139426,0.09192793117044978
1592167907.219426,0.43,8.42,4.75,-0.41,-0.31444444444444447,-0.6933333333333334,0.11562806294462433,0.11671889372712078,0.09926560120717749
1592167907.229426,0.4477765021048603,8.42616150019135,4.776919249904324,-0.41,-0.31444444444444447,-0.6933333333333334,0.11621752068089873,0.09346996257212266,0.09700128197095063
1592167907.239426,0.6382413157715143,8.428527605268545,4.750879342114242,-0.39980231579426284,-0.3216678040901749,-0.6958827543847677,0.11581990563393665,0.0799831031612592,0.1000998972953122
1592167907.249426,0.699949018202095,8.41003186362369,4.720012745449476,-0.38333333333333336,-0.3333333333333333,-0.7,0.10909350559611468,0.0752714949308431,0.10143822573856387
1592167907.2594259,0.6542886209878427,8.46,4.671422758024315,-0.38333333333333336,-0.3333333333333333,-0.7,0.13479631080281565,0.0818123086872342,0.08726646259971647
1592167907.2694259,0.6675228680323964,8.436802048594569,4.58,-0.38333333333333336,-0.3333333333333333,-0.7,0.1442255508989534,0.0797879055285221,0.07967495075454611
1592167907.2794259,0.5800009185604321,8.49214134807929,4.558571822240185,-0.38333333333333336,-0.3333333333333333,-0.7,0.1414963214724832,0.07238450710938578,0.06622909767962724
1592167907.2894258,0.46294424148050545,8.608781817092892,4.536649697550458,-0.37940215474503075,-0.33148336693883795,-0.6956063298130735,0.14357990760480932,0.05736553453742338,0.05872213160267695
1592167907.2994258,0.35206908020979916,8.549481898426507,4.540518101573493,-0.36444444444444446,-0.3244444444444444,-0.6788888888888889,0.1344920814096322,0.025822729027192105,0.05525632144976886
1592167907.3094258,0.34,8.662506804639415,4.418490473504819,-0.36444444444444446,-0.3244444444444444,-0.6788888888888889,0.08627551073489839,-0.0027315305823240148,0.032448504424200504
1592167907.3194258,0.34,8.69,4.38,-0.36444444444444446,-0.3244444444444444,-0.6788888888888889,0.04908738521234052,-0.020725784867432664,0.017453292519943295
1592167907.3294258,0.4746356398067179,8.551385840327093,4.478649959895925,-0.36444444444444446,-0.3244444444444444,-0.6788888888888889,-0.05576401564351701,-0.05388469753620764,0.02399827721492203
1592167907.3394258,0.6080965366784837,8.395194982274338,4.578486501227161,-0.36771535920976883,-0.3269457322061631,-0.6790812956397904,-0.09855256019663917,-0.05863089030207363,0.013231268714115042
1592167907.3494258,0.79,8.42,4.81,-0.38333333333333336,-0.3388888888888889,-0.68,-0.10035643198967394,-0.04690572364734761,-0.038179077387375956
1592167907.3594258,0.8334524873398867,8.626726243669943,4.8030056598153115,-0.38333333333333336,-0.3388888888888889,-0.68,-0.03342939804637188,-0.018524626773708804,-0.04970412540452945
1592167907.3694258,0.86,8.64,4.73,-0.38333333333333336,-0.3388888888888889,-0.68,-0.028361600344907853,-0.014180800172453926,-0.025089107997418484
1592167907.3794258,0.8129464364373182,8.381369042375121,4.8129464364373185,-0.38333333333333336,-0.3388888888888889,-0.68,-0.07387781449669416,-0.025697829245240545,-0.002491704099750131
1592167907.3894258,0.7938210812477229,8.425880720831815,4.7488257055575795,-0.381568808796465,-0.33712436435202053,-0.6764709509262633,-0.04597753460030927,-0.030126446605157158,0.004522938261720193
1592167907.3994257,0.8387359252656994,8.491264074734302,4.651015862987116,-0.37666666666666665,-0.3322222222222222,-0.6666666666666666,0.028098104541342074,-0.016721977824030843,0.03352518275238369
1592167907.4094257,0.7714491029362776,8.517310712416123,4.532415171560462,-0.37666666666666665,-0.3322222222222222,-0.6666666666666666,0.0451455890396607,0.0007746855645169469,0.04552153709690334
1592167907.4194257,0.6945370089400341,8.496185196423987,4.464018580331925,-0.37666666666666665,-0.3322222222222222,-0.6666666666666666,0.014788814650529437,0.018229001765496723,0.035120697596783323
1592167907.4294257,0.6357347740667977,8.51220592963029,4.564265225933203,-0.37666666666666665,-0.3322222222222222,-0.6666666666666666,-0.01934633884628819,0.02991769510162824,0.013009642629531807
1592167907.4394257,0.5533320235756386,8.51969708876585,4.646667976424362,-0.37666666666666665,-0.3322222222222222,-0.6666666666666666,-0.04059246499857378,0.03890644078144138,-0.005785007428259287
1592167907.4494257,0.49,8.45,4.74,-0.38333333333333336,-0.3322222222222222,-0.6877777777777778,-0.04799655442984406,0.038179077387375956,0.0
1592167907.4594257,0.36350330250990753,8.477834434169969,4.757834434169969,-0.38333333333333336,-0.3322222222222222,-0.6877777777777778,-0.04510621310417512,0.030890733062722404,-0.008997552715862445
1592167907.4694257,0.35116301192770205,8.481163011927702,4.753721003975901,-0.38333333333333336,-0.3322222222222222,-0.6877777777777778,-0.04213650194949137,0.010679881787261019,-0.02344020992141078
1592167907.4794257,0.37,8.5,4.76,-0.38333333333333336,-0.3322222222222222,-0.6877777777777778,-0.04145156973486533,0.001090830782496456,-0.02617993877991494
1592167907.4894257,0.41435230054453714,8.526611380326722,4.72451815956437,-0.38333333333333336,-0.3322222222222222,-0.6877777777777778,-0.04919250648822779,-0.012455808535887868,-0.02811517296825556
1592167907.4994256,0.4884305187429004,8.45921525937145,4.733071753123817,-0.3711111111111111,-0.3233333333333333,-0.6877777777777778,-0.059910091113915306,-0.01787397072970196,-0.02945243112740431
1592167907.5094256,0.5063796559600952,8.49476271502494,4.698664397930166,-0.3711111111111111,-0.3233333333333333,-0.6877777777777778,-0.0586345573261638,-0.014430026859555467,-0.02751999624951294
1592167907.5194256,0.4473122747411676,8.532687725258832,4.626877252588324,-0.3711111111111111,-0.3233333333333333,-0.6877777777777778,-0.05223051340789635,-0.011576589110804713,-0.017923295572138516
1592167907.5294256,0.44361098684799144,8.534583519728011,4.723471414511945,-0.3711111111111111,-0.3233333333333333,-0.6877777777777778,-0.06175300708129105,-0.01872584710283417,-0.0016060402037006063
1592167907.5394256,0.458621454773195,8.512067817840208,4.821039456025767,-0.3711111111111111,-0.3233333333333333,-0.6877777777777778,-0.07812688755377878,-0.028550175386326808,0.00985567612704081
1592167907.5494256,0.4971990807934204,8.400393565553943,4.948402757619739,-0.3711111111111111,-0.35,-0.6877777777777778,-0.0926322470808833,-0.034252587919804955,0.021379781987514297
1592167907.5594256,0.4980725393179007,8.344618307121399,4.929637303410496,-0.3711111111111111,-0.35,-0.6877777777777778,-0.07636229912213195,-0.03671144832389612,0.017453292519943295
1592167907.5694256,0.52,8.34105768029777,4.817788463940446,-0.3711111111111111,-0.35,-0.6877777777777778,-0.04791265275416005,-0.030312511864531426,0.01721205135890707
1592167907.5794256,0.4997678034445052,8.387357162383816,4.802642837616183,-0.3711111111111111,-0.35,-0.6877777777777778,-0.016111168827379868,-0.019810260849906162,0.016563097217449134
1592167907.5894256,0.4209383542919628,8.416022416621104,4.773977583378895,-0.3711111111111111,-0.35,-0.6877777777777778,0.001868472655939632,-0.011993025422375948,0.017344820760202155
1592167907.5994256,0.16234654416154065,8.53,4.639386176646163,-0.37333333333333335,-0.33,-0.6822222222222222,0.004887122354127818,-0.011420244345743737,-0.010439603638397847
1592167907.6094255,0.17,8.53,4.67,-0.37333333333333335,-0.33,-0.6822222222222222,-0.007635815477475192,-0.01308996938995747,-0.03381575425739013
1592167907.6194255,0.2444697560582018,8.439251768376321,4.794157499798284,-0.37333333333333335,-0.33,-0.6822222222222222,-0.05906810107231784,-0.028257273020130216,-0.05314908032600494
1592167907.6294255,0.3161534203524811,8.281539738942557,5.140255700587469,-0.37333333333333335,-0.33,-0.6822222222222222,-0.0869869327073963,-0.030711221373455697,-0.05694694536775326
1592167907.6394255,0.338621680981376,8.214134957055872,5.177702801635626,-0.37333333333333335,-0.33,-0.6822222222222222,-0.07800027358890733,-0.023358500276510187,-0.05776391437852498
1592167907.6494255,0.35,8.24,5.1,-0.3655555555555556,-0.34444444444444444,-0.6533333333333333,-0.016362461737446838,-0.01090830782496456,-0.07090400086226964
1592167907.6594255,0.22763806887200203,8.372251476030396,4.961678013503207,-0.3655555555555556,-0.34444444444444444,-0.6533333333333333,0.05136774818122439,0.016203516423282126,-0.08398192147017236
1592167907.6694255,0.12772509610845081,8.53245498077831,4.707184865448169,-0.3655555555555556,-0.34444444444444444,-0.6533333333333333,0.07419613655088847,0.0329534336529765,-0.08868402026594308
1592167907.6794255,0.09148220190624393,8.534071192375023,4.776304220968683,-0.3655555555555556,-0.34444444444444444,-0.6533333333333333,0.06605350646665226,0.039067273780204234,-0.07655866733835028
1592167907.6894255,0.0988990468780393,8.504403812487842,4.8578895156584325,-0.3655555555555556,-0.34444444444444444,-0.6533333333333333,0.0417819380539369,0.032594855536813475,-0.06118667401029722
1592167907.6994255,0.18,8.37,4.99,-0.35,-0.3377777777777778,-0.6755555555555556,0.02181661564992912,0.025089107997418484,-0.0370882466048795
1592167907.7094254,0.19281530764596486,8.340703826911492,4.985073211619562,-0.35,-0.3377777777777778,-0.6755555555555556,0.03690275079745705,0.028499179259377835,-0.022523568402123564
1592167907.7194254,0.2238910846567108,8.351527228835822,4.916945542328356,-0.35,-0.3377777777777778,-0.6755555555555556,0.06893240935330053,0.048555743002226454,-0.018119671810355776
1592167907.7294254,0.17261896762100126,8.370863145236873,4.884791596668377,-0.35,-0.3377777777777778,-0.6755555555555556,0.10497787474512768,0.07277563338455122,-0.023001600971840334
1592167907.7394254,0.053945251021238205,8.445034218111727,4.780952094643584,-0.35,-0.3377777777777778,-0.6755555555555556,0.13653202963557146,0.0930026557502203,-0.031092409918107966
1592167907.7494254,-0.11,8.57,4.69,-0.3466666666666667,-0.35,-0.6822222222222222,0.16580627893946132,0.1112647398146385,-0.044724062082354694
1592167907.7594254,-0.22,8.588780794303217,4.672931120245046,-0.3466666666666667,-0.35,-0.6822222222222222,0.14343218213381018,0.10328368640409004,-0.04544278183267771
1592167907.7694254,-0.19243318949201302,8.560915285032932,4.583928382163676,-0.3466666666666667,-0.35,-0.6822222222222222,0.10128416255296907,0.07860802939344626,-0.029355066490220322
1592167907.7794254,-0.09,8.49,4.71,-0.3466666666666667,-0.35,-0.6822222222222222,0.07635815477475191,0.0545415391248228,-0.008726646259971648
1592167907.7894254,-0.0132140419840035,8.474642808396801,4.786785958015996,-0.3466666666666667,-0.35,-0.6822222222222222,0.06463168664132579,0.035276627191337014,0.004675031606801069
1592167907.7994254,0.10156930297583383,8.394977531455963,4.886771519872179,-0.3322222222222222,-0.3377777777777778,-0.6611111111111111,0.0505303885452475,0.01363783571915319,0.01981104036014147
1592167907.8094254,0.21,8.42,4.77,-0.3322222222222222,-0.3377777777777778,-0.6611111111111111,0.06326818538479445,0.01090830782496456,0.02617993877991494
1592167907.8194253,0.22915736148317112,8.505055831100973,4.626629445932684,-0.3322222222222222,-0.3377777777777778,-0.6611111111111111,0.105019868842887,0.021277290487037137,0.03481466743661918
1592167907.8294253,0.2089046423881788,8.561232817512424,4.583835912437877,-0.3322222222222222,-0.3377777777777778,-0.6611111111111111,0.1311836475070191,0.026732851445710023,0.03435367237409151
1592167907.8394253,0.14616059704469525,8.568204378106145,4.548978109469275,-0.3322222222222222,-0.3377777777777778,-0.6611111111111111,0.1266207717684174,0.023690934286642235,0.037395589533159294
1592167907.8494253,0.11796483923201481,8.578008790191996,4.540995604904002,-0.3388888888888889,-0.35,-0.6533333333333333,0.09938379346684008,0.017783897768896995,0.03937851181752138
1592167907.8594253,0.1972686534801359,8.557092538607947,4.543458211867877,-0.3388888888888889,-0.35,-0.6533333333333333,0.07937356984095427,0.011146173953867525,0.03996429540419726
1592167907.8694253,0.28580488397521564,8.52,4.465873162434698,-0.3388888888888889,-0.35,-0.6533333333333333,0.06034688992390641,0.015553648681247607,0.033167643595414596
1592167907.8794253,0.23493101799678995,8.52,4.53506898200321,-0.3388888888888889,-0.35,-0.6533333333333333,0.039649815888866034,0.03204409948840676,0.012206013884946042
1592167907.8894253,0.18479937164907967,8.52,4.58520062835092,-0.3388888888888889,-0.35,-0.6533333333333333,0.0326188689300121,0.04688720973487619,-0.007324394334092668
1592167907.8994253,0.14,8.55,4.67,-0.35888888888888887,-0.35,-0.6611111111111111,0.02399827721492203,0.06763150851478027,-0.03381575425739013
1592167907.9094253,0.12026861059387504,8.540134305296936,4.768656947030625,-0.35888888888888887,-0.35,-0.6611111111111111,0.016465014783953083,0.06763150851478027,-0.029511032868265022
1592167907.9194252,0.09927048078260467,8.480729519217396,4.662188557652186,-0.35888888888888887,-0.35,-0.6611111111111111,0.018010339933073584,0.04177966861295174,-0.00676045525684188
1592167907.9294252,0.09068992330258367,8.491379846605168,4.689310076697416,-0.35888888888888887,-0.35,-0.6611111111111111,0.025728809137035392,0.002858143977946039,0.004476211566388808
1592167907.9394252,0.10551443820026155,8.521028876400523,4.674485561799738,-0.35888888888888887,-0.35,-0.6611111111111111,0.03947419074510507,-0.029483930393982602,0.006901867144283456
1592167907.9494252,0.38654859314786466,8.523451406852136,4.658908567808689,-0.3466666666666667,-0.3566666666666667,-0.6533333333333333,0.04488175833415571,-0.07667668565546665,0.007397701911217321
1592167907.9594252,0.44,8.47,4.65,-0.3466666666666667,-0.3566666666666667,-0.6533333333333333,0.028361600344907853,-0.09708393964218458,0.00545415391248228
1592167907.9694252,0.4379094148633993,8.5010452925683,4.57052264628415,-0.3466666666666667,-0.3566666666666667,-0.6533333333333333,0.022301216506771266,-0.09137323233490352,-0.011193367152518764
1592167907.9794252,0.36,8.54,4.59,-0.3466666666666667,-0.3566666666666667,-0.6533333333333333,0.04036073895236887,-0.0818123086872342,-0.02181661564992912
1592167907.9894252,0.2644997239433164,8.554692350162567,4.597346175081283,-0.3466666666666667,-0.3566666666666667,-0.6533333333333333,0.04757282947341393,-0.07379887477496191,-0.028227362779746953
1592167907.9994252,0.18,8.56,4.56,-0.35,-0.35,-0.6322222222222222,0.05235987755982988,-0.06326818538479445,-0.04036073895236887
1592167908.0094252,0.15018150057517787,8.609697499041369,4.530181500575178,-0.35,-0.35,-0.6322222222222222,0.05235987755982988,-0.06868934156153592,-0.04903458883515523
1592167908.0194252,0.19966730828640006,8.62986692331456,4.37106461348352,-0.35,-0.35,-0.6322222222222222,0.03935700665681874,-0.0936445085280481,-0.03933523203508216
1592167908.0294251,0.5489864541451274,8.600086875358988,4.360028958452997,-0.35,-0.35,-0.6322222222222222,0.008815094821408988,-0.11991557302194958,-0.029480861022152027
1592167908.0394251,0.6305555020513512,8.575833349384595,4.400277751025675,-0.35,-0.35,-0.6322222222222222,-0.019392528567890845,-0.11999138607461016,-0.025058810060550794
1592167908.0494251,0.69,8.53,4.51,-0.33,-0.3511111111111111,-0.6322222222222222,-0.04908738521234052,-0.10581058590215622,-0.025089107997418484
1592167908.059425,0.5622427440633245,8.538517150395778,4.637757255936676,-0.33,-0.3511111111111111,-0.6322222222222222,-0.05559092409394735,-0.07515104546029541,-0.028805415929765252
1592167908.069425,0.41,8.53,4.68,-0.33,-0.3511111111111111,-0.6322222222222222,-0.062177354602297986,-0.04145156973486533,-0.032724923474893676
1592167908.079425,0.3469734345351044,8.45796963946869,4.761034155597723,-0.33,-0.3511111111111111,-0.6322222222222222,-0.05824870787520449,-0.020826174417624462,-0.03174276179312031
1592167908.089425,0.3550953438505131,8.42735698422423,4.800190687701026,-0.33,-0.3511111111111111,-0.6322222222222222,-0.044640858876705554,-0.011957537004636445,-0.029987446117946397
1592167908.099425,0.33,8.48,4.81,-0.33,-0.36444444444444446,-0.6322222222222222,-0.014180800172453926,-0.017453292519943295,-0.03381575425739013
1592167908.109425,0.38007569721115536,8.480227091633466,4.768788844621514,-0.33,-0.36444444444444446,-0.6322222222222222,0.0011981754849971031,-0.018502836878401038,-0.033774467833351425
1592167908.119425,0.3899053198968831,8.509715959690649,4.611514881649871,-0.33,-0.36444444444444446,-0.6322222222222222,0.015137366992689512,-0.013141609375442422,-0.028413240330392803
1592167908.129425,0.3992915939694896,8.602915939694896,4.535667248244084,-0.33,-0.36444444444444446,-0.6322222222222222,0.035542744395705664,0.006167588378760051,-0.016198932280454686
1592167908.139425,0.29130865397193206,8.617246089735204,4.537246089735205,-0.33,-0.36444444444444446,-0.6322222222222222,0.04104037547282585,0.028977311364385465,-0.012109927860593306
1592167908.149425,0.1223829111640326,8.570916504293859,4.5890834957061415,-0.3321814886980507,-0.34699253486003867,-0.6322222222222222,0.01791317802411767,0.06707164790100277,-0.01197914358554039
1592167908.159425,0.04,8.54,4.61,-0.3322222222222222,-0.3466666666666667,-0.6322222222222222,-0.004363323129985824,0.0916297857297023,-0.011999138607461015
1592167908.169425,-0.06249161475802587,8.557081935793004,4.541672256827983,-0.3322222222222222,-0.3466666666666667,-0.6322222222222222,-0.006226673268749535,0.100014861354139,-0.005477413121788026
1592167908.179425,-0.07008262536261915,8.540165250725238,4.6192563717364274,-0.3322222222222222,-0.3466666666666667,-0.6322222222222222,-0.008708620202179669,0.08521999646816342,0.009700307666820236
1592167908.189425,-0.0171728764391261,8.517359804188196,4.71810751518448,-0.3322222222222222,-0.3466666666666667,-0.6322222222222222,-0.020251736766160655,0.07355971052853456,0.023812229799983327
1592167908.199425,0.05610399868356096,8.48194800065822,4.75935066644726,-0.34572874042382024,-0.35809525899109573,-0.6322222222222222,-0.03623827097195582,0.055533177363233766,0.0375415956626832
1592167908.209425,0.06,8.535230067707612,4.6495398645847725,-0.3466666666666667,-0.35888888888888887,-0.6322222222222222,-0.02303069307741953,0.04249220752985711,0.0391831883536231
1592167908.219425,0.06,8.557724719101124,4.524789325842696,-0.3466666666666667,-0.35888888888888887,-0.6322222222222222,0.0023517208583315463,0.03275096859189149,0.03733644124921156
1592167908.229425,0.06885829881975533,8.551141701180246,4.5454331952790215,-0.3466666666666667,-0.35888888888888887,-0.6322222222222222,0.003521572905854051,0.03260038319571133,0.0370882466048795
1592167908.239425,0.10295508944876863,8.543408982110247,4.635683232566798,-0.3466666666666667,-0.35888888888888887,-0.6322222222222222,-0.008949972496128571,0.029130080873829577,0.03421237252402822
1592167908.249425,0.12,8.531549421524495,4.705351735426509,-0.3466666666666667,-0.35888888888888887,-0.6322222222222222,-0.022646151859735023,0.02450532422311716,0.029037663022501357
1592167908.259425,0.10223340466056859,8.494466809321137,4.7011167023302844,-0.3466666666666667,-0.35888888888888887,-0.6322222222222222,-0.026905329579383512,0.024967294669742523,0.022547495615984896
1592167908.269425,0.08255727249278964,8.50744272750721,4.551736816188712,-0.3466666666666667,-0.35888888888888887,-0.6322222222222222,-0.028222122767189533,0.02699181440697476,0.014205790011704026
1592167908.279425,0.07130009775171066,8.579599217986315,4.547399804496578,-0.3466666666666667,-0.35888888888888887,-0.6322222222222222,-0.021718515520906957,0.0272707695624114,0.009293920919099814
1592167908.289425,0.06321848052334225,8.576436961046685,4.611033675289919,-0.3466666666666667,-0.35888888888888887,-0.6322222222222222,-0.04365800447886899,0.02801051858213515,0.010206144299419153
1592167908.299425,0.06849723947550035,8.536011042097998,4.682486197377502,-0.34005770263016644,-0.34850337397438846,-0.6388311862587225,-0.06937201974261449,0.02650779026768389,0.01090830782496456
1592167908.3094249,0.07,8.46137901919171,4.77577622601036,-0.3388888888888889,-0.3466666666666667,-0.64,-0.06825213773522712,0.02617993877991494,0.009972634347579817
1592167908.3194249,0.07,8.432937958384098,4.747344895960247,-0.3388888888888889,-0.3466666666666667,-0.64,-0.05274206834929196,0.028971708810944,0.008886887032125085
1592167908.3294249,0.01834672182404156,8.438608879695993,4.791653278175958,-0.3388888888888889,-0.3466666666666667,-0.64,-0.03139655404444102,0.03133059732244391,0.008726646259971648
1592167908.3394248,0.0037003031464510954,8.452599393707098,4.781100909439353,-0.3388888888888889,-0.3466666666666667,-0.64,-0.015992174498062874,0.027510950743448895,0.012162597884095253
1592167908.3494248,0.016351933025312956,8.525407732101252,4.712768234411405,-0.3388888888888889,-0.35665951462658013,-0.6509012886835419,-0.0051592078805052935,0.025980967592285072,0.01685637895705369
1592167908.3594248,0.046542454842838865,8.531152515052387,4.682305030104774,-0.3388888888888889,-0.35888888888888887,-0.6533333333333333,-0.01690976473707515,0.02617993877991494,0.02420906876991447
1592167908.3694248,0.058251591081044996,8.51349681783791,4.63049045351373,-0.3388888888888889,-0.35888888888888887,-0.6533333333333333,-0.028445321813794548,0.029780374602225778,0.02868954381972932
1592167908.3794248,0.07628454721352984,8.477430905572941,4.733991830494709,-0.3388888888888889,-0.35888888888888887,-0.6533333333333333,-0.026990524833993716,0.037648736061714864,0.02945243112740431
1592167908.3894248,0.0675701240586459,8.463785062029324,4.791074689853385,-0.3388888888888889,-0.35888888888888887,-0.6533333333333333,-0.022112271390082594,0.04537140925462094,0.028774486562432252
1592167908.3994248,0.044392423291363586,8.483411365062954,4.794392423291364,-0.3336863633193434,-0.3528192757244192,-0.6368586690297727,-0.011973602783656313,0.04653360144524722,0.028361600344907853
1592167908.4094248,0.031349851004517926,8.481349851004518,4.79,-0.3322222222222222,-0.3511111111111111,-0.6322222222222222,-0.0032123828842512544,0.03732262894714377,0.02553084570567206
1592167908.4194248,0.070638564460554,8.463744574215779,4.733106009755224,-0.3322222222222222,-0.3511111111111111,-0.6322222222222222,-0.00040846968219136097,0.029791244232577615,0.027748895821620812
1592167908.4294248,0.10437504537424679,8.46,4.728125015124749,-0.3322222222222222,-0.3511111111111111,-0.6322222222222222,0.005317809963795248,0.02658899702364277,0.02481639370237769
1592167908.4394248,0.12199004190115535,8.477985062851733,4.724004979049423,-0.3322222222222222,-0.3511111111111111,-0.6322222222222222,0.013084538089580029,0.02879576013775546,0.021382455857081515
1592167908.4494247,0.08307178836152176,8.529106843032064,4.680893156967935,-0.3374364679598309,-0.34763494728603866,-0.6487340003913165,0.02001282941108132,0.041634588438165546,0.017928596157510857
1592167908.4594247,0.052149054396568535,8.531074527198284,4.6342981087931365,-0.3388888888888889,-0.3466666666666667,-0.6533333333333333,0.012936840483075536,0.05348662451475646,0.015506056423854013
1592167908.4694247,0.04374914682619344,8.53,4.586244027783354,-0.3388888888888889,-0.3466666666666667,-0.6533333333333333,0.003816790936836378,0.05658712604247895,0.01799908017849193
1592167908.4794247,0.047799492871495555,8.53,4.591197971485982,-0.3388888888888889,-0.3466666666666667,-0.6533333333333333,-0.012151135768212185,0.05611244608989436,0.02133653946735401
1592167908.4894247,0.0383663753286435,8.500915938321608,4.716336246713564,-0.3388888888888889,-0.3466666666666667,-0.6533333333333333,-0.019078725726008147,0.05436333831696666,0.022451131445105414
1592167908.4994247,0.03,8.464500337040782,4.807749831479609,-0.32769468786278694,-0.3604441448526383,-0.6430002246938546,-0.020971240176217362,0.04584232907892051,0.023752821906137332
1592167908.5094247,0.03,8.46,4.833449052355038,-0.3244444444444444,-0.36444444444444446,-0.64,-0.01612157420416821,0.0405637575243486,0.02553301410267685
1592167908.5194247,0.06057057222206946,8.452357356944482,4.768288283333792,-0.3244444444444444,-0.36444444444444446,-0.64,-0.0009041114594552247,0.02875141630028839,0.023102354410115843
1592167908.5294247,0.10826308306196394,8.47295784983718,4.732347383387608,-0.3244444444444444,-0.36444444444444446,-0.64,0.011364142309178897,0.029519022686891667,0.016807989789464038
1592167908.5394247,0.11432760255469882,8.4856723974453,4.73,-0.3244444444444444,-0.36444444444444446,-0.64,0.01727461304439832,0.03425583735623403,0.01279658065739487
1592167908.5494246,0.08059179194102788,8.482647947985257,4.73,-0.3350640751324066,-0.35464170842478704,-0.6498027360196573,0.020436938550155888,0.04430610679185661,0.01090830782496456
1592167908.5594246,0.05477162119926776,8.505380631334553,4.694467116131625,-0.3388888888888889,-0.3511111111111111,-0.6533333333333333,0.02127950434621117,0.044690845732233586,0.00924714938862904
1592167908.5694246,0.047298503234335904,8.515402993531328,4.616208980593984,-0.3388888888888889,-0.3511111111111111,-0.6533333333333333,0.017039756453430994,0.04095011411852908,0.011616531474556963
1592167908.5794246,0.05,8.50261322354081,4.659094211673528,-0.3388888888888889,-0.3511111111111111,-0.6533333333333333,0.010436997067886894,0.03552610506530538,0.010672652446425727
1592167908.5894246,0.05550221657040923,8.5,4.685502216570409,-0.3388888888888889,-0.3511111111111111,-0.6533333333333333,0.007526248818578754,0.0320151580953008,0.009217278321771657
1592167908.5994246,0.05368914933547819,8.481067448006435,4.746797655980696,-0.3388888888888889,-0.35952557866380686,-0.6533333333333333,0.00998701977927804,0.028478040859321187,0.007349832226251926
1592167908.6094246,0.035022828933645445,8.477488585533179,4.757534243400468,-0.3388888888888889,-0.36444444444444446,-0.6533333333333333,0.018534162301018946,0.022369501792242955,0.0057281067332839945
1592167908.6194246,0.022693771138669674,8.48730622886133,4.684243940248027,-0.3388888888888889,-0.36444444444444446,-0.6533333333333333,0.028695644213335817,0.01594386925989077,0.00864209765084354
1592167908.6294246,0.0412485764090645,8.497082858803022,4.66,-0.3388888888888889,-0.36444444444444446,-0.6533333333333333,0.029316232569273667,0.005681979721000889,0.01059009708350929
