time,acc_x,acc_y,acc_z,mag_x,mag_y,mag_z,gyr_x,gyr_y,gyr_z
1592167914.389419,-0.05524137121389998,8.310748767316271,5.07,-0.4066666666666667,-0.17333333333333334,-0.2966666666666667,0.012599902327447792,-0.011071663512467786,0.00730910410246874
1592167914.399419,-0.05895714880044377,8.301042851199558,4.9266856191929,-0.4066666666666667,-0.17333333333333334,-0.2966666666666667,0.02481484975186779,-0.007000014370994453,0.01056703556795277
1592167914.409419,-0.09558587251033893,8.33558587251034,4.936689404382754,-0.4066666666666667,-0.17333333333333334,-0.2966666666666667,0.03394357181116937,-0.0016927140504447193,0.007996945438244151
1592167914.419419,-0.09326751258957096,8.373662437052145,4.906337562947854,-0.4066666666666667,-0.17333333333333334,-0.2966666666666667,0.03784418684391293,-0.005497233488535964,0.008370215928481776
1592167914.429419,-0.09911628618408475,8.39,4.899116286184085,-0.41780879422499245,-0.17839793676893595,-0.27742117361137664,0.03628661049237837,-0.007635815477475192,0.00773221370080697
1592167914.439419,-0.10989859633348319,8.399898596333484,4.92969578900045,-0.41888888888888887,-0.17888888888888888,-0.27555555555555555,0.02627949159672003,-0.014114431627917201,0.007635815477475192
1592167914.449419,-0.20930170390332958,8.354862861862122,4.893890289489698,-0.41888888888888887,-0.17888888888888888,-0.27555555555555555,0.011408844865537619,-0.020089237738204858,0.007635815477475192
1592167914.459419,-0.21119560109032803,8.341195601090329,4.986848388006392,-0.41888888888888887,-0.17888888888888888,-0.27555555555555555,0.00597583330164874,-0.021686195802637503,0.01627951389431876
1592167914.469419,-0.21,8.313177831956626,5.053644336086751,-0.41888888888888887,-0.17888888888888888,-0.27555555555555555,0.008379998567982945,-0.024742460305429783,0.02403644299481979
1592167914.479419,-0.22727371548662947,8.31727371548663,5.1231842887165735,-0.40833272942483756,-0.17409063458704738,-0.28707136587997517,0.026775907565279155,-0.02241139866373471,0.0385763899109521
1592167914.489419,-0.12998071015217544,8.283629349146246,5.193648638994071,-0.4066666666666667,-0.17333333333333334,-0.28888888888888886,0.04036284314834854,-0.016857337458590832,0.05623042916465138
1592167914.499419,-0.04247639484978541,8.26277253218884,5.131090128755365,-0.4066666666666667,-0.17333333333333334,-0.28888888888888886,0.05930420931810024,-0.005087110421719523,0.07002899539768341
1592167914.509419,-0.021569306114760663,8.276861387770477,5.094707918344282,-0.4066666666666667,-0.17333333333333334,-0.28888888888888886,0.09344531998889863,0.004084675978769605,0.07935199997102507
1592167914.519419,-0.05322158395329127,8.333154534325265,5.030201148884076,-0.4066666666666667,-0.17333333333333334,-0.28888888888888886,0.1253577722292466,0.002555023798919046,0.07492321767761127
1592167914.529419,-0.28996353087443016,8.509975134687112,4.630061334438459,-0.4011120320486255,-0.18666445641663215,-0.31110742736105357,0.15380460877278687,-0.030538017965815824,0.0381846829827771
1592167914.539419,-0.38173822278241687,8.558927052150622,4.550493540255238,-0.4011111111111111,-0.18666666666666668,-0.3111111111111111,0.15180572278514876,-0.06323308184180959,0.015496345189724939
1592167914.549419,-0.413672347293268,8.598775884235577,4.306930546817299,-0.4011111111111111,-0.18666666666666668,-0.3111111111111111,0.1084134274462212,-0.13760279639186856,-0.015183277152751843
1592167914.559419,-0.27578947368421053,8.617894736842105,4.342631578947368,-0.4011111111111111,-0.18666666666666668,-0.3111111111111111,0.030313613324112032,-0.19485682504173532,-0.043805467739199785
1592167914.569419,-0.30007580610719625,8.56656559185707,4.463548117303723,-0.4011111111111111,-0.18666666666666668,-0.3111111111111111,-0.03355688673451711,-0.21528483829104425,-0.06439209282138326
1592167914.579419,-0.39750046232940045,8.453888375189555,4.675000924658801,-0.41163586525460993,-0.16944434170457767,-0.29867276530515796,-0.12496110735013437,-0.21783281907557608,-0.08153965142392425
1592167914.589419,-0.44577981287662544,8.404220187123373,4.786893831271804,-0.41333333333333333,-0.16666666666666666,-0.2966666666666667,-0.15477787766845358,-0.21261478614219062,-0.08680611159750927
1592167914.5994189,-0.4969959249268209,8.310514262756127,5.082449061585261,-0.41333333333333333,-0.16666666666666666,-0.2966666666666667,-0.17807701393873024,-0.1888820174652893,-0.09239292275592334
1592167914.6094189,-0.4825349097223874,8.23013963888955,5.294650902776126,-0.41333333333333333,-0.16666666666666666,-0.2966666666666667,-0.16937051928246907,-0.1673423478351931,-0.08414746036994404
1592167914.6194189,-0.5203160096894958,8.166245320414006,5.427509359171989,-0.41333333333333333,-0.16666666666666666,-0.2966666666666667,-0.1503967627457633,-0.15005613335805573,-0.06897679041076701
1592167914.6294188,-0.4585277412074478,8.185262365995863,5.434737634004137,-0.42540329759889667,-0.16666666666666666,-0.30974246128769356,-0.08749706139594104,-0.13203664444131608,-0.0404529784708587
1592167914.6394188,-0.43349829628427716,8.245005679052408,5.352992049326627,-0.4266666666666667,-0.16666666666666666,-0.3111111111111111,-0.04401111929606625,-0.1296996561411249,-0.03277890747435196
1592167914.6494188,-0.3949951369751986,8.331674771708002,5.1149659588263905,-0.4266666666666667,-0.16666666666666666,-0.3111111111111111,0.01600450986290742,-0.11871680509140949,-0.03108920777486394
1592167914.6594188,-0.4058993956629932,8.204855136864557,5.05615090650551,-0.4266666666666667,-0.16666666666666666,-0.3111111111111111,0.035691455819756066,-0.10631276359975059,-0.032501270203011405
1592167914.6694188,-0.41,8.308327151121446,5.031137206665257,-0.4266666666666667,-0.16666666666666666,-0.3111111111111111,0.08316562147847267,-0.09608434861224766,-0.0320390529544468
1592167914.6794188,-0.3854259131882851,8.553827245411432,4.946277739564855,-0.4157448503059045,-0.17667833166403196,-0.3111111111111111,0.1332086315610085,-0.08448147363744662,-0.030740553680865264
1592167914.6894188,-0.37555502827539844,8.518880452406375,4.943334915173804,-0.41333333333333333,-0.17888888888888888,-0.3111111111111111,0.1089583662714672,-0.08241826827127847,-0.027634034719187715
1592167914.6994188,-0.421121001099534,8.320454997643855,4.938090999528771,-0.41333333333333333,-0.17888888888888888,-0.3111111111111111,0.03853621466592197,-0.08420220990000879,-0.02399827721492203
1592167914.7094188,-0.6420880446610209,8.369816908738231,4.944969484789706,-0.41333333333333333,-0.17888888888888888,-0.3111111111111111,0.053123077211007855,-0.09161647095741277,-0.028080570916602775
1592167914.7194188,-0.6174393530997304,8.41633423180593,4.99355795148248,-0.41333333333333333,-0.17888888888888888,-0.3111111111111111,0.07524380203468141,-0.10450217701209982,-0.027670642841170205
1592167914.7294188,-0.54,8.394875655180105,5.03,-0.4250414482732984,-0.1834420446988753,-0.3026552503211364,0.055523858581570745,-0.10322914363441499,-0.05300024036110805
1592167914.7394187,-0.5479119128379073,8.417471477027444,4.768906876349059,-0.43333333333333335,-0.18666666666666668,-0.2966666666666667,0.05107687040142646,-0.10807589016051354,-0.07026872003036246
1592167914.7494187,-0.4692834638151614,8.575289765132709,4.473993698682452,-0.43333333333333335,-0.18666666666666668,-0.2966666666666667,0.11726602753615699,-0.10950377816810028,-0.030191533032663212
1592167914.7594187,-0.48280997941140846,8.675619958822816,4.329772556618626,-0.43333333333333335,-0.18666666666666668,-0.2966666666666667,0.11051644337304756,-0.09387227065575388,-0.01535726454017676
1592167914.7694187,-0.47539212686048127,8.675392126860482,4.317303936569759,-0.43333333333333335,-0.18666666666666668,-0.2966666666666667,0.07593299023829969,-0.08695364346754306,-0.013384064288084419
1592167914.7794187,-0.4817256251814374,8.554823124455687,4.504490938497906,-0.4165892533764636,-0.17609145827285422,-0.3134107466235364,-0.038294842160419895,-0.0738000201963664,-0.004212498685543274
1592167914.7894187,-0.5227626757860209,8.505427993160485,4.631906689465052,-0.4122222222222222,-0.17333333333333334,-0.31777777777777777,-0.07955851380986279,-0.07110136826315752,-0.00530878340062291
1592167914.7994187,-0.5922721338713506,8.403183598385949,4.824240446237835,-0.4122222222222222,-0.17333333333333334,-0.31777777777777777,-0.14883140621025093,-0.07224268300164831,-0.014676502886218338
1592167914.8094187,-0.5210721150423578,8.237929807076243,5.126247597351748,-0.4122222222222222,-0.17333333333333334,-0.31777777777777777,-0.19479091163063308,-0.079112450082902,-0.028416037048725754
1592167914.8194187,-0.5775566582461206,8.188068206423674,5.259658967881631,-0.4122222222222222,-0.17333333333333334,-0.31777777777777777,-0.20203302116831973,-0.0859277049941178,-0.06156989845633254
1592167914.8294187,-0.6722795466810577,8.18,5.335232955567548,-0.4161369950630609,-0.19134128840119127,-0.31308005036877135,-0.15997367993845182,-0.0979034265128199,-0.0956482579841423
1592167914.8394186,-0.6713555953090836,8.198644404690917,5.34533889882727,-0.4177777777777778,-0.1988888888888889,-0.3111111111111111,-0.11595112751745672,-0.11771757521870868,-0.10195571003612473
1592167914.8494186,-0.5835085764626626,8.308655231383117,5.140525729387988,-0.4177777777777778,-0.1988888888888889,-0.3111111111111111,-0.0641314323599462,-0.1581131152820181,-0.10012039716911562
1592167914.8594186,-0.5740509790086434,8.347025489504322,5.055949020991356,-0.4177777777777778,-0.1988888888888889,-0.3111111111111111,-0.05135866654042175,-0.18419896745166914,-0.09236834301509955
1592167914.8694186,-0.5645487292737673,8.339699152849178,5.080902541452465,-0.4177777777777778,-0.1988888888888889,-0.3111111111111111,-0.05414380173339882,-0.20546999510886504,-0.08832447604891866
1592167914.8794186,-0.5443180710241122,8.25045299433757,5.127045786927663,-0.4177777777777778,-0.1988888888888889,-0.3111111111111111,-0.060764269164065715,-0.22126516801471968,-0.08912586950897357
1592167914.8894186,-0.4676419670883668,8.313008655949776,5.067641967088367,-0.4177777777777778,-0.1988888888888889,-0.3111111111111111,-0.03691963631080962,-0.21651657714229233,-0.11658597693530323
1592167914.8994186,-0.3989831119929652,8.421525332010551,4.98531081599062,-0.4177777777777778,-0.1988888888888889,-0.3111111111111111,0.009268925737153263,-0.20410862849391065,-0.12429924656757473
1592167914.9094186,-0.29373734772194604,8.435622891286991,4.945622891286991,-0.4177777777777778,-0.1988888888888889,-0.3111111111111111,0.012065245307211554,-0.1902122375483825,-0.09111374328983068
1592167914.9194186,-0.1993605529200647,8.330771813869196,5.017177478101736,-0.4177777777777778,-0.1988888888888889,-0.3111111111111111,-0.027130042836549118,-0.18172134558810427,-0.06410766168337574
1592167914.9294186,-0.013985002241512806,8.215996250560378,5.086800749887924,-0.42684544429501026,-0.2026670832710691,-0.3111111111111111,-0.05083230546391919,-0.16593586983203076,-0.02342785500478175
1592167914.9394186,-0.05733591885441526,8.208944659904535,5.103416989856802,-0.4311111111111111,-0.20444444444444446,-0.3111111111111111,-0.03445171966809828,-0.15401000329114073,-0.007866054969902472
1592167914.9494185,-0.0104522305968629,8.323585251578733,5.009509064982685,-0.4311111111111111,-0.20444444444444446,-0.3111111111111111,0.0069896276763956044,-0.14014497919933996,-0.001687687877991563
1592167914.9594185,-0.07964980265518479,8.32724291352709,5.109649802655185,-0.4311111111111111,-0.20444444444444446,-0.3111111111111111,0.029890824811813425,-0.12889387514389272,-0.02332037304725649
1592167914.9694185,-0.16532200602904906,8.321510002740476,5.181510002740477,-0.4311111111111111,-0.20444444444444446,-0.3111111111111111,0.03942655254642165,-0.12720330512852274,-0.03774710959326596
1592167914.9794185,-0.29824903474903475,8.354638996138995,5.187833976833977,-0.4311111111111111,-0.21576211926211927,-0.33017245817245816,0.07500935725315157,-0.13015738144623495,-0.043430437855158606
1592167914.9894185,-0.2414651733660632,8.35,4.815128106781221,-0.4311111111111111,-0.22555555555555556,-0.3466666666666667,0.10423684744508267,-0.12378845790779071,-0.022299523324506215
1592167914.9994185,-0.22472339207588832,8.395914870998078,4.595829823772335,-0.4311111111111111,-0.22555555555555556,-0.3466666666666667,0.12102650897603624,-0.11292652062562322,-0.019379652314522433
1592167915.0094185,-0.3103833668264029,8.540575050239605,4.4196166331735975,-0.4311111111111111,-0.22555555555555556,-0.3466666666666667,0.15611425839756166,-0.08424606362366507,-0.024375827086928453
1592167915.0194185,-0.2955133751532194,8.561885500036052,4.4020286249909875,-0.4311111111111111,-0.22555555555555556,-0.3466666666666667,0.15014162170863415,-0.07632692975343451,-0.025089107997418484
1592167915.0294185,-0.2516592204590972,8.487225697119088,4.587207826220921,-0.4304321539225252,-0.2208028552354542,-0.34191396634656535,0.03479079665456229,-0.05829960325831513,-0.053751388427989974
1592167915.0394185,-0.31,8.463224939855655,4.738699278267843,-0.43,-0.21777777777777776,-0.3388888888888889,-0.021003697409212235,-0.04849022752695863,-0.08078949081038256
1592167915.0494184,-0.2971818623813301,8.47,4.82,-0.43,-0.21777777777777776,-0.3388888888888889,-0.057476836665573065,-0.04805106945116537,-0.10136296407048563
1592167915.0594184,-0.25639212002986295,8.396062664065699,4.82,-0.43,-0.21777777777777776,-0.3388888888888889,-0.07537513820441175,-0.06482445096182621,-0.09373957115325769
1592167915.0694184,-0.19496741376569704,8.38814536639644,4.780596487044985,-0.43,-0.21777777777777776,-0.3388888888888889,-0.08365441861022685,-0.08441280696421569,-0.08392179439573146
1592167915.0794184,-0.18273711810305518,8.495264192886458,4.744315720474236,-0.44073697243755383,-0.22219888407559407,-0.35088903455439024,-0.07950427266000781,-0.11102380449303717,-0.08955158645506929
1592167915.0894184,-0.1634121367949214,8.553902022799154,4.764391908803386,-0.4488888888888889,-0.22555555555555556,-0.36,-0.07925844073724239,-0.1398935315262117,-0.09242763677303317
1592167915.0994184,0.0431306828311642,8.360554466036726,4.824203957924763,-0.4488888888888889,-0.22555555555555556,-0.36,-0.11556563529599154,-0.16362267258790664,-0.06464976175827541
1592167915.1094184,0.1368466786355476,8.243423339317774,4.9618032315978455,-0.4488888888888889,-0.22555555555555556,-0.36,-0.16898092944513105,-0.16767342089284035,-0.049460813603016324
1592167915.1194184,0.11409944907472808,8.250600367283514,5.03987568865659,-0.4488888888888889,-0.22555555555555556,-0.36,-0.18508666293956572,-0.1607473759038124,-0.052267267120462695
1592167915.1294184,-0.12953208298541974,8.275349733444665,5.3206946496242535,-0.45198960184412046,-0.22121455741823137,-0.36,-0.15492375476970638,-0.11301543599051615,-0.06334448538621641
1592167915.1394184,-0.21898382716549794,8.20497304527583,5.423654087795388,-0.45444444444444443,-0.21777777777777776,-0.36,-0.13293159891394887,-0.10017364675782926,-0.044679272183985395
1592167915.1494184,-0.06327501380591395,8.11312666298509,5.22545835634319,-0.45444444444444443,-0.21777777777777776,-0.36,-0.09435541145768217,-0.09851583644774382,0.007040401165376556
1592167915.1594183,-0.17554469273743015,8.238958774802544,5.071573877865537,-0.45444444444444443,-0.21777777777777776,-0.36,-0.033409030508686245,-0.09045179985819786,0.009299799979728742
1592167915.1694183,-0.37953214204744534,8.35213277272821,5.055799789773078,-0.45444444444444443,-0.21777777777777776,-0.36,0.027750322327114902,-0.0793979977078413,0.0009745060752964587
1592167915.1794183,-0.4955319082540178,8.30709221407396,5.07,-0.44325847332743884,-0.23291173870078535,-0.3685539779130043,0.03237679033672575,-0.07914325392068772,-0.0030287957467125814
1592167915.1894183,-0.5114048985530677,8.25613935817638,5.0749114865411045,-0.43555555555555553,-0.24333333333333335,-0.37444444444444447,0.011674561118950023,-0.0828838288286049,-0.006908183465741237
1592167915.1994183,-0.44458980459247777,8.310820390815046,5.001796091849555,-0.43555555555555553,-0.24333333333333335,-0.37444444444444447,-0.010603561039221278,-0.10116184878892906,-0.041023448760003314
1592167915.2094183,-0.33378194897691815,8.379010028346157,4.892296991496153,-0.43555555555555553,-0.24333333333333335,-0.37444444444444447,0.005989864311060908,-0.1127487072479811,-0.06484073198817895
1592167915.2194183,-0.28250354816405254,8.383994322937516,4.929507805960916,-0.43555555555555553,-0.24333333333333335,-0.37444444444444447,0.00010738008175890414,-0.1179738909895115,-0.07935910056058812
1592167915.2294183,-0.25976886575845703,8.32564824735956,5.007939690800551,-0.44193411228464036,-0.24134003435549434,-0.3772350630134191,-0.02130901951051549,-0.12647826436941917,-0.08718314336499036
1592167915.2394183,-0.19473670569940862,8.344526070258937,5.0498946822797635,-0.4533333333333333,-0.23777777777777778,-0.38222222222222224,-0.0457114974347924,-0.14010856945464759,-0.08994184184092825
1592167915.2494183,-0.17147253787878788,8.34632528409091,5.06,-0.4533333333333333,-0.23777777777777778,-0.38222222222222224,-0.05086819745427685,-0.15517031726582742,-0.0832565231919769
1592167915.2594182,-0.08635729920060906,8.26155119908641,5.117673201370384,-0.4533333333333333,-0.23777777777777778,-0.38222222222222224,-0.05210606320284437,-0.17310367527428913,-0.06041871696561428
1592167915.2694182,-0.08906077026160927,8.169220998659908,5.234685078366253,-0.4533333333333333,-0.23777777777777778,-0.38222222222222224,-0.06444399203142874,-0.1804643930533327,-0.05675694951842992
1592167915.2794182,-0.14353227435497198,8.157911119272795,5.27149205766229,-0.4594417408869709,-0.24173027678307268,-0.39372040114671647,-0.06320839051038894,-0.17216126216585168,-0.0803634097707349
1592167915.2894182,-0.13,8.355194546213422,5.096407271715439,-0.4722222222222222,-0.25,-0.4177777777777778,-0.01193671291597094,-0.146303612685357,-0.12177866296305795
1592167915.2994182,-0.09839851880536328,8.415485502686481,4.982913016118883,-0.4722222222222222,-0.25,-0.4177777777777778,0.04123421144471834,-0.1248843104799936,-0.14082309119712236
1592167915.3094182,0.017887206787556148,8.400836799201464,4.99581600399268,-0.4722222222222222,-0.25,-0.4177777777777778,0.054180953404506633,-0.11590190484294192,-0.1291310635874452
1592167915.3194182,0.08745111896348645,8.42382332155477,5.068790734197094,-0.4722222222222222,-0.25,-0.4177777777777778,0.029555903729308962,-0.10333666563045912,-0.10237063582559104
1592167915.3294182,0.04339731910463301,8.4601919573139,5.133013404476835,-0.46745361935334606,-0.2540349716582798,-0.41521006854069065,-0.01328257541079975,-0.09015789527412983,-0.05981355666380912
1592167915.3394182,-0.00014327726149864634,8.334594047759087,5.28038207269733,-0.4577777777777778,-0.26222222222222225,-0.41,-0.04963540545770998,-0.10038769023912884,-0.0004438260805197901
1592167915.3494182,0.017148461416358653,8.160417923308918,5.298707000158734,-0.4577777777777778,-0.26222222222222225,-0.41,0.0017670869960766042,-0.10638710675404957,0.011982516047179884
1592167915.3594182,0.04358406766046918,8.161261073968202,5.163960169151173,-0.4577777777777778,-0.26222222222222225,-0.41,0.10850146848021655,-0.08852139861557393,0.00554344798182836
1592167915.3694181,0.020539791321757206,8.346212220382704,5.055407153582567,-0.4577777777777778,-0.26222222222222225,-0.41,0.16633722579782656,-0.05925916281620469,0.0013862492449028038
1592167915.3794181,0.03717132567312639,8.367968444520665,5.055258789229978,-0.4533776177137522,-0.26285081651708303,-0.41597164580117757,0.15000447915624907,-0.04211216682955774,-0.014180800172453926
1592167915.3894181,0.06878759940071452,8.130909300449463,5.160303100149822,-0.44222222222222224,-0.2644444444444444,-0.4311111111111111,0.14081623451892505,-0.025320549678941588,-0.021056290125838005
1592167915.399418,0.12761208117036338,8.174851344974044,5.132387918829637,-0.44222222222222224,-0.2644444444444444,-0.4311111111111111,0.1852867973307925,-0.005926212349268146,-0.03172366539468811
1592167915.409418,0.08938448766603416,8.30232827324478,5.158492409867173,-0.44222222222222224,-0.2644444444444444,-0.4311111111111111,0.24280666809948662,0.010930688484994431,-0.01836507802220077
1592167915.419418,0.026402433042283922,8.333498479348572,5.233300304130286,-0.44222222222222224,-0.2644444444444444,-0.4311111111111111,0.2694676296208899,0.013460785505070806,0.021676101491446054
1592167915.429418,0.06745334019822372,8.244794696872185,5.227453340198224,-0.4436162955335307,-0.2644444444444444,-0.4311111111111111,0.26316394423623163,0.010904235989117939,0.05236802123152312
1592167915.439418,0.12392698659591016,8.186735212040807,5.121689464293884,-0.4477777777777778,-0.2644444444444444,-0.4311111111111111,0.2840070188018509,0.008567255916438381,0.046330416328805565
1592167915.449418,0.03851702099908702,8.418117907917047,4.933070301291248,-0.4477777777777778,-0.2644444444444444,-0.4311111111111111,0.3219407715526768,0.006933825249115009,0.04098703830081668
1592167915.459418,-0.23,8.53,4.81,-0.4477777777777778,-0.2644444444444444,-0.4311111111111111,0.3359758810089084,0.0032724923474893677,0.05563236990731925
1592167915.469418,-0.005987107355185534,8.469592264413112,4.639184528826223,-0.4477777777777778,-0.2644444444444444,-0.4311111111111111,0.22813112839437993,-0.008771123312901391,0.017422879160844965
1592167915.479418,-0.011278941893297666,8.493590132263337,4.697950661316689,-0.4521657172107462,-0.2720236125559353,-0.43629685771371013,0.1694687404547874,-0.006544984694978735,-0.026068991449324876
1592167915.489418,0.04,8.5,4.73,-0.46,-0.28555555555555556,-0.44555555555555554,0.14289883250703572,-0.006544984694978735,-0.04145156973486533
1592167915.499418,0.2603827860721825,8.246028689879696,4.8411483582165475,-0.46,-0.28555555555555556,-0.44555555555555554,0.1680348842103317,0.008601379810777368,-0.05733907325664066
1592167915.509418,0.21096835684330917,8.356208063286314,4.765484178421655,-0.46,-0.28555555555555556,-0.44555555555555554,0.25726820855990506,0.014479915704406111,-0.05772617863098454
1592167915.519418,0.18694170456558976,8.549870454590199,4.69809068178686,-0.46,-0.28555555555555556,-0.44555555555555554,0.30981007344106765,0.013416512064102699,-0.041139158272794255
1592167915.529418,0.23375095883405778,8.673750958834058,4.56982320926325,-0.45948415742330345,-0.28349218524876924,-0.4473610045739936,0.27629292971875663,0.014687227437878552,-0.021037689874021485
1592167915.539418,0.18,8.62,4.47,-0.4577777777777778,-0.27666666666666667,-0.4533333333333333,0.2159844949342983,0.016362461737446838,-0.007635815477475192
1592167915.549418,0.20221991860554403,8.635835061045842,4.36018326550462,-0.4577777777777778,-0.27666666666666667,-0.4533333333333333,0.15802826373393433,0.020271460505591244,0.0003943508656986325
1592167915.559418,0.12122861290245818,8.606671822573352,4.418413725816815,-0.4577777777777778,-0.27666666666666667,-0.4533333333333333,0.11250994250450727,0.02617993877991494,0.029011353701799768
1592167915.569418,0.11,8.5,4.57,-0.4577777777777778,-0.27666666666666667,-0.4533333333333333,0.08617563181722002,0.02617993877991494,0.04799655442984406
1592167915.579418,0.12144,8.40858,4.589989999999999,-0.4598433333333333,-0.28032111111111113,-0.4563522222222222,0.06903868022420069,0.034751687068772096,0.0716828540409721
1592167915.589418,0.15195343605893602,8.529175570801936,4.536917557080193,-0.4722222222222222,-0.3022222222222222,-0.47444444444444445,0.10198876437397293,0.0422472100030567,0.07320881797101128
1592167915.599418,0.11433813002014123,8.647513407265404,4.468837147225121,-0.4722222222222222,-0.3022222222222222,-0.47444444444444445,0.09185515720880091,0.04649593085102089,0.08099272309458076
1592167915.609418,0.18680880523808407,8.594470441904672,4.312338363333412,-0.4722222222222222,-0.3022222222222222,-0.47444444444444445,0.031682117816143746,0.04904087047361587,0.07737996864167233
1592167915.619418,0.1699263760663784,8.547555217950215,4.372592029917027,-0.4722222222222222,-0.3022222222222222,-0.47444444444444445,-0.00792659320505196,0.05648864083942498,0.057773875845750715
1592167915.629418,0.1292924289901951,8.574758920448803,4.425466491458607,-0.4703715309365769,-0.30023933870188796,-0.472990329862866,-0.015920528069576043,0.07303306702816714,0.04184090800364072
1592167915.639418,0.031360632523011564,8.565265518055227,4.547455746990796,-0.45666666666666667,-0.28555555555555556,-0.4622222222222222,-0.030485334856310563,0.08194142165334747,0.04106423083652548
1592167915.6494179,0.02054408127798944,8.493424013546331,4.536031905175679,-0.45666666666666667,-0.28555555555555556,-0.4622222222222222,-0.05362875852418961,0.08772898962825043,0.025569036599828253
1592167915.6594179,0.01249689440993789,8.511875776397515,4.525627329192547,-0.45666666666666667,-0.28555555555555556,-0.4622222222222222,-0.0645975083632156,0.09587386276172577,0.0021301689317819
1592167915.6694179,-0.09270566514430086,8.5302742201924,4.653766009134195,-0.45666666666666667,-0.28555555555555556,-0.4622222222222222,-0.06132184053704399,0.09605293442509877,-0.010643078325016776
1592167915.6794178,-0.08575767129045818,8.493696931483816,4.79,-0.45736700761290927,-0.28555555555555556,-0.465140309498233,-0.06602281204659044,0.08944812416470939,-0.010161256100549952
1592167915.6894178,-0.22,8.44,4.79,-0.4633333333333333,-0.28555555555555556,-0.49,-0.07090400086226964,0.08944812416470939,-0.01308996938995747
1592167915.6994178,-0.057881825819098294,8.435254550546064,4.794236348361803,-0.4633333333333333,-0.28555555555555556,-0.49,-0.03865011101006135,0.10006092101264032,-0.019810476730587976
1592167915.7094178,-0.08,8.45,4.75,-0.4633333333333333,-0.28555555555555556,-0.49,-0.01854412330243975,0.11453723216212788,-0.014180800172453926
1592167915.7194178,-0.13207073076217085,8.571834961554934,4.838047153841448,-0.4633333333333333,-0.28555555555555556,-0.49,-0.025327848898623224,0.11802274697994017,0.01730456612682488
1592167915.7294178,-0.1692178069913355,8.45834120107559,4.86668240215118,-0.46397842180393717,-0.28500262258075226,-0.49175095442021044,-0.039993695741359754,0.11462770560856379,0.06788748057829168
1592167915.7394178,0.002309981631751494,8.474001488060638,4.785536515613011,-0.4711111111111111,-0.2788888888888889,-0.5111111111111111,-0.04143450053733411,0.1173399030904965,0.10804264344856744
1592167915.7494178,0.1155938216483649,8.552796910824183,4.655084831664052,-0.4711111111111111,-0.2788888888888889,-0.5111111111111111,-0.019422395433123095,0.12887506879210783,0.10670736543093526
1592167915.7594178,-0.0330292627491832,8.505062266205787,4.629875467588427,-0.4711111111111111,-0.2788888888888889,-0.5111111111111111,-0.01342041069546536,0.15413758163750818,0.09189230514122927
1592167915.7694178,-0.13135468125725758,8.513861717412269,4.60409218839182,-0.4711111111111111,-0.2788888888888889,-0.5111111111111111,-0.027717158068968628,0.16865752326429007,0.08788576439175909
1592167915.7794178,-0.028961343225302617,8.494480671612651,4.62,-0.47144301271204825,-0.27977395982472125,-0.5111111111111111,-0.029235202037567062,0.1713690473968622,0.08159507959739695
1592167915.7894177,-0.2512364573969816,8.558902635189478,4.63506954629323,-0.4777777777777778,-0.2966666666666667,-0.5111111111111111,-0.02903430599139701,0.17081196242095079,0.07646268605875374
1592167915.7994177,-0.3280317889753128,8.504404238530041,4.639223311915229,-0.4777777777777778,-0.2966666666666667,-0.5111111111111111,-0.046724717795489326,0.16135823228234888,0.07356609032346519
1592167915.8094177,-0.21305646225432323,8.483056462254323,4.608604764219737,-0.4777777777777778,-0.2966666666666667,-0.5111111111111111,-0.07200450333932118,0.14817177472205767,0.07098493501644472
1592167915.8194177,-0.1707858726702491,8.45825326115184,4.785720649633432,-0.4777777777777778,-0.2966666666666667,-0.5111111111111111,-0.08423691702291876,0.13155703826092408,0.0708706825725228
1592167915.8294177,-0.0783349903890767,8.448751242791808,4.859791873798635,-0.4774771510424722,-0.2961116634630256,-0.5111111111111111,-0.09033462752682174,0.12430930311117729,0.08649347447115084
1592167915.8394177,0.0,8.39,4.85,-0.4633333333333333,-0.27,-0.5111111111111111,-0.08072147790473774,0.12217304763960307,0.10144726277217041
1592167915.8494177,-0.022850608945381056,8.378704993883954,4.811295006116046,-0.4633333333333333,-0.27,-0.5111111111111111,-0.057361815020173686,0.12094095360361627,0.08437262538796898
1592167915.8594177,-0.19608813543336792,8.455962227671414,4.763848910685655,-0.4633333333333333,-0.27,-0.5111111111111111,-0.05036067269508761,0.12763406875521008,0.0778894381921218
1592167915.8694177,-0.14630557480938708,8.4563540944648,4.866305574809387,-0.4633333333333333,-0.27,-0.5111111111111111,-0.07549307271345733,0.1218882154014168,0.07079641917503661
1592167915.8794177,-0.1795310426774928,8.331758589959403,4.899531042677493,-0.4633333333333333,-0.27,-0.5111111111111111,-0.08817824980313915,0.11463954277874147,0.04723823315134178
1592167915.8894176,-0.3177583846680356,8.353449691991786,5.103275154004107,-0.4633333333333333,-0.2966666666666667,-0.5333333333333333,-0.05179467639463494,0.12215400849863546,0.01344723327046709
1592167915.8994176,-0.28194458189015337,8.407481444829292,5.042592775853538,-0.4633333333333333,-0.2966666666666667,-0.5333333333333333,-0.013922260862797419,0.11147686079312497,0.014172703951901008
1592167915.9094176,-0.14584070796460177,8.44353982300885,4.88,-0.4633333333333333,-0.2966666666666667,-0.5333333333333333,0.011487510010360908,0.09527875949769929,0.031836813457285944
1592167915.9194176,-0.061015503875969,8.428359173126616,4.878417958656331,-0.4633333333333333,-0.2966666666666667,-0.5333333333333333,0.01728713108679558,0.07974142141100643,0.052310902921985244
1592167915.9294176,0.0469416958441163,8.286031359415436,4.858719744253311,-0.4633333333333333,-0.29599177957071093,-0.537189831024509,0.03315318540030978,0.06853303390953948,0.07356357550262027
1592167915.9394176,0.12,8.56,4.74,-0.4633333333333333,-0.28888888888888886,-0.5777777777777777,0.02617993877991494,0.06654067773228381,0.05563236990731925
1592167915.9494176,-0.2616708903531002,8.571663649747785,4.858332729949558,-0.4633333333333333,-0.28888888888888886,-0.5777777777777777,0.030723158290486247,0.07490279226598785,0.03581751944179756
1592167915.9594176,-0.28886899349513884,8.493680492410995,4.848270499638619,-0.4633333333333333,-0.28888888888888886,-0.5777777777777777,0.002854049343959159,0.05897014780699132,0.06425260605808465
1592167915.9694176,-0.1289659484963902,8.33471206867148,4.816705891270157,-0.4633333333333333,-0.28888888888888886,-0.5777777777777777,0.001788554866084046,0.042964548908981076,0.07297286490618012
1592167915.9794176,-0.05743562048774942,8.430085839349667,4.6656974210296935,-0.4633333333333333,-0.28888888888888886,-0.5777777777777777,0.04166926874385198,0.03862968870487587,0.06517011653879073
1592167915.9894176,0.08625571215546683,8.538234402809179,4.62,-0.48,-0.2966666666666667,-0.5911111111111111,0.06616710662467962,0.04253077807191838,0.05126904677733343
1592167915.9994175,-0.004219850204063328,8.45,4.629633582993228,-0.48,-0.2966666666666667,-0.5911111111111111,0.035396546482533674,0.045434518404882995,0.05337076855228288
1592167916.0094175,0.014181194906953968,8.442726493633693,4.694729921645446,-0.48,-0.2966666666666667,-0.5911111111111111,0.004184687569913926,0.039269908169872414,0.06344682094486634
1592167916.0194175,-0.0028792581236211333,8.39209811913398,4.850535841154694,-0.48,-0.2966666666666667,-0.5911111111111111,-0.0026978513549376693,0.03941356841801034,0.06860543689206285
1592167916.0294175,0.09906498896907602,8.345046928168118,4.913270762442508,-0.48,-0.2966666666666667,-0.5911111111111111,0.0007238078089742968,0.040268983208988335,0.054918800236414975
1592167916.0394175,0.008378992258842071,8.514863023223473,4.87730589162379,-0.4666666666666667,-0.2966666666666667,-0.5811111111111111,0.0501159709341939,0.057990855986584176,0.017923998669030557
1592167916.0494175,0.016782669596928056,8.54,4.730630328205375,-0.4666666666666667,-0.2966666666666667,-0.5811111111111111,0.09337669035979196,0.05646392190696908,0.03468526812719664
1592167916.0594175,0.11565045028529526,8.537100300190197,4.558699099429409,-0.4666666666666667,-0.2966666666666667,-0.5811111111111111,0.07972380980530835,0.039711874737972504,0.05297624607044647
1592167916.0694175,0.09994397595065199,8.525423986882174,4.6090960021863046,-0.4666666666666667,-0.2966666666666667,-0.5811111111111111,0.05197765665435219,0.028860765941911094,0.050572659451832445
1592167916.0794175,0.19000663699539316,8.57454907472476,4.6009084875458734,-0.4666666666666667,-0.2966666666666667,-0.5811111111111111,0.028756554849353553,0.023502050140757562,0.05414513665260147
1592167916.0894175,0.05105256965361446,8.479474303463856,4.773683405496988,-0.45444444444444443,-0.2966666666666667,-0.6044444444444445,-0.0022963507577685653,0.030887714523566052,0.05833077456536648
1592167916.0994174,0.07962991224723388,8.402151850438765,4.864761541396414,-0.45444444444444443,-0.2966666666666667,-0.6044444444444445,-0.021918581900105247,0.03524328175985593,0.05039172083704249
1592167916.1094174,0.2551397757911168,8.522786292039166,4.624643820065276,-0.45444444444444443,-0.2966666666666667,-0.6044444444444445,-0.02037463549463669,0.0507083842125254,0.01971266049231711
1592167916.1194174,0.10930077561679075,8.544406204934326,4.674195346299255,-0.45444444444444443,-0.2966666666666667,-0.6044444444444445,0.00367686119701674,0.06623558353985311,0.010046297686791132
1592167916.1294174,0.10112698288965974,8.47901586311728,4.723238102662042,-0.45444444444444443,-0.2966666666666667,-0.6044444444444445,-0.004347741047833391,0.06266909365325304,0.012721165101741174
1592167916.1394174,0.09,8.4,4.69,-0.4477777777777778,-0.28888888888888886,-0.5955555555555555,-0.032724923474893676,0.0545415391248228,0.001090830782496456
1592167916.1494174,0.002109862191084763,8.595311417353145,4.641172145661714,-0.4477777777777778,-0.28888888888888886,-0.5955555555555555,-0.009289235790493146,0.04495421234484076,-0.022344856901904075
1592167916.1594174,-0.019284398469604648,8.547321099617402,4.567143734353596,-0.4477777777777778,-0.28888888888888886,-0.5955555555555555,-0.01073351006247723,0.02690048684461768,-0.022810038865739565
1592167916.1694174,0.08071607843137255,8.510716078431372,4.659230980392157,-0.4477777777777778,-0.28888888888888886,-0.5955555555555555,-0.05431875297912704,0.011565116289060661,-0.022033626809129295
1592167916.1794174,-0.03442156862745101,8.395578431372549,4.897730392156863,-0.4477777777777778,-0.28888888888888886,-0.5955555555555555,-0.06508409780506795,0.0061824438760902075,-0.02472496301561452
1592167916.1894174,0.04,8.56,4.92,-0.43555555555555553,-0.30333333333333334,-0.6311111111111111,-0.061086523819801536,-0.019634954084936207,-0.01854412330243975
1592167916.1994174,-0.07502039954980305,8.444979600450196,4.862489800225098,-0.43555555555555553,-0.30333333333333334,-0.6311111111111111,-0.0359929653310082,-0.03397413036424668,0.02536960405294858
1592167916.2094173,-0.0005005495293161944,8.443503846705212,4.6365071438811105,-0.43555555555555553,-0.30333333333333334,-0.6311111111111111,-0.053177700924955225,-0.059614681539973506,0.03081267266630794
1592167916.2194173,0.005674212598425198,8.518061023622048,4.754178149606299,-0.43555555555555553,-0.30333333333333334,-0.6311111111111111,-0.04731263788609382,-0.0736718766076199,-0.024812105692414464
1592167916.2294173,0.3066922982283465,8.67287032480315,4.642371432086614,-0.43555555555555553,-0.30333333333333334,-0.6311111111111111,-0.03417824613036294,-0.08492992668396065,0.0014566778190473091
1592167916.2394173,0.35,8.48,4.65,-0.4488888888888889,-0.30333333333333334,-0.6611111111111111,-0.05999569303730508,-0.08726646259971647,0.03599741582238304
1592167916.2494173,0.28065290563283185,8.430466361166308,4.788694188734336,-0.4488888888888889,-0.30333333333333334,-0.6611111111111111,-0.12807704372845935,-0.060250053595290176,0.014384288618842007
1592167916.2594173,0.07,8.26,4.96,-0.4488888888888889,-0.30333333333333334,-0.6611111111111111,-0.12326387842209952,-0.032724923474893676,-0.030543261909900768
1592167916.2694173,0.15994107906188626,8.295976431624755,4.942011784187623,-0.4488888888888889,-0.30333333333333334,-0.6611111111111111,-0.09186851917357056,-0.024876083662761436,-0.03741099674551647
1592167916.2794173,0.2583723542893093,8.565117062867929,4.957674470857862,-0.4488888888888889,-0.30333333333333334,-0.6611111111111111,-0.052689558161442246,-0.017250327308289737,-0.017935227667479084
1592167916.2894173,0.11,8.22,5.19,-0.4444444444444444,-0.3022222222222222,-0.6533333333333333,-0.004363323129985824,-0.007635815477475192,-0.016362461737446838
1592167916.2994173,0.11895275773795672,8.291622061903654,5.1362834535722595,-0.4444444444444444,-0.3022222222222222,-0.6533333333333333,0.008332403717449654,-0.012518787341873453,-0.04273050980519745
1592167916.3094172,0.000901365705614568,8.270225341426404,4.871952959028832,-0.4444444444444444,-0.3022222222222222,-0.6533333333333333,0.1126680050587377,-0.021751066486064383,-0.05231071568693133
1592167916.3194172,0.02968353528153956,8.596518888096934,4.682004276550249,-0.4444444444444444,-0.3022222222222222,-0.6533333333333333,0.17172988661279273,-0.0358478250579124,-0.05559784896167218
1592167916.3294172,0.10205104462063777,8.519943283754847,4.752051044620638,-0.4444444444444444,-0.3022222222222222,-0.6533333333333333,0.15139246433224876,-0.04123711564793087,-0.05563236990731925
1592167916.3394172,0.08014501891551072,8.360507566204287,4.909492433795712,-0.4311594507496147,-0.29447264256690486,-0.6466908364859184,0.07335063251487715,-0.0534111605680555,-0.059979873927596745
1592167916.3494172,0.12909965958445827,8.389459795750675,4.900180068083109,-0.4311111111111111,-0.29444444444444445,-0.6466666666666666,0.07522803923065553,-0.053450708342326333,-0.05249737422542968
1592167916.3594172,0.19798726264889727,8.467699728741598,4.8417252034438025,-0.4311111111111111,-0.29444444444444445,-0.6466666666666666,0.11658648624494772,-0.04921284554717842,-0.04812201476468196
1592167916.3694172,0.15261455400153592,8.384706197202766,4.792614554001536,-0.4311111111111111,-0.29444444444444445,-0.6466666666666666,0.14882342639208615,-0.039783274647599856,-0.02215180286112
1592167916.3794172,0.220940608804432,8.490352058140227,4.711177101328409,-0.4311111111111111,-0.29444444444444445,-0.6466666666666666,0.17031061015892218,-0.03583061040040959,-0.02158560930979837
1592167916.3894172,0.11915297054715131,8.566479626712635,4.745775552055161,-0.41871654398774205,-0.31406917572311216,-0.6735215621006331,0.2040165442250975,-0.03186450058526144,-0.04108315052922175
1592167916.3994172,0.17,8.559739340459622,4.55927015328694,-0.4177777777777778,-0.31555555555555553,-0.6755555555555556,0.19957653952478807,-0.037065499768847814,-0.023861796198731928
1592167916.4094172,0.1698368237554254,8.509510471266276,4.420244764366862,-0.4177777777777778,-0.31555555555555553,-0.6755555555555556,0.19084198763571356,-0.03267152417372742,0.002065963079132699
1592167916.4194171,0.14970442175519447,8.45051726192841,4.450221683683604,-0.4177777777777778,-0.31555555555555553,-0.6755555555555556,0.18429935148262327,-0.02615844372337693,-0.01207974506947855
1592167916.4294171,0.04972508044972389,8.625481109212982,4.525206189662707,-0.4177777777777778,-0.31555555555555553,-0.6755555555555556,0.16703143215691657,-0.01888774084939515,-0.039344880846910235
1592167916.4394171,0.010111058601134214,8.560555293005672,4.629500236294896,-0.4310370720436883,-0.3067160260449485,-0.6468270846460827,0.13867482743894485,-0.01853806599540084,-0.04906315598418488
1592167916.449417,0.0007299691405989843,8.522919876562396,4.676350154297005,-0.4311111111111111,-0.30666666666666664,-0.6466666666666666,0.10314338682060642,-0.020566530305665093,-0.039986553697826485
1592167916.459417,0.08045861375147437,8.600458613751474,4.563782002358981,-0.4311111111111111,-0.30666666666666664,-0.6466666666666666,0.10035643198967394,-0.035353573633616145,-0.028542863074671194
1592167916.469417,0.37565338940527104,8.601073331581086,4.442879978973023,-0.4311111111111111,-0.30666666666666664,-0.6466666666666666,0.13541137689704208,-0.036114498135230384,-0.0009795608818853017
1592167916.479417,0.37123486181554705,8.65814770727668,4.420308715453887,-0.4246502547470356,-0.31366592772774843,-0.6568963559097862,0.13381198683188847,-0.01749720068892614,6.735126402640903e-05
1592167916.489417,0.33,8.72,4.41,-0.4177777777777778,-0.3211111111111111,-0.6677777777777778,0.12762720155208535,0.002181661564992912,-0.002181661564992912
1592167916.499417,0.44102086230876214,8.61690919928472,4.441720246373932,-0.4177777777777778,-0.3211111111111111,-0.6677777777777778,0.10946145543623059,0.016887265563541996,0.009063800316250504
1592167916.509417,0.5379145317204586,8.580297924039934,4.372383392319476,-0.4177777777777778,-0.3211111111111111,-0.6677777777777778,0.0814364442746715,0.04506742802355677,0.028932455585634304
1592167916.519417,0.5222118108520375,8.66004685116583,4.4144704728699065,-0.4177777777777778,-0.3211111111111111,-0.6677777777777778,0.10109557740657801,0.0681293827954381,0.03624379762801773
1592167916.529417,0.5491400569079988,8.706425071135,4.42,-0.4177777777777778,-0.3211111111111111,-0.6677777777777778,0.12190637520755583,0.08838677995568857,0.05139233859040408
1592167916.539417,0.3707354421498948,8.685588262209071,4.33397065552268,-0.4177777777777778,-0.32780228234823605,-0.6668218961724742,0.13059490147765884,0.10710192750719252,0.08675310697904859
1592167916.549417,0.383551696001865,8.740972374402611,4.206765590395151,-0.4177777777777778,-0.3288888888888889,-0.6666666666666666,0.12709909144927375,0.10528247579934462,0.1324862620704378
1592167916.559417,0.37117710918114144,8.740588554590571,4.011182537220844,-0.4177777777777778,-0.3288888888888889,-0.6666666666666666,0.11319018810108133,0.10266649624758169,0.15598820978971362
1592167916.569417,0.24810944332821178,8.74,4.112514360004727,-0.4177777777777778,-0.3288888888888889,-0.6666666666666666,0.06837584162430219,0.11276593750183726,0.15707963267948966
1592167916.579417,0.48436413228776,8.590228435049438,4.159413569723832,-0.4177777777777778,-0.3288888888888889,-0.6666666666666666,0.02331618254901733,0.12978394471870552,0.16481846899799843
1592167916.589417,0.7409810537961554,8.645490526898078,4.230766698935141,-0.4110259223405399,-0.3327470919958819,-0.6676312174434149,-0.048605374077472216,0.15027025992899948,0.13848874440089531
1592167916.599417,0.46579378068739774,8.694766425064296,4.405140519055412,-0.41,-0.3333333333333333,-0.6677777777777778,-0.07393185330174623,0.18400384604193468,0.09624789958957215
1592167916.609417,0.5815006664951708,8.580999508898296,4.43,-0.41,-0.3333333333333333,-0.6677777777777778,-0.07913978474959339,0.19984024527125274,0.1090831547794823
1592167916.619417,0.5847484008528784,8.509496801705756,4.43,-0.41,-0.3333333333333333,-0.6677777777777778,-0.08973056172978648,0.20364004287230714,0.12153731114944877
1592167916.629417,0.604887163652404,8.555996118217909,4.417556418173798,-0.41,-0.3333333333333333,-0.6677777777777778,-0.08212809625932806,0.2087362010620244,0.11715564947685893
1592167916.639417,0.5171165336725647,8.732454030299525,4.386257661616746,-0.3959304661432567,-0.32278118294077585,-0.6844853492326605,-0.06858849270768164,0.21680094651569265,0.09963366881595091
1592167916.649417,0.48148835041938487,8.633813606710158,4.36297670083877,-0.39222222222222225,-0.32,-0.6888888888888889,-0.09718041666106521,0.2172376795620554,0.10063549354586712
1592167916.659417,0.36557800611452085,8.544616003494012,4.400864997816242,-0.39222222222222225,-0.32,-0.6888888888888889,-0.14622335514838253,0.2179668616676869,0.09074883136146453
1592167916.669417,0.38024315173899664,8.562194521391197,4.474389042782395,-0.39222222222222225,-0.32,-0.6888888888888889,-0.1665244343853708,0.22343397274347998,0.08396744651205561
1592167916.679417,0.27412263610315185,8.52493658070678,4.721754727793696,-0.39222222222222225,-0.32,-0.6888888888888889,-0.1732921911380582,0.22190219462686492,0.08571208603713566
1592167916.689417,0.25280726256983244,8.40582402234637,4.9527374301675975,-0.3865145872129112,-0.33617163252638116,-0.6698634388578523,-0.17468984638741777,0.1988678973905166,0.07792736665460016
1592167916.6994169,0.2799405900305188,8.39,4.940089114954222,-0.38555555555555554,-0.3388888888888889,-0.6666666666666666,-0.15713147765828744,0.18438280535364968,0.08777785472362865
1592167916.7094169,0.2830936955963355,8.474531522018323,4.75784326036702,-0.38555555555555554,-0.3388888888888889,-0.6666666666666666,-0.09075525941584894,0.15684436888134115,0.09926560120717749
1592167916.7194169,0.4199415680827626,8.472507303989655,4.633790171943101,-0.38555555555555554,-0.3388888888888889,-0.6666666666666666,-0.05318995177182777,0.1328174119273689,0.09831152264333061
1592167916.7294168,0.4646217825102708,8.43922277186216,4.67539901064811,-0.38555555555555554,-0.3388888888888889,-0.6666666666666666,-0.04841593025528711,0.11705121893306353,0.0941460406823606
1592167916.7394168,0.3655285335901758,8.458157155469943,4.763420017657918,-0.3745323773086836,-0.3176904691833659,-0.6853212760075269,-0.046331634439479456,0.10325585828336949,0.06499106588386863
1592167916.7494168,0.40703445982853204,8.461440615574608,4.857034459828532,-0.3711111111111111,-0.3111111111111111,-0.6911111111111111,-0.030875948848149024,0.09397779076381933,0.038049520668938054
1592167916.7594168,0.506752764283045,8.349587390912488,4.846340155195533,-0.3711111111111111,-0.3111111111111111,-0.6911111111111111,-0.03696456268550827,0.09358091274625881,0.043509547380487006
1592167916.7694168,0.4231802412027094,8.35051993108494,4.885779896627411,-0.3711111111111111,-0.3111111111111111,-0.6911111111111111,-0.0317791901007697,0.09963756134844177,0.03499496676503611
1592167916.7794168,0.340040522287258,8.36,4.893755065285907,-0.3711111111111111,-0.3111111111111111,-0.6911111111111111,0.01482665450788069,0.11507159681379656,0.028909225884071993
1592167916.7894168,0.2485149417524903,8.490655748775957,4.743972986662165,-0.3463462959836419,-0.3213586208190294,-0.6800096422608662,0.10516787422483795,0.12829411298709736,0.023078907424913198
1592167916.7994168,0.2037298794639515,8.635080482144195,4.51610915624766,-0.3388888888888889,-0.3244444444444444,-0.6766666666666666,0.16542867633947608,0.12407761188895544,0.002712444889519775
1592167916.8094168,0.11439238771066851,8.71114829449238,4.392162728812193,-0.3388888888888889,-0.3244444444444444,-0.6766666666666666,0.15591887120817097,0.11592660980986043,-0.015341561643772629
1592167916.8194168,0.07665094704290684,8.683396211828372,4.446556629300348,-0.3388888888888889,-0.3244444444444444,-0.6766666666666666,0.08259954528210119,0.09037686938369921,-0.03326262251387299
1592167916.8294168,0.0968730308758664,8.581416587901701,4.621857277882798,-0.3388888888888889,-0.3244444444444444,-0.6766666666666666,0.04726628377484811,0.07283155624899906,-0.02892475806102892
1592167916.8394167,0.2215312994630831,8.485382824865772,4.897687532975389,-0.36615192300397603,-0.31316318894854633,-0.6907682360365394,0.024668971750536606,0.023161390186483673,0.002347854057816696
1592167916.8494167,0.27845178160246653,8.50098622331499,4.89901377668501,-0.3711111111111111,-0.3111111111111111,-0.6933333333333334,0.044156104642972684,0.006068387473340058,0.020925917385424927
1592167916.8594167,0.41233211612669307,8.47851319503794,4.59874705410095,-0.3711111111111111,-0.3111111111111111,-0.6933333333333334,0.08380627492373913,-0.004989831152243196,0.040452948096285905
1592167916.8694167,0.33366768912082223,8.52316615543959,4.481333705134844,-0.3711111111111111,-0.3111111111111111,-0.6933333333333334,0.10055632130965497,0.00350875283286694,0.03357949377201257
1592167916.8794167,0.18586257683168705,8.63120613475247,4.428620858943896,-0.3711111111111111,-0.3111111111111111,-0.6933333333333334,0.12740127235971666,0.023640779130970117,0.008482380536962257
1592167916.8894167,0.16,8.67,4.412271743332045,-0.34792634110724563,-0.3257089292616931,-0.687322467036035,0.14131238421323417,0.023203872423958244,-0.0066445804548649606
1592167916.8994167,0.22623434704830053,8.700909361955874,4.418831246273107,-0.3411111111111111,-0.33,-0.6855555555555556,0.13410128549852973,0.010129050056669536,0.0015159100409111448
1592167916.9094167,0.3306761938848553,8.643511095204008,4.471352387769711,-0.3411111111111111,-0.33,-0.6855555555555556,0.10781494145132153,-0.028082143977401032,0.03714781339472029
1592167916.9194167,0.46280038135484036,8.477199618645159,4.5437251668427425,-0.3411111111111111,-0.33,-0.6855555555555556,0.08696098838125757,-0.047642060425132644,0.06808971984246862
1592167916.9294167,0.5176837129351096,8.45768371293511,4.536421716086521,-0.3411111111111111,-0.33,-0.6855555555555556,0.09061911483710997,-0.04953521804755536,0.057458546580437156
1592167916.9394166,0.48783346268987693,8.589471855712016,4.484861218908231,-0.3450154201213077,-0.3260956909898034,-0.6957067589820667,0.12972391724507765,-0.028388934612215116,0.00748442879054486
1592167916.9494166,0.5064923849897943,8.685615481237244,4.447192259381378,-0.3466666666666667,-0.3244444444444444,-0.7,0.16190282088264285,-0.010180787577461133,-0.02415186529848361
1592167916.9594166,0.43447025235295544,8.726408264982702,4.358837192422153,-0.3466666666666667,-0.3244444444444444,-0.7,0.16546803192611842,0.011469228843580058,-0.055144741020106164
1592167916.9694166,0.25884615384615384,8.672884615384616,4.404038461538462,-0.3466666666666667,-0.3244444444444444,-0.7,0.12404004647887586,0.021501952924208985,-0.0676944410599243
1592167916.9794166,0.19466772031380913,8.665996839058572,4.450664559372382,-0.3466666666666667,-0.3244444444444444,-0.7,0.10392061709134486,0.02167163128589101,-0.07032233938001188
1592167916.9894166,0.17106669563328264,8.686311101455573,4.46,-0.3466666666666667,-0.32724937842469887,-0.6789629951480918,0.10861764447670988,0.009308438476141278,-0.05053700761002264
1592167916.9994166,0.1975261504195999,8.673582309191424,4.46,-0.3466666666666667,-0.3288888888888889,-0.6666666666666666,0.11242303437897412,-0.0026118679062900863,-0.03261802266559999
1592167917.0094166,0.31376781350394023,8.563910321535461,4.5036253054724185,-0.3466666666666667,-0.3288888888888889,-0.6666666666666666,0.1090830782496456,-0.03337365913260231,-0.0013907426039395758
1592167917.0194166,0.3232306610407876,8.53,4.490308016877637,-0.3466666666666667,-0.3288888888888889,-0.6666666666666666,0.11485604318407269,-0.034587774017941775,-0.007904227355671752
1592167917.0294166,0.2573917634635692,8.554202745512143,4.4506378035902845,-0.3466666666666667,-0.3288888888888889,-0.6666666666666666,0.13470642839798472,-0.027409916720305353,-0.024213218106172125
1592167917.0394166,0.13502671257271756,8.669946574854565,4.365038584827259,-0.3466666666666667,-0.3288888888888889,-0.6688875697494954,0.1696141499471478,-0.01854671342658197,-0.0490789673088783
1592167917.0494165,0.09,8.797809693403531,4.231942551873645,-0.3466666666666667,-0.3288888888888889,-0.6711111111111111,0.19230622064867936,-0.02407935475837175,-0.07564137861719172
1592167917.0594165,0.1348596466229695,8.81320426047307,4.174753134796238,-0.3466666666666667,-0.3288888888888889,-0.6711111111111111,0.1861286755782998,-0.036708095652145,-0.07648487175899675
1592167917.0694165,0.2950785519125683,8.80047643442623,4.178094262295081,-0.3466666666666667,-0.3288888888888889,-0.6711111111111111,0.14423238058966759,-0.07660031324764219,-0.04922616064488147
1592167917.0794165,0.39786966333817664,8.76005750146845,4.2659118310817075,-0.3466666666666667,-0.3288888888888889,-0.6711111111111111,0.124802750067002,-0.09162142248012554,-0.031646637566762344
1592167917.0894165,0.832,8.622,4.426,-0.33066666666666666,-0.3362222222222222,-0.6597777777777778,0.1016654289286697,-0.10711958284115197,0.008944812416470937
1592167917.0994165,0.94,8.603550011188185,4.401400014917581,-0.32,-0.3411111111111111,-0.6522222222222223,0.10816677062881505,-0.09619492923381973,0.020654877205245323
1592167917.1094165,0.7530625391428827,8.673468730428558,4.170600041752408,-0.32,-0.3411111111111111,-0.6522222222222223,0.15386781252815776,-0.017584201322805297,0.010009058041487565
1592167917.1194165,0.574221386898469,8.752879517600533,4.001381025098868,-0.32,-0.3411111111111111,-0.6522222222222223,0.18093367027843257,0.041483603999592694,-0.00951404848697044
1592167917.1294165,0.3023427443237907,8.856807502467918,3.8565962487660412,-0.32,-0.3411111111111111,-0.6522222222222223,0.19163848714061638,0.12990155681279128,-0.03411739642796556
1592167917.1394165,0.09606155075939249,8.951969224620305,3.8180087929656277,-0.3239970690114575,-0.3337831512567724,-0.6522222222222223,0.13092846881230244,0.1302504708307436,-0.035563001836899644
1592167917.1494164,0.013713457356849479,8.956342111621165,3.854687122493356,-0.32666666666666666,-0.3288888888888889,-0.6522222222222223,0.08464783620327174,0.11626980562531504,-0.02578698669083492
1592167917.1594164,-0.02171629099743555,8.819813200161965,4.037425563503847,-0.32666666666666666,-0.3288888888888889,-0.6522222222222223,-0.00017511595798370277,0.07105046576474332,0.012735909480961998
1592167917.1694164,0.04834333704438744,8.738562853961954,4.180499056101457,-0.32666666666666666,-0.3288888888888889,-0.6522222222222223,-0.01862250745930194,0.047188767280126165,0.03311684425920463
1592167917.1794164,0.0758236571594035,8.70252902852179,4.266883162009556,-0.32666666666666666,-0.3288888888888889,-0.6522222222222223,-0.013917592038371316,0.038487011636646494,0.03923784813673983
1592167917.1894164,0.10529511087764061,8.667065776143485,4.393524445611797,-0.33019674058509374,-0.3400674562972413,-0.6522222222222223,0.03523218478754181,0.019248654849440293,0.044210838294064456
1592167917.1994164,0.11715314590721311,8.711921909845355,4.3413874163711474,-0.3333333333333333,-0.35,-0.6522222222222223,0.06249575452067812,0.010489012140865273,0.04498415780726391
1592167917.2094164,0.15815825688073396,8.798422018348624,4.12894495412844,-0.3333333333333333,-0.35,-0.6522222222222223,0.06886569848038922,-0.003760614103601887,0.04053287004832244
1592167917.2194164,0.18260422348632432,8.81991662121094,4.067645912880854,-0.3333333333333333,-0.35,-0.6522222222222223,0.05694361089935466,-0.007635815477475192,0.032688542615008344
1592167917.2294164,0.22,8.761511817222193,4.160697403968297,-0.3333333333333333,-0.35,-0.6522222222222223,0.03329573947558171,-0.005416116426659626,0.012531917122326396
1592167917.2394164,0.22689582190170102,8.699312534294897,4.2441353766559535,-0.3360150418506615,-0.35,-0.6464757039708047,0.030317134920458743,7.499087530370716e-05,-0.0034599695357486354
1592167917.2494164,0.17586718869171708,8.724132811308284,4.225867188691717,-0.3411111111111111,-0.35,-0.6355555555555555,0.05007194499370496,0.007861225367141414,-0.012082058830160572
1592167917.2594163,0.13264085188770572,8.757546950629235,4.165469506292353,-0.3411111111111111,-0.35,-0.6355555555555555,0.06046940716027498,0.006606442924931586,-0.006626929001582535
1592167917.2694163,0.11,8.77703356771335,4.0683731458293195,-0.3411111111111111,-0.35,-0.6355555555555555,0.07671307929635401,-0.006221397129731822,0.013622356172360624
1592167917.2794163,0.10594689920419702,8.816212403183211,4.025681395225182,-0.3411111111111111,-0.35,-0.6355555555555555,0.07408960723580357,-0.018011265196479477,0.02096132821872304
1592167917.2894163,0.1,8.849845877014552,3.9768721639805977,-0.33855847632956065,-0.3547406074514508,-0.6311796102157547,0.05182879948445236,-0.0387942165111621,0.021475421668672598
1592167917.2994163,0.14129543181060356,8.864100652598484,3.9617986948030297,-0.3333333333333333,-0.36444444444444446,-0.6222222222222222,-0.002134896085821434,-0.06567756885253068,0.01661356637977591
1592167917.3094163,0.17541631070513242,8.83833475717947,3.9754163107051324,-0.3333333333333333,-0.36444444444444446,-0.6222222222222222,-0.039541450984099696,-0.07949394381001017,0.01468080311047803
1592167917.3194163,0.20499881059993338,8.795001189400066,4.044996907559827,-0.3333333333333333,-0.36444444444444446,-0.6222222222222222,-0.06381315964841286,-0.0867209174650477,0.013090021287325684
1592167917.3294163,0.3170372580936879,8.709452342195695,4.185684572255381,-0.3333333333333333,-0.36444444444444446,-0.6222222222222222,-0.07019609528609393,-0.08655855702354076,0.0058072090192425275
1592167917.3394163,0.44309984830909255,8.620140091014544,4.313380030338181,-0.33784004045090865,-0.35693326591515223,-0.6256022525604037,-0.05438872353380651,-0.07849397166243995,-0.009156476610244187
1592167917.3494163,0.41,8.645424720831729,4.3166095494801695,-0.3466666666666667,-0.3422222222222222,-0.6322222222222222,-0.03057984695462754,-0.07118118193018237,-0.020097454575735915
1592167917.3594162,0.29512307778966934,8.77494113670929,4.165112375373176,-0.3466666666666667,-0.3422222222222222,-0.6322222222222222,0.003267822537346309,-0.057816366377383695,-0.04635505471968844
1592167917.3694162,0.20146768212802807,8.851467682128028,4.065366920532007,-0.3466666666666667,-0.3422222222222222,-0.6322222222222222,-0.0017312279201656244,-0.060315891606139656,-0.04951272614027578
1592167917.3794162,0.23879961467791713,8.8474404623865,4.107599229355834,-0.3466666666666667,-0.3422222222222222,-0.6322222222222222,-0.020071076237340196,-0.06805031187744486,-0.04143425094512592
1592167917.3894162,0.2950278566550448,8.797486071672479,4.197530642320549,-0.3433296191126607,-0.34416883329539233,-0.6341688332953924,-0.04009137381539497,-0.07526853946812827,-0.02699411157020066
1592167917.3994162,0.4821173372496391,8.711949712607298,4.312033524928468,-0.3333333333333333,-0.35,-0.64,-0.04268114011730303,-0.07504550083336074,-0.011703374395601394
1592167917.4094162,0.5857244667136915,8.66427553328631,4.328551066572617,-0.3333333333333333,-0.35,-0.64,-0.020228300442267665,-0.06637484959056214,-0.010758027729810717
1592167917.4194162,0.5890628414194958,8.665622951483025,4.322811475741513,-0.3333333333333333,-0.35,-0.64,-0.004568971194391237,-0.06135952946014227,-0.013601110103804796
1592167917.4294162,0.5763014683620951,8.697808810172571,4.338904405086285,-0.3333333333333333,-0.35,-0.64,0.03235115788661322,-0.05062657782986172,-0.01652688722210788
1592167917.4394162,0.5840499495951351,8.674049949595135,4.300330070566811,-0.3355188810481321,-0.3478144522852012,-0.6378144522852012,0.0508545090867135,-0.04366923641332557,-0.01339649174017541
1592167917.4494162,0.5969324710972574,8.733067528902742,4.222318965316709,-0.3411111111111111,-0.3422222222222222,-0.6322222222222222,0.07509601973738483,-0.029120479970210174,-0.016697077232777757
1592167917.4594162,0.5925128819652487,8.782512881965248,4.144974236069503,-0.3411111111111111,-0.3422222222222222,-0.6322222222222222,0.08262902656968332,-0.014123729265367294,-0.02159957365696841
1592167917.4694161,0.6570035046728971,8.763745619158879,4.136254380841121,-0.3411111111111111,-0.3422222222222222,-0.6322222222222222,0.07307140580415603,0.002878165302794569,-0.023493720190453933
1592167917.4794161,0.7409576022135528,8.71,4.213891934624573,-0.3411111111111111,-0.3422222222222222,-0.6322222222222222,0.06805605272397501,0.02529802439180453,-0.028864488201997367
1592167917.4894161,0.8171051156832919,8.711447442158354,4.254210231366584,-0.34191524564353,-0.3415789145962871,-0.6333480105676087,0.07876975449123896,0.046647578119122526,-0.041150196183476706
1592167917.499416,0.7212834429169157,8.744598924088464,4.205240645546922,-0.3466666666666667,-0.3377777777777778,-0.64,0.12094221495297174,0.09022395066290238,-0.04742488868157055
1592167917.509416,0.3665197020663143,8.794861845266698,4.0855802498798655,-0.3466666666666667,-0.3377777777777778,-0.64,0.13252086972973615,0.1199371328377104,-0.056138602405250995
1592167917.519416,0.09,8.82,3.98,-0.3466666666666667,-0.3377777777777778,-0.64,0.13526301702956053,0.12980886311707826,-0.06326818538479445
1592167917.529416,-0.12941816642818277,8.914709083214092,3.98765089985691,-0.3466666666666667,-0.3377777777777778,-0.64,0.1293574628781174,0.11838568685611,-0.05486125439659059
1592167917.539416,-0.20563369963369965,8.902113553113553,4.0694358974358975,-0.3429108669108669,-0.34309849409849413,-0.634992266992267,0.0942725530540362,0.09069279005755791,-0.037318799484550004
1592167917.549416,-0.20649065732399066,8.773245328661995,4.175403737070404,-0.3333333333333333,-0.3566666666666667,-0.6222222222222222,0.0670420522410889,0.05973144774264628,-0.020756267709619542
1592167917.559416,-0.12,8.73,4.21,-0.3333333333333333,-0.3566666666666667,-0.6222222222222222,0.06326818538479445,0.0370882466048795,0.0
1592167917.569416,-0.07167342744334469,8.750816431391637,4.045020282330034,-0.3333333333333333,-0.3566666666666667,-0.6222222222222222,0.09834846320545174,0.021001811251548062,0.016723122052953402
1592167917.579416,-0.06,8.78,4.01,-0.3333333333333333,-0.3566666666666667,-0.6222222222222222,0.11235557059713495,0.015271630954950384,0.02181661564992912
1592167917.589416,0.0075392192630426855,8.914921561473914,3.832617657789128,-0.3366143743159431,-0.35721350683043496,-0.6211285418946857,0.10185259336391525,0.0182585811329975,0.02752208646833862
1592167917.599416,0.0,8.93,3.81,-0.3466666666666667,-0.35888888888888887,-0.6177777777777778,0.07635815477475191,0.020725784867432664,0.031634092692397225
1592167917.609416,0.07966744643521718,8.938199532138869,3.732465574990696,-0.3466666666666667,-0.35888888888888887,-0.6177777777777778,0.01883433103467497,0.025678309727163437,0.03860815450706866
1592167917.619416,0.11456590257879656,8.90630229226361,3.7447908309455586,-0.3466666666666667,-0.35888888888888887,-0.6177777777777778,-0.02606413568395078,0.03661471977522847,0.03777572004502304
1592167917.629416,0.12,8.89,3.81,-0.3466666666666667,-0.35888888888888887,-0.6177777777777778,-0.04799655442984406,0.042542400517361786,0.03599741582238304
1592167917.639416,0.11890132605304211,8.828535101404055,3.973296021840874,-0.3461783671346854,-0.3586040474952331,-0.6183067689374242,-0.08221179780765704,0.05809367385660815,0.029012993094939182
1592167917.649416,0.06761941848390446,8.803428348909657,4.086856697819314,-0.3333333333333333,-0.3511111111111111,-0.6322222222222222,-0.09320888505715731,0.06496157840482879,0.016476755430026167
1592167917.659416,0.04,8.82,4.12,-0.3333333333333333,-0.3511111111111111,-0.6322222222222222,-0.09381144729469522,0.0643590161672909,0.015271630954950384
1592167917.669416,-0.003437467458086015,8.749687597625742,4.2274997396646885,-0.3333333333333333,-0.3511111111111111,-0.6322222222222222,-0.08975493807114726,0.06613163038793624,0.012033216420097581
1592167917.679416,-0.01301825199293006,8.71792699202828,4.319237275908091,-0.3333333333333333,-0.3511111111111111,-0.6322222222222222,-0.07761538614084962,0.06096350385654088,0.014839280609097803
1592167917.689416,-0.01867209006121862,8.688672090061218,4.41,-0.33436615217460774,-0.3511111111111111,-0.6310418578321944,-0.053178751351973884,0.05447354987723468,0.01679701924872855
1592167917.699416,-0.01,8.68,4.41,-0.3411111111111111,-0.3511111111111111,-0.6233333333333333,-0.022907446432425576,0.04690572364734761,0.019634954084936207
1592167917.709416,0.03977052439731588,8.694885262198659,4.30301632010604,-0.3411111111111111,-0.3511111111111111,-0.6233333333333333,0.01900192702575406,0.026356969473553465,0.016108527970665705
1592167917.719416,0.09,8.72,4.19,-0.3411111111111111,-0.3511111111111111,-0.6233333333333333,0.038179077387375956,0.017453292519943295,0.011999138607461015
1592167917.729416,0.11776986972738247,8.767769869727383,4.214460260545235,-0.3411111111111111,-0.3511111111111111,-0.6233333333333333,0.05963467067991314,0.008969915735006488,-0.0017028863252438863
1592167917.739416,0.11021243626011279,8.760212436260112,4.229575127479775,-0.3411111111111111,-0.3511111111111111,-0.6233333333333333,0.06210783499874315,0.009794303841283157,-0.00747360306918057
1592167917.7494159,0.06554096134485261,8.756385240336213,4.204696682353492,-0.32,-0.3511111111111111,-0.6355555555555555,0.07433476340617516,0.02575970676251435,-0.02012135974747384
1592167917.7594159,0.026766788436386597,8.776466423127227,4.087217336400126,-0.32,-0.3511111111111111,-0.6355555555555555,0.0915888297640491,0.036694601969235005,-0.02110304711681588
1592167917.7694159,-0.01156894641299479,8.835784473206497,3.9457844732064973,-0.32,-0.3511111111111111,-0.6355555555555555,0.09906765876587152,0.047248014656024025,-0.01492933994627396
1592167917.7794158,-0.0378354072605807,8.843506221781741,3.9621645927394193,-0.32,-0.3511111111111111,-0.6355555555555555,0.08699714835961549,0.05533967185570786,-0.007546044064108196
1592167917.7894158,-0.030137466505157286,8.820412399515472,3.969862533494843,-0.32,-0.3511111111111111,-0.6355555555555555,0.07440142225284066,0.062057392445987763,-0.0033474686951832557
1592167917.7994158,-0.02637519203131969,8.856375192031319,4.012750384062639,-0.3333333333333333,-0.3511111111111111,-0.6255555555555555,0.06258662561940888,0.05109214288042478,0.007431179968919746
1592167917.8094158,-0.02,8.85,4.0,-0.3333333333333333,-0.3511111111111111,-0.6255555555555555,0.05563236990731925,0.039269908169872414,0.01090830782496456
1592167917.8194158,0.012914039562978295,8.814171920874044,3.928742118688935,-0.3333333333333333,-0.3511111111111111,-0.6255555555555555,0.03895203576420149,0.020227253621574497,0.01027256301362271
1592167917.8294158,0.0374895046179681,8.804372376154493,3.9762342569269524,-0.3333333333333333,-0.3511111111111111,-0.6255555555555555,0.03794060126227729,0.01803179461313752,0.008488170134872979
1592167917.8394158,0.096183879093199,8.8190459697733,4.064275818639799,-0.3333333333333333,-0.3511111111111111,-0.6255555555555555,0.037140280881815334,0.023634037276371183,0.007687849754411028
1592167917.8494158,0.07,8.81,4.05,-0.32,-0.3655555555555556,-0.6322222222222222,0.0370882466048795,0.03490658503988659,0.00545415391248228
1592167917.8594158,-0.0014209424083769656,8.850710471204188,3.9885790575916227,-0.32,-0.3655555555555556,-0.6322222222222222,0.038179077387375956,0.05115182530188452,0.00334999273344998
1592167917.8694158,-0.0974310453859999,8.892293136157999,3.907982682298001,-0.32,-0.3655555555555556,-0.6322222222222222,0.035376782615588354,0.055071910952961725,0.011248711554580494
1592167917.8794158,-0.08804308612070298,8.860215430603514,3.969784569396485,-0.32,-0.3655555555555556,-0.6322222222222222,0.02406877671506379,0.05195644501356412,0.020465319010848314
1592167917.8894157,-0.08083749935576973,8.82418749677885,4.005812503221152,-0.32,-0.3655555555555556,-0.6322222222222222,0.012278662941356412,0.04645439191916735,0.02753938727507274
1592167917.8994157,-0.015807789530517587,8.82395194738263,4.039072078926056,-0.3333333333333333,-0.3388888888888889,-0.6177777777777778,0.0020804410778743733,0.03531146698836075,0.03414562435584944
1592167917.9094157,0.04,8.81,4.06,-0.3333333333333333,-0.3388888888888889,-0.6177777777777778,0.004363323129985824,0.02617993877991494,0.03490658503988659
1592167917.9194157,0.07640541136681127,8.82427027424454,3.9528108227336225,-0.3333333333333333,-0.3388888888888889,-0.6177777777777778,0.010749106361597493,0.02065207900101738,0.031094572166417242
1592167917.9294157,0.1,8.84,4.0071441779518135,-0.3333333333333333,-0.3388888888888889,-0.6177777777777778,0.015154936325637795,0.017141770659993935,0.023530490152324293
1592167917.9394157,0.1,8.84,4.037559145048132,-0.3333333333333333,-0.3388888888888889,-0.6177777777777778,0.019302134120297867,0.020459528895721994,0.01689497368086818
1592167917.9494157,0.043689306288425225,8.816407755240354,4.09,-0.3411111111111111,-0.3511111111111111,-0.6311111111111111,0.011014211931770806,0.028361600344907853,0.0033783964542956142
1592167917.9594157,-0.010524447599609549,8.78,4.066319992900878,-0.3411111111111111,-0.3511111111111111,-0.6311111111111111,0.007176212624046034,0.027787580774386603,-0.002181661564992912
1592167917.9694157,-0.04,8.794339467630627,3.995903009248392,-0.3411111111111111,-0.3511111111111111,-0.6311111111111111,0.014904068965308192,0.023498464603440624,-0.001958205383620052
1592167917.9794157,-0.03424382413270311,8.852878087933648,3.98,-0.3411111111111111,-0.3511111111111111,-0.6311111111111111,0.026650864816828244,0.010735339205390966,-0.000619904745583155
