time,acc_x,acc_y,acc_z,mag_x,mag_y,mag_z,gyr_x,gyr_y,gyr_z
1592167924.3394096,-0.06016811279826464,8.540168112798264,4.629327548806941,-0.3977777777777778,-0.17888888888888888,-0.3022222222222222,0.044834091651521905,-0.00868996973691591,0.00989083008857958
1592167924.3494096,-0.07779433750700804,8.552598112502336,4.600392450009344,-0.3977777777777778,-0.17888888888888888,-0.3022222222222222,0.05155245688672713,-0.005978164476191332,0.014180800172453926
1592167924.3594096,-0.10178593815294609,8.552856247388217,4.640715628917676,-0.3977777777777778,-0.17888888888888888,-0.3022222222222222,0.05450284950398519,-0.004752954392559516,0.014375615803740773
1592167924.3694096,-0.10908900961136649,8.523643961554534,4.684534057668199,-0.3977777777777778,-0.17888888888888888,-0.3022222222222222,0.06326590617296307,-0.006346237423282766,0.015172257319102399
1592167924.3794096,-0.11,8.55,4.7,-0.38333333333333336,-0.17222222222222222,-0.29444444444444445,0.0839939702522271,-0.01308996938995747,0.019634954084936207
1592167924.3894095,-0.12,8.550478420310297,4.655215796897038,-0.38333333333333336,-0.17222222222222222,-0.29444444444444445,0.09505884075762444,-0.03013086940927968,0.017505480080087555
1592167924.3994095,-0.10507733309036241,8.548807999817772,4.602902667365208,-0.38333333333333336,-0.17222222222222222,-0.29444444444444445,0.09980258086687843,-0.04383670760513291,0.018747599607714424
1592167924.4094095,-0.055422994642951855,8.492288502678525,4.791101642474497,-0.38333333333333336,-0.17222222222222222,-0.29444444444444445,0.10990568049086871,-0.04364252711211692,0.01891393077144436
1592167924.4194095,-0.15924046604550837,8.440379766977246,4.798517176146108,-0.38333333333333336,-0.17222222222222222,-0.29444444444444445,0.13012841148494983,-0.03636234395424772,0.014060475332864891
1592167924.4294095,-0.27,8.48,4.7,-0.3977777777777778,-0.17888888888888888,-0.29444444444444445,0.16689710972195776,-0.020725784867432664,-0.02945243112740431
1592167924.4394095,-0.659335675173055,8.54488927919551,4.6629204118882805,-0.3977777777777778,-0.17888888888888888,-0.29444444444444445,0.1871208877792344,-0.011625084741658171,-0.04866502028181713
1592167924.4494095,-0.5377979910985723,8.64,4.339265997032857,-0.3977777777777778,-0.17888888888888888,-0.29444444444444445,0.1836418410983615,-0.045746870146113866,-0.012381408246417928
1592167924.4594095,-0.42,8.64,4.3,-0.3977777777777778,-0.17888888888888888,-0.29444444444444445,0.16907877128695067,-0.06544984694978735,0.002181661564992912
1592167924.4694095,-0.4696420521143269,8.673094701409552,4.2255369218285095,-0.3977777777777778,-0.17888888888888888,-0.29444444444444445,0.16546869938344394,-0.08169517051556768,-0.015868697952540787
1592167924.4794095,-0.69,8.82,4.09,-0.4033333333333333,-0.17888888888888888,-0.2877777777777778,0.14180800172453928,-0.11999138607461016,-0.038179077387375956
1592167924.4894094,-0.7627511760752689,8.824497647849462,4.087799059139785,-0.4033333333333333,-0.17888888888888888,-0.2877777777777778,0.08342509613447358,-0.1623928509616393,-0.042171825947098375
1592167924.4994094,-0.81,8.73,4.05,-0.4033333333333333,-0.17888888888888888,-0.2877777777777778,0.017453292519943295,-0.1974403716318585,-0.0545415391248228
1592167924.5094094,-0.8823480585817471,8.669411389121672,4.147651941418252,-0.4033333333333333,-0.17888888888888888,-0.2877777777777778,-0.023934766216412023,-0.2286906123812391,-0.07302215142875253
1592167924.5194094,-0.7735530148848717,8.661042539606528,4.256446985115128,-0.4033333333333333,-0.17888888888888888,-0.2877777777777778,-0.03854116408073186,-0.2542518086437988,-0.08762854929307237
1592167924.5294094,-0.583523950252432,8.636761975126216,4.34809506218446,-0.3977777777777778,-0.18666666666666668,-0.26666666666666666,-0.07575542409044972,-0.2733829334450239,-0.11243860859611776
1592167924.5394094,-0.55,8.62,4.39,-0.3977777777777778,-0.18666666666666668,-0.26666666666666666,-0.11780972450961724,-0.2825251726665821,-0.12980886311707826
1592167924.5494094,-0.7077180361313182,8.609066115480632,4.470933884519368,-0.3977777777777778,-0.18666666666666668,-0.26666666666666666,-0.17174481056123025,-0.2856189002990917,-0.15683070903623936
1592167924.5594094,-0.8046659333128956,8.442332966656448,4.63638919445296,-0.3977777777777778,-0.18666666666666668,-0.26666666666666666,-0.20969399742365866,-0.3009784933994223,-0.17144841148172982
1592167924.5694094,-0.7139015021730113,8.396950751086505,4.674207707427912,-0.3977777777777778,-0.18666666666666668,-0.26666666666666666,-0.2047435656515004,-0.313354572829818,-0.1854746348361783
1592167924.5794094,-0.7213121683604641,8.520271607158918,4.672895943879845,-0.41555555555555557,-0.17888888888888888,-0.25222222222222224,-0.1508061048399087,-0.3278810316946403,-0.169478549633805
1592167924.5894094,-0.669006509688247,8.635032548441234,4.694967451558766,-0.41555555555555557,-0.17888888888888888,-0.25222222222222224,-0.1329729824831504,-0.3298785901762471,-0.13052300972049977
1592167924.5994093,-0.6170284638908492,8.573118325099976,4.769159256645495,-0.41555555555555557,-0.17888888888888888,-0.25222222222222224,-0.1323253437846356,-0.30846734061538406,-0.041634991481119966
1592167924.6094093,-0.3397571555555556,8.456701511111111,4.9204688,-0.41555555555555557,-0.17888888888888888,-0.25222222222222224,-0.13012893710934678,-0.271179427153426,-0.012321054891717746
1592167924.6194093,-0.0564088888888889,8.292657777777778,4.8533599999999995,-0.41555555555555557,-0.17888888888888888,-0.25222222222222224,-0.10166058079185859,-0.2296969650908004,-0.052990135345272284
1592167924.6294093,-0.33,8.57,4.77,-0.4033333333333333,-0.1988888888888889,-0.26666666666666666,-0.011999138607461015,-0.148352986419518,-0.10471975511965977
1592167924.6394093,-0.7501672592113768,8.579665481577246,4.7994982223658695,-0.4033333333333333,-0.1988888888888889,-0.26666666666666666,0.007386465099026382,-0.08824174076780983,-0.07624260216034881
1592167924.6494093,-0.7947438469442678,8.513856730439889,4.696484806967755,-0.4033333333333333,-0.1988888888888889,-0.26666666666666666,-0.0345417649391691,-0.0674974831639534,-0.05241576148747454
1592167924.6594093,-0.9,8.47,4.6,-0.4033333333333333,-0.1988888888888889,-0.26666666666666666,-0.016362461737446838,-0.06654067773228381,-0.02945243112740431
1592167924.6694093,-0.702790802019069,8.554518227706113,4.4520931015143015,-0.4033333333333333,-0.1988888888888889,-0.26666666666666666,0.011296063601715124,-0.07806506329026797,-0.023306092163146098
1592167924.6794093,-0.77,8.74,4.28,-0.4033333333333333,-0.17888888888888888,-0.27111111111111114,0.056723200689815706,-0.10035643198967394,-0.061086523819801536
1592167924.6894093,-0.6506842229014813,8.843407006818715,4.272045614860098,-0.4033333333333333,-0.17888888888888888,-0.27111111111111114,0.0541201342398847,-0.1272547853056276,-0.05154194683672121
1592167924.6994092,-0.45,8.65,4.29,-0.4033333333333333,-0.17888888888888888,-0.27111111111111114,0.00545415391248228,-0.15271630954950383,-0.001090830782496456
1592167924.7094092,-0.35339611872146115,8.505094178082192,4.3769434931506845,-0.4033333333333333,-0.17888888888888888,-0.27111111111111114,-0.028266962057841953,-0.14533981543099542,0.006285663336011969
1592167924.7194092,-0.3898422205423427,8.43625244713225,4.4118737764338745,-0.4033333333333333,-0.17888888888888888,-0.27111111111111114,-0.017283317356436307,-0.10944237517133662,-0.023877799732441276
1592167924.7294092,-0.49,8.77,4.39,-0.41,-0.21333333333333335,-0.27111111111111114,0.014180800172453926,-0.053450708342326333,-0.07526732399225547
1592167924.7394092,-0.519159137221731,8.818598562036218,4.448318274443462,-0.41,-0.21333333333333335,-0.27111111111111114,-0.019747396598215186,-0.021643023869824043,-0.07738783629042228
1592167924.7494092,-0.5002226594366332,8.592560583521282,4.479666010845051,-0.41,-0.21333333333333335,-0.27111111111111114,-0.09731253305008142,-0.004545485955605461,-0.051560507298324856
1592167924.7594092,-0.47027312978999586,8.47204847342497,4.57068282447499,-0.41,-0.21333333333333335,-0.27111111111111114,-0.0996115860333131,0.017617158630342678,-0.0270920065328848
1592167924.7694092,-0.485189643828796,8.58392232871597,4.60797410957199,-0.41,-0.21333333333333335,-0.27111111111111114,-0.05893310433065396,0.02656642460492769,-0.017329170924246604
1592167924.7794092,-0.5985070119411274,8.65945709525132,4.669321369064149,-0.42205633466012527,-0.20566112036779907,-0.2853595066185319,-0.010306056242223437,0.02622435507080179,0.026708163211177978
1592167924.7894092,-0.5405295548876485,8.640176518295883,4.660088259147941,-0.4222222222222222,-0.20555555555555555,-0.28555555555555556,-0.026035525086797837,0.013205500344451155,0.08673694572495375
1592167924.7994092,-0.21588617463617454,8.502497164997164,4.365351067851068,-0.4222222222222222,-0.20555555555555555,-0.28555555555555556,-0.05189290879733613,0.0077331006363280585,0.10333706886060473
1592167924.8094091,-0.27,8.58,4.31,-0.4222222222222222,-0.20555555555555555,-0.28555555555555556,-0.0272707695624114,0.04690572364734761,0.07744898555724837
1592167924.8194091,-0.19094023214871841,8.665141288455226,4.237021752752663,-0.4222222222222222,-0.20555555555555555,-0.28555555555555556,-0.014002949804072684,0.08073866403111134,0.06882490271432821
1592167924.8294091,-0.4,8.72,4.17,-0.43,-0.22555555555555556,-0.30666666666666664,-0.05781403147231216,0.15489797111449674,0.05235987755982988
1592167924.839409,-0.7968327715081343,8.735562069470907,4.201124138941815,-0.43,-0.22555555555555556,-0.30666666666666664,-0.10958956394786468,0.1684784386490679,0.023501384048866193
1592167924.849409,-1.191058764655419,8.748941235344581,4.278117195691545,-0.43,-0.22555555555555556,-0.30666666666666664,-0.1793324350735397,0.14814778629090714,0.014090911390500997
1592167924.859409,-1.218863459442628,8.713464891795113,4.506819243344232,-0.43,-0.22555555555555556,-0.30666666666666664,-0.2525337797630214,0.08082651898195618,0.04250537714657177
1592167924.869409,-1.1862128288961544,8.525723766152888,4.702723026623073,-0.43,-0.22555555555555556,-0.30666666666666664,-0.29972539431313794,0.021169194928035248,0.0727792430843824
1592167924.879409,-0.52,8.27,4.85,-0.43,-0.22555555555555556,-0.3511111111111111,-0.29343348049154666,-0.04690572364734761,0.10362892433716332
1592167924.889409,-0.23512483415752017,8.402941744059824,4.70756241707876,-0.43,-0.22555555555555556,-0.3511111111111111,-0.23439086647829227,-0.05208490031517694,0.06323134632809453
1592167924.899409,-0.2495619006102877,8.55780950305144,4.542336530078465,-0.43,-0.22555555555555556,-0.3511111111111111,-0.1968592926361259,-0.02226264846334746,0.019165383292558152
1592167924.909409,-0.19002466329762796,8.569995889450396,4.729921899557512,-0.43,-0.22555555555555556,-0.3511111111111111,-0.22688024779994595,-0.0032801150013603356,0.006549917000424652
1592167924.919409,-0.1982461695808666,8.4710459650296,4.8289540349703985,-0.43,-0.22555555555555556,-0.3511111111111111,-0.260174952540295,0.009320753515603875,0.02183678324302053
1592167924.929409,-0.29,8.41,4.97,-0.42777777777777776,-0.22555555555555556,-0.34444444444444444,-0.2650718801466388,0.03381575425739013,0.04799655442984406
1592167924.939409,-0.1997961355821189,8.389183723595874,5.032448829212379,-0.42777777777777776,-0.22555555555555556,-0.34444444444444444,-0.2400941415602055,0.048196876473821426,0.049510356768415774
1592167924.949409,-0.3069221587518117,8.321231136499275,5.148153295251087,-0.42777777777777776,-0.22555555555555556,-0.34444444444444444,-0.18847343693027124,0.0833896375363381,0.02560390994058318
1592167924.959409,-0.7674811683865026,8.290799074358308,5.286270986327894,-0.42777777777777776,-0.22555555555555556,-0.34444444444444444,-0.11860747936013787,0.10204415577372394,0.014471351808302708
1592167924.969409,-0.7880727466919837,8.322290986767934,5.322290986767935,-0.42777777777777776,-0.22555555555555556,-0.34444444444444444,-0.05155448935437071,0.0893290926682986,0.04236000206337288
1592167924.979409,-0.28,8.26,5.4,-0.4477777777777778,-0.23777777777777778,-0.3566666666666667,0.04690572364734761,0.04581489286485115,0.09926560120717749
1592167924.989409,-0.49574201628052605,8.283115216030057,5.322949279899812,-0.4477777777777778,-0.23777777777777778,-0.3566666666666667,0.09817579499961764,0.03656947016198278,0.09506313634223733
1592167924.999409,-0.6905588296112489,8.317976892059553,4.9736029259718775,-0.4477777777777778,-0.23777777777777778,-0.3566666666666667,0.20093149254343695,0.02364306923834298,0.06837973474707731
1592167925.009409,-0.5008741140735741,8.357928740176462,4.95,-0.4477777777777778,-0.23777777777777778,-0.3566666666666667,0.26931860466301893,-0.010191623428210343,0.045853759069386366
1592167925.019409,-0.19507461191787678,8.471593390085127,4.910145217826741,-0.4477777777777778,-0.23777777777777778,-0.3566666666666667,0.2953146037007411,-0.03634503961305944,0.03342060804404114
1592167925.029409,-0.18584010880170299,8.462377080684742,4.758914052567779,-0.4477777777777778,-0.23255237231732515,-0.38383877506102027,0.3031213078948451,-0.05588047803521285,0.030543261909900768
1592167925.039409,-0.17838153894129571,8.430953847353239,4.755809230529352,-0.4477777777777778,-0.23222222222222222,-0.38555555555555554,0.29628038130157575,-0.06622853191586897,0.02357268567746171
1592167925.049409,-0.1432929961755808,8.41890233460814,4.635367315486044,-0.4477777777777778,-0.23222222222222222,-0.38555555555555554,0.2931940070518822,-0.0798833208659122,0.0010644301744835265
1592167925.059409,-0.11320257913247363,8.553987104337633,4.62,-0.4477777777777778,-0.23222222222222222,-0.38555555555555554,0.2973310073680547,-0.09533720369164307,0.018396803600043983
1592167925.069409,0.026147917383124622,8.501926041308439,4.574617360872291,-0.4477777777777778,-0.23222222222222222,-0.38555555555555554,0.2746945730708641,-0.10038425829228007,0.024851183180052014
1592167925.079409,-0.037283817725152504,8.314197736242946,4.589259223015951,-0.43910837836564426,-0.23222222222222222,-0.39205760511465576,0.24810342502899502,-0.08761662294582169,-0.029142620525479893
1592167925.0894089,-0.010798990748528175,8.609310344827588,4.356391925988225,-0.4388888888888889,-0.23222222222222222,-0.39222222222222225,0.24602591963812204,-0.08647012860542974,-0.0568222837213629
1592167925.0994089,0.12310236299145728,8.728793025927962,4.252413948144078,-0.4388888888888889,-0.23222222222222222,-0.39222222222222225,0.21282513465977004,-0.08042060980511427,-0.03872473800710604
1592167925.1094089,0.049101819874102934,8.630012001861513,4.349987998138487,-0.4388888888888889,-0.23222222222222222,-0.39222222222222225,0.11018569183212933,-0.06971519382681768,-0.03292349438080187
1592167925.1194088,0.09276952809166025,8.589845983947622,4.41276952809166,-0.4388888888888889,-0.23222222222222222,-0.39222222222222225,0.022235725790838587,-0.07201163218985927,-0.021212398350854783
1592167925.1294088,0.22324931356397584,8.612356946732564,4.543249313563976,-0.4442817133443163,-0.23401983037403137,-0.3985138507535542,-0.0368036481947949,-0.06073207869404472,0.01431306565118826
1592167925.1394088,0.34341975578374967,8.5350729492875,4.536029179715,-0.44555555555555554,-0.23444444444444446,-0.4,-0.07344278484934269,-0.034653771176354105,0.03849200306301892
1592167925.1494088,0.36869440389294406,8.528694403892944,4.564777615571776,-0.44555555555555554,-0.23444444444444446,-0.4,-0.107940598885574,0.0035995823368685995,0.030070621652608872
1592167925.1594088,0.18024948122995663,8.495499905678175,4.6907503301263915,-0.44555555555555554,-0.23444444444444446,-0.4,-0.10765134998647506,0.04071534641245886,0.03965172981049157
1592167925.1694088,0.2509749277658682,8.463073352595767,4.669610028893653,-0.44555555555555554,-0.23444444444444446,-0.4,-0.11865038302783829,0.053157996829342156,0.038514328149068924
1592167925.1794088,0.1258654351580686,8.559979725163325,4.686659908387775,-0.4526838710754007,-0.26397603731237435,-0.4193482849824368,-0.13535189225663935,0.0797173107077246,0.015093880500792738
1592167925.1894088,-0.07606730573118499,8.48243891495003,4.766615949418723,-0.4533333333333333,-0.26666666666666666,-0.4211111111111111,-0.13456295418228267,0.07942445051420177,0.016671756649506105
1592167925.1994088,-0.09392853203926327,8.358973199514724,4.7449553325245395,-0.4533333333333333,-0.26666666666666666,-0.4211111111111111,-0.08020283099800539,0.05240126344150836,0.04189959596559399
1592167925.2094088,0.02078057420603864,8.41408040532191,4.623199324463484,-0.4533333333333333,-0.26666666666666666,-0.4211111111111111,0.0030744290740517682,0.033433871371513074,0.052222473410516786
1592167925.2194088,0.1766165006044941,8.76369658565056,4.459768207779214,-0.4533333333333333,-0.26666666666666666,-0.4211111111111111,0.08504309962030954,0.010278830204115103,0.03622365850145587
1592167925.2294087,0.21256670594989877,8.602935061795545,4.524066116701417,-0.4475518824054768,-0.255929686372076,-0.4417591501391701,0.050305715268601704,0.0035524765334660063,0.03535012956619948
1592167925.2394087,0.20223037792385776,8.396764535086293,4.62992659868528,-0.44555555555555554,-0.25222222222222224,-0.4488888888888889,-0.015945472534233347,-0.0035077819957266237,0.04350757963438241
1592167925.2494087,0.16198307276360643,8.43082708357823,4.482725520159868,-0.44555555555555554,-0.25222222222222224,-0.4488888888888889,0.0001445636092848833,0.000351650915471762,0.024818445529369407
1592167925.2594087,0.08764772308825336,8.629262796121271,4.468970173069842,-0.44555555555555554,-0.25222222222222224,-0.4488888888888889,0.04552576312485816,-0.008020705887118534,0.013442939576384028
1592167925.2694087,0.09504426459971883,8.623650404650633,4.542610661499297,-0.44555555555555554,-0.25222222222222224,-0.4488888888888889,0.03514307884454956,-0.02183592972510839,0.018828902295050912
1592167925.2794087,0.21943859994100878,8.53163274669813,4.550816373349065,-0.44960883703485216,-0.26276075406839344,-0.45051020148060755,-0.03200689062769932,-0.03313676008926654,0.016540566773280658
1592167925.2894087,0.1908377620144607,8.56379285176653,4.547684693109504,-0.45111111111111113,-0.26666666666666666,-0.45111111111111113,-0.06912527715560143,-0.02317080532284651,-0.011805569200991971
1592167925.2994087,0.1551654145863469,8.654172927068265,4.483244365638561,-0.45111111111111113,-0.26666666666666666,-0.45111111111111113,-0.07984020105493402,-0.012353043998282623,-0.02691686417158979
1592167925.3094087,0.15,8.579326392285653,4.625392355530711,-0.45111111111111113,-0.26666666666666666,-0.45111111111111113,-0.11162001633460328,-0.0035421701693377685,-0.01690181738114364
1592167925.3194087,0.19648699101621747,8.487702135106755,4.771352234278381,-0.45111111111111113,-0.26666666666666666,-0.45111111111111113,-0.1378428426481108,-0.00045696277266987816,0.007016901687336322
1592167925.3294086,0.27833141542002304,8.415477560414269,4.823095512082854,-0.4595499296765119,-0.27126965861143076,-0.47566040148318633,-0.13103024211750294,0.0037658139786989273,0.02825741282483052
1592167925.3394086,0.18984261791660667,8.43934192217264,4.701974233482079,-0.4633333333333333,-0.2733333333333333,-0.4866666666666667,-0.07434034550881399,0.01747046024206118,0.030775785097427302
1592167925.3494086,0.09955799337218604,8.47266575248543,4.602002742543709,-0.4633333333333333,-0.2733333333333333,-0.4866666666666667,-0.01493412284996954,0.03556048517916438,0.011587811511576913
1592167925.3594086,0.03066383957774118,8.522288137504793,4.629336160422259,-0.4633333333333333,-0.2733333333333333,-0.4866666666666667,0.030752801416447578,0.04728011927106957,0.0031476938062487115
1592167925.3694086,0.038489623442529076,8.522906225934483,4.672791698754024,-0.4633333333333333,-0.2733333333333333,-0.4866666666666667,0.059793457580936786,0.05266440465346444,-0.004033810081575762
1592167925.3794086,-0.11665205959684488,8.51,4.759124718972679,-0.46930707447912035,-0.2682129837798016,-0.48495988348215613,0.06864357069868544,0.06459532196306472,-0.02213169004429421
1592167925.3894086,-0.19572906867356538,8.525437441204138,4.764562558795861,-0.4711111111111111,-0.26666666666666666,-0.48444444444444446,0.07212207813303473,0.06426358130108942,-0.03179315080273302
1592167925.3994086,-0.18260258642128824,8.547479482715742,4.637807759263865,-0.4711111111111111,-0.26666666666666666,-0.48444444444444446,0.0967552797334568,0.04721647884788223,-0.014243466651130045
1592167925.4094086,-0.2865384333553162,8.542230771109645,4.662153831122835,-0.4711111111111111,-0.26666666666666666,-0.48444444444444446,0.09006906188938832,0.037457452099446155,-0.010782441709908424
1592167925.4194086,-0.26341383287316955,8.547544822283577,4.6422758885821125,-0.4711111111111111,-0.26666666666666666,-0.48444444444444446,0.07671098876251987,0.031059341185148186,-0.021875287881930727
1592167925.4294086,-0.1764528554232981,8.611622843386385,4.573547144576702,-0.4711111111111111,-0.27096857028219873,-0.512406817945403,0.04771247449140925,0.015164575768619515,-0.02621282272513023
1592167925.4394085,-0.05980163903892716,8.64,4.483190072639226,-0.4711111111111111,-0.2733333333333333,-0.5277777777777778,0.015594369769998923,-0.0007464541432095333,3.245673635757229e-05
1592167925.4494085,-0.08008392417884531,8.526547774079969,4.480041962089423,-0.4711111111111111,-0.2733333333333333,-0.5277777777777778,-0.034582645179382525,-0.006544984694978735,0.017097311182251163
1592167925.4594085,-0.06767414842697152,8.417674148426972,4.604651703146057,-0.4711111111111111,-0.2733333333333333,-0.5277777777777778,-0.07057430322718636,0.002016812747451275,0.015731403026015157
1592167925.4694085,-0.06349238049754699,8.454604046368255,4.730477141492641,-0.4711111111111111,-0.2733333333333333,-0.5277777777777778,-0.07514606005709364,0.018076780005358388,-0.006770344755696376
1592167925.4794085,-0.1810760948273148,8.435022510468155,4.924394421181878,-0.4711111111111111,-0.26852018596060406,-0.517349291803531,-0.043643053344494885,0.043506025518969565,-0.015212939086824374
1592167925.4894085,-0.2526935596851951,8.401826610078702,4.98,-0.4711111111111111,-0.26666666666666666,-0.5133333333333333,-0.02960439861166903,0.052407162325711715,-0.012198390857607572
1592167925.4994085,-0.2643053040103493,8.37572212160414,4.915749547218629,-0.4711111111111111,-0.26666666666666666,-0.5133333333333333,-0.014186783513356624,0.05563236990731925,-0.03349169425623556
1592167925.5094085,-0.29727037933817596,8.396589588377724,4.878182405165456,-0.4711111111111111,-0.26666666666666666,-0.5133333333333333,0.0021066944615792133,0.056599194623863626,-0.049632448438687214
1592167925.5194085,-0.48911371662012143,8.527811757102961,4.765235303621298,-0.4711111111111111,-0.26666666666666666,-0.5133333333333333,0.05951529646794152,0.052124173315692704,-0.06160926759474496
1592167925.5294085,-0.44641545920798187,8.605896135198003,4.602889493007483,-0.4797431561771126,-0.2882467793316704,-0.5212460413105013,0.09805508200469634,0.028544327723259957,-0.03804022047714085
1592167925.5394084,-0.3775812098021656,8.626209395098916,4.518953024505414,-0.48444444444444446,-0.3,-0.5255555555555556,0.10216003716444562,0.010754714090671014,-0.023206729973662493
1592167925.5494084,-0.3221427178787288,8.653928641060636,4.4012497562877755,-0.48444444444444446,-0.3,-0.5255555555555556,0.06504065248195284,-0.023258154164992675,-0.011901731608361117
1592167925.5594084,-0.318506075768406,8.611798903979032,4.462225399094591,-0.48444444444444446,-0.3,-0.5255555555555556,0.044790598341663504,-0.0311618411956624,-0.007196832110394773
1592167925.5694084,-0.3104871272457863,8.440811878742977,4.753619806136939,-0.48444444444444446,-0.3,-0.5255555555555556,0.0170052955843894,-0.035407719314910116,0.0027182207329962006
1592167925.5794084,-0.38297405469929435,8.353656215988485,4.918744865358284,-0.4642534533269358,-0.2872123722922445,-0.5356510511143099,0.018176542856194588,-0.036196831469767765,-0.00796023451895704
1592167925.5894084,-0.44145667394200516,8.36417330423198,4.93796252728252,-0.45111111111111113,-0.2788888888888889,-0.5422222222222223,0.0338576510149593,-0.038634314259472544,-0.023892004775242892
1592167925.5994084,-0.4710928648261025,8.546001792757261,4.73854284689853,-0.45111111111111113,-0.2788888888888889,-0.5422222222222223,0.10361003329134238,-0.06568827306847141,-0.07007146504168091
1592167925.6094084,-0.53,8.618550229809587,4.653816590063472,-0.45111111111111113,-0.2788888888888889,-0.5422222222222223,0.15155118099079531,-0.09472794569868895,-0.07522540018279904
1592167925.6194084,-0.41966465682627935,8.59162248933088,4.61641967816452,-0.45111111111111113,-0.2788888888888889,-0.5422222222222223,0.15839169612528559,-0.1209418109921265,-0.06196378820599896
1592167925.6294084,-0.12569008545715799,8.596482643878092,4.603241321939046,-0.4582126261480417,-0.2827624425453965,-0.5448045913265607,0.15335011828442938,-0.1493102578707839,-0.0395069161739647
1592167925.6394083,0.05932968861421441,8.619351081530782,4.609351081530782,-0.4633333333333333,-0.28555555555555556,-0.5466666666666666,0.15214768775106915,-0.1589050305185139,-0.02314651131986597
1592167925.6494083,0.14840356866232537,8.565892595886286,4.538214808227431,-0.4633333333333333,-0.28555555555555556,-0.5466666666666666,0.1178303150789073,-0.15043807884039365,-0.015640508813295952
1592167925.6594083,-0.02,8.545252466142786,4.567121300785822,-0.4633333333333333,-0.28555555555555556,-0.5466666666666666,0.10112772832459745,-0.1353236136735138,-0.033749640537501326
1592167925.6694083,-0.0049380542955791765,8.44004129713628,4.689793514318597,-0.4633333333333333,-0.28555555555555556,-0.5466666666666666,0.12060212133770984,-0.12215953318335793,-0.008097891721878431
1592167925.6794083,0.15134629059018725,8.491880382397092,4.530063996207632,-0.45693494157822195,-0.28555555555555556,-0.5478300106221414,0.16090921834909777,-0.11775844503457691,0.005717532191008721
1592167925.6894083,0.09043689923250789,8.648476937979682,4.347066143414222,-0.45111111111111113,-0.28555555555555556,-0.5488888888888889,0.21363056983598247,-0.1083184048144503,-0.021324318009086598
1592167925.6994083,0.07694703599238206,8.785395964417445,4.203828499795087,-0.45111111111111113,-0.28555555555555556,-0.5488888888888889,0.22982869198686706,-0.09515249516201252,-0.02391189117985776
1592167925.7094083,0.17534207511759975,8.7439737746472,4.238697262911599,-0.45111111111111113,-0.28555555555555556,-0.5488888888888889,0.17436936306109374,-0.08501017182108278,-0.005995993375966102
1592167925.7194083,0.24272579111775092,8.671754040472633,4.3069475757164195,-0.45111111111111113,-0.28555555555555556,-0.5488888888888889,0.13577324672057203,-0.07647163791741012,0.005751491598272092
1592167925.7294083,0.3513796357189832,8.591259257141225,4.462518514282446,-0.4614259253964169,-0.2947242793647163,-0.563788065078775,0.1065448763056541,-0.027571759384591096,0.022104474206291448
1592167925.7394083,0.26065051625378527,8.631086869276515,4.52913130723485,-0.4711111111111111,-0.30333333333333334,-0.5777777777777777,0.11591234198725164,0.0005213971353017649,0.016907658238210055
1592167925.7494082,0.36548690961715563,8.598527299039601,4.370878831732667,-0.4711111111111111,-0.30333333333333334,-0.5777777777777777,0.14457783075157446,0.04771931894693041,0.044296541374414036
1592167925.7594082,0.3151807766352068,8.610433863924497,4.29,-0.4711111111111111,-0.30333333333333334,-0.5777777777777777,0.14618710059200027,0.0830214575007945,0.04633270071551781
1592167925.7694082,0.2786044315006494,8.690465189499784,4.285906962100044,-0.4711111111111111,-0.30333333333333334,-0.5777777777777777,0.1492459487665575,0.1108741117186908,0.036738145261605126
1592167925.7794082,0.17793708062177563,8.7039161074957,4.284020973126075,-0.4594949665246728,-0.30333333333333334,-0.5777777777777777,0.14746430710145156,0.13201340281359875,0.0266071198403025
1592167925.7894082,0.15462586846018955,8.733741315398104,4.3114965261592415,-0.44222222222222224,-0.30333333333333334,-0.5777777777777777,0.13879524482806851,0.14263909705601713,0.03044677213901336
1592167925.7994082,0.14503867403314918,8.72046408839779,4.305193370165746,-0.44222222222222224,-0.30333333333333334,-0.5777777777777777,0.1336394269035686,0.1429241446025412,0.04573895657833482
1592167925.8094082,0.15470463126702672,8.645295368732974,4.363326243846485,-0.44222222222222224,-0.30333333333333334,-0.5777777777777777,0.12129701506118278,0.14283439304581289,0.06204847567985229
1592167925.8194082,0.17397454194792672,8.618076374156221,4.457949083895853,-0.44222222222222224,-0.30333333333333334,-0.5777777777777777,0.11407590646495175,0.14877265647639823,0.07002300510821328
1592167925.8294082,0.19683976961571145,8.593264092153715,4.436320460768577,-0.439976919606794,-0.30520441884619015,-0.5822683830086341,0.13027821595211145,0.15381846989352183,0.0745665391141414
1592167925.8394082,0.23,8.658362979302577,4.281841648284601,-0.43555555555555553,-0.3088888888888889,-0.5911111111111111,0.15801421361225698,0.16186560346165077,0.07321959086988754
1592167925.8494081,0.2613542879317035,8.792257146552839,4.095937136204889,-0.43555555555555553,-0.3088888888888889,-0.5911111111111111,0.16808642710207194,0.1679879405044542,0.06312045548836788
1592167925.8594081,0.17720977694542484,8.856918533458186,4.0833136449854734,-0.43555555555555553,-0.3088888888888889,-0.5911111111111111,0.15663574686946422,0.1710638166862685,0.0519984149645879
1592167925.8694081,0.09,8.87,4.14,-0.43555555555555553,-0.3088888888888889,-0.5911111111111111,0.1461713248545251,0.17344209441693648,0.04581489286485115
1592167925.8794081,0.16237187409608456,8.720512503615662,4.257115622288254,-0.44105416626492644,-0.3052231484159749,-0.5970679393795962,0.09950092624174586,0.15244587507535579,0.07283863424616761
1592167925.889408,0.14484370094631566,8.671972686908553,4.301210925236579,-0.4488888888888889,-0.3,-0.6055555555555555,0.0820274954476419,0.13531201317382524,0.07366302438087209
1592167925.899408,0.09578352824085594,8.7,4.201454093057975,-0.4488888888888889,-0.3,-0.6055555555555555,0.09382376969268609,0.12244973161563613,0.06188834822827405
1592167925.909408,0.12991911380995302,8.757660942169931,4.08,-0.4488888888888889,-0.3,-0.6055555555555555,0.10193991939958945,0.1065495708432848,0.05225436003217154
1592167925.919408,0.187076027869229,8.826461986065386,4.101228083607687,-0.4488888888888889,-0.3,-0.6055555555555555,0.08627769101760366,0.09810778885454383,0.033665839147170314
1592167925.929408,0.22200174766417963,8.803498689251866,4.156501310748134,-0.4488888888888889,-0.3058060167447141,-0.6076946143562396,0.06294065018916281,0.09629311115494821,0.020753317767804206
1592167925.939408,0.270534776750453,8.726871718626585,4.190534776750453,-0.4488888888888889,-0.3211111111111111,-0.6133333333333333,0.04364199930270969,0.09966517886313633,0.03667990094606921
1592167925.949408,0.22430096570250804,8.725699034297492,4.135376207128135,-0.4488888888888889,-0.3211111111111111,-0.6133333333333333,0.026396912578364767,0.10302486362363063,0.03596220084100697
1592167925.959408,0.20107360744255628,8.778429442977021,4.1179324933966015,-0.4488888888888889,-0.3211111111111111,-0.6133333333333333,0.019003878096371486,0.10500818871895852,0.02095131485203286
1592167925.969408,0.2528747647919716,8.78019652937487,4.183071294166841,-0.4488888888888889,-0.3211111111111111,-0.6133333333333333,0.015713847322765692,0.1076143451868655,0.018836273466014488
1592167925.979408,0.3090679085285327,8.755466045735734,4.207733022867867,-0.4398209803603562,-0.31909602032699275,-0.6163559695095109,0.005657504726318069,0.11056681131301344,0.02543807224823102
1592167925.989408,0.23922883524307487,8.748762709978863,4.230669484926021,-0.4088888888888889,-0.31222222222222223,-0.6266666666666667,0.0027326227307166197,0.11849565307953414,0.02242951474327394
1592167925.999408,0.08222697665573146,8.732226976655731,4.238259401892265,-0.4088888888888889,-0.31222222222222223,-0.6266666666666667,0.011530972892936435,0.11741229968737266,0.025711773065390364
1592167926.009408,0.03207396421395082,8.686036982106975,4.1979260357860495,-0.4088888888888889,-0.31222222222222223,-0.6266666666666667,0.017453292519943295,0.09979875244983293,0.03206639088332677
1592167926.019408,0.05583300834568286,8.719090554558926,4.203484907573512,-0.4088888888888889,-0.31222222222222223,-0.6266666666666667,0.01994069469931114,0.07617642054564244,0.028460805453120228
1592167926.029408,0.15741485203796762,8.81142285501582,4.17857714498418,-0.4109196186694791,-0.31476063444796,-0.6238744132183551,0.028079604447478562,0.05550994836221496,0.018887329972421187
1592167926.039408,0.2715840983233442,8.845683180335332,4.1615840983233445,-0.4177777777777778,-0.3233333333333333,-0.6144444444444445,0.03205748168285712,0.03188468336149663,0.03001832907829656
1592167926.049408,0.4498628950786549,8.769751767931881,4.086969259633425,-0.4177777777777778,-0.3233333333333333,-0.6144444444444445,0.016335383819336087,0.018682346628609747,0.06638749857925032
1592167926.059408,0.62,8.69,3.97,-0.4177777777777778,-0.3233333333333333,-0.6144444444444445,0.007635815477475192,0.016362461737446838,0.08726646259971647
1592167926.069408,0.4354165220811067,8.79708330441622,4.012916695583779,-0.4177777777777778,-0.3233333333333333,-0.6144444444444445,-0.008226666379489489,0.04240613183747466,0.05622314510451139
1592167926.079408,0.5171200747339272,8.816446468488305,3.9746631968771893,-0.4202964890623784,-0.32249376290513315,-0.6308160677943483,-0.00848455483218109,0.07604400366159977,0.03051876889563392
1592167926.089408,0.71,8.86,3.9,-0.42444444444444446,-0.3211111111111111,-0.6577777777777778,-0.015271630954950384,0.09708393964218458,0.025089107997418484
1592167926.099408,0.2902666604070327,8.973042416844676,3.749163634656463,-0.42444444444444446,-0.3211111111111111,-0.6577777777777778,-0.06300242325030157,0.10453728850723118,0.05893791928493004
1592167926.109408,0.2123504362276693,8.828803489821356,3.806495637723307,-0.42444444444444446,-0.3211111111111111,-0.6577777777777778,-0.13360343151834242,0.09618424217190992,0.06425880430323626
1592167926.119408,0.19638327956346835,8.73,3.991484247421038,-0.42444444444444446,-0.3211111111111111,-0.6577777777777778,-0.18302695473859024,0.08708098617439775,0.034071941125952306
1592167926.129408,0.20186206896551726,8.741862068965517,4.159310344827586,-0.4171954022988506,-0.3211111111111111,-0.6554712643678161,-0.1944913670336612,0.0819326762218545,0.014301167707074226
1592167926.1394079,0.23,8.77,4.3,-0.4,-0.3211111111111111,-0.65,-0.19525871006686563,0.07963064712224129,0.011999138607461015
1592167926.1494079,0.31822954822954824,8.747094017094017,4.390805860805861,-0.4,-0.3211111111111111,-0.65,-0.18797451769876655,0.06678708028999059,0.05346935502236902
1592167926.1594079,0.5050134318334453,8.626422814928524,4.397506715916723,-0.4,-0.3211111111111111,-0.65,-0.16775146999183302,0.07409962328653694,0.08710979238179485
1592167926.1694078,0.5010410806956384,8.606473873945252,4.456473873945252,-0.4,-0.3211111111111111,-0.65,-0.13795550181999777,0.08179969043312459,0.07606184186917103
1592167926.1794078,0.2982959460818831,8.648139020219293,4.503565033698823,-0.4018086711598431,-0.32261833707764703,-0.6539187875129934,-0.11087585496470716,0.08014670960791484,0.05991986927000751
1592167926.1894078,0.24,8.67,4.54,-0.4066666666666667,-0.32666666666666666,-0.6644444444444444,-0.10690141668465267,0.06981317007977318,0.04799655442984406
1592167926.1994078,0.12798128678504955,8.566024950953267,4.622996881130842,-0.4066666666666667,-0.32666666666666666,-0.6644444444444444,-0.10756203903942278,0.043856840909932845,0.030326456616795307
1592167926.2094078,0.2328548636854207,8.490151095678288,4.639924452160856,-0.4066666666666667,-0.32666666666666666,-0.6644444444444444,-0.08262468611433764,0.030551502900749716,0.021136094076408853
1592167926.2194078,0.3879482422429623,8.457622247884444,4.6549185014103704,-0.4066666666666667,-0.32666666666666666,-0.6644444444444444,-0.04613805533035457,0.03390465542768806,-0.005130991446978862
1592167926.2294078,0.462849415296104,8.486356075292353,4.6344384341191915,-0.4056955996081129,-0.3256955996081129,-0.6655920691500079,-0.0006874396354579473,0.0507848887210037,-0.048501586366446685
1592167926.2394078,0.3416801452384882,8.610110579303516,4.561156956593497,-0.39444444444444443,-0.31444444444444447,-0.6788888888888889,0.06129392389595864,0.05427706802076482,-0.07995218925420014
1592167926.2494078,0.25,8.712787248754202,4.514180873131304,-0.39444444444444443,-0.31444444444444447,-0.6788888888888889,0.07776192220575455,0.03736560335518451,-0.07164631509805876
1592167926.2594078,0.22458082989110026,8.664351295531356,4.435878238828389,-0.39444444444444443,-0.31444444444444447,-0.6788888888888889,0.08531777512692967,0.009584502950261996,-0.042001337389374546
1592167926.2694077,0.14891175437912066,8.656652947372528,4.388911754379121,-0.39444444444444443,-0.31444444444444447,-0.6788888888888889,0.10810197739234975,-0.010538711392788003,-0.02762689710906304
1592167926.2794077,0.10744138060401426,8.68383792909398,4.348720690302007,-0.3940890806394464,-0.31444444444444447,-0.6783913795618917,0.128673834351273,-0.021144437987107724,-0.04063984103215224
1592167926.2894077,0.05834914703098838,8.734174573515494,4.3474762794535176,-0.3888888888888889,-0.31444444444444447,-0.6711111111111111,0.13890601966515692,-0.03203668546026319,-0.039004963004932544
1592167926.2994077,0.058868993653671806,8.748868993653673,4.332262012692656,-0.3888888888888889,-0.31444444444444447,-0.6711111111111111,0.1205530452515361,-0.04709726186294144,-0.015956663785653677
1592167926.3094077,0.1955399598968777,8.814958464623318,4.182437696934976,-0.3888888888888889,-0.31444444444444447,-0.6711111111111111,0.10553561280315969,-0.057007235402301897,0.007919850189961379
1592167926.3194077,0.3527575314419421,8.779309739689968,4.178621234279029,-0.3888888888888889,-0.31444444444444447,-0.6711111111111111,0.10652532094718359,-0.05973234944915867,0.014481791620306269
1592167926.3294077,0.2063128329297821,8.703277481840193,4.247951573849879,-0.38806951842884047,-0.3146720473500135,-0.6714752757600215,0.1133570219276225,-0.055301264466898536,0.023864208036908665
1592167926.3394077,0.12585684543039702,8.75950104099361,4.159002081987221,-0.3688888888888889,-0.32,-0.68,0.11030641572206838,-0.07436342788402271,0.020086902139052586
1592167926.3494077,0.1875944505784648,8.74569583793385,4.009430896260381,-0.3688888888888889,-0.32,-0.68,0.10993915340841148,-0.07874692285142326,0.015948248714089966
1592167926.3594077,0.33604408105225736,8.836007346842043,3.902014693684086,-0.3688888888888889,-0.32,-0.68,0.10929483307698126,-0.08017405897312588,0.005230377842964817
1592167926.3694077,0.42490338879349476,8.827934750429273,3.9447101663804847,-0.3688888888888889,-0.32,-0.68,0.0914677338359677,-0.07314889431405655,-0.010000606231800702
1592167926.3794076,0.4513878053787723,8.768857181961268,3.9849387531649905,-0.3705759711672255,-0.3208435411391683,-0.6773287863926337,0.07321032453680672,-0.062025968519570096,-0.025654566368554507
1592167926.3894076,0.53,8.83,3.95,-0.38222222222222224,-0.32666666666666666,-0.6588888888888889,0.06654067773228381,-0.053450708342326333,-0.0370882466048795
1592167926.3994076,0.5454001702852278,8.916200510855683,3.9040985525755643,-0.38222222222222224,-0.32666666666666666,-0.6588888888888889,0.04889071989246514,-0.04501859568124715,-0.027041481482863665
1592167926.4094076,0.56,8.96,3.78,-0.38222222222222224,-0.32666666666666666,-0.6588888888888889,0.02181661564992912,-0.04581489286485115,-0.008726646259971648
1592167926.4194076,0.4351192207036929,8.822342250654259,4.012776970049433,-0.38222222222222224,-0.32666666666666666,-0.6588888888888889,-0.02843503079740798,-0.04634730329474947,0.023387837016924234
1592167926.4294076,0.4063198148618519,8.681840092569074,4.132760138853611,-0.38099549384283954,-0.32692223507903806,-0.6582244110167232,-0.05151995047945705,-0.04923792743361469,0.03603445105596031
1592167926.4394076,0.2924659934522986,8.703109697053534,4.1768630977083046,-0.35555555555555557,-0.3322222222222222,-0.6444444444444445,-0.04935341573793759,-0.056658918781758785,0.00885817770720862
1592167926.4494076,0.1415051814106176,8.68752590705309,4.095346039834391,-0.35555555555555557,-0.3322222222222222,-0.6444444444444445,-0.01297107607676198,-0.0815424270127093,-0.016690841380635462
1592167926.4594076,0.2495376291195278,8.967156910969011,3.962661091982292,-0.35555555555555557,-0.3322222222222222,-0.6444444444444445,0.0004110065811078617,-0.119850806800132,-0.028051467441669805
1592167926.4694076,0.5098705319448353,8.896198662019096,3.93,-0.35555555555555557,-0.3322222222222222,-0.6444444444444445,-0.056506494044073485,-0.14935664804013188,-0.026333092942691566
1592167926.4794075,0.727286379288356,8.810954597627854,3.9336181609488587,-0.35615858238036535,-0.332825249047032,-0.646454533860477,-0.1410077206282109,-0.1537139307127843,-0.05334111748033022
1592167926.4894075,0.7,8.72,3.97,-0.3622222222222222,-0.3388888888888889,-0.6666666666666666,-0.15489797111449674,-0.14180800172453928,-0.074176493209759
1592167926.4994075,0.6949507045888609,8.954393485779178,3.8937376761472153,-0.3622222222222222,-0.3388888888888889,-0.6666666666666666,-0.1573835483945841,-0.13117509024279417,-0.05680549301359719
1592167926.5094075,0.7575201349457129,8.907681214511415,3.9546375709771686,-0.3622222222222222,-0.3388888888888889,-0.6666666666666666,-0.22266820803151746,-0.12627464498325852,-0.03168680585700718
1592167926.5194075,0.7161945610512868,8.806194561051287,4.116293119182332,-0.3622222222222222,-0.3388888888888889,-0.6666666666666666,-0.27639529696622006,-0.1201243802273219,-0.007696937041670558
1592167926.5294075,0.5784004380361379,8.668400438036137,4.223466325971893,-0.3622222222222222,-0.3388888888888889,-0.6666666666666666,-0.2914263040694229,-0.11177382072554258,0.009839237912065996
1592167926.5394075,0.5557932134230706,8.621448303355766,4.212758483221162,-0.35555555555555557,-0.3322222222222222,-0.6666666666666666,-0.2717145824878698,-0.10702926820192205,0.0058829092708159595
1592167926.5494075,0.5741715042755631,8.63659520655185,4.159447669517042,-0.35555555555555557,-0.3322222222222222,-0.6666666666666666,-0.2453766761524104,-0.09303177195303515,-0.01580040076506621
1592167926.5594075,0.47410094929381796,8.686834915489696,4.126908543644362,-0.35555555555555557,-0.3322222222222222,-0.6666666666666666,-0.23988871672356582,-0.07908121593811468,-0.05097884891461325
1592167926.5694075,0.5040361406625788,8.719909648343554,4.374126492319026,-0.35555555555555557,-0.3322222222222222,-0.6666666666666666,-0.2541734281584845,-0.06795185866376206,-0.06893262078432785
1592167926.5794075,0.5418711962646917,8.62913637095476,4.50100756721945,-0.3556515143383603,-0.33243013291829904,-0.6664587559705898,-0.2638397383920611,-0.06105512138156126,-0.061086523819801536
1592167926.5894074,0.67,8.57,4.57,-0.3622222222222222,-0.3466666666666667,-0.6522222222222223,-0.25416357232167425,-0.05890486225480862,-0.061086523819801536
1592167926.5994074,0.5985781442469644,8.567062269036427,4.608625153975716,-0.3622222222222222,-0.3466666666666667,-0.6522222222222223,-0.2065079864920856,-0.05983546466901712,-0.0649845457426831
1592167926.6094074,0.5975049785263562,8.671876244631589,4.547504978526356,-0.3622222222222222,-0.3466666666666667,-0.6522222222222223,-0.1668274393473565,-0.06647317964960288,-0.057060691103220346
1592167926.6194074,0.63,8.68,4.58,-0.3622222222222222,-0.3466666666666667,-0.6522222222222223,-0.15707963267948966,-0.07090400086226964,-0.03490658503988659
1592167926.6294074,0.5804317016317015,8.59738616938617,4.613045532245533,-0.3622222222222222,-0.3466666666666667,-0.6522222222222223,-0.16969611200858167,-0.07180517795720477,-0.014179511856378252
1592167926.6394074,0.3673818485989126,8.563927227101631,4.595236302802174,-0.3477777777777778,-0.31444444444444447,-0.6588888888888889,-0.16223632876253335,-0.07868261434682194,-0.011856340600383897
1592167926.6494074,0.37132237228420434,8.59533059307105,4.618272695243688,-0.3477777777777778,-0.31444444444444447,-0.6588888888888889,-0.13865180487726722,-0.07974694262245859,-0.00904757982148781
1592167926.6594074,0.564838587162932,8.61681470755792,4.54596752753513,-0.3477777777777778,-0.31444444444444447,-0.6588888888888889,-0.14063798938742655,-0.07809118991224925,0.00775896376843496
1592167926.6694074,0.7107170240228091,8.386414879885955,4.805736192182473,-0.3477777777777778,-0.31444444444444447,-0.6588888888888889,-0.1494396353582934,-0.048918409306003385,0.017836004770435992
1592167926.6794074,0.7187971257392745,8.346014371303628,4.870377005914196,-0.3477777777777778,-0.31444444444444447,-0.6588888888888889,-0.1371000022090614,-0.010136705122702816,-0.0024362496890165813
1592167926.6894073,0.59,8.42,4.86,-0.37444444444444447,-0.31444444444444447,-0.6644444444444444,-0.07635815477475191,0.04908738521234052,-0.0370882466048795
1592167926.6994073,0.385363720786256,8.473383377186195,4.913383377186194,-0.37444444444444447,-0.31444444444444447,-0.6644444444444444,-0.017155386481293708,0.07917403795163895,-0.055528453122514025
1592167926.7094073,0.09,8.58,4.65,-0.37444444444444447,-0.31444444444444447,-0.6644444444444444,0.02399827721492203,0.08508480103472357,-0.05781403147231216
1592167926.7194073,0.020774859366408664,8.579709427737598,4.690581144524807,-0.37444444444444447,-0.31444444444444447,-0.6644444444444444,0.02720737652873758,0.05864072461450104,-0.04881268206642063
1592167926.7294073,0.0917353973692002,8.55309922598655,4.7438015480269,-0.37444444444444447,-0.31444444444444447,-0.6644444444444444,0.021401931089040985,0.034451368615765234,-0.023655751827735393
1592167926.7394073,0.18,8.51,4.73,-0.33555555555555555,-0.32666666666666666,-0.6577777777777778,0.014180800172453926,0.011999138607461015,0.016362461737446838
1592167926.7494073,0.18,8.52971420520871,4.680714486978223,-0.33555555555555555,-0.32666666666666666,-0.6577777777777778,0.03461041897186185,0.014149624796872375,0.04216829601038317
1592167926.7594073,0.1526077134856578,8.521738475657104,4.6,-0.33555555555555555,-0.32666666666666666,-0.6577777777777778,0.06635062876144814,0.0281241418050374,0.06212994503326321
1592167926.7694073,0.20749428316731908,8.559498856633464,4.600250571683268,-0.33555555555555555,-0.32666666666666666,-0.6577777777777778,0.08628496433935233,0.04764371817174073,0.06070385999233844
1592167926.7794073,0.12621254990116662,8.543242509980233,4.608378745009883,-0.33555555555555555,-0.32666666666666666,-0.6577777777777778,0.08983154900740775,0.07158316468111475,0.04829081365414449
1592167926.7894073,0.06812682249479288,8.565619532515623,4.58562925248785,-0.3422222222222222,-0.32666666666666666,-0.6577777777777778,0.10417380958616594,0.08842540403833826,0.030270819285399455
1592167926.7994072,0.03966714737625605,8.650665705247489,4.516005768515072,-0.3422222222222222,-0.32666666666666666,-0.6577777777777778,0.11210141047552473,0.0891576554542977,0.02657933325673102
1592167926.8094072,0.030537435224048583,8.669820854925318,4.399731282387976,-0.3422222222222222,-0.32666666666666666,-0.6577777777777778,0.1045047964614634,0.08064331111993907,0.03831586926077364
1592167926.8194072,0.08954697868548783,8.650151007104837,4.370226510657256,-0.3422222222222222,-0.32666666666666666,-0.6577777777777778,0.08090267342290326,0.072060720924099,0.05333540210349373
1592167926.8294072,0.13131854822697853,8.65,4.361736290354605,-0.3422222222222222,-0.32666666666666666,-0.6577777777777778,0.059087136643592525,0.06658624632947978,0.06877503340230419
1592167926.8394072,0.20971238989203062,8.669640487365038,4.360215707580977,-0.3477777777777778,-0.3388888888888889,-0.6433333333333333,0.04026661876462983,0.07863393652748386,0.08833376333527818
1592167926.8494072,0.17092386655260908,8.62115483319076,4.389307100085543,-0.3477777777777778,-0.3388888888888889,-0.6433333333333333,0.027573104184762855,0.09132745110735085,0.08516038469031144
1592167926.8594072,0.11092485271131416,8.600308284237105,4.39,-0.3477777777777778,-0.3388888888888889,-0.6433333333333333,0.017604621190959818,0.09055576924398547,0.0861588175204404
1592167926.8694072,0.0807624059085868,8.56101654121145,4.487458646971378,-0.3477777777777778,-0.3388888888888889,-0.6433333333333333,0.014263965755838293,0.07884475681215417,0.07660765152490501
1592167926.8794072,0.1261942501161783,8.56,4.561857722402944,-0.3477777777777778,-0.3388888888888889,-0.6615829136261445,0.0102615693945931,0.060623332783809616,0.05956145144106266
1592167926.8894072,0.17,8.560738802167771,4.6240895826578345,-0.3477777777777778,-0.3388888888888889,-0.6788888888888889,0.008237391803215281,0.04266614152372307,0.042988504782434794
1592167926.8994071,0.17221534765660412,8.573544556250567,4.54468316562415,-0.3477777777777778,-0.3388888888888889,-0.6788888888888889,0.029984076399310444,0.029866622472929323,0.03466492809811107
1592167926.9094071,0.21974390354455625,8.649590245671291,4.430614631493064,-0.3477777777777778,-0.3388888888888889,-0.6788888888888889,0.04139011099755035,0.015349851166078541,0.029480366917092937
1592167926.9194071,0.2979083502579546,8.65,4.410522912435511,-0.3477777777777778,-0.3388888888888889,-0.6788888888888889,0.0372023284011207,0.000399286286844186,0.03582629312802125
1592167926.9294071,0.29214564694564693,8.62643694083694,4.3942912938912935,-0.3477777777777778,-0.3388888888888889,-0.6788888888888889,0.03109080754308114,-0.0017135540176566742,0.04199485488418141
1592167926.939407,0.3,8.64,4.37,-0.33555555555555555,-0.3322222222222222,-0.6433333333333333,0.032724923474893676,-0.01090830782496456,0.05017821599483697
1592167926.949407,0.22125272603768187,8.64,4.3556823138250325,-0.33555555555555555,-0.3322222222222222,-0.6433333333333333,0.027258562990071424,-0.01090830782496456,0.04939730735414808
1592167926.959407,0.29432293700831336,8.64,4.387935613457568,-0.33555555555555555,-0.3322222222222222,-0.6433333333333333,-0.0018087596956431543,-0.01711550806182494,0.025293117637709066
1592167926.969407,0.3,8.602135335505501,4.579323322472494,-0.33555555555555555,-0.3322222222222222,-0.6433333333333333,-0.03321785000712676,-0.01848589105993079,0.007476700575122092
1592167926.979407,0.34745137117346936,8.513005819515307,4.692811304209183,-0.33555555555555555,-0.3322222222222222,-0.6433333333333333,-0.04612155858188509,-0.015093362212594058,0.007407674967440159
1592167926.989407,0.36,8.41455785780683,4.691709196677562,-0.33555555555555555,-0.3322222222222222,-0.6496201785160974,-0.01822690608667164,-0.009037386984842449,-0.00676574144783695
1592167926.999407,0.12779418324560618,8.615412837898118,4.457794183245606,-0.33555555555555555,-0.3322222222222222,-0.65,0.03721964942975825,0.0019897759734693685,-0.025171779132196856
1592167927.009407,0.11816670334238001,8.7308335167119,4.320999779945719,-0.33555555555555555,-0.3322222222222222,-0.65,0.06245919056109013,0.0012908124252544312,-0.0431242089402909
1592167927.019407,0.12899359517754544,8.748993595177545,4.372955166242818,-0.33555555555555555,-0.3322222222222222,-0.65,0.032965446679360494,-0.00773861063598397,-0.042761963989359046
1592167927.029407,0.2718569757992587,8.630541494063783,4.5666539155253405,-0.33555555555555555,-0.3322222222222222,-0.65,0.0066483534138084485,-0.0184998224229413,-0.023810479538336614
1592167927.039407,0.34,8.53,4.76,-0.33555555555555555,-0.3322222222222222,-0.65,-0.01090830782496456,-0.030543261909900768,-0.006544984694978735
1592167927.049407,0.416310312204352,8.479126458530432,4.804514348785872,-0.33555555555555555,-0.3322222222222222,-0.65,0.0022716181243189366,-0.02776854065742003,-0.003770263442498
1592167927.059407,0.4405002086686937,8.430500208668693,4.77150062600608,-0.33555555555555555,-0.3322222222222222,-0.65,0.058740714106294875,-0.015544452461691732,-0.0032452101968152326
1592167927.069407,0.16799394970693893,8.527145017961807,4.63399697485347,-0.33555555555555555,-0.3322222222222222,-0.65,0.11721883205511688,-0.000436002320702877,-0.01598874546255866
1592167927.079407,0.11535401139850943,8.58208698670174,4.548149020897267,-0.33555555555555555,-0.3322222222222222,-0.65,0.1497446604570585,-0.002435060934074591,-0.0350312622320187
1592167927.089407,0.13,8.67,4.41,-0.35555555555555557,-0.3388888888888889,-0.6433333333333333,0.17453292519943295,-0.02617993877991494,-0.05126904677733343
1592167927.099407,0.2888874758994134,8.732173360134553,4.251112524100586,-0.35555555555555557,-0.3388888888888889,-0.6433333333333333,0.16247592696192034,-0.04125118657680571,-0.04825479721795528
1592167927.109407,0.43498106731319297,8.731882099757552,4.086273665858509,-0.35555555555555557,-0.3388888888888889,-0.6433333333333333,0.1264077615558635,-0.058220511471052776,-0.035659370902018026
1592167927.119407,0.42203408266860043,8.747965917331399,4.08,-0.35555555555555557,-0.3388888888888889,-0.6433333333333333,0.09985748962849944,-0.05792497347176476,-0.0270674747755357
1592167927.129407,0.30943173431734317,8.69471586715867,4.095795466526093,-0.35555555555555557,-0.3388888888888889,-0.6433333333333333,0.08157677664268462,-0.04058385036175665,-0.025318429724387165
1592167927.139407,0.05642618265839716,8.748044205277878,4.27497081357169,-0.34259475455024524,-0.3324084883862337,-0.6292924655775806,0.05730227755632339,-0.01797141392681859,-0.05159793431442504
1592167927.149407,-0.11936118631055799,8.727909410481232,4.228455291122874,-0.3422222222222222,-0.3322222222222222,-0.6288888888888889,0.042264943659476,-0.01263387350983006,-0.061195479078370814
1592167927.159407,-0.15292132827034327,8.774157343459313,4.146816432630801,-0.3422222222222222,-0.3322222222222222,-0.6288888888888889,0.014442255956479494,-0.02863125702806022,-0.06534362445635176
1592167927.169407,-0.1052264399135582,8.762090575965424,4.328048952363055,-0.3422222222222222,-0.3322222222222222,-0.6288888888888889,-0.012421050184661681,-0.050079412943598925,-0.05177454122619864
1592167927.179407,0.06716575806092051,8.63842490322842,4.456378209675131,-0.3422222222222222,-0.3322222222222222,-0.6288888888888889,-0.040137479319342265,-0.07639686431207537,-0.06261114017703291
1592167927.1894069,0.1113640016070711,8.59136400160707,4.438184009642426,-0.3422222222222222,-0.3322222222222222,-0.6231315566269363,-0.045170430564465035,-0.10377683730988027,-0.07313496675150154
1592167927.1994069,0.1440116146142942,8.649520325575015,4.4555087109607205,-0.3422222222222222,-0.3322222222222222,-0.6222222222222222,-0.021535989467555666,-0.12174178315812406,-0.0695388786867992
1592167927.2094069,0.22504063508515698,8.64332430331441,4.468337848342795,-0.3422222222222222,-0.3322222222222222,-0.6222222222222222,-0.010177147214256822,-0.1279927818574392,-0.06781282113406592
1592167927.2194068,0.28041776727373835,8.607665786181009,4.558919088002225,-0.3422222222222222,-0.3322222222222222,-0.6222222222222222,-0.008726646259971648,-0.12078202228822689,-0.0632226140445831
1592167927.2294068,0.29,8.539896471708216,4.6000345094305946,-0.3422222222222222,-0.3322222222222222,-0.6222222222222222,0.004385909499493098,-0.1006886722928571,-0.05489260140259535
1592167927.2394068,0.22594406483394247,8.534020975687271,4.601993008104243,-0.35289821141656513,-0.327773893391246,-0.6320085456503699,0.042351691471294306,-0.0654269660244275,-0.04602848283627847
1592167927.2494068,0.16095283926852744,8.67079242861726,4.346589669554058,-0.35555555555555557,-0.32666666666666666,-0.6344444444444445,0.0885214254441285,-0.04731272916548793,-0.039373846810360526
1592167927.2594068,0.11525513856222518,8.743431076797219,4.185765415686675,-0.35555555555555557,-0.32666666666666666,-0.6344444444444445,0.10655913073965931,-0.04093398564336481,-0.03628403916788101
1592167927.2694068,0.10116605059766694,8.767667898804666,4.152332101195334,-0.35555555555555557,-0.32666666666666666,-0.6344444444444445,0.08004685004381402,-0.038433470164552654,-0.029251975065026293
1592167927.2794068,0.10722960854647536,8.762770391453524,4.164459217092951,-0.35555555555555557,-0.32666666666666666,-0.6344444444444445,0.05348794408585705,-0.02871554192990222,-0.02284120466138151
1592167927.2894068,0.11843944004869142,8.76,4.237515520389532,-0.344302968823967,-0.3435455467640495,-0.6297558666396159,0.02447085989963352,-0.010359506409984906,-0.013360984073715873
1592167927.2994068,0.16982181522915915,8.73508909238542,4.283214543486106,-0.3422222222222222,-0.3466666666666667,-0.6288888888888889,0.0026100616368268208,0.0159146247223124,-0.00022391850756722093
1592167927.3094068,0.195717449373302,8.667130202506792,4.242847651880094,-0.3422222222222222,-0.3466666666666667,-0.6288888888888889,-0.0088061157019238,0.048157909025396545,0.011611454244292996
1592167927.3194067,0.1228176625346638,8.696309402479203,4.291745869972269,-0.3422222222222222,-0.3466666666666667,-0.6288888888888889,-0.009224450433520194,0.07499672990892944,0.02344201582539793
1592167927.3294067,0.11258827883060982,8.691117581754085,4.32258827883061,-0.3422222222222222,-0.3466666666666667,-0.6288888888888889,-0.006666893952909996,0.08758731892827659,0.03922503672463874
1592167927.3394067,0.08921340767112246,8.68,4.33,-0.3370911235007426,-0.33554928610346085,-0.6237577901674093,-0.007972876107520446,0.09079021166468958,0.05110359397241122
1592167927.3494067,0.2663680454513961,8.720514792489434,4.313794083004226,-0.33555555555555555,-0.3322222222222222,-0.6222222222222222,-0.018449498474636415,0.08700337232369137,0.04617260796867958
1592167927.3594067,0.37146234795681293,8.676220445537789,4.340731173978406,-0.33555555555555555,-0.3322222222222222,-0.6222222222222222,-0.0324586635626976,0.08952788287301,0.05226662695788216
1592167927.3694067,0.35281165866791525,8.593060985602248,4.461565023996254,-0.33555555555555555,-0.3322222222222222,-0.6222222222222222,-0.04086535831938584,0.10433145868871377,0.05535286287432326
1592167927.3794067,0.2328979873887881,8.576693875788202,4.546857130517405,-0.33555555555555555,-0.3322222222222222,-0.6222222222222222,-0.0367008919061801,0.12952835838878146,0.047600295566944444
1592167927.3894067,0.02919500456132626,8.563243889395704,4.662158608323634,-0.33555555555555555,-0.344323857658659,-0.6222222222222222,-0.014623768953203456,0.15516270921531655,0.03814980692723347
1592167927.3994067,-0.037567994020678494,8.576100568866005,4.6907337125773365,-0.33555555555555555,-0.3466666666666667,-0.6222222222222222,0.004898388696303586,0.15934132987096894,0.03767367980937091
1592167927.4094067,-0.04656023958782772,8.605626506941448,4.606240958351311,-0.33555555555555555,-0.3466666666666667,-0.6222222222222222,0.0449652292341104,0.14671542519127803,0.04414513356549514
1592167927.4194067,0.0317481162540366,8.617972012917114,4.564055974165769,-0.33555555555555555,-0.3466666666666667,-0.6222222222222222,0.07062172344557197,0.11420164611515532,0.051902174826765166
1592167927.4294066,0.08712695536407677,8.626187825894013,4.504309566953885,-0.33555555555555555,-0.3466666666666667,-0.6222222222222222,0.08741709172370751,0.081251907029365,0.04670083738040853
1592167927.4394066,0.12312126991939949,8.669363809758199,4.397833015443303,-0.33701347443548885,-0.3335453967472672,-0.6302407760618552,0.10921536321071743,0.044695873506175,0.035385857950598905
1592167927.4494066,0.1223494155682666,8.7359035065904,4.291144740114399,-0.3377777777777778,-0.32666666666666666,-0.6344444444444445,0.1275680346300106,0.018793866853388824,0.018281303888840507
1592167927.4594066,0.06532317380958104,8.74218902482994,4.168457322789221,-0.3377777777777778,-0.32666666666666666,-0.6344444444444445,0.12578742260548464,0.007364438447000507,0.007364438447000507
1592167927.4694066,0.010000974516396241,8.73200019490328,4.1719992203868825,-0.3377777777777778,-0.32666666666666666,-0.6344444444444445,0.09817540824417087,0.00807208400852479,-0.0006543496449502454
1592167927.4794066,0.00399369762448923,8.722012604751022,4.207955883371424,-0.3377777777777778,-0.32666666666666666,-0.6344444444444445,0.08335253395062824,0.008726646259971648,-0.000439082243082582
1592167927.4894066,0.017327812202097236,8.724655624404194,4.242672187797903,-0.3271931601525262,-0.33073767344560956,-0.6238598268191929,0.06690729930306923,0.009525986571811728,0.005379022812353233
1592167927.4994066,0.02392639029322548,8.73785278058645,4.204662487360971,-0.3233333333333333,-0.3322222222222222,-0.62,0.0637366359914091,0.010674082521657231,0.009543103872140683
1592167927.5094066,0.06402582960547931,8.743194834078905,4.102363838552329,-0.3233333333333333,-0.3322222222222222,-0.62,0.05440556779974704,0.010514481714115571,0.019377099299162977
1592167927.5194066,0.10798662846227317,8.753993314231137,4.093993314231136,-0.3233333333333333,-0.3322222222222222,-0.62,0.04134722713422825,0.008291043251221153,0.019526964963058693
1592167927.5294065,0.1425650286241211,8.76,4.133847542936182,-0.3233333333333333,-0.3322222222222222,-0.62,0.026627029776659893,0.002712889911254201,0.014851929127774008
1592167927.5394065,0.14234441863308472,8.76,4.1894259689448585,-0.3318341688062925,-0.3361456847482034,-0.625231283367975,0.010198447592682203,0.0034029945996806848,0.006221363116090405
1592167927.5494065,0.10232906657598795,8.746164533287994,4.251506400136018,-0.3377777777777778,-0.3388888888888889,-0.6288888888888889,-0.008465006902726193,0.012581845886843216,-0.003100591977888508
1592167927.5594065,0.062342165599073435,8.705427706998842,4.27,-0.3377777777777778,-0.3388888888888889,-0.6288888888888889,-0.028511558314770983,0.0190428830976654,-0.007716905198111289
1592167927.5694065,0.02085598991172762,8.638997982345522,4.4302920554854985,-0.3377777777777778,-0.3388888888888889,-0.6288888888888889,-0.039675262539337806,0.028673580699851358,-0.008726646259971648
1592167927.5794065,0.016391980812988132,8.62,4.515567923251953,-0.3377777777777778,-0.3388888888888889,-0.6288888888888889,-0.034479000302931155,0.03372586352197748,-0.007332132373584812
1592167927.5894065,0.034627287203677554,8.634627287203678,4.537313643601839,-0.332089388309681,-0.334013126487663,-0.6394530407582115,-0.009800598219856387,0.03331099552526779,-0.0025560109084317396
1592167927.5994065,0.03242396917780146,8.6362119845889,4.54,-0.33,-0.3322222222222222,-0.6433333333333333,0.008561756354002022,0.03148529833039426,0.0005620027435027646
1592167927.6094065,0.047309986236427584,8.657309986236427,4.396622572258755,-0.33,-0.3322222222222222,-0.6433333333333333,0.04107522560803981,0.028707666785998065,0.006251549713114343
1592167927.6194065,0.0732524599002561,8.683252459900256,4.323373770049872,-0.33,-0.3322222222222222,-0.6433333333333333,0.06028431695239343,0.02763879078475789,0.007635815477475192
1592167927.6294065,0.08521317379182156,8.69,4.32,-0.33,-0.3322222222222222,-0.6433333333333333,0.06881535391093291,0.026702100517749124,0.008204484522137465
1592167927.6394064,0.07249466300701432,8.684164887669004,4.33167022466199,-0.33842849558921534,-0.33611229710955237,-0.6297180712276778,0.06963097683227479,0.029999010869899482,0.008090134244974224
1592167927.6494064,0.06296531176846137,8.685930623536922,4.325173441157693,-0.34444444444444444,-0.3388888888888889,-0.62,0.06936926996862405,0.03434225015326201,0.00795928081314886
1592167927.6594064,0.057851048065202325,8.712148951934799,4.2110318124238155,-0.34444444444444444,-0.3388888888888889,-0.62,0.07289186847410171,0.042154812611040114,0.007401401185416929
1592167927.6694064,0.05,8.756116051421158,4.153980658096474,-0.34444444444444444,-0.3388888888888889,-0.62,0.07483310155363275,0.04538067042622843,0.0072015930388524725
1592167927.6794064,0.06550823864222227,8.78516941288074,4.14483058711926,-0.34444444444444444,-0.3388888888888889,-0.62,0.07413953305270633,0.040739833636880024,0.008763606417024332
1592167927.6894064,0.09729239292828686,8.795764130976096,4.1457641309760955,-0.34444444444444444,-0.3388888888888889,-0.6212809179946879,0.06428289432296953,0.03159603177023653,0.00793116959154817
1592167927.6994064,0.10378762963450197,8.775150518538007,4.174849481461992,-0.34444444444444444,-0.3388888888888889,-0.6222222222222222,0.04358307733570872,0.024973277931430844,0.003156662281501726
1592167927.7094064,0.07043057153816648,8.730430571538166,4.201827771384734,-0.34444444444444444,-0.3388888888888889,-0.6222222222222222,0.02264959278082855,0.025487865855385164,-0.0034249032076828214
1592167927.7194064,0.020000481939323838,8.692000289163595,4.275998939733488,-0.34444444444444444,-0.3388888888888889,-0.6222222222222222,0.010253872441176655,0.033815649114540186,-0.006544984694978735
1592167927.7294064,-0.024761597686325087,8.68,4.33980927814906,-0.34444444444444444,-0.3388888888888889,-0.6222222222222222,0.00871624399667665,0.04142036294498033,-0.00492434191617655
1592167927.7394063,-0.05522235187346039,8.68522235187346,4.3495552962530795,-0.34444444444444444,-0.3354073209732486,-0.6146788250716683,0.01836253031336605,0.048711753608773736,0.0007151991789296742
1592167927.7494063,-0.021357545338320946,8.735082863771959,4.294917136228041,-0.34444444444444444,-0.3322222222222222,-0.6077777777777778,0.037420573194897125,0.05235987755982988,0.010686179988413303
1592167927.7594063,0.029423085334383065,8.748230765866246,4.23469229759874,-0.34444444444444444,-0.3322222222222222,-0.6077777777777778,0.046200879875759444,0.05235987755982988,0.01931609732425634
1592167927.7694063,0.0893530899012982,8.7231343900423,4.198756260028201,-0.34444444444444444,-0.3322222222222222,-0.6077777777777778,0.04799655442984406,0.04868037225834247,0.025973700850331752
1592167927.7794063,0.1339291534104136,8.737858306820828,4.199286102273609,-0.34444444444444444,-0.3322222222222222,-0.6077777777777778,0.04698359780889775,0.04530841455437799,0.023803295550649462
1592167927.7894063,0.13075611066344345,8.774810972334139,4.214810972334139,-0.34016802459187634,-0.3322222222222222,-0.6280907720774763,0.049488462565923604,0.04734804044026359,0.013296166586621957
1592167927.7994063,0.09939720674433751,8.778821911860481,4.2188219118604815,-0.33555555555555555,-0.3322222222222222,-0.65,0.05293667041949422,0.05082076339837711,0.005836682747562809
1592167927.8094063,-0.03291341386583395,8.77,4.161896896485605,-0.33555555555555555,-0.3322222222222222,-0.65,0.04593904444951362,0.05563236990731925,-0.01078415624030209
1592167927.8194063,-0.09549904351984696,8.775499043519847,4.126497130559541,-0.33555555555555555,-0.3322222222222222,-0.65,0.03954313754449342,0.05383281212359823,-0.011181537199585562
1592167927.8294063,-0.061281679133638495,8.775697964348181,4.16151017825909,-0.33555555555555555,-0.3322222222222222,-0.65,0.03427257085503937,0.04578996747686957,-0.00450313263521145
1592167927.8394063,0.02719852796214759,8.773719852796214,4.212319116777289,-0.33886209137441314,-0.3322222222222222,-0.6421469774302133,0.026079758979787534,0.028972786731946348,0.006365879699903005
1592167927.8494062,0.10093888502910807,8.758122229941783,4.255469442514554,-0.34444444444444444,-0.3322222222222222,-0.6288888888888889,0.01854412330243975,0.015271630954950384,0.015271630954950384
1592167927.8594062,0.06669353890991139,8.750826615272523,4.216693538909911,-0.34444444444444444,-0.3322222222222222,-0.6288888888888889,0.020906124344342435,0.01822413225732874,0.007595127568766661
1592167927.8694062,0.024626865671641792,8.738507462686567,4.1853731343283584,-0.34444444444444444,-0.3322222222222222,-0.6288888888888889,0.027010272659128663,0.0189674307702742,0.0016769488148826114
1592167927.8794062,0.024488565364857093,8.733465696094571,4.198977130729714,-0.34444444444444444,-0.3322222222222222,-0.6288888888888889,0.03299139454451754,0.018922172100713362,0.002181661564992912
1592167927.8894062,0.03,8.7587884525842,4.1924230948316,-0.3327265076655112,-0.34394015900115543,-0.6225416731336334,0.03455940863097968,0.021684456328368244,0.002660997295460701
1592167927.8994062,0.03,8.77,4.143215807652626,-0.31777777777777777,-0.35888888888888887,-0.6144444444444445,0.030387561755147986,0.01998574428274346,0.004441173207362214
1592167927.9094062,0.03,8.785353829843626,4.063702623906705,-0.31777777777777777,-0.35888888888888887,-0.6144444444444445,0.02389535228553726,0.01968641654962859,0.006570715927324928
1592167927.9194062,0.04514565141460007,8.8151456514146,4.01,-0.31777777777777777,-0.35888888888888887,-0.6144444444444445,0.01247570554519995,0.02401946135446335,0.00818652690360875
1592167927.9294062,0.0640461375909838,8.83,4.050461375909838,-0.31777777777777777,-0.35888888888888887,-0.6144444444444445,-0.0011663232392094937,0.030593590214376125,0.00784391597307941
1592167927.9394062,0.07382664761208416,8.810866761939579,4.136786533284589,-0.32925772061403025,-0.354211875140786,-0.619971824328566,-0.01800449034031207,0.03792309160668509,0.00696240719588153
1592167927.9494061,0.08,8.78,4.18,-0.3477777777777778,-0.3466666666666667,-0.6288888888888889,-0.02945243112740431,0.039269908169872414,0.007635815477475192
1592167927.9594061,0.08192047713717694,8.72576143141153,4.234039761431412,-0.3477777777777778,-0.3466666666666667,-0.6288888888888889,-0.036647576992546935,0.05634759056749287,0.0004189831156626545
1592167927.9694061,0.051387473993830264,8.685346868498458,4.263265657507712,-0.3477777777777778,-0.3466666666666667,-0.6288888888888889,-0.02838374720705338,0.0740786713804943,-0.002689239472681556
1592167927.979406,-0.013095142834280225,8.70350644154597,4.301753220772985,-0.3477777777777778,-0.3466666666666667,-0.6288888888888889,-0.012797207411523199,0.08442132941931542,-0.0019904148462244284
1592167927.989406,-0.09072696848563726,8.729273031514364,4.323575656161879,-0.3382426946794336,-0.34388560076298297,-0.631272659663475,0.0028889049867081777,0.08157440880662281,0.0035103922281007546
1592167927.999406,-0.056227010831988944,8.719776907121457,4.310446185757087,-0.3211111111111111,-0.3388888888888889,-0.6355555555555555,0.013065633732030377,0.071001343493978,0.012483714853891511
1592167928.009406,0.0,8.73,4.24789418866138,-0.3211111111111111,-0.3388888888888889,-0.6355555555555555,0.015711810676792424,0.06041663571492981,0.015271630954950384
1592167928.019406,0.0,8.739043260071558,4.209043260071558,-0.3211111111111111,-0.3388888888888889,-0.6355555555555555,0.023865325719058077,0.04802514178922922,0.013791930985923895
1592167928.029406,0.0035329767585039248,8.75,4.230598930275511,-0.3211111111111111,-0.3388888888888889,-0.6355555555555555,0.03548797249441785,0.036826913972440575,0.01122836264705689
1592167928.039406,0.0237119341563786,8.752742386831276,4.244515226337449,-0.3250723365340649,-0.3388888888888889,-0.635250845907636,0.044636436498509714,0.026865860358373617,0.00921918104785441
1592167928.049406,0.05540270782311353,8.782986460884432,4.211610831292455,-0.33555555555555555,-0.3388888888888889,-0.6344444444444445,0.05067970277710476,0.021904472867889997,0.007635815477475192
1592167928.059406,0.058897998321946546,8.801102001678053,4.141061009229294,-0.33555555555555555,-0.3388888888888889,-0.6344444444444445,0.04690125206485194,0.023152337485477938,0.005209262859429917
1592167928.069406,0.03563641767839587,8.785704552209799,4.114363582321604,-0.33555555555555555,-0.3388888888888889,-0.6344444444444445,0.036297402393292516,0.028522742116993495,0.002181661564992912
1592167928.079406,-0.006516471577048441,8.773032943154096,4.149549414731146,-0.33555555555555555,-0.3388888888888889,-0.6344444444444445,0.02983242513095,0.03201408669594291,0.0033216435756299803
1592167928.089406,0.0062174738259964495,8.769326210738994,4.1362174738259965,-0.3338284794927788,-0.3388888888888889,-0.6327173683816677,0.029525930134086328,0.033064034066831824,0.006132375096358574
1592167928.099406,0.02427829150154117,8.794278291501541,4.1628348745046235,-0.33,-0.3388888888888889,-0.6288888888888889,0.024937323529224353,0.033349065050752726,0.006702437064200373
1592167928.109406,0.026173769155135616,8.788521307465407,4.14556392239622,-0.33,-0.3388888888888889,-0.6288888888888889,0.017225468224762078,0.03105541532028748,0.004619399835179181
1592167928.119406,0.012179685237037751,8.766089842618518,4.1095507869074055,-0.33,-0.3388888888888889,-0.6288888888888889,0.00939094503885557,0.026228940326845182,0.0015663643330392288
1592167928.129406,0.0,8.756887291418355,4.146225417163289,-0.33,-0.3388888888888889,-0.6288888888888889,0.010763909262651077,0.019851551928406434,-0.0017699184500562654
