time,acc_x,acc_y,acc_z,mag_x,mag_y,mag_z,gyr_x,gyr_y,gyr_z
1592167934.2394001,-0.08,8.5,4.728678891846593,-0.39111111111111113,-0.17333333333333334,-0.27666666666666667,0.025269246177511317,-0.028433655616944987,0.015307658590968947
1592167934.2494001,-0.07484043167795161,8.510319136644096,4.72095740993229,-0.39111111111111113,-0.17333333333333334,-0.27666666666666667,0.03729712105000153,-0.030543261909900768,0.018613748117480428
1592167934.2594001,-0.0658871346862023,8.515887134686203,4.762338595941393,-0.39111111111111113,-0.17333333333333334,-0.27666666666666667,0.0508115354415422,-0.02830004186562453,0.022071716893998405
1592167934.2694001,-0.07553885366969479,8.506115286582576,4.791654140252271,-0.3937009200560603,-0.17333333333333334,-0.2814146497324067,0.06617160179208487,-0.02466535149972821,0.026540816201063695
1592167934.2794,-0.1,8.5,4.81,-0.3977777777777778,-0.17333333333333334,-0.28888888888888886,0.074176493209759,-0.02399827721492203,0.030543261909900768
1592167934.2894,-0.35981996534406296,8.474491468178213,4.606705630121295,-0.3977777777777778,-0.17333333333333334,-0.28888888888888886,0.09181928510056389,-0.021496533111589607,0.026610965751271143
1592167934.2994,-0.43745335004611785,8.562710309107679,4.5313551545538395,-0.3977777777777778,-0.17333333333333334,-0.28888888888888886,0.1109130311833263,-0.02487629757420317,-0.007080222645087619
1592167934.3094,-0.5178351543185262,8.613298907408884,4.55,-0.3977777777777778,-0.17333333333333334,-0.28888888888888886,0.12301646453379743,-0.03477161223830407,-0.020748316582295617
1592167934.3194,-0.44704876853326797,8.59134389167994,4.545704876853327,-0.4030273727348228,-0.17333333333333334,-0.29270677613037616,0.11138978235807992,-0.05082207482087367,-0.002321072973661433
1592167934.3294,-0.3904984775008458,8.541993910003383,4.538504567497463,-0.41,-0.17333333333333334,-0.29777777777777775,0.0918506091485115,-0.06392069090755989,0.0070920608751706546
1592167934.3394,-0.41639099223129117,8.600488740289114,4.456729275248303,-0.41,-0.17333333333333334,-0.29777777777777775,0.08063126365672127,-0.07904012460698481,-0.004613477263605819
1592167934.3494,-0.4483459363875381,8.63834593638754,4.342443286256079,-0.41,-0.17333333333333334,-0.29777777777777775,0.08608129230214198,-0.08745514162987257,-0.00791058534302131
1592167934.3594,-0.46997187254130607,8.666619787568843,4.273380212431157,-0.41,-0.17333333333333334,-0.29777777777777775,0.07311327649526163,-0.1003380226110079,-0.011267827112759811
1592167934.3694,-0.4952565197398673,8.702628259869932,4.247884779609801,-0.4132123176188078,-0.16982898684008846,-0.29427343128453287,0.04484974803075505,-0.1194670735977313,-0.014754197526558679
1592167934.3794,-0.4868826765305639,8.728493858775549,4.288493858775548,-0.4222222222222222,-0.16,-0.28444444444444444,-0.0014652526160294048,-0.1459363412708247,-0.018379828781397937
1592167934.3894,-0.4388866973482358,8.669769449923296,4.360671926364233,-0.4222222222222222,-0.16,-0.28444444444444444,-0.05490801810566151,-0.16260708238813967,-0.022568268103649338
1592167934.3994,-0.38915083230744524,8.505792163999358,4.509226837231708,-0.4222222222222222,-0.16,-0.28444444444444444,-0.11227952247348236,-0.17244389346029407,-0.02918283250094296
1592167934.4094,-0.3319721918760552,8.442011917767404,4.648027808123945,-0.4222222222222222,-0.16,-0.28444444444444444,-0.13656898057279604,-0.1725663963951791,-0.038400710281886956
1592167934.4194,-0.2747981120486212,8.482802831927069,4.716603303914913,-0.41757720090374534,-0.16,-0.28613354310570877,-0.11913894200176604,-0.15969659683974122,-0.049022604681921676
1592167934.4294,-0.25,8.52,4.76,-0.41,-0.16,-0.28888888888888886,-0.09817477042468103,-0.1461713248545251,-0.05781403147231216
1592167934.4394,-0.4196931073210228,8.437576723169744,4.791012354062737,-0.41,-0.16,-0.28888888888888886,-0.08429178554643756,-0.11731452431554168,-0.07124529325769172
1592167934.4494,-0.5368091742238856,8.434042752267166,4.773404587111942,-0.41,-0.16,-0.28888888888888886,-0.05964728772548282,-0.10478936813922314,-0.08095363470795078
1592167934.4594,-0.59,8.45,4.8,-0.41,-0.16,-0.28888888888888886,-0.038179077387375956,-0.10362892433716332,-0.08617563181722002
1592167934.4694,-1.1213038922155687,8.509699101796407,4.913366766467066,-0.41,-0.16448902195608783,-0.28888888888888886,0.004028888782298287,-0.10544332865218099,-0.06722048739508811
1592167934.4794,-1.38,8.45,4.92,-0.41,-0.17333333333333334,-0.28888888888888886,0.009817477042468103,-0.10471975511965977,-0.05781403147231216
1592167934.4894,-1.2091669925694173,8.359444661712946,5.066851779429018,-0.41,-0.17333333333333334,-0.28888888888888886,0.028573623379284367,-0.11535546190042595,-0.029048435526690917
1592167934.4994,-1.052822247816489,8.41717775218351,4.8944788367405705,-0.41,-0.17333333333333334,-0.28888888888888886,0.060015742379357875,-0.0993659787878204,-0.03870774137012055
1592167934.5094,-0.93,8.54,4.66,-0.41,-0.17333333333333334,-0.28888888888888886,0.08072147790473774,-0.10362892433716332,-0.0545415391248228
1592167934.5194,-0.5796592970902493,8.663238693636181,4.543125125999596,-0.41409720822226703,-0.17519570070709106,-0.2873989949898827,0.153757587102448,-0.1003130729138157,-0.0065387905412847
1592167934.5293999,-0.46,8.63,4.47,-0.4222222222222222,-0.17888888888888888,-0.28444444444444444,0.13635384781205698,-0.08508480103472357,-0.004363323129985824
1592167934.5393999,-0.6086214941421109,8.633276867677639,4.322757011715779,-0.4222222222222222,-0.17888888888888888,-0.28444444444444444,0.10725886749794628,-0.05269359421449432,-0.004805198945769117
1592167934.5493999,-0.7647979019588346,8.747354330317192,4.124215223227603,-0.4222222222222222,-0.17888888888888888,-0.28444444444444444,0.10774774062699377,-0.03863888691255226,0.010394672628533021
1592167934.5593998,-0.84,8.73,4.13,-0.4222222222222222,-0.17888888888888888,-0.28444444444444444,0.08944812416470939,-0.039269908169872414,0.014180800172453926
1592167934.5693998,-0.8110968039957271,8.650516210988249,4.18,-0.420372754889601,-0.18104660077694693,-0.27982077611289147,0.0021323746702096753,-0.048538458326671634,-0.02465280087899871
1592167934.5793998,-0.84,8.73,4.18,-0.41555555555555557,-0.18666666666666668,-0.2677777777777778,-0.020725784867432664,-0.05563236990731925,-0.04908738521234052
1592167934.5893998,-0.7857571958921943,8.752728412323417,4.132878597946097,-0.41555555555555557,-0.18666666666666668,-0.2677777777777778,-0.05670545056257534,-0.07561409573732032,-0.08905083687234266
1592167934.5993998,-0.7804739038022515,8.703491301267418,4.1855608911280795,-0.41555555555555557,-0.18666666666666668,-0.2677777777777778,-0.12561273258203226,-0.09365636263806382,-0.11981045397520686
1592167934.6093998,-0.74,8.69,4.28,-0.41555555555555557,-0.18666666666666668,-0.2677777777777778,-0.17344209441693648,-0.10690141668465267,-0.13526301702956053
1592167934.6193998,-0.6597945732543745,8.524640503195156,4.818090601893673,-0.417239341117691,-0.18835045222880212,-0.2767579674425002,-0.22942840312878754,-0.12247096498971577,-0.11417208906671227
1592167934.6293998,-0.6,8.42,4.99,-0.4222222222222222,-0.19333333333333333,-0.30333333333333334,-0.2530727415391778,-0.12980886311707826,-0.08726646259971647
1592167934.6393998,-0.5930981297379535,8.342414552894578,5.091030873750754,-0.4222222222222222,-0.19333333333333333,-0.30333333333333334,-0.20763248465353146,-0.13014741752828665,-0.05284816618620509
1592167934.6493998,-0.2947764705882353,8.362484033613445,4.918662184873949,-0.4222222222222222,-0.19333333333333333,-0.30333333333333334,-0.1256607728171178,-0.12598050540277725,-0.010873474573086524
1592167934.6593997,-0.12,8.35,4.85,-0.4222222222222222,-0.19333333333333333,-0.30333333333333334,-0.08072147790473774,-0.11780972450961724,0.016362461737446838
1592167934.6693997,-0.012328606389754937,8.466848704281068,4.700274229776392,-0.425783819623707,-0.1963469926730512,-0.30908668298188563,-0.03018480794463105,-0.07571577542829938,0.008786473916284772
1592167934.6793997,-0.05,8.61,4.64,-0.43666666666666665,-0.20555555555555555,-0.32666666666666666,0.01090830782496456,-0.0370882466048795,-0.004363323129985824
1592167934.6893997,-0.2706996701370993,8.597771106071539,4.55,-0.43666666666666665,-0.20555555555555555,-0.32666666666666666,0.012881720899164416,0.0185926434016715,0.013826457269315903
1592167934.6993997,-0.48,8.51,4.55,-0.43666666666666665,-0.20555555555555555,-0.32666666666666666,-0.028361600344907853,0.04363323129985824,0.01308996938995747
1592167934.7093997,-0.6612575043573687,8.53,4.635212919329503,-0.43666666666666665,-0.20555555555555555,-0.32666666666666666,-0.05599525252512734,0.052519184437388976,0.011273373371844843
1592167934.7193997,-0.8114358655043586,8.514752179327521,4.71618804483188,-0.43497246436972464,-0.20555555555555555,-0.32941974539919744,-0.042334490615417726,0.05589156108203945,0.042961005132089405
1592167934.7293997,-0.86,8.45,4.7,-0.42777777777777776,-0.20555555555555555,-0.3411111111111111,-0.04145156973486533,0.05235987755982988,0.06326818538479445
1592167934.7393997,-0.7500373602190434,8.430037360219044,4.614934619616674,-0.42777777777777776,-0.20555555555555555,-0.3411111111111111,-0.05126293372578741,0.038994653369437464,0.04224880656228878
1592167934.7493997,-0.7841433133222634,8.541713373355474,4.535856686677737,-0.42777777777777776,-0.20555555555555555,-0.3411111111111111,-0.03298998880643299,0.03243862393576049,-0.003965725132676857
1592167934.7593997,-0.73,8.65,4.59,-0.42777777777777776,-0.20555555555555555,-0.3411111111111111,-0.015271630954950384,0.0272707695624114,-0.030543261909900768
1592167934.7693996,-0.6103366360272173,8.570224424018145,4.609943893995464,-0.42777777777777776,-0.20555555555555555,-0.3411111111111111,-0.02832487905080925,0.0011642733706936671,-0.043596510005759634
1592167934.7793996,-0.5120019379350792,8.507556416860035,4.744219853634903,-0.42777777777777776,-0.22555555555555556,-0.3477777777777778,-0.08462342943084594,-0.027997637757535894,-0.0189808784072861
1592167934.7893996,-0.45,8.48,4.82,-0.42777777777777776,-0.22555555555555556,-0.3477777777777778,-0.11017390903214205,-0.039269908169872414,-0.00545415391248228
1592167934.7993996,-0.23407164085718757,8.361107461285782,4.841107461285781,-0.42777777777777776,-0.22555555555555556,-0.3477777777777778,-0.12065228881680781,-0.04223327776315832,-0.011984919529530774
1592167934.8093996,-0.28,8.43,4.91,-0.42777777777777776,-0.22555555555555556,-0.3477777777777778,-0.10144726277217041,-0.030543261909900768,-0.02617993877991494
1592167934.8193996,-0.48407399376609295,8.455925464155035,4.980370510909337,-0.42777777777777776,-0.2244032765656292,-0.3467901100721266,-0.05393546946198515,-0.010948724295480149,-0.0141806819091898
1592167934.8293996,-0.45,8.262459472736204,5.02278369084657,-0.42777777777777776,-0.21777777777777776,-0.3411111111111111,-0.030292658407715976,-0.01986787423236954,0.04619231638596053
1592167934.8393996,-0.5007302222020267,8.333964193211251,4.934709410642069,-0.42777777777777776,-0.21777777777777776,-0.3411111111111111,-0.015112321183743782,-0.0272707695624114,0.06758436987370452
1592167934.8493996,-0.6781796295854886,8.58366481538865,4.817281481658045,-0.42777777777777776,-0.21777777777777776,-0.3411111111111111,0.037898289800786696,-0.02925648564610635,0.031930637041415695
1592167934.8593996,-0.6611560760667904,8.63546246907854,4.872109809833024,-0.42777777777777776,-0.21777777777777776,-0.3411111111111111,0.0985877741712002,-0.040912457652289916,0.03254206427948215
1592167934.8693995,-0.6125208719851577,8.335545377241806,4.993697820037106,-0.42777777777777776,-0.21777777777777776,-0.3411111111111111,0.08886143158823914,-0.0559440780077752,0.05553160129375376
1592167934.8793995,-0.7613464894929138,8.258461985990552,4.995769007004724,-0.45444444444444443,-0.22555555555555556,-0.3622222222222222,0.08279329737166771,-0.08101523634217343,0.00016238962359800373
1592167934.8893995,-0.8121181125156808,8.428305509987457,4.8948866158448325,-0.45444444444444443,-0.22555555555555556,-0.3622222222222222,0.18592059646968254,-0.10985043870553667,-0.053671021844957346
1592167934.8993995,-0.5268765697418504,8.606077522591336,4.717360762279589,-0.45444444444444443,-0.22555555555555556,-0.3622222222222222,0.2807449784054499,-0.15758673440831442,-0.047481515996897664
1592167934.9093995,-0.31487127316680097,8.487394439967767,4.739495366639806,-0.45444444444444443,-0.22555555555555556,-0.3622222222222222,0.27679578395251303,-0.2058648199683634,-0.040589914500931634
1592167934.9193995,-0.05710144471373266,8.438280192628497,4.693120770513991,-0.4543488995904721,-0.22612882467938966,-0.36470638842550335,0.254597796516891,-0.23362538933632146,-0.04304618573254451
1592167934.9293995,0.08,8.42,4.62,-0.4533333333333333,-0.23222222222222222,-0.39111111111111113,0.2476185876266955,-0.23561944901923448,-0.05999569303730508
1592167934.9393995,-0.016452321926035733,8.54587139315562,4.4706016305875735,-0.4533333333333333,-0.23222222222222222,-0.39111111111111113,0.276364921398609,-0.20694100118172376,-0.0941305530052392
1592167934.9493995,-0.17011420260830176,8.650114202608302,4.382316477123715,-0.4533333333333333,-0.23222222222222222,-0.39111111111111113,0.267296245956556,-0.17316449081747134,-0.11238048574125034
1592167934.9593995,-0.277621139327385,8.729041866849691,4.414768702814001,-0.4533333333333333,-0.23222222222222222,-0.39111111111111113,0.21961740316284034,-0.1517816539909118,-0.1341721862470641
1592167934.9693995,-0.3054139845843578,8.640550321849878,4.5188993563002455,-0.45319065729818,-0.2325891034554736,-0.39111111111111113,0.16920910924684507,-0.1576599304264784,-0.13409214517851392
1592167934.9793994,-0.04123536299765808,8.662782831922176,4.445565663844352,-0.44555555555555554,-0.25222222222222224,-0.39111111111111113,0.11607772850723422,-0.1906031755563047,-0.1214637914692328
1592167934.9893994,0.08265335578542218,8.612618875791837,4.3473466442145785,-0.44555555555555554,-0.25222222222222224,-0.39111111111111113,0.10696080840154107,-0.19950324976307465,-0.0675089638971652
1592167934.9993994,0.19,8.55,4.24,-0.44555555555555554,-0.25222222222222224,-0.39111111111111113,0.11671889372712078,-0.17998707911191522,-0.02945243112740431
1592167935.0093994,0.09404426691113876,8.574828978674176,4.204607644118481,-0.44555555555555554,-0.25222222222222224,-0.39111111111111113,0.20507618710933373,-0.10799224746714915,0.019634954084936207
1592167935.0193994,0.1489758365529435,8.77624473402746,4.131365551262742,-0.44555555555555554,-0.25222222222222224,-0.39111111111111113,0.20507618710933373,-0.10799224746714915,0.019634954084936207
1592167935.0293994,-0.29,8.84,4.24,-0.4577777777777778,-0.25222222222222224,-0.41888888888888887,0.09926560120717749,-0.03381575425739013,-0.04908738521234052
1592167935.0393994,-0.37478704040771754,8.697893216842616,4.424957408081544,-0.4577777777777778,-0.25222222222222224,-0.41888888888888887,0.05642153786330079,-0.041277508033738905,-0.03145073887612322
1592167935.0493994,-0.2775412663807767,8.471213435231546,4.39632783114923,-0.4577777777777778,-0.25222222222222224,-0.41888888888888887,0.11074633320645033,-0.04761746453427631,-0.033547548025609365
1592167935.0593994,-0.4,8.61,4.38,-0.4577777777777778,-0.25222222222222224,-0.41888888888888887,0.1908953869368798,-0.05563236990731925,-0.04690572364734761
1592167935.0693994,-0.47418667240822476,8.832560017224674,4.324359995693832,-0.4577777777777778,-0.25222222222222224,-0.41888888888888887,0.2050572804718074,-0.07485208256186388,-0.02869757481672639
1592167935.0793993,-0.18,8.7,4.41,-0.45666666666666667,-0.27,-0.4266666666666667,0.1341721862470641,-0.08290313946973066,0.00545415391248228
1592167935.0893993,-0.07409728845891811,8.555509197438344,4.314097288458918,-0.45666666666666667,-0.27,-0.4266666666666667,0.10307844049930341,-0.07956248320388008,0.0058581730203964184
1592167935.0993993,0.04462508294625084,8.705859323158593,4.173171864631719,-0.45666666666666667,-0.27,-0.4266666666666667,0.1420338406124881,-0.04659809054677628,-0.012811289992969325
1592167935.1093993,-0.13950170952274982,8.791302676566387,4.214750854761375,-0.45666666666666667,-0.27,-0.4266666666666667,0.12835028052573436,-0.021248215770627923,-0.02162854670399789
1592167935.1193993,-0.4619508790386211,8.799788181027333,4.37597543951931,-0.45666666666666667,-0.27,-0.4266666666666667,0.06911028391127873,-0.01754571598222445,-0.013297922180090068
1592167935.1293993,-0.44,8.72,4.46,-0.4622222222222222,-0.27555555555555555,-0.44222222222222224,0.05126904677733343,-0.04036073895236887,-0.004363323129985824
1592167935.1393993,-0.35296365755993714,8.58544933853718,4.46837092604795,-0.4622222222222222,-0.27555555555555555,-0.44222222222222224,0.10666698399582988,-0.06260325908390224,0.006296784614760448
1592167935.1493993,-0.03398057553956835,8.77132685851319,4.219288009592326,-0.4622222222222222,-0.27555555555555555,-0.44222222222222224,0.15555458846393183,-0.08274780725902409,0.019980907012958165
1592167935.1593993,-0.04018884674360423,8.748535227181018,4.270677104349931,-0.4622222222222222,-0.27555555555555555,-0.44222222222222224,0.1533519158968224,-0.09612023012915183,0.043251867491467096
1592167935.1693993,0.1036718182551852,8.520050641594706,4.202977967879913,-0.4622222222222222,-0.27555555555555555,-0.44222222222222224,0.1579674347724427,-0.0970433339042759,0.04048255616609492
1592167935.1793993,0.27,8.49,4.26,-0.4477777777777778,-0.2733333333333333,-0.4633333333333333,0.24870941840919195,-0.07308566242726255,0.00545415391248228
1592167935.1893992,0.06398167759716233,9.03,4.007811519126241,-0.4477777777777778,-0.2733333333333333,-0.4633333333333333,0.28724316124683935,-0.06302945915439433,-0.0026591140257931573
1592167935.1993992,-0.04,9.03,3.97,-0.4477777777777778,-0.2733333333333333,-0.4633333333333333,0.16144295580947549,-0.05890486225480862,-0.01090830782496456
1592167935.2093992,0.08890322066961265,8.707741948325967,4.1817695768143635,-0.4477777777777778,-0.2733333333333333,-0.4633333333333333,0.06301483506093265,-0.06794417946640949,-0.02697820509003277
1592167935.2193992,0.19896253483331613,8.630518732583342,4.191753122097224,-0.4477777777777778,-0.2733333333333333,-0.4633333333333333,0.10042087533159788,-0.05522841688351934,-0.04545390206900053
1592167935.2293992,-0.02,8.85,4.07,-0.4577777777777778,-0.27111111111111114,-0.4722222222222222,0.20725784867432664,-0.04581489286485115,-0.06544984694978735
1592167935.2393992,0.23986892433995707,8.719934462169979,4.129737848679914,-0.4577777777777778,-0.27111111111111114,-0.4722222222222222,0.16544882552743417,-0.03472785833387303,-0.07881148093288545
1592167935.2493992,0.22030413284821346,8.710152066424108,4.090608265696427,-0.4577777777777778,-0.27111111111111114,-0.4722222222222222,0.11209413349663738,-0.008050512318474638,-0.119361046876291
1592167935.2593992,0.38718198490008815,8.759171172029438,4.139171172029437,-0.4577777777777778,-0.27111111111111114,-0.4722222222222222,0.11555573405952965,0.0181101499918717,-0.14681010010517984
1592167935.2693992,0.3491160494806122,8.93171259218143,4.156353580207755,-0.4577777777777778,-0.27111111111111114,-0.4722222222222222,0.10224882142364126,0.04351870747494148,-0.14993800394121817
1592167935.2793992,0.37,8.907064581564299,4.2329354184357015,-0.45111111111111113,-0.28888888888888886,-0.48444444444444446,0.05108366523690776,0.09007168025523211,-0.08749779714933024
1592167935.2893991,0.36943803032410627,8.719859507581027,4.420046830806324,-0.45111111111111113,-0.28888888888888886,-0.48444444444444446,0.03949978835285783,0.12996722502091265,-0.03260742915914558
1592167935.2993991,0.25275142578940046,8.690687856447349,4.42977071451755,-0.45111111111111113,-0.28888888888888886,-0.48444444444444446,0.08723179090215069,0.16284927122153664,-0.008211072300618114
1592167935.3093991,0.1337249798892727,8.719068755027683,4.400931244972319,-0.45111111111111113,-0.28888888888888886,-0.48444444444444446,0.16763002536482283,0.18793492184913543,0.07057994674536656
1592167935.319399,0.20213884121441678,8.687938292793593,4.424046280404806,-0.45111111111111113,-0.28888888888888886,-0.48444444444444446,0.19027959293652633,0.2009545893779351,0.11680303387743467
1592167935.329399,0.09,8.51,4.37,-0.45444444444444443,-0.29333333333333333,-0.4866666666666667,0.2181661564992912,0.22798363354175932,0.11017390903214205
1592167935.339399,-0.060984460014874536,8.653435237014131,4.286958546991819,-0.45444444444444443,-0.29333333333333333,-0.4866666666666667,0.2642817355648837,0.24774745314129898,0.0574703901000363
1592167935.349399,-0.15591624149659863,8.886369992441422,4.120453750944822,-0.45444444444444443,-0.29333333333333333,-0.4866666666666667,0.29234455639550866,0.26289021858164585,0.003124002698029639
1592167935.359399,-0.07061677565189312,8.808149673044321,4.132158714781625,-0.45444444444444443,-0.29333333333333333,-0.4866666666666667,0.26973796231676533,0.26275565900825,0.00037003882683862984
1592167935.369399,-0.08754702510696698,8.7573589246791,4.191414587874385,-0.45444444444444443,-0.29333333333333333,-0.4866666666666667,0.2780485790841876,0.2590620515560623,0.010527459320354763
1592167935.379399,-0.13947989956681292,8.799479899566814,4.190104020086638,-0.4489466778259097,-0.29113422668591943,-0.5152550530830474,0.310557714905234,0.2488115398904438,0.05194004480357231
1592167935.389399,-0.11061088852227198,8.839185481970304,4.04305444261136,-0.4488888888888889,-0.2911111111111111,-0.5155555555555555,0.31836710075451924,0.2187881074370747,0.09724184401800579
1592167935.399399,0.0904427266338721,8.73295151089248,3.75926212227688,-0.4488888888888889,-0.2911111111111111,-0.5155555555555555,0.30966715827153785,0.1809974199210019,0.1375213357120866
1592167935.409399,0.11991777933942376,8.929451862262825,3.7101370344342937,-0.4488888888888889,-0.2911111111111111,-0.5155555555555555,0.3010932129896922,0.1756387041198484,0.07000151661755209
1592167935.419399,-0.17077564802860262,9.07123388618532,3.818002383553481,-0.4488888888888889,-0.2911111111111111,-0.5155555555555555,0.3010692959690219,0.18649873978775644,0.036281970011806546
1592167935.429399,-0.11,9.02,3.91,-0.44222222222222224,-0.2966666666666667,-0.5011111111111111,0.25198191075668136,0.1778054175469223,0.11780972450961724
1592167935.439399,0.18472418670438473,8.795078910146653,3.7238584083972306,-0.44222222222222224,-0.2966666666666667,-0.5011111111111111,0.21898645182791382,0.18034352977221213,0.15165122084681468
1592167935.449399,0.16420982866120082,8.906316952231332,3.5465781334380675,-0.44222222222222224,-0.2966666666666667,-0.5011111111111111,0.2132861494187174,0.19934944599655163,0.10374336811850726
1592167935.459399,-0.11315578031950088,8.973859296719917,3.644034171471784,-0.44222222222222224,-0.2966666666666667,-0.5011111111111111,0.20806166485401764,0.2075448632771321,0.06824412770246407
1592167935.469399,-0.1352434592293637,8.98,3.7190261630825456,-0.44222222222222224,-0.2966666666666667,-0.5011111111111111,0.16460109304752538,0.18420334608316202,0.07160261617938922
1592167935.479399,-0.08138346573313586,8.931383465733136,3.7205533862932545,-0.435740017653307,-0.3117918106608022,-0.5356828688119922,0.1261095558707152,0.14274366046964412,0.10705658872204431
1592167935.489399,0.354134171811526,8.99606389571045,3.4085559202221662,-0.43555555555555553,-0.31222222222222223,-0.5366666666666666,0.11515060697957902,0.11812965580725839,0.10696275416639778
1592167935.499399,0.31313880088035406,9.114619198490821,3.380448400125765,-0.43555555555555553,-0.31222222222222223,-0.5366666666666666,0.09786654549827994,0.12297040122606376,0.05480552086012788
1592167935.509399,0.19575106276866078,8.967668083691548,3.484728192462061,-0.43555555555555553,-0.31222222222222223,-0.5366666666666666,0.04723343660240449,0.14195781706201704,0.09701761986629956
1592167935.519399,0.19,8.976077397012041,3.441767808963879,-0.43555555555555553,-0.31222222222222223,-0.5366666666666666,0.009648622956054204,0.1481601483759808,0.10891134696691011
1592167935.529399,0.18,9.13,3.54,-0.42444444444444446,-0.30333333333333334,-0.5466666666666666,-0.02617993877991494,0.1538071403320003,0.06654067773228381
1592167935.539399,0.038918805216659635,9.055746739587715,3.688506520824569,-0.42444444444444446,-0.30333333333333334,-0.5466666666666666,-0.05371917111378635,0.1448973886945713,0.059250880938023734
1592167935.549399,0.22764263504230242,9.063948947863187,3.5193318388892907,-0.42444444444444446,-0.30333333333333334,-0.5466666666666666,-0.08733934767043935,0.12792079271359028,0.08634924657984022
1592167935.559399,0.10012883099564213,8.908622389445862,3.6074033767532683,-0.42444444444444446,-0.30333333333333334,-0.5466666666666666,-0.08607076472344397,0.11896001547979103,0.10367433124326204
1592167935.5693989,0.14798463345209895,8.936716097056072,3.651268536396027,-0.42444444444444446,-0.30333333333333334,-0.5466666666666666,-0.10364510039426954,0.11394299547637848,0.10581058590215622
1592167935.5793989,0.3297816221484482,9.001606006152347,3.7931392196875096,-0.43461480150390697,-0.3125791124782993,-0.5466666666666666,-0.10763393083482116,0.11326327284208929,0.10399518141224756
1592167935.5893989,0.30095872016298936,8.925655314518556,3.7693931887111334,-0.43666666666666665,-0.31444444444444447,-0.5466666666666666,-0.10230112772149565,0.13000744164699674,0.13215071590873695
1592167935.5993989,0.39901816361556064,8.842911899313501,3.692911899313501,-0.43666666666666665,-0.31444444444444447,-0.5466666666666666,-0.1124245275773786,0.1403995320013731,0.09445039144082139
1592167935.6093988,0.2863074620483216,8.804932649134061,3.8220483215736585,-0.43666666666666665,-0.31444444444444447,-0.5466666666666666,-0.10724543537273955,0.16186044289535717,0.03057568129813404
1592167935.6193988,0.05609393194462414,8.815104153189287,4.099218527623237,-0.43666666666666665,-0.31444444444444447,-0.5466666666666666,-0.07780125799004836,0.16580627893946132,-0.0017839437302050974
1592167935.6293988,0.007318764684235856,8.828659382342119,4.110724941263056,-0.43859097385380397,-0.3019364477280519,-0.5716826600994518,-0.04416294517518665,0.15352658187841628,0.0007192745562168441
1592167935.6393988,0.09775235849056604,8.838775235849056,4.12632570754717,-0.4388888888888889,-0.3,-0.5755555555555556,-0.0020715494010994026,0.1363098029464996,0.021326256340627646
1592167935.6493988,0.6112802718483775,9.042270986886187,3.8046075428352637,-0.4388888888888889,-0.3,-0.5755555555555556,0.047401176127767404,0.1255383133335314,0.050859215168134755
1592167935.6593988,0.4263092895915804,8.991268400218077,3.794991822125299,-0.4388888888888889,-0.3,-0.5755555555555556,0.06585600927304937,0.1415312797240586,0.07458087139752922
1592167935.6693988,0.39739789329243685,8.957806320122689,3.7704084268302522,-0.4388888888888889,-0.3,-0.5755555555555556,0.06117562873156894,0.1504455430727435,0.10488647463589652
1592167935.6793988,0.3812205844323765,8.959389707783812,3.70366175329713,-0.43367238456454904,-0.31043300864867973,-0.6005947763123869,0.04661376350773452,0.16091037538088657,0.1319496220538162
1592167935.6893988,0.23353192380154908,9.001848021770986,3.672101318819343,-0.43333333333333335,-0.3111111111111111,-0.6022222222222222,0.048097348381569816,0.15307395224817372,0.13916790350915073
1592167935.6993988,0.08424725206866741,9.002849450413734,3.5742472520686674,-0.43333333333333335,-0.3111111111111111,-0.6022222222222222,0.02476653355927973,0.12886463503403994,0.13619549749690985
1592167935.7093987,0.026893469971401338,8.905165633937083,3.628970448045758,-0.43333333333333335,-0.3111111111111111,-0.6022222222222222,-0.020653513428554204,0.10663676803437114,0.11457336788156709
1592167935.7193987,0.09936189316998224,8.825067541951833,3.712147175609075,-0.43333333333333335,-0.3111111111111111,-0.6022222222222222,-0.04773286316879602,0.09103686673323431,0.06640553460064144
1592167935.7293987,0.3274149618133301,8.860082814464926,3.860165628929853,-0.4237963786563609,-0.2987130700310469,-0.6022222222222222,-0.04907835155558273,0.09366593850491889,0.004145545086147236
1592167935.7393987,0.26997620935765265,8.882003172085646,3.9220111022997624,-0.4222222222222222,-0.2966666666666667,-0.6022222222222222,-0.03817648223087518,0.09817563547684796,-0.023567308225358404
1592167935.7493987,0.24782201961203315,8.882435596077594,3.889484768620747,-0.4222222222222222,-0.2966666666666667,-0.6022222222222222,-0.0192568657177001,0.09870613505971433,-0.03956369199981893
1592167935.7593987,0.22186114254074485,8.902883314475554,3.900511085967404,-0.4222222222222222,-0.2966666666666667,-0.6022222222222222,0.0013695849353696533,0.09318240565758502,-0.03869661736333686
1592167935.7693987,0.1906167321051042,8.948766535789792,3.9035389107017013,-0.4222222222222222,-0.2966666666666667,-0.6022222222222222,0.02980323650861912,0.08176264859664274,-0.024083167197290877
1592167935.7793987,0.16513210079931662,8.977433949600343,3.952037647202392,-0.41726625582199445,-0.30410061626700835,-0.608830177422526,0.05632800831864769,0.05689612023176005,0.011208753865124974
1592167935.7893987,0.09512080682999975,8.91512080683,3.94567030256125,-0.41555555555555557,-0.30666666666666664,-0.6111111111111112,0.06285582934613579,0.02983120244199307,0.04991932605194782
1592167935.7993987,0.1179124175164967,8.930329934013198,3.780767846430714,-0.41555555555555557,-0.30666666666666664,-0.6111111111111112,0.06574954730874559,0.005238212605809315,0.061685924537718005
1592167935.8093987,0.03460299085733186,8.962014694417539,3.7593529258900515,-0.41555555555555557,-0.30666666666666664,-0.6111111111111112,0.07054306212193451,-0.009896076439727999,0.061667231628934165
1592167935.8193986,-0.01841480740370185,8.908617308654327,3.8620740370185094,-0.41555555555555557,-0.30666666666666664,-0.6111111111111112,0.0606119496752685,-0.01844661972854457,0.051712385727274116
1592167935.8293986,0.11475689881734558,8.693074901445467,4.193429697766097,-0.4066199445174478,-0.301305300043802,-0.6227274054606512,0.0341511739723759,-0.02620287346128149,-0.004188446184565889
1592167935.8393986,0.15544473109743998,8.69355784877952,4.22733161341536,-0.40444444444444444,-0.3,-0.6255555555555555,0.061524544658321745,-0.02548898547736043,-0.04487100709826233
1592167935.8493986,0.23749599369165417,8.83074479179915,4.060507211355022,-0.40444444444444444,-0.3,-0.6255555555555555,0.1720469586668304,-0.02061687659736173,-0.07379444022361718
1592167935.8593986,0.47415712026074874,8.915522216363897,3.908955567272204,-0.40444444444444444,-0.3,-0.6255555555555555,0.24826269175407764,-0.021365392448426727,-0.05190640608513345
1592167935.8693986,0.5609602106911524,8.93,3.821949604954089,-0.40444444444444444,-0.3,-0.6255555555555555,0.2706646298984517,-0.017172917407437444,-0.03990473146531629
1592167935.8793986,0.4374099810486418,8.987530006317119,3.688907138344915,-0.4007917456306591,-0.31187127114480245,-0.6556903207692848,0.28739635573762906,0.007216159162541307,-0.03861182642806312
1592167935.8893986,0.3250532549081949,9.030860424449568,3.62268778316509,-0.4,-0.31444444444444447,-0.6622222222222223,0.2903838623612425,0.017160100858627677,-0.04036073895236887
1592167935.8993986,0.31365089758280135,9.085209254105964,3.3446750695694876,-0.4,-0.31444444444444447,-0.6622222222222223,0.29592208887518606,0.024259571869538685,-0.012156510604455648
1592167935.9093986,0.45729205431727304,9.085810998060097,3.288378003879805,-0.4,-0.31444444444444447,-0.6622222222222223,0.28848088676386635,0.03176641406369336,0.00678039063327353
1592167935.9193985,0.4371954753871442,9.10948460074401,3.353072281339216,-0.4,-0.31444444444444447,-0.6622222222222223,0.25198410487517714,0.06955907700235543,-0.004361129011490016
1592167935.9293985,0.1943157497167317,9.144460531285409,3.4839934533551555,-0.40642690279351495,-0.31846125869039127,-0.6421381509924882,0.21717722631362368,0.11044088310254027,-0.022605315282797953
1592167935.9393985,0.16116080980989217,9.086755411077277,3.5162797300633692,-0.4088888888888889,-0.32,-0.6344444444444445,0.20606633755913578,0.11930637378872098,-0.007080525064741109
1592167935.9493985,0.12935766383774844,8.9944692389035,3.4159499471272468,-0.4088888888888889,-0.32,-0.6344444444444445,0.21194716993030352,0.11367798959651673,0.048045238236356605
1592167935.9593985,0.11754139643171073,9.045248378590264,3.319668828546314,-0.4088888888888889,-0.32,-0.6344444444444445,0.23764129414359225,0.0981025200214881,0.06137277846602432
1592167935.9693985,0.1698426345888385,9.053769670676395,3.262618024058371,-0.4088888888888889,-0.32,-0.6344444444444445,0.2382294837690555,0.08293747127664969,0.04518676707410186
1592167935.9793985,0.18531884104576005,9.17478985111104,3.1519130462745606,-0.39910144958606225,-0.3183687601161956,-0.6344444444444445,0.2033000310222216,0.07475668876375106,-0.004329332229634053
1592167935.9893985,0.17376515609264853,9.229352265861028,3.1387045317220545,-0.39555555555555555,-0.31777777777777777,-0.6344444444444445,0.17838389840297733,0.07111597136356924,-0.025345282960639204
1592167935.9993985,0.22930097579520975,9.25,3.1295992903307566,-0.39555555555555555,-0.31777777777777777,-0.6344444444444445,0.12086366363607924,0.052676053984329424,-0.019056513795203834
1592167936.0093985,0.27,9.140242952259527,3.2226696415922937,-0.39555555555555555,-0.31777777777777777,-0.6344444444444445,0.07866166363709551,0.04792771109316717,0.009653288388777426
1592167936.0193985,0.24871545133058065,9.074678862832645,3.3432113716735485,-0.39555555555555555,-0.31777777777777777,-0.6344444444444445,0.05623277185923958,0.05373095338836984,0.01332010910440676
1592167936.0293984,0.20732592431626984,9.087005556762797,3.452353708130258,-0.38043950509973545,-0.3247059675700287,-0.6262565837808752,0.05527078014245733,0.0565773524862888,0.01491004119008846
1592167936.0393984,0.24816439621334566,9.1,3.4159847610251672,-0.3688888888888889,-0.33,-0.62,0.0670454167967315,0.0514025356516634,0.0365542911075596
1592167936.0493984,0.156610074399317,9.112988413221125,3.2855753140626907,-0.3688888888888889,-0.33,-0.62,0.06452832843144568,0.04058648863790856,0.0543157894392831
1592167936.0593984,0.14776316402067136,9.08790935332185,3.2143274826574797,-0.3688888888888889,-0.33,-0.62,0.0498847749472433,0.028996322777034147,0.06660606460469241
1592167936.0693984,0.2011719684286056,9.059414015785698,3.2158789763214544,-0.3688888888888889,-0.33,-0.62,0.0355499690890701,0.018737973403227807,0.04838634184650269
1592167936.0793984,0.24255769585820666,9.11767308757462,3.2694759677518617,-0.3701420942143448,-0.3331330133136398,-0.6250128213018238,0.026516103168083505,0.011859637938741239,0.0019094741437588741
1592167936.0893984,0.32196893966440554,9.182393787932881,3.324787575865762,-0.3711111111111111,-0.33555555555555555,-0.6288888888888889,0.033200823230770386,0.004824521399950632,-0.020572052110777728
1592167936.0993984,0.3848096851335193,9.084558838182542,3.3275951574332403,-0.3711111111111111,-0.33555555555555555,-0.6288888888888889,0.037502498181183765,0.0017674099886886454,-0.013021085969430655
1592167936.1093984,0.4,8.965074633689166,3.283383089126111,-0.3711111111111111,-0.33555555555555555,-0.6288888888888889,0.061719672955265675,0.002847375790679025,-0.006304387026102966
1592167936.1193984,0.2970917322834646,9.13581653543307,3.1570917322834644,-0.3711111111111111,-0.33555555555555555,-0.6288888888888889,0.10524558709213563,0.0011342922294211178,-0.008126904060067592
1592167936.1293983,0.16222934127588834,9.405541317448224,3.066662395234467,-0.3563000931249182,-0.33555555555555555,-0.6325916433854372,0.12144908870474888,-0.0077553104475187006,-0.0030321045844837243
1592167936.1393983,0.14199482620418277,9.424067259345623,3.085984478612548,-0.34444444444444444,-0.33555555555555555,-0.6355555555555555,0.08972216330503267,-0.02222924427282055,0.010453351184024644
1592167936.1493983,0.2346854295860497,9.177093337573542,3.057071606508719,-0.34444444444444444,-0.33555555555555555,-0.6355555555555555,-0.041184166736558975,-0.07911243456573969,0.04504350025870986
1592167936.1593983,0.327048883666275,9.101146650998826,3.0156829612220917,-0.34444444444444444,-0.33555555555555555,-0.6355555555555555,-0.08382105242313337,-0.10638266319737147,0.03777991792125446
1592167936.1693983,0.31693752568040856,9.16767496918351,3.0615124537752645,-0.34444444444444444,-0.33555555555555555,-0.6355555555555555,-0.08215047071188492,-0.11898099789946717,0.00924208509456613
1592167936.1793983,0.27184590184590185,9.204538524538524,3.178077868077868,-0.34999152999153,-0.3284956284956285,-0.6335384335384335,-0.08289482405836027,-0.13287168339769956,-0.017050579208947942
1592167936.1893983,0.4203554119547658,8.951312152216838,3.386189194040567,-0.3566666666666667,-0.32,-0.6311111111111111,-0.10665450632444302,-0.15350834159315813,-0.02319312622270781
1592167936.1993983,0.43576401138314635,8.858317222888592,3.4276015428396716,-0.3566666666666667,-0.32,-0.6311111111111111,-0.10823699747690986,-0.16035212502697901,-0.04661666721548449
1592167936.2093983,0.30604821526896653,9.09019271743554,3.3841686816212206,-0.3566666666666667,-0.32,-0.6311111111111111,-0.055022569098095754,-0.16669208440598784,-0.07862918032283604
1592167936.2193983,0.26871154063951075,9.22226282607875,3.3583846124806525,-0.3566666666666667,-0.32,-0.6311111111111111,-0.026566623858537832,-0.17280927337293248,-0.08670286600908465
1592167936.2293983,0.4351985981308411,9.264614485981308,3.2850817757009345,-0.3566666666666667,-0.3305802180685358,-0.6311111111111111,-0.06885996748011505,-0.20946754560989772,-0.04304576285274274
1592167936.2393982,0.4853149378792257,8.972821438890495,3.4298360300491186,-0.3566666666666667,-0.3411111111111111,-0.6311111111111111,-0.19762293844224887,-0.22143864884678055,-0.013738447961175747
1592167936.2493982,0.7038787937837969,8.87405173673698,3.4683621571588636,-0.3566666666666667,-0.3411111111111111,-0.6311111111111111,-0.23962545027161977,-0.21819437451193335,-0.004156444178543397
1592167936.2593982,0.8273121777263747,9.016358247795287,3.5253756445472506,-0.3566666666666667,-0.3411111111111111,-0.6311111111111111,-0.19418998397060305,-0.19469755067198588,-0.01790726652782915
1592167936.2693982,0.8,9.104130275676994,3.587826299097341,-0.3566666666666667,-0.3411111111111111,-0.6311111111111111,-0.16875862748813555,-0.17723618430863008,-0.02972520535332743
1592167936.2793982,0.7786667552396453,8.906000597867605,3.723999734281064,-0.3566666666666667,-0.3298518985987017,-0.6234074393920941,-0.179768854984537,-0.11911881565129126,-0.05701406957485512
1592167936.2893982,0.7501312165883687,8.782467195852908,3.7725984124412766,-0.3566666666666667,-0.32,-0.6166666666666667,-0.18256669157957817,-0.09549779075125826,-0.06054826518324165
1592167936.2993982,0.5986775468775042,9.016859874993322,3.535669106255676,-0.3566666666666667,-0.32,-0.6166666666666667,-0.055897312594034354,-0.06103422291551762,-0.057314594257643334
1592167936.3093982,0.5232753202803965,9.195516880186931,3.3822415599065345,-0.3566666666666667,-0.32,-0.6166666666666667,-0.004109314511710523,-0.05380799036076547,-0.058058547726997936
1592167936.3193982,0.47395961404555853,9.10852501740774,3.4395961404555853,-0.3566666666666667,-0.32,-0.6166666666666667,-0.011164017744593642,-0.04713270065230395,-0.05783605859345479
1592167936.3293982,0.5097980187829667,9.011376238260645,3.526073266435096,-0.3541834984347528,-0.32,-0.6166666666666667,-0.03330338796549581,-0.042970740702087735,-0.052103694413882726
1592167936.3393981,0.5294046509513309,9.005496124207225,3.57,-0.35,-0.32,-0.6166666666666667,0.002166609979782859,-0.023716859685187486,-0.046884076145060335
1592167936.3493981,0.4708619621670558,9.034856339638823,3.5117239243341114,-0.35,-0.32,-0.6166666666666667,0.03842674540465311,0.008193835169707616,-0.04528514838802245
1592167936.3593981,0.3965065533289011,9.054497815557033,3.4548326051856777,-0.35,-0.32,-0.6166666666666667,0.046451607964245925,0.04097681125250328,-0.04314259573349794
1592167936.369398,0.29061212477928194,9.077918383362762,3.4679183833627625,-0.35,-0.32,-0.6166666666666667,0.03888254232401827,0.059087416435202864,-0.036268999943039906
1592167936.379398,0.20762467954195865,9.09,3.4876246795419585,-0.347882033460567,-0.32,-0.6192082265139862,0.024980304571565654,0.06311143089463497,-0.018796779921212474
1592167936.389398,0.22032543636428803,9.089755922726784,3.500162718182144,-0.34444444444444444,-0.32,-0.6233333333333333,0.014012177070597103,0.06092677561804244,-0.003068369645241635
1592167936.399398,0.2718905030415822,9.048109496958418,3.488291991889114,-0.34444444444444444,-0.32,-0.6233333333333333,-0.006544984694978735,0.03453395547506502,0.028301879018491904
1592167936.409398,0.30429652684445074,9.020468982103699,3.44476550894815,-0.34444444444444444,-0.32,-0.6233333333333333,-0.0008267844545836829,0.017760240589036518,0.04285760485679009
1592167936.419398,0.3082812314510704,9.006093743817024,3.4656250247319065,-0.34444444444444444,-0.32,-0.6233333333333333,0.0050280474636114885,0.010056094927222977,0.04288327704339456
1592167936.429398,0.29674780502573417,8.993252194974266,3.483252194974266,-0.3463188347293706,-0.3222492683419114,-0.6173352844215696,0.005467430145439094,0.009462717603607161,0.02828194294716697
1592167936.439398,0.24469813953488373,9.031308604651162,3.437349069767442,-0.35,-0.32666666666666666,-0.6055555555555555,0.01374152515315838,0.012943544383525622,7.356765742415686e-06
1592167936.449398,0.1425677984455086,9.108288134369662,3.381711865630339,-0.35,-0.32666666666666666,-0.6055555555555555,0.0237181738561613,0.013775436460586064,-0.032415237463586474
1592167936.459398,0.137843447037702,9.13,3.373921723518851,-0.35,-0.32666666666666666,-0.6055555555555555,0.01967764728252763,0.006937057087538503,-0.05169684045081372
1592167936.469398,0.20485216358055253,9.118382612139817,3.3861275373799384,-0.35,-0.32666666666666666,-0.6055555555555555,0.002037484821901886,-0.008624832506572186,-0.04373504505325769
1592167936.479398,0.2929736857879278,9.093405262842413,3.3898921057363784,-0.3412070171232192,-0.3226365495148088,-0.6037236841228929,-0.016315383983841525,-0.030472645279492797,-0.019729109592146833
1592167936.489398,0.36440799693810927,9.07559200306189,3.392368012247563,-0.3233333333333333,-0.31444444444444447,-0.6,-0.02749329737203835,-0.04796077217417399,0.0011842035594748996
1592167936.499398,0.36150842703601654,9.061508427036017,3.3063132027701245,-0.3233333333333333,-0.31444444444444447,-0.6,-0.03100640536894716,-0.05159813450614078,0.006380440830575058
1592167936.509398,0.37199568551129036,9.085193096818065,3.2463948226135484,-0.3233333333333333,-0.31444444444444447,-0.6,-0.03355357835942337,-0.04428867104477515,0.010994915394770946
1592167936.519398,0.39305740320658233,9.119586104809875,3.297356491983544,-0.3233333333333333,-0.31444444444444447,-0.6,-0.04167731454192392,-0.03514979807028749,0.014892971040314324
1592167936.529398,0.3697288081068039,9.1,3.342838989866495,-0.3270423748503208,-0.3192947295051204,-0.5982881346844673,-0.05656142716858976,-0.028332017898401677,0.014180800172453926
1592167936.539398,0.34,9.1,3.38,-0.3377777777777778,-0.3333333333333333,-0.5933333333333334,-0.07450612933238071,-0.024607125494493152,0.01514476517830459
1592167936.549398,0.319393058331819,9.1,3.3676358349990916,-0.3377777777777778,-0.3333333333333333,-0.5933333333333334,-0.09125335693523369,-0.028044440749778955,0.015463314285256411
1592167936.559398,0.30532217293842706,9.07701674059236,3.3883054323460677,-0.3377777777777778,-0.3333333333333333,-0.5933333333333334,-0.1168373310942383,-0.03715853383658422,0.010838020593259846
1592167936.569398,0.34554021388099243,9.015135657790411,3.468648256657191,-0.3377777777777778,-0.3333333333333333,-0.5933333333333334,-0.14686392888619546,-0.04559371437759553,0.0013857354321706152
1592167936.579398,0.3841888434831722,8.97047210870793,3.5183776869663443,-0.33475250192882006,-0.32937720337700405,-0.5947296144943908,-0.1674280104207448,-0.05053214979402832,-0.009463543243276756
1592167936.589398,0.3873960551902954,9.068818409111955,3.5247921103805906,-0.3233333333333333,-0.31444444444444447,-0.6,-0.1437891540661545,-0.03859201527411043,-0.01773733883537806
1592167936.599398,0.34656347536587057,9.134375650243914,3.462657387926849,-0.3233333333333333,-0.31444444444444447,-0.6,-0.1271498921541354,-0.02524277206598601,-0.017930601917893217
1592167936.609398,0.26624239588207765,9.077181796911558,3.445525269068788,-0.3233333333333333,-0.31444444444444447,-0.6,-0.14333296988677988,-0.015271630954950384,-0.012089488185608826
1592167936.6193979,0.16381418958800614,8.993814189588006,3.56564789674576,-0.3233333333333333,-0.31444444444444447,-0.6,-0.1707056814635603,-0.017810678782685416,-0.005910222738044977
1592167936.6293979,0.1150549970862471,8.94720571095571,3.7758085664335663,-0.32476714257964256,-0.31707309472934475,-0.6,-0.17670258826150068,-0.027517374554651912,-0.003659503662039848
1592167936.6393979,0.17,9.01,3.87,-0.33,-0.32666666666666666,-0.6,-0.16471544815696484,-0.04036073895236887,-0.001090830782496456
1592167936.6493979,0.394434011476265,8.912696098619003,3.9867825275238173,-0.33,-0.32666666666666666,-0.6,-0.15783844934852057,-0.05744410198200669,0.017216066848577554
1592167936.6593978,0.5243333414155129,8.818333292922436,4.008666682831025,-0.33,-0.32666666666666666,-0.6,-0.1496256002917048,-0.04821470471702081,0.03399756379595136
1592167936.6693978,0.53,8.79,4.02,-0.33,-0.32666666666666666,-0.6,-0.1341721862470641,-0.0370882466048795,0.0370882466048795
1592167936.6793978,0.44662882329370907,8.84876419126486,3.92786463202885,-0.336167393853049,-0.3208238724900939,-0.6016229983823813,-0.05223698243961675,0.008739030474812332,0.02535871963933243
1592167936.6893978,0.39,8.87,3.85,-0.3511111111111111,-0.30666666666666664,-0.6055555555555555,-0.004363323129985824,0.0272707695624114,0.020725784867432664
1592167936.6993978,0.41732260775603314,8.965354784487934,3.866929043102413,-0.3511111111111111,-0.30666666666666664,-0.6055555555555555,0.0404895326840902,0.04728364432281546,0.004320391886078712
1592167936.7093978,0.4367225678478045,8.870125777657561,3.906554864304391,-0.3511111111111111,-0.30666666666666664,-0.6055555555555555,0.04618155206214146,0.04908281180765329,0.003992090528008287
1592167936.7193978,0.3954344223484848,8.807572403724748,3.9575724037247473,-0.3511111111111111,-0.30666666666666664,-0.6055555555555555,0.052403542641460354,0.05153385645178535,0.008959863849734788
1592167936.7293978,0.35237119925400473,8.822526392913046,3.9179888100709364,-0.3496620449003304,-0.3090378659206714,-0.6048968890961097,0.08528184589982034,0.052230548702944836,0.01321929824684252
1592167936.7393978,0.36612460559923876,9.032629338408373,3.621869083988581,-0.3388888888888889,-0.32666666666666666,-0.6,0.168957816744333,0.05465096638266526,0.01629449992578632
1592167936.7493978,0.36,9.1,3.53,-0.3388888888888889,-0.32666666666666666,-0.6,0.19634954084936207,0.05999569303730508,0.019634954084936207
1592167936.7593977,0.2931746704082173,9.106137554931964,3.3177248901360725,-0.3388888888888889,-0.32666666666666666,-0.6,0.1585398685387504,0.07937092000682398,0.025002532292279386
1592167936.7693977,0.1943233404284947,9.12,3.302541327657204,-0.3388888888888889,-0.32666666666666666,-0.6,0.11989052507723516,0.08754367844340527,0.030006862814781907
1592167936.7793977,0.1644611784471379,9.115538821552862,3.3411529461178446,-0.3433500673360268,-0.3239403909489713,-0.6032219622118218,0.08722539117789861,0.08542924463204071,0.038430611210556916
1592167936.7893977,0.18,9.1,3.38,-0.35888888888888887,-0.31444444444444447,-0.6144444444444445,0.04908738521234052,0.06763150851478027,0.04690572364734761
1592167936.7993977,0.17290689339825502,9.048720680194766,3.51,-0.35888888888888887,-0.31444444444444447,-0.6144444444444445,0.04263956935841364,0.06479446953905244,0.046389898379033456
1592167936.8093977,0.14732445520581114,8.977324455205812,3.526053268765133,-0.35888888888888887,-0.31444444444444447,-0.6144444444444445,0.020649189001349377,0.04833595335369586,0.03859507217731105
1592167936.8193977,0.147041713505701,8.972347237835235,3.5653055243295326,-0.35888888888888887,-0.31444444444444447,-0.6144444444444445,0.020781863589810483,0.024776985346589345,0.020536396007672507
1592167936.8293977,0.1814818154493538,8.987654543632903,3.55,-0.357329630000705,-0.31444444444444447,-0.6133104379803107,0.03121660210136061,0.012950805859611933,0.014970826433991452
