time,acc_x,acc_y,acc_z,mag_x,mag_y,mag_z,gyr_x,gyr_y,gyr_z
1592167938.7893958,0.034913979505499675,9.058304659835168,3.5333906803296666,-0.3377777777777778,-0.3222604535531113,-0.5949139795054996,0.015456563878810677,0.017823158367663884,-0.0005547987715808806
1592167938.7993958,0.002523663124258637,9.035047326248518,3.5462618315621293,-0.3377777777777778,-0.3333333333333333,-0.57,0.01921685817897706,0.017188328563624587,-0.00490357602836378
1592167938.8093958,-0.044210725432705954,9.036608342003216,3.4525725905608624,-0.3377777777777778,-0.3333333333333333,-0.57,0.030217962613843703,0.006870283991035798,-0.008050461170736637
1592167938.8193958,-0.0890792306089855,9.090920769391014,3.3136402564636716,-0.3377777777777778,-0.3333333333333333,-0.57,0.04155201009439524,-0.00922884805762122,-0.007535375117945277
1592167938.8293958,-0.046362076712552595,9.11590948082186,3.328864221232793,-0.3377777777777778,-0.3333333333333333,-0.57,0.038153924249157777,-0.02318038805891886,-0.0044872173741233755
1592167938.8393958,0.016702663786897047,9.125531557475403,3.37234221262299,-0.33926725861931045,-0.33184385249180065,-0.5747166893315201,0.020702224807335544,-0.03187780842517961,-0.003887671694469611
1592167938.8493958,0.04,9.11,3.45,-0.34444444444444444,-0.32666666666666666,-0.5911111111111111,0.00545415391248228,-0.032724923474893676,-0.009817477042468103
1592167938.8593957,0.11,9.04,3.4730174286168354,-0.34444444444444444,-0.32666666666666666,-0.5911111111111111,0.0049171753117327795,-0.019998920694225496,-0.015150308751853954
1592167938.8693957,0.09695107561042027,9.049786693292184,3.4163111554869747,-0.34444444444444444,-0.32666666666666666,-0.5911111111111111,0.02025358989586821,0.0020653208034940155,-0.023216764337891577
1592167938.8793957,0.03894287645766436,9.062235719114415,3.46294046814264,-0.34444444444444444,-0.32666666666666666,-0.5911111111111111,0.031107896349497018,0.0145015554889481,-0.03118477254288911
1592167938.8893957,0.0037622866791292217,9.013118856660435,3.4937966592293312,-0.33893036375940555,-0.3280451868379264,-0.5940979048155072,0.032724923474893676,0.013807366755567213,-0.03814210899204562
1592167938.8993957,0.21,8.91,3.47,-0.31777777777777777,-0.3333333333333333,-0.6055555555555555,0.032724923474893676,-0.004363323129985824,-0.03381575425739013
1592167938.9093957,0.3608322143896162,9.107829808660625,3.1816831710864943,-0.31777777777777777,-0.3333333333333333,-0.6055555555555555,0.0500100813408268,-0.035196441859930615,0.05876766925944933
1592167938.9193957,0.75,9.24,2.91,-0.31777777777777777,-0.3333333333333333,-0.6055555555555555,0.06763150851478027,-0.03599741582238304,0.05235987755982988
1592167938.9293957,0.1904732853840226,9.290427476667523,3.112748094871136,-0.31777777777777777,-0.3333333333333333,-0.6055555555555555,-0.0026979358307904246,0.005903809884280684,-0.019485068761003407
1592167938.9393957,0.28197035091011446,9.168029649089885,3.204646900606743,-0.32266007798002544,-0.3321127582827714,-0.6045384096800872,-0.08692789361599548,0.02453560707119022,-0.0116767406937001
1592167938.9493957,0.38,9.07,3.27,-0.34444444444444444,-0.32666666666666666,-0.6,-0.12435470920459597,0.05126904677733343,0.004363323129985824
1592167938.9593956,0.46852707683583783,9.079543521406295,3.268983555429543,-0.34444444444444444,-0.32666666666666666,-0.6,-0.111314533904795,0.10531264500059136,0.025720503246204
1592167938.9693956,0.37002135890072857,9.114612098630657,3.1607758027386854,-0.34444444444444444,-0.32666666666666666,-0.6,-0.10950155321461832,0.14432118140901506,0.039185281219022074
1592167938.9793956,0.24894496703650107,9.135742281717318,3.1261718121884545,-0.34444444444444444,-0.32666666666666666,-0.6,-0.1199659087999426,0.16404220788506954,0.04337758153856405
1592167938.9893956,0.15839025764643272,9.169658454121404,3.1121463231380897,-0.34408672392142947,-0.32666666666666666,-0.5980921572105868,-0.14687900059899725,0.1654550876372294,0.04754957436810609
1592167938.9993956,0.1272307983262807,9.287385168199334,3.1943072267795087,-0.3377777777777778,-0.32666666666666666,-0.5644444444444444,-0.24667848391740516,0.1556364177301221,0.05860278921194525
1592167939.0093956,0.13382349360925136,9.097470724284845,3.3569998782714547,-0.3377777777777778,-0.32666666666666666,-0.5644444444444444,-0.33935741659907415,0.14315550638440222,0.055099794849201564
1592167939.0193956,0.17,8.96,3.48,-0.3377777777777778,-0.32666666666666666,-0.5644444444444444,-0.37960911230876665,0.13526301702956053,0.04799655442984406
1592167939.0293956,0.15143903364815683,8.821365798111058,3.784610043092862,-0.3377777777777778,-0.32666666666666666,-0.5644444444444444,-0.3365238903108525,0.1308996938995747,0.04800454318766796
1592167939.0393956,0.1576886292884881,8.77577842677878,4.054622741423024,-0.3368789113899676,-0.3243552959551547,-0.5711217376110345,-0.2665690199269097,0.1308996938995747,0.05567613056966787
1592167939.0493956,0.14,8.82,4.09,-0.33,-0.30666666666666664,-0.6222222222222222,-0.20289452554434081,0.1308996938995747,0.0643590161672909
1592167939.0593956,0.09552055080325475,8.880199770498644,4.05368036720217,-0.33,-0.30666666666666664,-0.6222222222222222,-0.1443257543302273,0.11602952872812605,0.05536626227276178
1592167939.0693955,0.005512996886539715,8.886922018680762,4.014808485989429,-0.33,-0.30666666666666664,-0.6222222222222222,-0.11743890049080463,0.09916039618203193,0.04100389549873544
1592167939.0793955,0.02,8.8,4.08,-0.33,-0.30666666666666664,-0.6222222222222222,-0.09926560120717749,0.07308566242726255,0.028361600344907853
1592167939.0893955,0.13023870466768284,8.750334186534756,4.1402387046676825,-0.3300106090963415,-0.30670379850386176,-0.6221426539996613,-0.047673675294545866,0.022714760496844396,0.0010283380466322893
1592167939.0993955,0.18681606019088312,8.833632120381766,4.142287578663819,-0.3322222222222222,-0.31444444444444447,-0.6055555555555555,0.031159464905860378,-0.021914393482881683,-0.015159085122875707
1592167939.1093955,0.2230058977085952,8.907514744271488,3.887455767185536,-0.3322222222222222,-0.31444444444444447,-0.6055555555555555,0.09546377697364444,-0.04592847932455807,-0.03218272478468636
1592167939.1193955,0.2382394585343084,8.95,3.76,-0.3322222222222222,-0.31444444444444447,-0.6055555555555555,0.14315231870178577,-0.061785541491765385,-0.04029929804008262
1592167939.1293955,0.2630617469573521,8.94586728163033,3.7476018448909927,-0.3322222222222222,-0.31444444444444447,-0.6055555555555555,0.15057084130527035,-0.075943538454209,-0.03513198986053777
1592167939.1393955,0.4052975173228102,8.93179970792033,3.6883018985178513,-0.3315223358087603,-0.31494436331120296,-0.6055555555555555,0.15637035371374622,-0.07824533981989493,-0.03570293930253315
1592167939.1493955,0.56,8.95,3.57,-0.3244444444444444,-0.32,-0.6055555555555555,0.1712604328519436,-0.07526732399225547,-0.032724923474893676
1592167939.1593955,0.5476525645825533,9.041564956944963,3.378667165855485,-0.3244444444444444,-0.32,-0.6055555555555555,0.18991523198443072,-0.0679635360049224,-0.006544984694978735
1592167939.1693954,0.3619258382059063,9.160156909185108,3.2101569091851085,-0.3244444444444444,-0.32,-0.6055555555555555,0.1732258013471187,-0.052342761422912616,-0.008988071030434495
1592167939.1793954,0.23,9.23,3.28,-0.3244444444444444,-0.32,-0.6055555555555555,0.1308996938995747,-0.044724062082354694,-0.017453292519943295
1592167939.1893954,0.20006809635125522,9.130226987837519,3.349841108513738,-0.3244444444444444,-0.32,-0.6055555555555555,0.05144979866123729,-0.04690077154093929,-0.01309987360277412
1592167939.1993954,0.26,9.05,3.43,-0.3244444444444444,-0.32666666666666666,-0.6,0.0032724923474893677,-0.04799655442984406,-0.016362461737446838
1592167939.2093954,0.5714533025814879,8.99312362797677,3.578546697418512,-0.3244444444444444,-0.32666666666666666,-0.6,0.0015900964567260147,-0.03888422081398043,-0.011317668697435581
1592167939.2193954,0.67,9.02,3.48,-0.3244444444444444,-0.32666666666666666,-0.6,0.015271630954950384,-0.02617993877991494,-0.00545415391248228
1592167939.2293954,0.565231730846531,9.056675576814857,3.4133244231851436,-0.3244444444444444,-0.32666666666666666,-0.6,0.03662158079500291,-0.007739842972911836,-0.007947897963785125
1592167939.2393954,0.5230830452608731,9.115683736634777,3.3543162633652224,-0.3244444444444444,-0.32666666666666666,-0.6,0.042138830836434965,-0.008659384646483845,-0.01070652298450115
1592167939.2493954,0.51,9.18,3.13,-0.3377777777777778,-0.31444444444444447,-0.6077777777777778,0.01090830782496456,-0.01090830782496456,-0.001090830782496456
1592167939.2593954,0.41084071147289686,9.154203557364484,3.1224335967439276,-0.3377777777777778,-0.31444444444444447,-0.6077777777777778,-0.032753897361206256,-0.017453292519943295,-0.00190653937884275
1592167939.2693954,0.4147416654639919,9.201752778178669,3.0575277817866935,-0.3377777777777778,-0.31444444444444447,-0.6077777777777778,-0.07713507062287142,-0.01687969720228911,0.0008996323432783948
1592167939.2793953,0.39,9.21,3.14,-0.3377777777777778,-0.31444444444444447,-0.6077777777777778,-0.11671889372712078,-0.014180800172453926,0.0
1592167939.2893953,0.44490755135117255,9.100184897297655,3.405386498197334,-0.3377777777777778,-0.31444444444444447,-0.6077777777777778,-0.17262075111879374,-0.016177295079299388,-0.0009982474534227317
1592167939.2993953,0.56,8.98,3.64,-0.3233333333333333,-0.3333333333333333,-0.6055555555555555,-0.2083486794568231,-0.014180800172453926,-0.006544984694978735
1592167939.3093953,0.5597311288363002,8.978716391104538,3.7529401510749563,-0.3233333333333333,-0.3333333333333333,-0.6055555555555555,-0.20374599701826984,-0.007886526202457606,-0.012629228650596546
1592167939.3193953,0.38662342325091553,8.966233753799756,3.6422078077503053,-0.3233333333333333,-0.3333333333333333,-0.6055555555555555,-0.17874042655029676,0.0047033216567497205,-0.02674659428800562
1592167939.3293953,0.26,9.0,3.6,-0.3233333333333333,-0.3333333333333333,-0.6055555555555555,-0.148352986419518,0.006544984694978735,-0.053450708342326333
1592167939.3393953,0.15555699202758028,9.008703583997702,3.6174071679954034,-0.3233333333333333,-0.3333333333333333,-0.6055555555555555,-0.13221295293686594,-0.0010503251792104784,-0.07338839676207302
1592167939.3493953,0.04,8.98,3.54,-0.3322222222222222,-0.30666666666666664,-0.6222222222222222,-0.15271630954950383,-0.030543261909900768,-0.05890486225480862
1592167939.3593953,0.107851059410054,8.98161170544246,3.5583882945575405,-0.3322222222222222,-0.30666666666666664,-0.6222222222222222,-0.17689039655532104,-0.07080942556151258,-0.007166989368421355
1592167939.3693953,0.07394576368462588,9.006054236315373,3.5523593275462133,-0.3322222222222222,-0.30666666666666664,-0.6222222222222222,-0.18185221532322873,-0.08835729338221293,0.0015212468312611096
1592167939.3793952,0.1,8.98,3.7,-0.3322222222222222,-0.30666666666666664,-0.6222222222222222,-0.19416787928436915,-0.08835729338221293,0.004363323129985824
1592167939.3893952,0.231999564760074,8.889250299227449,3.9392492111276343,-0.3322222222222222,-0.30666666666666664,-0.6222222222222222,-0.2130664602771497,-0.08565749609753001,0.010662850127579336
1592167939.3993952,0.32,8.88,4.1,-0.3511111111111111,-0.3288888888888889,-0.6144444444444445,-0.20725784867432664,-0.074176493209759,0.00545415391248228
1592167939.4093952,0.33778980891719745,8.826630573248408,4.153369426751593,-0.3511111111111111,-0.3288888888888889,-0.6144444444444445,-0.17426820766559148,-0.061562806941713205,-0.006189248796483078
1592167939.4193952,0.37,8.79,4.02,-0.3511111111111111,-0.3288888888888889,-0.6144444444444445,-0.1308996938995747,-0.04145156973486533,-0.02945243112740431
1592167939.4293952,0.21482519138189568,8.826511719674848,3.9287207008128795,-0.3511111111111111,-0.3288888888888889,-0.6144444444444445,-0.08908018076920865,-0.031494542799063885,-0.041400863450366046
1592167939.4393952,0.11791720034706443,8.879249679791762,3.9035834400694127,-0.3511111111111111,-0.3288888888888889,-0.6144444444444445,-0.05106019209625718,-0.03502018413864634,-0.04164701607161267
1592167939.4493952,0.09,8.93,3.89,-0.3322222222222222,-0.3088888888888889,-0.6288888888888889,-0.031634092692397225,-0.04581489286485115,-0.019634954084936207
1592167939.4593952,0.09799740923572454,8.922002590764276,3.9539792738857966,-0.3322222222222222,-0.3088888888888889,-0.6288888888888889,-0.03861314883203705,-0.04930442093467106,-0.010038751892931448
1592167939.4693952,0.13028859029413123,8.800288590294132,3.9501442951470658,-0.3322222222222222,-0.3088888888888889,-0.6288888888888889,-0.04654369999452435,-0.051237566459696626,-0.007557114683383179
1592167939.4793952,0.14965553862492495,8.819655538624925,3.9598277693124624,-0.3322222222222222,-0.3088888888888889,-0.6288888888888889,-0.02224872708193896,-0.04912496011947181,-0.0022755988328211378
1592167939.4893951,0.19249216106939518,8.862492161069394,3.934504703358363,-0.3322222222222222,-0.3088888888888889,-0.6288888888888889,0.013410719905134146,-0.04259813918903939,-0.003108696711178787
1592167939.4993951,0.13982904368358914,8.959871782762693,3.859658087367178,-0.3466666666666667,-0.31555555555555553,-0.6411111111111111,0.043581948086447365,-0.027224148459310607,-0.010922294155894798
1592167939.5093951,0.10021345926800473,8.930160094451002,3.7804269185360093,-0.3466666666666667,-0.31555555555555553,-0.6411111111111111,0.03169812587599312,-0.016420673722534015,-0.014163336576927773
1592167939.519395,0.12,8.9,3.64,-0.3466666666666667,-0.31555555555555553,-0.6411111111111111,0.017453292519943295,-0.014180800172453926,0.004363323129985824
1592167939.529395,0.16578876741524254,8.936631013932194,3.621684493033903,-0.3466666666666667,-0.31555555555555553,-0.6411111111111111,0.01645433658016095,-0.018176623931583306,0.02733930974497975
1592167939.539395,0.20586234854285843,9.029655871357145,3.6110344128642855,-0.3466666666666667,-0.31555555555555553,-0.6411111111111111,0.015384467894367667,-0.017566129459360577,0.02945243112740431
1592167939.549395,0.28,9.06,3.65,-0.3711111111111111,-0.3088888888888889,-0.6577777777777778,-0.006544984694978735,-0.011999138607461015,0.025089107997418484
1592167939.559395,0.27148250083683567,9.04296500167367,3.6840699966526573,-0.3711111111111111,-0.3088888888888889,-0.6577777777777778,-0.036276665581594675,0.0019375868081402056,0.01858530280347125
1592167939.569395,0.4000692693672745,8.854186758046751,3.8572319177579244,-0.3711111111111111,-0.3088888888888889,-0.6577777777777778,-0.0667879202496236,0.028686219624153773,0.019480200561123956
1592167939.579395,0.44632853387918403,8.812753599590613,3.91541066734898,-0.3711111111111111,-0.3088888888888889,-0.6577777777777778,-0.06178738976556035,0.054320231732928353,0.024588489464733618
1592167939.589395,0.36499033904854883,8.864097056969106,3.8968155470132406,-0.3711111111111111,-0.3088888888888889,-0.6577777777777778,-0.029895135328066022,0.07779846318423159,0.02424609749764185
1592167939.599395,0.34,8.97070356942848,3.8537185722286087,-0.3580094844158864,-0.3088888888888889,-0.6577777777777778,0.005988621448587403,0.09685646218216269,0.027955967039517596
1592167939.609395,0.2473584905660377,8.933679245283018,3.7758867924528303,-0.3566666666666667,-0.3088888888888889,-0.6577777777777778,-0.001378974762778538,0.10828039144743122,0.024319351935807778
1592167939.619395,0.15950518975397573,8.93,3.6537297185335205,-0.3566666666666667,-0.3088888888888889,-0.6577777777777778,-0.016816031039588644,0.11298557677620445,0.021071403320002888
1592167939.629395,0.11462019321841257,8.947689903390794,3.6842247584769843,-0.3566666666666667,-0.3088888888888889,-0.6577777777777778,-0.01757928874453644,0.11634090505334135,0.027479626772755835
1592167939.639395,0.03670394621198805,8.958144005976447,3.795872077693795,-0.3566666666666667,-0.3088888888888889,-0.6577777777777778,-0.020118412243525945,0.12116075993309187,0.03369183979207315
1592167939.649395,-0.09950832338273513,8.899655826367916,3.990688347264171,-0.3711111111111111,-0.3022222222222222,-0.6355555555555555,-0.03607786622075498,0.13199588804196263,0.020811598625696065
1592167939.659395,-0.001306455011589519,8.830914518508113,4.128170962983774,-0.3711111111111111,-0.3022222222222222,-0.6355555555555555,-0.05214610935844159,0.13306710425114174,0.03795105797256178
1592167939.669395,0.04921278569220159,8.780787214307798,4.021731871477156,-0.3711111111111111,-0.3022222222222222,-0.6355555555555555,-0.038402343963211676,0.12771307331202217,0.05857854956704872
1592167939.679395,-0.0478709784489912,8.819148391379597,3.9808516086204033,-0.3711111111111111,-0.3022222222222222,-0.6355555555555555,0.006660406534810918,0.1297624150721895,0.0460935811341838
1592167939.689395,-0.10177313271465899,8.84958464726552,3.9356230291017207,-0.3711111111111111,-0.3022222222222222,-0.6355555555555555,0.04232804769849298,0.12254769823360942,0.0353265435887295
1592167939.699395,-0.009800253857973146,8.924283185249516,3.9016333756429953,-0.3649889029921096,-0.3032425902420558,-0.6559629159522272,0.06556072269536611,0.09594953101160657,0.055675947755400815
1592167939.709395,0.14568523940155376,8.948210654925193,3.8817893450748056,-0.36444444444444446,-0.30333333333333334,-0.6577777777777778,0.06058125484373705,0.07692641577714605,0.08562467161886374
1592167939.719395,0.3217635,8.8833915,3.88,-0.36444444444444446,-0.30333333333333334,-0.6577777777777778,0.050653872757544544,0.07215338389900194,0.08524335328895943
1592167939.729395,0.42434251485708896,8.851697245542873,4.012079520799924,-0.36444444444444446,-0.30333333333333334,-0.6577777777777778,0.05429468476700665,0.08948982392648722,0.07479362910429938
1592167939.739395,0.4460532618844639,8.85,4.036053261884464,-0.36444444444444446,-0.30333333333333334,-0.6577777777777778,0.06942622251441558,0.10805034717025616,0.06454522748708133
1592167939.749395,0.3305929403044996,8.820148235076125,4.079802353231834,-0.37107816998308335,-0.29669960779469445,-0.6577777777777778,0.10456344571504646,0.14057703147583778,0.06109191379927096
1592167939.759395,0.2661715732274186,8.865591733408985,3.9796981865002294,-0.3711111111111111,-0.2966666666666667,-0.6577777777777778,0.14251673345437985,0.1655836040569902,0.060091866495203636
1592167939.7693949,0.14048603603603604,8.87,3.8078024774774772,-0.3711111111111111,-0.2966666666666667,-0.6577777777777778,0.17503885939546784,0.18102489158746063,0.06837659016209491
1592167939.7793949,0.11065070028750033,8.916746498562498,3.6865070028750035,-0.3711111111111111,-0.2966666666666667,-0.6577777777777778,0.19018558303309513,0.17816031949881464,0.07491242204036314
1592167939.7893949,0.12722399169738396,8.988895966789535,3.628328024907848,-0.3711111111111111,-0.2966666666666667,-0.6577777777777778,0.18400628481185755,0.16653234134234043,0.09593463036732225
1592167939.7993948,0.2474435238719676,9.004185492042678,3.554185492042677,-0.36514202645155736,-0.30959968342903316,-0.6378808289125986,0.15545570768553177,0.12984647685062267,0.10735798304065733
1592167939.8093948,0.21667828246415125,9.024755267163341,3.512867099254987,-0.36444444444444446,-0.3111111111111111,-0.6355555555555555,0.1317883587752134,0.1062835151815659,0.09002403702796685
1592167939.8193948,0.37165977538880146,9.014048603515885,3.4207962760423616,-0.36444444444444446,-0.3111111111111111,-0.6355555555555555,0.09342283137183555,0.07399543980114555,0.09472855759351723
1592167939.8293948,0.443978633090094,8.992408546763963,3.453978633090094,-0.36444444444444446,-0.3111111111111111,-0.6355555555555555,0.06546150079131352,0.06514721125265463,0.08077303574827539
1592167939.8393948,0.24695652173913044,9.044144927536232,3.507376811594203,-0.36444444444444446,-0.3111111111111111,-0.6355555555555555,0.05257962463050671,0.07395674613908218,0.042363757215300765
1592167939.8493948,0.03295429029671211,9.08950761828388,3.500738572574178,-0.39045460215628625,-0.30352481511182394,-0.6572306869820904,0.03310089706777016,0.08598764502078178,-0.0344935214508771
1592167939.8593948,-0.0659929132645201,9.053079648744415,3.514768140502234,-0.39111111111111113,-0.30333333333333334,-0.6577777777777778,0.007755132971786156,0.07087156667015412,-0.04163575561340732
1592167939.8693948,-0.20500149357761627,9.04,3.4762493776759933,-0.39111111111111113,-0.30333333333333334,-0.6577777777777778,-0.016362678969505485,0.037769622110833484,-0.029315873624537272
1592167939.8793948,-0.1755820220393629,8.995582022039363,3.567719551513402,-0.39111111111111113,-0.30333333333333334,-0.6577777777777778,-0.022420323114896723,-0.00882244367963654,-0.02436361970306867
1592167939.8893948,-0.19521954816652143,8.974868271100087,3.635483005966347,-0.39111111111111113,-0.30333333333333334,-0.6577777777777778,-0.021256830864783957,-0.03728941811943657,-0.039954227702124326
1592167939.8993948,-0.17844122057968353,9.018182291188444,3.6484412205796835,-0.39665228170048666,-0.30333333333333334,-0.6614718915040282,-0.013288250662483608,-0.09988925740700713,-0.05563236990731925
1592167939.9093947,-0.062008724377435195,9.03,3.655427325088938,-0.3977777777777778,-0.30333333333333334,-0.6622222222222223,-0.010316278497601689,-0.14164944966433568,-0.04385234913830397
1592167939.9193947,0.0007873276330746838,8.96072851282558,3.606122176642119,-0.3977777777777778,-0.30333333333333334,-0.6622222222222223,-0.017373824098384467,-0.1726153317001084,-0.04455870953898907
1592167939.9293947,-0.028145740277355537,8.932370851944528,3.6357748883328265,-0.3977777777777778,-0.30333333333333334,-0.6622222222222223,-0.02962148553669324,-0.18805056882686272,-0.07161343244855684
1592167939.9393947,-0.014934983056190402,8.967597525415714,3.6625325084719047,-0.3977777777777778,-0.30333333333333334,-0.6622222222222223,-0.033408465776046246,-0.20046497915301575,-0.08646607013376698
1592167939.9493947,0.0077087105210219276,8.966873868436934,3.7162522631261314,-0.3789342631708353,-0.309328997071906,-0.6408091374416058,-0.042224652987075145,-0.21037146725667266,-0.09053895494720585
1592167939.9593947,0.026607459615430096,8.951696270192285,3.7632149192308604,-0.37333333333333335,-0.3111111111111111,-0.6344444444444445,-0.04562985849073359,-0.21524435743782805,-0.09687952980585811
1592167939.9693947,-0.008321063304531834,8.980656850643625,3.609051534120966,-0.37333333333333335,-0.3111111111111111,-0.6344444444444445,-0.04247074922720486,-0.21682053084370986,-0.09901080633409261
1592167939.9793947,-0.07219983347210657,8.975085761865113,3.604742714404663,-0.37333333333333335,-0.3111111111111111,-0.6344444444444445,-0.035757451215609054,-0.2284635627553073,-0.09194459168241943
1592167939.9893947,-0.11450429260261084,8.982252146301306,3.6077478536986947,-0.37333333333333335,-0.3111111111111111,-0.6344444444444445,-0.039830012509091454,-0.23368345850545652,-0.09679888425012212
1592167939.9993947,-0.07321812596006144,9.011293202764977,3.5503158602150537,-0.39068335040109237,-0.29691564260112646,-0.6289239844683393,-0.045955959403255794,-0.2430452879491957,-0.10067302007103789
1592167940.0093946,-0.1255290063182079,9.042658701895462,3.514894198736358,-0.3977777777777778,-0.2911111111111111,-0.6266666666666667,-0.05349687285240924,-0.252295012398628,-0.10694758119473559
1592167940.0193946,-0.12066741657292838,9.064666291713536,3.436668541432321,-0.3977777777777778,-0.2911111111111111,-0.6266666666666667,-0.07323065662013656,-0.26136287143146314,-0.11548245523612462
1592167940.0293946,-0.0884969512195122,9.077167682926829,3.4243353658536586,-0.3977777777777778,-0.2911111111111111,-0.6266666666666667,-0.11246930966043184,-0.272581651457478,-0.10529975782840179
1592167940.0393946,0.036759842057938155,9.009944094765238,3.616815747292701,-0.3977777777777778,-0.2911111111111111,-0.6266666666666667,-0.15601319515738601,-0.28425892791355784,-0.08825673515143273
1592167940.0493946,0.2014693540867195,8.89334325574723,3.838875659003694,-0.4158820786859377,-0.2952257249538747,-0.6060935974528486,-0.20931361656008585,-0.28369776783366474,-0.07639903696704503
1592167940.0593946,0.22360810592604555,8.863608105926044,3.8731959470369772,-0.4222222222222222,-0.2966666666666667,-0.5988888888888889,-0.22209093676786565,-0.2744618670697594,-0.07422145277010653
1592167940.0693946,0.18025990575823134,8.894610141362653,3.8056497643955782,-0.4222222222222222,-0.2966666666666667,-0.5988888888888889,-0.20958126684013295,-0.23690873904286974,-0.07361690215842943
1592167940.0793946,0.13737885904693084,8.900679674013409,3.8172813039463644,-0.4222222222222222,-0.2966666666666667,-0.5988888888888889,-0.19839356215784584,-0.21534915136400407,-0.07671821783202783
1592167940.0893946,0.07734377471919,8.86734377471919,3.9109765068818225,-0.4222222222222222,-0.2966666666666667,-0.5988888888888889,-0.19692903930967262,-0.19097209541383275,-0.08271991061617653
1592167940.0993946,0.06664795748920625,8.843352042510794,3.9632959149784126,-0.4192675744492417,-0.28484807557474445,-0.593718255286173,-0.2050639419813203,-0.18072450390692404,-0.08218408236674196
1592167940.1093946,0.017779547477397288,8.817619806061742,4.059520775753033,-0.4177777777777778,-0.2788888888888889,-0.5911111111111111,-0.20156148096557164,-0.17157234698959095,-0.08967291287563842
1592167940.1193945,0.013910806942207908,8.796089193057792,3.9995797548756484,-0.4177777777777778,-0.2788888888888889,-0.5911111111111111,-0.19279358180698483,-0.16149160307598778,-0.09196189969110247
1592167940.1293945,0.10102967465141224,8.817009891550471,3.987009891550471,-0.4177777777777778,-0.2788888888888889,-0.5911111111111111,-0.18317533139897582,-0.15522414134847168,-0.07395185304861565
1592167940.1393945,0.20068536917981689,8.82448314825638,4.033101110461718,-0.4177777777777778,-0.2788888888888889,-0.5911111111111111,-0.17457092257794657,-0.14177123692318103,-0.07146779865419699
1592167940.1493945,0.2815012646432375,8.826300252928649,4.066300252928648,-0.42617811501597447,-0.28238902940480415,-0.5911111111111111,-0.17154410403586356,-0.10518773633695083,-0.08391791559004226
1592167940.1593945,0.3281670321637427,8.83,4.084083516081871,-0.4311111111111111,-0.28444444444444444,-0.5911111111111111,-0.1800326300683846,-0.05872265842893111,-0.07299456051432379
1592167940.1693945,0.18650960985153642,8.783285533433077,4.110020485671539,-0.4311111111111111,-0.28444444444444444,-0.5911111111111111,-0.18544346766450898,-0.01669627679679292,-0.049797473493150335
1592167940.1793945,-0.08281906741135213,8.731434212235355,4.3199605143525135,-0.4311111111111111,-0.28444444444444444,-0.5911111111111111,-0.18185799771390368,0.02040965788446006,-0.014965195207920466
1592167940.1893945,-0.1661403961417854,8.70771920771643,4.46754435755964,-0.4311111111111111,-0.28444444444444444,-0.5911111111111111,-0.16659081285555122,0.03146187106585891,0.027117902572469606
1592167940.1993945,-0.14215238448921488,8.658228576733823,4.551771423266178,-0.4365259252382082,-0.28444444444444444,-0.5926582008617103,-0.12551514952732415,0.028168368042150147,0.07500448214926603
1592167940.2093945,-0.15677146504947334,8.637566230450048,4.57,-0.4388888888888889,-0.28444444444444444,-0.5933333333333334,-0.09905251839872302,0.026445421854173975,0.08939032719378873
1592167940.2193944,-0.24645822208482054,8.733331553357129,4.285838228267896,-0.4388888888888889,-0.28444444444444444,-0.5933333333333334,-0.01740859362781324,0.031497666032603816,0.08683483317427122
1592167940.2293944,-0.22868124682118723,8.846850008476833,4.066043740463562,-0.4388888888888889,-0.28444444444444444,-0.5933333333333334,0.04840425867638637,0.026839208593822196,0.060882671696530374
1592167940.2393944,-0.20691190119226102,8.88047047904619,4.024294281430714,-0.4388888888888889,-0.28444444444444444,-0.5933333333333334,0.07058953133276863,0.02000074491704771,0.04293712285769756
1592167940.2493944,-0.02833833033513225,8.88875074955027,3.902086081684323,-0.4428239352684685,-0.27893537951303293,-0.5886112776778377,0.06885926548784393,-0.004408311087502332,-0.0006357183592841965
1592167940.2593944,0.04742544053305503,8.888712720266527,3.8438618392004176,-0.4444444444444444,-0.27666666666666667,-0.5866666666666667,0.05409886665619039,-0.020747196028378385,-0.018090329290085028
1592167940.2693944,0.09730816316536899,8.92730816316537,3.7417295920865774,-0.4444444444444444,-0.27666666666666667,-0.5866666666666667,0.040654372800436205,-0.039374872789019646,-0.045783670564651886
1592167940.2793944,0.12288386376326074,8.947730318257957,3.71,-0.4444444444444444,-0.27666666666666667,-0.5866666666666667,0.035334755916544884,-0.042013734342483545,-0.05713827672458474
1592167940.2893944,0.1909443805818375,8.918426032363604,3.807990538509152,-0.4444444444444444,-0.27666666666666667,-0.5866666666666667,0.005432981628747384,-0.04025772301146285,-0.07821760215379299
1592167940.2993944,0.22,8.853421771146474,3.9386825339915608,-0.44505845292050095,-0.27298261581032757,-0.5786845564779319,-0.024657968254348996,-0.028649026840287514,-0.07965958832891444
1592167940.3093944,0.10185388484416986,8.857721917273373,3.9759073057577914,-0.44555555555555554,-0.27,-0.5722222222222222,-0.04199484309832587,-0.006995712436828802,-0.06817906593381619
1592167940.3193944,0.0373057056769812,8.887305705676981,3.9742314314410065,-0.44555555555555554,-0.27,-0.5722222222222222,-0.05949078795753078,0.012082037364617592,-0.02928851174729987
1592167940.3293943,0.0730603899191631,8.853879220161675,4.04494626723728,-0.44555555555555554,-0.27,-0.5722222222222222,-0.08004208172836405,0.01854412330243975,0.0421733957533732
1592167940.3393943,0.06578910404334304,8.795789104043344,4.119368716765325,-0.44555555555555554,-0.27,-0.5722222222222222,-0.09258289187522739,0.01590312424430571,0.07688635458637873
1592167940.3493943,0.07194033764956564,8.77532338960826,4.113383051958695,-0.45324489610082136,-0.27,-0.5769541240962319,-0.06224243613070788,0.0177355031914877,0.07222276003052687
1592167940.3593943,0.14919262386136414,8.829192623861363,4.016211064207954,-0.46,-0.27,-0.5811111111111111,-0.031634092692397225,0.02181661564992912,0.06763150851478027
1592167940.3693943,0.19154558889071333,8.848454411109286,3.9469088222185733,-0.46,-0.27,-0.5811111111111111,-0.02533695081037762,0.04700518317800753,0.02732980046985479
1592167940.3793943,0.11050714302415302,8.84559330356099,3.969153124926933,-0.46,-0.27,-0.5811111111111111,-0.02438659348753791,0.07277146418999784,0.005139955675217581
1592167940.3893943,0.13363604772385035,8.867835437661686,3.9910822811691573,-0.46,-0.27,-0.5811111111111111,-0.029216314004477745,0.08340367744491069,0.03425484112976071
1592167940.3993943,0.23629532516819043,8.867158875280317,4.016545799551492,-0.4534014528587584,-0.2623862917601058,-0.5745125639698695,-0.03910883327771837,0.09841781286709478,0.05380018064338766
1592167940.4093943,0.12971880815088793,8.815925015506904,4.102131222862919,-0.44555555555555554,-0.25333333333333335,-0.5666666666666667,-0.05390544461881284,0.1143354250842845,0.030724620139424234
1592167940.4193943,0.07556012379424853,8.80556012379425,4.09107913344026,-0.44555555555555554,-0.25333333333333335,-0.5666666666666667,-0.05478145437768352,0.11538366283391432,0.04049639358127173
1592167940.4293942,0.10645704247085916,8.783542957529141,4.123496901930062,-0.44555555555555554,-0.25333333333333335,-0.5666666666666667,-0.04658784629162403,0.114023604506452,0.06666280478805509
1592167940.4393942,0.12571414724925367,8.768571705501492,4.192857558252239,-0.44555555555555554,-0.25333333333333335,-0.5666666666666667,-0.03303631753729516,0.11687480221700848,0.08212412566700958
1592167940.4493942,0.11588281920866636,8.804703084748,4.201765638417333,-0.4515025944763708,-0.25928037225414863,-0.5726137055874819,-0.014181664824636366,0.12627899263661596,0.0923993261720738
1592167940.4593942,0.08779985740242416,8.806699786103636,4.178899928701212,-0.46,-0.2677777777777778,-0.5811111111111111,-0.002667077374458204,0.1413171667598722,0.10241267523589918
1592167940.4693942,0.03375770491051992,8.821419765816549,4.019853348915011,-0.46,-0.2677777777777778,-0.5811111111111111,-0.0016168871205368403,0.15068952041017367,0.1024219392354198
1592167940.4793942,-0.07622072271578564,8.854555662663158,3.9289990360315765,-0.46,-0.2677777777777778,-0.5811111111111111,-0.0070296815398183015,0.15549185619022893,0.07610408325362229
1592167940.4893942,-0.20345114552566457,8.796310569170592,3.9895234293925124,-0.46,-0.2677777777777778,-0.5811111111111111,-0.010934300719398597,0.15226186928877472,0.032231929264380094
1592167940.4993942,-0.21234110950541188,8.888952133777687,3.8514380511398825,-0.46,-0.2608373557737996,-0.5752384463385142,-0.011389879358370329,0.13787030431350317,0.02331727606460248
1592167940.5093942,-0.15,9.05,3.68,-0.46,-0.25333333333333335,-0.5688888888888889,-0.01308996938995747,0.1265363707695889,0.04145156973486533
1592167940.5193942,0.012817312798725437,8.968916622411047,3.8428173127987253,-0.46,-0.25333333333333335,-0.5688888888888889,-0.10692835435400269,0.11048123018461914,0.053987723815175095
1592167940.5293941,0.03480008481964046,8.762398982164314,3.8984006785571235,-0.46,-0.25333333333333335,-0.5688888888888889,-0.1719587310957159,0.1202096910169216,0.013526116655206508
1592167940.5393941,0.016626874448691563,8.809074585906107,3.9049403116730375,-0.46,-0.25333333333333335,-0.5688888888888889,-0.1770695157100038,0.1282930969206731,0.029377528055149378
1592167940.5493941,-0.01642196972206579,8.98,3.8893583330572765,-0.46,-0.25333333333333335,-0.5561670034562339,-0.1885938991263256,0.12957871433602283,0.09580328760880351
1592167940.5593941,0.0409774232186038,8.918827092137676,4.026270650184185,-0.46,-0.25333333333333335,-0.5333333333333333,-0.2681065043791355,0.13308135546456762,0.13241865770653763
1592167940.569394,-0.00924644107351226,8.751301516919487,4.108904084014002,-0.46,-0.25333333333333335,-0.5333333333333333,-0.3129488886872272,0.14287640492431974,0.10436862725541302
1592167940.579394,-0.1611078841113551,8.70308068286463,4.13,-0.46,-0.25333333333333335,-0.5333333333333333,-0.29731339798469053,0.15779307325573033,0.08012888873770754
1592167940.589394,-0.23880187736300032,8.843489200817,4.162916431272,-0.46,-0.25333333333333335,-0.5333333333333333,-0.27957081361974606,0.1634314430040076,0.07757968046261289
1592167940.599394,-0.30719485036151195,8.85201287409622,4.241727325421764,-0.46,-0.24376477487280135,-0.5429018917938653,-0.3104164834780008,0.1612545338353306,0.07061358076895237
1592167940.609394,-0.34,8.77,4.28,-0.46,-0.23222222222222222,-0.5544444444444444,-0.34143003492139073,0.15707963267948966,0.06763150851478027
1592167940.619394,-0.33078373351369633,8.467482245519108,4.465748224551911,-0.46,-0.23222222222222222,-0.5544444444444444,-0.3226035203561843,0.15866017528605242,0.009182696160161447
1592167940.629394,-0.47635842051974353,8.550239622004725,4.428835639554506,-0.46,-0.23222222222222222,-0.5544444444444444,-0.280486721757813,0.13903361739214193,0.010791235874632508
1592167940.639394,-0.51,8.68,4.4,-0.46,-0.23222222222222222,-0.5544444444444444,-0.27052603405912107,0.12435470920459597,0.03490658503988659
1592167940.649394,-0.2296744992903328,8.529512379750827,4.804715344582873,-0.46894306891657467,-0.23222222222222222,-0.5450045383658378,-0.3041909884010505,0.08396737469332884,0.05592505867775601
1592167940.659394,-0.38428794320708354,8.429183991886726,4.857959979716816,-0.48,-0.23222222222222222,-0.5333333333333333,-0.3199929996205918,0.07818376563225447,0.043053797918571945
1592167940.669394,-0.16054056144149717,8.450256747351327,4.733959477225272,-0.48,-0.23222222222222222,-0.5333333333333333,-0.21002031372996127,0.07127694672024017,0.08706451001342798
1592167940.679394,-0.05,8.5,4.64,-0.48,-0.23222222222222222,-0.5333333333333333,-0.15817046346198613,0.07308566242726255,0.09490227807719166
1592167940.689394,-0.17860452912445002,8.6979849029185,4.56100754854075,-0.48,-0.23222222222222222,-0.5333333333333333,-0.11890055529211369,0.08568516967412726,0.05405959737717722
1592167940.699394,-0.20528956431076428,8.564903478563078,4.620193042873843,-0.47645859881555436,-0.22922565198922976,-0.5357850726148726,-0.1266564100610942,0.08944812416470939,0.027974117785506642
1592167940.709394,-0.18490961777287154,8.559241985189274,4.602454808886436,-0.46555555555555556,-0.22,-0.5433333333333333,-0.13649568943029525,0.0921653419493963,-0.018465249930005895
1592167940.719394,-0.37074011656484795,8.557055918357793,4.608404606418088,-0.46555555555555556,-0.22,-0.5433333333333333,-0.10660000392367217,0.09177690477491787,-0.05583331174797293
1592167940.729394,-0.5418901368479281,8.61135164385868,4.605135525144905,-0.46555555555555556,-0.22,-0.5433333333333333,-0.08599862334444522,0.06692347462368106,-0.02815423781803486
1592167940.739394,-0.3283386281864809,8.639241942892138,4.663887123937839,-0.46555555555555556,-0.22,-0.5433333333333333,-0.08223632813191163,0.02364638554245475,0.05406123705384186
1592167940.749394,-0.08119626033281595,8.611945998628308,4.725374869147746,-0.4625376714114396,-0.21512495638258192,-0.537761854913427,-0.08689243084853668,-0.009279877768980607,0.09480486208051635
1592167940.759394,-0.01,8.43,4.67,-0.45111111111111113,-0.19666666666666666,-0.5166666666666667,-0.07308566242726255,-0.019634954084936207,0.08617563181722002
1592167940.769394,-0.06998634325921088,8.603365199061841,4.509945373036843,-0.45111111111111113,-0.19666666666666666,-0.5166666666666667,-0.004709553332036402,-0.02145101909666479,0.034164963898088985
1592167940.779394,-0.05,8.65,4.43,-0.45111111111111113,-0.19666666666666666,-0.5166666666666667,0.020725784867432664,-0.01854412330243975,0.01308996938995747
1592167940.789394,0.011976410010777152,8.671628946633138,4.523952820021555,-0.45111111111111113,-0.19666666666666666,-0.5166666666666667,-0.008092385612199889,-0.014497930496339805,0.013407099713843351
1592167940.799394,0.07476623501815495,8.466542206227308,4.66,-0.45183802291414515,-0.19739357846970068,-0.5188474020757688,-0.015495818920788478,-0.00644298547975221,0.005923069892310614
1592167940.809394,0.02591783671346854,8.520561622464898,4.667041081643266,-0.45666666666666667,-0.20222222222222222,-0.5333333333333333,0.030432647243968988,0.018327432008152882,-0.021199442539499503
1592167940.8193939,-0.12058635242792108,8.564117270485584,4.569749620637329,-0.45666666666666667,-0.20222222222222222,-0.5333333333333333,0.07187554789171047,0.04050733485703479,-0.06746623896100198
1592167940.8293939,-0.2568509928597488,8.67334132485537,4.29665867514463,-0.45666666666666667,-0.20222222222222222,-0.5333333333333333,0.08820782790417138,0.044210114603657244,-0.08247310642450194
1592167940.8393939,-0.04840600635287323,8.794741141042035,4.204741141042037,-0.45666666666666667,-0.20222222222222222,-0.5333333333333333,0.0884137676461473,0.030369384176161796,-0.03587778488161052
1592167940.8493938,0.03287479950938768,8.809312199264081,4.233562600245307,-0.4538957553647619,-0.20222222222222222,-0.5250205994276189,0.06541526640983841,0.015673732650130463,-0.012299248293446455
1592167940.8593938,0.02,8.79,4.24,-0.4488888888888889,-0.20222222222222222,-0.51,0.03381575425739013,0.006544984694978735,-0.020725784867432664
1592167940.8693938,0.16543591466487484,8.682717957332438,4.239709390223417,-0.4488888888888889,-0.20222222222222222,-0.51,-0.007169651608724818,-0.0035372748908636966,0.017463553988752267
1592167940.8793938,0.22040005861664713,8.708240035169988,4.217439917936694,-0.4488888888888889,-0.20222222222222222,-0.51,-0.033981520893006906,0.004232404253833333,0.039549169801909534
1592167940.8893938,0.19,8.69,4.26,-0.4488888888888889,-0.20222222222222222,-0.51,-0.0545415391248228,0.014180800172453926,0.03490658503988659
1592167940.8993938,0.18122259204611743,8.662978073636895,4.3949215935216,-0.4483037283586301,-0.20270985599743793,-0.5061964565533176,-0.0714784808694671,0.044323969770852636,0.023940147983023564
1592167940.9093938,0.07917942696101456,8.593606857679662,4.524751996242367,-0.44222222222222224,-0.20777777777777778,-0.4666666666666667,-0.07351451417218953,0.08401267167240611,0.01317948002297867
1592167940.9193938,0.06,8.576765574620639,4.450127167369394,-0.44222222222222224,-0.20777777777777778,-0.4666666666666667,-0.05929929875587727,0.10760243490211596,0.018892320443153653
1592167940.9293938,0.04260302359534686,8.573492441011632,4.36390453539302,-0.44222222222222224,-0.20777777777777778,-0.4666666666666667,-0.04345891825671735,0.11904252820538215,0.029975370256826974
1592167940.9393938,0.02576639580394572,8.687027198855622,4.309369598474162,-0.44222222222222224,-0.20777777777777778,-0.4666666666666667,-0.04904828842232952,0.11339718363566524,0.04463574754837752
1592167940.9493937,0.11,8.699111637737783,4.354154870940882,-0.44198025861639517,-0.2059630507340749,-0.46751353928706135,-0.08291257149148412,0.10325073519826283,0.06122716574417003
1592167940.9593937,0.09686026759744037,8.56729586969168,4.502849331006399,-0.44,-0.19111111111111112,-0.47444444444444445,-0.13407715261240052,0.11338304562318904,0.04628409605308726
1592167940.9693937,0.03731127361918605,8.500801916787792,4.546226380813954,-0.44,-0.19111111111111112,-0.47444444444444445,-0.14758631808226513,0.12735964676350064,0.030661605356666427
1592167940.9793937,-0.04,8.557870401297896,4.510987736794389,-0.44,-0.19111111111111112,-0.47444444444444445,-0.1463497553513709,0.14105721949393715,0.037805403951887
1592167940.9893937,-0.057095011047796254,8.558631236190255,4.578547505523899,-0.44,-0.19111111111111112,-0.47444444444444445,-0.14164955915594546,0.1453135911255043,0.06412591911381524
1592167940.9993937,-0.12263917789800556,8.480439862983001,4.613079040881007,-0.4399511263352221,-0.19052462713377655,-0.47380908680233197,-0.14474462281467196,0.145691508772587,0.06331616699298827
1592167941.0093937,-0.19428132315040314,8.524275175560968,4.648581089069113,-0.4388888888888889,-0.17777777777777778,-0.46,-0.14429922163373862,0.12840847399037536,0.062801165476567
1592167941.0193937,-0.22188759278897138,8.596479321314952,4.564591728525981,-0.4388888888888889,-0.17777777777777778,-0.46,-0.17088217021580748,0.10831498531265975,0.059789788605402246
1592167941.0293937,-0.18778215565735445,8.542895017920296,4.567104982079703,-0.4388888888888889,-0.17777777777777778,-0.46,-0.19608298883526792,0.09822401587692067,0.0595118344613564
1592167941.0393937,-0.15,8.462861389746639,4.633569305126681,-0.4388888888888889,-0.17777777777777778,-0.46,-0.1903952563272483,0.09374433083388375,0.04429104793353464
1592167941.0493937,-0.15,8.35023897658183,4.689880511709085,-0.4388888888888889,-0.17777777777777778,-0.46,-0.17021242856423552,0.10251947333954149,0.015333077664864116
1592167941.0593936,-0.3421130440923751,8.622113044092375,4.652422608818475,-0.4388888888888889,-0.18222222222222223,-0.4888888888888889,-0.15955932814503704,0.11995761780136965,0.027399962096763424
1592167941.0693936,-0.4022271449910124,8.640242537785767,4.620485075571533,-0.4388888888888889,-0.18222222222222223,-0.4888888888888889,-0.15896543687662806,0.11976167062741389,0.043876175131186156
1592167941.0793936,-0.5228769234473957,8.60056324800732,4.497062393141811,-0.4388888888888889,-0.18222222222222223,-0.4888888888888889,-0.1656767777533003,0.10331510067163281,0.04133530761520031
1592167941.0893936,-0.65,8.65,4.49,-0.4388888888888889,-0.18222222222222223,-0.4888888888888889,-0.1679879405044542,0.08944812416470939,0.017453292519943295
1592167941.0993936,-0.5272715770447357,8.517275794547372,4.5636421147763215,-0.439394152399123,-0.17979695737309837,-0.48575625512543724,-0.1881189358806025,0.06029193763752215,-0.0041653666716710575
1592167941.1093936,-0.4974601769911504,8.518884955752213,4.7355575221238935,-0.4444444444444444,-0.15555555555555556,-0.45444444444444443,-0.18781306597359554,0.02638748622968197,-0.01724574507017627
1592167941.1193936,-0.4862682038834951,8.31746359223301,4.821341019417476,-0.4444444444444444,-0.15555555555555556,-0.45444444444444443,-0.1662451265176137,0.013366648556877081,-0.031691348070240634
1592167941.1293936,-0.44714973924838053,8.345429947849675,4.765135286826782,-0.4444444444444444,-0.15555555555555556,-0.45444444444444443,-0.12666494089525906,0.008820446329830619,-0.027243882079781172
1592167941.1393936,-0.3543110263050293,8.340459315796647,4.856972877197764,-0.4444444444444444,-0.15555555555555556,-0.45444444444444443,-0.07339535310736887,0.006975399730460163,0.02776154677558038
1592167941.1493936,-0.2808113475729668,8.389459101618023,4.889639401078681,-0.4444444444444444,-0.15555555555555556,-0.45444444444444443,-0.02885329084929448,0.014102129691752063,0.06072267284655543
1592167941.1593935,-0.3453904605773278,8.595234276346396,4.632226677595871,-0.4444444444444444,-0.1688888888888889,-0.4488888888888889,-0.009191020843290992,0.019617917028252187,0.04053548357205987
1592167941.1693935,-0.4142156954229459,8.60722227406336,4.574215695422946,-0.4444444444444444,-0.1688888888888889,-0.4488888888888889,-0.05906525758962118,0.017203754735844935,0.0199237064035334
1592167941.1793935,-0.4020555464333466,8.463111116323802,4.572388871947643,-0.4444444444444444,-0.1688888888888889,-0.4488888888888889,-0.12223970369243795,0.02166511066381194,0.008993296059047333
1592167941.1893935,-0.47712097221122635,8.427366004275196,4.702388963660834,-0.4444444444444444,-0.1688888888888889,-0.4488888888888889,-0.15725002371217633,0.028047547131342155,-0.006747113540393426
1592167941.1993935,-0.5850417623307734,8.410762805795265,4.843516150740242,-0.4444444444444444,-0.1688888888888889,-0.4488888888888889,-0.14457212771931185,0.039819879124716295,-0.014897189535806293
1592167941.2093935,-0.58,8.42,4.98,-0.43555555555555553,-0.15222222222222223,-0.4266666666666667,-0.11999138607461016,0.04036073895236887,0.030543261909900768
1592167941.2193935,-0.39584907280219783,8.410830185439561,4.925056662087912,-0.43555555555555553,-0.15222222222222223,-0.4266666666666667,-0.1347155413466558,0.03771804030442351,0.057184237772768154
1592167941.2293935,-0.3674276598085598,8.41346462757179,4.77524920233249,-0.43555555555555553,-0.15222222222222223,-0.4266666666666667,-0.14190533517867115,0.059337162010398035,0.034139318982839624
1592167941.2393935,-0.43483378664249017,8.396042233303113,4.836042233303113,-0.43555555555555553,-0.15222222222222223,-0.4266666666666667,-0.14564404052796026,0.069513265787124,0.019503133003294995
1592167941.2493935,-0.4665223632517377,8.435652954064672,4.875652954064672,-0.43555555555555553,-0.15222222222222223,-0.4266666666666667,-0.14218735304607383,0.07469829700995366,0.018638961132823383
1592167941.2593935,-0.5310891690009337,8.383168300653594,5.010594070961718,-0.44,-0.13111111111111112,-0.4122222222222222,-0.15585919571858736,0.0673399073448188,0.046862513100244516
1592167941.2693934,-0.3055743795179375,8.433588613119083,4.945957299196563,-0.44,-0.13111111111111112,-0.4122222222222222,-0.16978590832890827,0.042192713608951896,0.07805705603439676
1592167941.2793934,-0.24467501066704594,8.396855354857061,4.823144645142938,-0.44,-0.13111111111111112,-0.4122222222222222,-0.19852204880659402,0.04230456186147115,0.06684026445408735
1592167941.2893934,-0.37810433433530494,8.37324173373412,4.863777368370018,-0.44,-0.13111111111111112,-0.4122222222222222,-0.2138043564918951,0.05970050341762204,0.039595073688300675
1592167941.2993934,-0.4594443905750024,8.405777756230002,5.002055463977504,-0.44,-0.13111111111111112,-0.4122222222222222,-0.1809749087292808,0.06768604476528499,0.020962143877087135
1592167941.3093934,-0.45879144102496366,8.36656399418835,4.942322282393343,-0.43333333333333335,-0.12222222222222222,-0.40444444444444444,-0.17150340960951882,0.056139013331380876,-0.04759070947565888
1592167941.3193934,-0.58,8.31,4.91,-0.43333333333333335,-0.12222222222222222,-0.40444444444444444,-0.1908953869368798,0.04908738521234052,-0.11017390903214205
1592167941.3293934,-0.7278309929789368,8.225881394182547,5.133338766298897,-0.43333333333333335,-0.12222222222222222,-0.40444444444444444,-0.19164417060465413,0.01815776460628222,-0.0944716077995987
1592167941.3393934,-0.3878443862124572,8.198480548276557,5.286077806893772,-0.43333333333333335,-0.12222222222222222,-0.40444444444444444,-0.1922058790682402,-0.02235629214107189,-0.012550292898814697
1592167941.3493934,-0.32020802257609354,8.19002600282201,5.319895988711954,-0.43333333333333335,-0.12222222222222222,-0.40444444444444444,-0.16914968298365599,-0.043567992538889336,0.008661407499002752
1592167941.3593934,-0.35,8.31,5.31,-0.41888888888888887,-0.11888888888888889,-0.37777777777777777,-0.0916297857297023,-0.02399827721492203,-0.01090830782496456
1592167941.3693933,-0.4344583742838651,8.382993983268213,5.1455416257161355,-0.41888888888888887,-0.11888888888888889,-0.37777777777777777,-0.055027872315695864,-0.0007921381624984452,-0.038408293837249245
1592167941.3793933,-0.5028035202022658,8.27229031944377,5.078598239898867,-0.41888888888888887,-0.11888888888888889,-0.37777777777777777,-0.061183450608103776,0.019634954084936207,-0.06003120192089925
1592167941.3893933,-0.5493466534244709,8.164248213277249,5.053529239936904,-0.41888888888888887,-0.11888888888888889,-0.37777777777777777,-0.044781013598934175,0.01751740280604433,-0.08952655198985353
1592167941.3993933,-0.6555293957274445,8.09890498724465,4.980018110650231,-0.41888888888888887,-0.11888888888888889,-0.37777777777777777,-0.008250832377142914,-0.00653905799854991,-0.09041753201965332
1592167941.4093933,-0.5705138632162662,8.411474815157117,4.983396719038817,-0.41888888888888887,-0.09777777777777778,-0.38555555555555554,0.00285319796445769,-0.05589078691316343,-0.03773175611362949
1592167941.4193933,-0.4203141619066378,8.346125664762654,5.075157080953319,-0.41888888888888887,-0.09777777777777778,-0.38555555555555554,-0.03723386617605086,-0.0989857495045575,-0.011013963928429722
1592167941.4293933,-0.3074200624716851,8.311254440973796,5.033763322921386,-0.41888888888888887,-0.09777777777777778,-0.38555555555555554,-0.08725871163824424,-0.115213672615176,-0.014462227699734303
1592167941.4393933,-0.1581451113861386,8.325090694616337,5.063054416769802,-0.41888888888888887,-0.09777777777777778,-0.38555555555555554,-0.07032890572722938,-0.10349807611346619,-0.03263364824291924
1592167941.4493933,-0.22303217821782179,8.365645111386138,5.087387066831683,-0.41888888888888887,-0.09777777777777778,-0.38555555555555554,-0.057057503873622246,-0.09376571475415428,-0.04059648935508353
1592167941.4593933,-0.24,8.3,5.1,-0.41,-0.10222222222222223,-0.38,-0.08072147790473774,-0.06654067773228381,-0.05563236990731925
1592167941.4693933,-0.34090843998925985,8.245227557504698,5.123182225006713,-0.41,-0.10222222222222223,-0.38,-0.11714039101484412,-0.03902207196282263,-0.07375499592203567
1592167941.4793932,-0.49028211014602513,8.180705275365062,5.030493692755544,-0.41,-0.10222222222222223,-0.38,-0.10788454041618058,-0.020687318063515318,-0.08268772536779351
1592167941.4893932,-0.5299886398598916,8.279971599649729,5.09998011975481,-0.41,-0.10222222222222223,-0.38,-0.09272495370888205,-0.015273179953765849,-0.05236855195319648
1592167941.4993932,-0.45569816893089193,8.304767277023036,5.1743018310691085,-0.41,-0.10222222222222223,-0.38,-0.09632287093557806,-0.0188738853783297,-0.030746351019553975
1592167941.5093932,-0.3924642150861663,8.169178594971278,5.229178594971279,-0.41,-0.08666666666666667,-0.37333333333333335,-0.10220955512825013,-0.020666050608084168,-0.03559352902239431
1592167941.5193932,-0.480731843315831,8.141463686631663,5.197804470052507,-0.41,-0.08666666666666667,-0.37333333333333335,-0.09020366171611928,-0.01860798867978957,-0.0599158613156178
1592167941.5293932,-0.5294551833093258,8.238910366618653,5.051634450072022,-0.41,-0.08666666666666667,-0.37333333333333335,-0.06788111569792249,-0.02285990220706515,-0.05460096940652333
1592167941.5393932,-0.539790147062295,8.347691617685244,5.0206295588131145,-0.41,-0.08666666666666667,-0.37333333333333335,-0.05908799349020542,-0.03358684021314413,-0.0449300847221761
1592167941.5493932,-0.45922002282476093,8.236908031954666,5.1088579748927625,-0.41,-0.08666666666666667,-0.37333333333333335,-0.0721224551116254,-0.04438982854284356,-0.03150646922553791
1592167941.5593932,-0.4105563859317329,8.180556385931732,5.188887228136535,-0.4034569746514962,-0.08012364131816287,-0.3602472826363257,-0.10096172445114462,-0.0586823238576718,-0.015514400115463275
1592167941.5693932,-0.4978098003115706,8.248296511353443,5.258296511353444,-0.4033333333333333,-0.08,-0.36,-0.10464011721166133,-0.04400487487051758,-0.0025002131969866365
1592167941.5793931,-0.7324765602803296,8.317805663415097,5.240626953309973,-0.4033333333333333,-0.08,-0.36,-0.09521003306355941,-0.03412350924375787,-0.023314377245215945
1592167941.5893931,-0.730562719267675,8.197315350479775,5.3154982458586,-0.4033333333333333,-0.08,-0.36,-0.10416730677048439,-0.037933544787742454,-0.03841054407115515
1592167941.5993931,-0.6590622444705929,8.095416325960791,5.351527891346404,-0.4033333333333333,-0.08,-0.36,-0.11503723343601782,-0.05365529486191304,-0.050447176345926964
1592167941.6093931,-0.5871636296279145,8.127374562967422,5.352909074069786,-0.41,-0.06333333333333334,-0.3388888888888889,-0.08083015939440137,-0.08112369791935388,-0.05232893755870557
1592167941.619393,-0.4900486234920929,8.37987357892056,5.110121558730232,-0.41,-0.06333333333333334,-0.3388888888888889,-0.009853013843759473,-0.0948953828769411,-0.051269577177352706
1592167941.629393,-0.5275973632878187,8.333003295890228,5.063003295890226,-0.41,-0.06333333333333334,-0.3388888888888889,-0.0005896957690807846,-0.11130722256321356,-0.06972460932410807
1592167941.639393,-0.47408430646539446,8.21816861293079,5.218427798348049,-0.41,-0.06333333333333334,-0.3388888888888889,-0.039646463825920755,-0.12252133055249925,-0.08106976081763394
1592167941.649393,-0.37234630320273754,8.10483448037218,5.380236456611173,-0.41,-0.06333333333333334,-0.3388888888888889,-0.06466654497319098,-0.13309683151357915,-0.09164526177871384
1592167941.659393,-0.271153767889846,8.079835176015736,5.479175880078682,-0.3979792293141001,-0.07753969868939685,-0.3530952542449524,-0.026935078097974956,-0.1374266990869806,-0.08631946787780287
1592167941.669393,-0.3093946880790611,8.28682211241507,5.322421247683756,-0.3977777777777778,-0.07777777777777778,-0.35333333333333333,0.05224567384294715,-0.12455279706750762,-0.08402698489604571
1592167941.679393,-0.38996429339642935,8.316654764465477,5.133416648741665,-0.3977777777777778,-0.07777777777777778,-0.35333333333333333,0.08252654592146073,-0.1040016228992019,-0.08496316483819827
1592167941.689393,-0.5490955059217999,8.11126629170948,5.11,-0.3977777777777778,-0.07777777777777778,-0.35333333333333333,0.0785858600056222,-0.07108817552577913,-0.09375882596226394
1592167941.699393,-0.5416942066494127,8.151528966752936,5.051859446545889,-0.3977777777777778,-0.07777777777777778,-0.35333333333333333,0.10028433248344483,-0.04553539869461963,-0.09109338277673272
1592167941.709393,-0.65,8.33,5.02,-0.38555555555555554,-0.07555555555555556,-0.3411111111111111,0.15489797111449674,-0.0370882466048795,-0.07199483164476608
1592167941.719393,-0.52434801097924,8.428726562802025,4.984099431708355,-0.38555555555555554,-0.07555555555555556,-0.3411111111111111,0.12454785123822315,-0.054710896855619015,-0.04556085626865683
1592167941.729393,-0.2979355941351084,8.395819915444815,5.024180084555186,-0.38555555555555554,-0.07555555555555556,-0.3411111111111111,0.027587804217286474,-0.0904582980340807,-0.02326520203492464
1592167941.739393,-0.27,8.26387629627675,5.204632820539884,-0.38555555555555554,-0.07555555555555556,-0.3411111111111111,-0.07574257815616814,-0.11924328749063035,-0.02178408962453869
1592167941.749393,-0.1962430473283669,8.079705226802673,5.373904339270296,-0.38555555555555554,-0.07555555555555556,-0.3411111111111111,-0.13575322391119485,-0.11730950759469844,-0.008407223250370518
1592167941.759393,-0.38552222849166995,7.902985181005554,5.517654500638494,-0.3975171667376104,-0.07555555555555556,-0.326974661532319,-0.09604199264345514,-0.09857018160073164,-0.00865686781713919
1592167941.769393,-0.49730342396062566,8.29019426894773,5.324902865526136,-0.3977777777777778,-0.07555555555555556,-0.32666666666666666,0.08067253880808568,-0.06199571724832086,-0.022559813650932892
1592167941.779393,-0.5283381055742853,8.47947466863714,5.121633260980003,-0.3977777777777778,-0.07555555555555556,-0.32666666666666666,0.188125060628273,-0.0291440433458012,-0.022907446432425576
1592167941.789393,-0.6380061578189403,8.391812583800965,5.080543775140289,-0.3977777777777778,-0.07555555555555556,-0.32666666666666666,0.11705166293290495,-0.015489125397604367,-0.020765329311551572
1592167941.799393,-0.6657224942338041,8.209942540363372,5.1764593533767655,-0.3977777777777778,-0.07555555555555556,-0.32666666666666666,0.056704397067700085,-0.022987825295976178,-0.01721842380333003
1592167941.809393,-0.69,8.24,5.26,-0.39111111111111113,-0.07555555555555556,-0.32666666666666666,0.025089107997418484,-0.038179077387375956,-0.009817477042468103
1592167941.819393,-0.6149934517475648,8.260456331341572,5.273637554227715,-0.39111111111111113,-0.07555555555555556,-0.32666666666666666,0.03922155874949738,-0.050823901744499175,-0.004610784660123249
1592167941.829393,-0.5371482317531979,8.244288939051918,5.254288939051919,-0.39111111111111113,-0.07555555555555556,-0.32666666666666666,0.022442878920843186,-0.07261617017174113,0.0006229801082880439
1592167941.839393,-0.5046753156006895,8.020519401872642,5.427272790795174,-0.39111111111111113,-0.07555555555555556,-0.32666666666666666,-0.000793338407403265,-0.08815896513215081,0.0029324938024815053
1592167941.849393,-0.4452140803481234,8.014241199782422,5.425758800217578,-0.39111111111111113,-0.07555555555555556,-0.32666666666666666,0.032988031622292,-0.09278003623234252,0.005513573632626037
1592167941.859393,-0.3738457397171775,8.159231928791902,5.271537219151532,-0.4023932636246899,-0.06940165418451255,-0.32051276529562367,0.14583654292856404,-0.0897837282659067,0.015607352509752877
1592167941.8693929,-0.19412681912681912,8.338838253638254,5.020812474012474,-0.4033333333333333,-0.06888888888888889,-0.32,0.19985063141488812,-0.08254160050227621,0.028640726026216926
1592167941.8793929,-0.09359526699029126,8.418801577669903,4.823182645631068,-0.4033333333333333,-0.06888888888888889,-0.32,0.20869585223923778,-0.065229099336946,0.04149657974288096
1592167941.8893929,-0.046016504303414356,8.384813203442732,4.8539834956965855,-0.4033333333333333,-0.06888888888888889,-0.32,0.16407715274945422,-0.05559161722037268,0.03582540337349274
1592167941.8993928,-0.017668302732836455,8.36511220182189,4.904663394534327,-0.4033333333333333,-0.06888888888888889,-0.32,0.12975034352350315,-0.052917532271195195,0.030034564479003795
1592167941.9093928,-0.0005929209224641869,8.331778762767392,5.0611061861630375,-0.39288102324718244,-0.06052704081996817,-0.32627138605169054,0.0902329449242623,-0.056464490132291656,0.01707391577063798
1592167941.9193928,0.0,8.3129457676215,5.092738976504667,-0.39222222222222225,-0.06,-0.32666666666666666,0.07533499622699191,-0.06292429457325428,0.013261914795727551
1592167941.9293928,0.015409714680620003,8.26147571329845,5.07147571329845,-0.39222222222222225,-0.06,-0.32666666666666666,0.05872609050054422,-0.07687667363248958,0.00334408181956603
1592167941.9393928,0.08308933661883365,8.25,5.146747837850896,-0.39222222222222225,-0.06,-0.32666666666666666,0.0670461692544814,-0.07877039974185247,-0.005791148260614006
1592167941.9493928,0.10653109812486473,8.282655490624323,5.163468901875135,-0.39222222222222225,-0.06,-0.32666666666666666,0.09047370642628443,-0.06571603515915164,-0.01262284149215032
1592167941.9593928,0.08735024687140949,8.307549917709531,5.1750998354190605,-0.3980943804407457,-0.07090543669154357,-0.3375721033582102,0.1203893328507729,-0.040786360440493205,-0.025154450126395153
1592167941.9693928,0.025552535404294197,8.278887163088168,5.18,-0.4,-0.07444444444444444,-0.3411111111111111,0.1299302547930107,-0.01199786788178931,-0.03345242638004058
1592167941.9793928,-0.09856276326874475,8.277754483090623,5.07919171982188,-0.4,-0.07444444444444444,-0.3411111111111111,0.13259145967109504,0.009771738031200593,-0.03406070215412643
1592167941.9893928,-0.1609452759921247,8.28773631899803,5.065472637996063,-0.4,-0.07444444444444444,-0.3411111111111111,0.14573987782396444,0.02177591358809201,-0.03044014829488432
1592167941.9993927,-0.18267928072475395,8.302679280724753,5.07,-0.4,-0.07444444444444444,-0.3411111111111111,0.15774238703069982,0.02538137218636959,-0.02461159872733786
1592167942.0093927,-0.09043246094007515,8.34829520733074,5.016386709736963,-0.38978794471180256,-0.07955047208854316,-0.3351540788596626,0.1700530329680939,0.020331636042931173,-0.01012001017596158
1592167942.0193927,-0.0357188654261621,8.384281134573838,4.902875461704649,-0.38666666666666666,-0.0811111111111111,-0.3333333333333333,0.18029724634256444,0.022075671172717266,-0.0012476628895624663
1592167942.0293927,-0.005112865151962229,8.44806998131209,4.738972902527786,-0.38666666666666666,-0.0811111111111111,-0.3333333333333333,0.1894081147516761,0.041005881619345486,0.009049217593459953
1592167942.0393927,0.024958654120330766,8.484958654120332,4.668402243132782,-0.38666666666666666,-0.0811111111111111,-0.3333333333333333,0.18182016420216685,0.06468955209872315,0.015445919192321026
1592167942.0493927,0.00917900644853117,8.49,4.708582318286761,-0.38666666666666666,-0.0811111111111111,-0.3333333333333333,0.15954611649262307,0.08462086577894841,0.01863367980625708
1592167942.0593927,-0.05839927153981412,8.464971740768652,4.788399271539814,-0.39130152948728686,-0.0811111111111111,-0.30367021128136423,0.1223229991959259,0.10801074309081618,0.022365113645121854
1592167942.0693927,-0.08001263157894736,8.434968421052632,4.845056842105263,-0.39222222222222225,-0.0811111111111111,-0.29777777777777775,0.09869745060593618,0.11454136583667207,0.01853861173638082
1592167942.0793927,-0.11124099340794114,8.374598344320098,4.812116357504216,-0.39222222222222225,-0.0811111111111111,-0.29777777777777775,0.0660469359132863,0.11549269156359859,0.015725488803133025
1592167942.0893927,-0.16271656206985047,8.395597135058209,4.801358281034925,-0.39222222222222225,-0.0811111111111111,-0.29777777777777775,0.06232552007871575,0.10444131498268164,0.015585852723643283
1592167942.0993927,-0.17394232146877622,8.428173035593671,4.785769285875104,-0.39222222222222225,-0.0811111111111111,-0.29777777777777775,0.07119766803958662,0.09044457867118372,0.011967679848786977
1592167942.1093926,-0.18349075120442515,8.460236126806638,4.736273121988937,-0.39746862546838757,-0.08635751435727644,-0.31726441840639186,0.07562234844011252,0.03395913949674761,-0.00048381164248356007
1592167942.1193926,-0.168668455821635,8.51266308835673,4.641784338012662,-0.4,-0.08888888888888889,-0.32666666666666666,0.07526732399225547,0.009817477042468103,-0.00545415391248228
1592167942.1293926,-0.06961262349847182,8.53,4.6030471248844975,-0.4,-0.08888888888888889,-0.32666666666666666,0.04189591909974465,-0.04782404049914148,-0.013797005135609983
1592167942.1393926,0.004554787196121769,8.502356170243102,4.71057531902759,-0.4,-0.08888888888888889,-0.32666666666666666,0.003146977206479225,-0.0753472679606312,-0.020468766564434818
1592167942.1493926,0.04881261447798041,8.438137293939636,4.857962889225133,-0.4,-0.08888888888888889,-0.32666666666666666,-0.015178940308703374,-0.07510096730288054,-0.028102553009285935
1592167942.1593926,0.04855986439270765,8.364266440654513,5.008613830560072,-0.3904710508412034,-0.08888888888888889,-0.3163436384113037,-0.004354492936499674,-0.06092354259900372,-0.038182020785204676
1592167942.1693926,0.013175217812197486,8.3544707970313,5.022116811874798,-0.38666666666666666,-0.08888888888888889,-0.31222222222222223,0.015836934032294466,-0.0492924219760721,-0.04231149216198338
1592167942.1793926,-0.08833068918228508,8.382776896394095,4.9240770120196835,-0.38666666666666666,-0.08888888888888889,-0.31222222222222223,0.04349141068533861,-0.03565423046770267,-0.04306767943459394
1592167942.1893926,-0.12777760363607868,8.358889193636863,4.953332810908236,-0.38666666666666666,-0.08888888888888889,-0.31222222222222223,0.05029938617226733,-0.030422091732470413,-0.04011835585670484
1592167942.1993926,-0.13918826301135145,8.32,5.02,-0.38666666666666666,-0.08888888888888889,-0.31222222222222223,0.06456624831637515,-0.02676962755588861,-0.03237073639709016
1592167942.2093925,-0.13632624211288488,8.35795745267731,4.994695031548461,-0.38666666666666666,-0.08888888888888889,-0.317142632754466,0.0889576395860611,-0.026580683598985373,-0.026981428418055807
1592167942.2193925,-0.11173111673292375,8.408268883267077,4.916395012649079,-0.38666666666666666,-0.08888888888888889,-0.32,0.10588391243831248,-0.022325367773099222,-0.021554453571736076
1592167942.2293925,-0.15362157157736372,8.460216178683023,4.74254067816225,-0.38666666666666666,-0.08888888888888889,-0.32,0.09884696759522116,-0.02438153867258425,-0.016710351040814937
1592167942.2393925,-0.16691346358288645,8.473456731791444,4.68962980462567,-0.38666666666666666,-0.08888888888888889,-0.32,0.08738760875267346,-0.02689369861791736,-0.010989071926935878
1592167942.2493925,-0.16549904359206685,8.453502869223799,4.7054990435920665,-0.38666666666666666,-0.08888888888888889,-0.32,0.07979500203506562,-0.02907032736976632,-0.003927825440358527
1592167942.2593925,-0.0856892523364486,8.488177570093457,4.740110981308411,-0.394696261682243,-0.08420495846313603,-0.3066173416407061,0.07373047595056068,-0.027258663379661728,0.002627678824191229
1592167942.2693925,-0.009538143166212019,8.499538143166212,4.739538143166212,-0.4,-0.0811111111111111,-0.29777777777777775,0.06083461999410039,-0.022113051557240967,0.005107337240030203
1592167942.2793925,0.013543468420174875,8.46968479736974,4.6825978605293885,-0.4,-0.0811111111111111,-0.29777777777777775,0.04824555378007155,-0.013338968740184965,0.00471547229975751
1592167942.2893925,0.02,8.466670033828228,4.66,-0.4,-0.0811111111111111,-0.29777777777777775,0.042541298616317634,-0.0018140110003322142,-0.0007297916241006527
1592167942.2993925,-0.012551433093019166,8.480850477697674,4.703401910790692,-0.4,-0.0811111111111111,-0.29777777777777775,0.03908436271938272,0.007507877349828782,-0.006231501116842629
1592167942.3093925,-0.06285573305372233,8.48428606673657,4.74571393326343,-0.3803186743148502,-0.07793670374253857,-0.3060312369360664,0.03210189917057509,0.013869018895325168,-0.01121981997712385
1592167942.3193924,-0.08,8.486495506763017,4.743504493236983,-0.3655555555555556,-0.07555555555555556,-0.31222222222222223,0.027653050472406623,0.011020331719943004,-0.013798519262458701
1592167942.3293924,-0.09298622042476934,8.496493110212384,4.675068897876153,-0.3655555555555556,-0.07555555555555556,-0.31222222222222223,0.02372932731550575,0.006601780911828259,-0.014180800172453926
