time,acc_x,acc_y,acc_z,mag_x,mag_y,mag_z,gyr_x,gyr_y,gyr_z
1592167943.4893913,-0.3408022699978807,8.438160453999576,4.7709197730002115,-0.4,-0.09,-0.31222222222222223,-0.009717145372314074,-0.02728358715160926,0.024901262246308294
1592167943.4993913,-0.25,8.424003946329913,4.776663378058406,-0.4,-0.09,-0.31222222222222223,-0.007343564089062862,-0.03905260296900256,0.034980455032892266
1592167943.5093913,-0.25,8.473660220994475,4.735283149171271,-0.4,-0.09,-0.31222222222222223,0.009809190344534776,-0.04988592155864317,0.04942487981907975
1592167943.5193913,-0.06348903717826501,8.560581506196378,4.657092469018113,-0.4,-0.07777777777777778,-0.3055555555555556,0.0288181062681833,-0.07577478387963228,0.06205048963045379
1592167943.5293913,-0.11858679863111504,8.568586798631115,4.606820296920009,-0.4,-0.07777777777777778,-0.3055555555555556,0.017195255191774648,-0.08387835298559866,0.059109293993153726
1592167943.5393913,-0.09049560465668804,8.528688049417914,4.525903777619386,-0.4,-0.07777777777777778,-0.3055555555555556,-0.0212807375769978,-0.0805068104927297,0.03175812966376876
1592167943.5493913,-0.24414000633512828,8.509482499208108,4.618797513462148,-0.4,-0.07777777777777778,-0.3055555555555556,-0.04511921613798742,-0.07671512802535903,-0.014162530398103435
1592167943.5593913,-0.3105685777636997,8.501178927779538,4.7599582277478625,-0.4,-0.07777777777777778,-0.3055555555555556,-0.05145967006124807,-0.0649399993107321,-0.03137233390409663
1592167943.5693913,-0.35,8.43,4.85,-0.4122222222222222,-0.08333333333333333,-0.31777777777777777,-0.062177354602297986,-0.056723200689815706,-0.025089107997418484
1592167943.5793912,-0.4554019749701724,8.390675246871272,4.913922778158556,-0.4122222222222222,-0.08333333333333333,-0.31777777777777777,-0.07488499462881706,-0.04661109161816064,-0.019487638070342723
1592167943.5893912,-0.53,8.4,4.83,-0.4122222222222222,-0.08333333333333333,-0.31777777777777777,-0.0545415391248228,-0.042542400517361786,-0.017453292519943295
1592167943.5993912,-0.6320250812819322,8.421862517417557,4.822712494194148,-0.4122222222222222,-0.08333333333333333,-0.31777777777777777,-0.02989828857682228,-0.04572217478161992,-0.011093743991427032
1592167943.6093912,-0.6361150667844707,8.446942466607764,4.760701366872824,-0.4122222222222222,-0.08333333333333333,-0.31777777777777777,-0.006864761787056656,-0.07000742878130761,-0.004106305233179645
1592167943.6193912,-0.59,8.5,4.65,-0.38666666666666666,-0.09,-0.30333333333333334,-0.004363323129985824,-0.11562806294462433,-0.011999138607461015
1592167943.6293912,-0.48483511604439955,8.595604439959637,4.506593340060545,-0.38666666666666666,-0.09,-0.30333333333333334,-0.005406205790498883,-0.15942913468617284,-0.03181390915720915
1592167943.6393912,-0.6612393827012801,8.553575547314272,4.507592534992224,-0.38666666666666666,-0.09,-0.30333333333333334,-0.03981995623162891,-0.19705033992439047,-0.052025777192639136
1592167943.6493912,-0.5152394086496028,8.44904788172992,4.637140887025596,-0.38666666666666666,-0.09,-0.30333333333333334,-0.10295323265266129,-0.20850446944446008,-0.08352599855124107
1592167943.6593912,-0.4381156222418358,8.433623124448367,4.752826566637246,-0.38666666666666666,-0.09,-0.30333333333333334,-0.12735064273278074,-0.2110283394527483,-0.11128856864241149
1592167943.6693912,-0.36,8.44,5.09,-0.39222222222222225,-0.09,-0.3088888888888889,-0.12762720155208535,-0.21162117180431245,-0.1308996938995747
1592167943.6793911,-0.39211012020162855,8.3276145792943,5.14619271035285,-0.39222222222222225,-0.09,-0.3088888888888889,-0.1372595461271247,-0.18797814421103398,-0.11688901088133562
1592167943.6893911,-0.49604632310364793,8.19988419224088,5.093278749276201,-0.39222222222222225,-0.09,-0.3088888888888889,-0.13224406230575042,-0.15211251860474181,-0.09718282815828629
1592167943.6993911,-0.3997095689391624,8.440677672475287,4.929903189646387,-0.39222222222222225,-0.09,-0.3088888888888889,-0.058197317372449514,-0.13748692008006744,-0.0729906190848561
1592167943.709391,-0.37406420055029044,8.500516865382655,4.921354733516764,-0.39222222222222225,-0.09,-0.3088888888888889,0.004279640523946568,-0.14121688771567317,-0.0645981919047432
1592167943.719391,-0.2828852324146442,8.500320581379405,4.929679418620595,-0.4115810594634124,-0.09,-0.3035114340996694,0.024739407960468432,-0.15342247029135525,-0.04954199526037558
1592167943.729391,-0.25314319588986955,8.410477319632898,4.983713608220261,-0.4122222222222222,-0.09,-0.30333333333333334,-0.0012774977811083506,-0.1518540584224798,-0.03248618898141621
1592167943.739391,-0.4318453108947703,8.290892813463138,4.944538672276308,-0.4122222222222222,-0.09,-0.30333333333333334,-0.013289633954935237,-0.14170735562817469,-0.019633326457184817
1592167943.749391,-0.5130980336681285,8.325070024048664,5.030140048097326,-0.4122222222222222,-0.09,-0.30333333333333334,-0.0043480462524264595,-0.11613528614197415,-0.025427051046458978
1592167943.759391,-0.527442937674932,8.285342373950408,5.173972878148776,-0.4122222222222222,-0.09,-0.30333333333333334,0.021896362789367744,-0.08908944479557615,-0.020496648910302045
1592167943.769391,-0.5,8.27,5.19,-0.40444444444444444,-0.09777777777777778,-0.3322222222222222,0.05017821599483697,-0.017453292519943295,-0.031634092692397225
1592167943.779391,-0.6824047577400735,8.438373622529298,4.8813150253629525,-0.40444444444444444,-0.09777777777777778,-0.3322222222222222,0.07237132758669754,-0.009035215709237569,-0.04693968689368036
1592167943.789391,-0.5623309471691416,8.628601431698517,4.522680589244512,-0.40444444444444444,-0.09777777777777778,-0.3322222222222222,0.15404617702479845,-0.01839156316697139,-0.009247893389488532
1592167943.799391,-0.5017183335671203,8.571718333567121,4.490859166783561,-0.40444444444444444,-0.09777777777777778,-0.3322222222222222,0.1209910720210697,-0.04079552583250125,-0.007667055663302053
1592167943.809391,-0.5,8.537205879391925,4.465404409543944,-0.40444444444444444,-0.09777777777777778,-0.3322222222222222,0.0708037362388508,-0.04413453245317947,-0.02194494997515064
1592167943.819391,-0.36,8.66,4.38,-0.38,-0.10444444444444445,-0.3233333333333333,0.0643590161672909,-0.044724062082354694,-0.014180800172453926
1592167943.829391,-0.36,8.715747975788068,4.395927993082305,-0.38,-0.10444444444444445,-0.3233333333333333,0.05045922004123592,-0.04559279934023313,-0.002018478562155812
1592167943.839391,-0.3409828518221556,8.63491425911078,4.361965703644311,-0.38,-0.10444444444444445,-0.3233333333333333,-0.04229558605171558,-0.03959154567654442,-0.009281414531348101
1592167943.849391,-0.3841011916562039,8.444774995043943,4.545225004956056,-0.38,-0.10444444444444445,-0.3233333333333333,-0.12099040724852672,-0.039269908169872414,-0.012703893286669887
1592167943.859391,-0.360952900780025,8.485355973244944,4.57,-0.38,-0.10444444444444445,-0.3233333333333333,-0.13169183064885914,-0.03451708767416579,0.001168492097162412
1592167943.869391,-0.39582709215239337,8.564992510582872,4.551669163139042,-0.4024043561633923,-0.10953634357248815,-0.33759065089185575,-0.12099281206780203,-0.02972554730736573,0.004545400583293438
1592167943.879391,-0.39114399442283043,8.516863966536983,4.585424022308678,-0.40444444444444444,-0.11,-0.3388888888888889,-0.11999138607461016,-0.02945243112740431,0.004363323129985824
1592167943.889391,-0.3131988886316277,8.42466543181292,4.6326672840935395,-0.40444444444444444,-0.11,-0.3388888888888889,-0.21493867133991038,-0.038760988506355315,-0.018908070317391685
1592167943.899391,-0.32527313160945376,8.41,4.724243772031513,-0.40444444444444444,-0.11,-0.3388888888888889,-0.23125612588924865,-0.03117116897581009,-0.034853887401951986
1592167943.909391,-0.4368557336621455,8.41,4.862120838471024,-0.40444444444444444,-0.11,-0.3388888888888889,-0.23042354357807074,-0.022791772637980823,-0.03459049967134569
1592167943.919391,-0.4994303617203076,8.331519035412514,5.145253014335897,-0.40444444444444444,-0.11,-0.33234880850659826,-0.2387262403079567,-0.017515430416980976,-0.032745636107239566
1592167943.929391,-0.48725118672463996,8.28537915353624,5.16912321991304,-0.40444444444444444,-0.11,-0.3322222222222222,-0.227071163099821,-0.01536727282578397,-0.034810943169053
1592167943.939391,-0.523714407366012,8.26,5.066342540848368,-0.40444444444444444,-0.11,-0.3322222222222222,-0.18219980110953551,-0.013227099748585212,-0.02550671115982718
1592167943.949391,-0.48604228179992914,8.330332349120113,5.111540805480099,-0.40444444444444444,-0.11,-0.3322222222222222,-0.14794432747986064,-0.018844021246870513,-0.008654138929820587
1592167943.9593909,-0.45025763204651914,8.31025763204652,5.13487118397674,-0.40444444444444444,-0.11,-0.3322222222222222,-0.1350675933998341,-0.029368121237334118,0.008054766033618134
1592167943.9693909,-0.39839688140223084,8.3,5.156641247439108,-0.41553860940384957,-0.11,-0.36180666211396917,-0.12654468919235548,-0.03907839821289532,0.020351083376245055
1592167943.9793909,-0.3105970478078872,8.3,5.16,-0.4177777777777778,-0.11,-0.36777777777777776,-0.13324090658959503,-0.036896131573478826,0.010556641668536478
1592167943.9893909,-0.3848143120333559,8.26049403665277,5.175802385338892,-0.4177777777777778,-0.11,-0.36777777777777776,-0.13267735777488032,-0.015312141784941283,0.006773929059248451
1592167943.9993908,-0.298192811555257,8.20208263352368,5.275834732952637,-0.4177777777777778,-0.11,-0.36777777777777776,-0.10846914241623182,0.016317392141797848,0.0265817177362493
1592167944.0093908,-0.3225326861348156,8.137467313865184,5.306566585766852,-0.4177777777777778,-0.11,-0.36777777777777776,-0.0688718342698564,0.056573705717236036,0.031634092692397225
1592167944.0193908,-0.5705075683409895,8.201878153475413,5.264060923262294,-0.42390298800947196,-0.12327128883533733,-0.36063169917413457,0.009867299233113788,0.09622566718073997,0.03263632787289635
1592167944.0293908,-0.7970668485675307,8.356164834282962,5.065113554289383,-0.42444444444444446,-0.12444444444444444,-0.36,0.027229713496526572,0.08820970164003422,0.039368302664658225
1592167944.0393908,-0.9214425811252558,8.501344513248466,4.743179365880883,-0.42444444444444446,-0.12444444444444444,-0.36,0.0031686188871102514,0.03980617701444199,0.0539013968198741
1592167944.0493908,-0.7649981133855297,8.46694392038487,4.6669439203848695,-0.42444444444444446,-0.12444444444444444,-0.36,-0.04539120682137136,-0.01236329766219689,0.05187501814589504
1592167944.0593908,-0.2760947799750579,8.402903972920008,4.73850703723499,-0.42444444444444446,-0.12444444444444444,-0.36,-0.07104450872896212,-0.03831958525406845,0.01623536333521048
1592167944.0693908,-0.054724005134788194,8.390078855675775,4.795197139189437,-0.4272441265766041,-0.12444444444444444,-0.37119872852863867,-0.0895341423632191,-0.03921829725076659,-0.015958976373739643
1592167944.0793908,-0.09637435897435899,8.405874950690336,4.872874556213018,-0.43,-0.12444444444444444,-0.38222222222222224,-0.12214559398914024,-0.02183034247516053,-0.02292117325765699
1592167944.0893908,-0.09238157481961727,8.41,4.918231203597197,-0.43,-0.12444444444444444,-0.38222222222222224,-0.16976853953350052,-0.010589260068126476,0.025133195218733438
1592167944.0993907,-0.2084582237803097,8.230158486707566,5.202608092316681,-0.43,-0.12444444444444444,-0.38222222222222224,-0.18231963415500108,-0.011685826172659838,0.07865613338199175
1592167944.1093907,-0.23,8.209536589487916,5.2833780632077065,-0.43,-0.12444444444444444,-0.38222222222222224,-0.16505466205586522,-0.014079699682151229,0.09345759557863577
1592167944.1193907,-0.16093008840896486,8.271802433693276,5.268197566306723,-0.42520347836173367,-0.13020027041036406,-0.40044900444763426,-0.0838638306844331,-0.011653487630708722,0.08355316116656555
1592167944.1293907,-0.2751094249201278,8.308871405750798,5.221504792332268,-0.42444444444444446,-0.13111111111111112,-0.4033333333333333,-0.04530715992675226,-0.003034853293235447,0.06130029005980593
1592167944.1393907,-0.4996447672127456,8.323700951415864,5.122953329955526,-0.42444444444444446,-0.13111111111111112,-0.4033333333333333,0.002709728552477402,-0.0007686724598608427,0.026137135815584592
1592167944.1493907,-0.5454247747562431,8.28440531534126,5.18118936931748,-0.42444444444444446,-0.13111111111111112,-0.4033333333333333,0.019857365627210136,-0.009947217108794563,0.028454271820855324
1592167944.1593907,-0.505825078624762,8.256417492137524,5.327009905650286,-0.42444444444444446,-0.13111111111111112,-0.4033333333333333,0.07122711231011336,-0.03005400886601519,0.02471523689633821
1592167944.1693907,-0.4943985411354614,8.276265694090307,5.280538682503308,-0.433480941161282,-0.12659286275269235,-0.40875523136343583,0.16280593977109267,-0.03797540259549841,-0.017625597521058023
1592167944.1793907,-0.4703458622867972,8.294827068856602,5.269884712571067,-0.43555555555555553,-0.12555555555555556,-0.41,0.2004613458267192,-0.05219639076062124,-0.02456255646761741
1592167944.1893907,-0.20224220086876396,8.363687244965119,5.180295116493353,-0.43555555555555553,-0.12555555555555556,-0.41,0.21918298251868396,-0.07909004189700776,0.03565625300295279
1592167944.1993906,-0.026680036506869065,8.387947689499471,4.959255452012681,-0.43555555555555553,-0.12555555555555556,-0.41,0.21383136432141744,-0.08550401477645489,0.09506471324991425
1592167944.2093906,-0.04250430625373501,8.386135972158751,4.913864027841249,-0.43555555555555553,-0.12555555555555556,-0.41,0.21102600238134597,-0.08701863191995149,0.10496758579942476
1592167944.2193906,-0.15852632274258538,8.371912279542903,4.863385956800316,-0.4463391828316856,-0.14173099646975068,-0.4261754409141951,0.1933507109176149,-0.09453292748659275,0.1009822240067148
1592167944.2293906,-0.13870830147680174,8.356589272061486,4.814238058830631,-0.4488888888888889,-0.14555555555555555,-0.43,0.18005199958703946,-0.09940650365825848,0.08914099193722849
1592167944.2393906,-0.13772305305117846,8.385267663661415,4.747366168169293,-0.4488888888888889,-0.14555555555555555,-0.43,0.1556431002610625,-0.11021283913363888,0.053869600903709854
1592167944.2493906,-0.10333626443902633,8.39611135536992,4.794441024821136,-0.4488888888888889,-0.14555555555555555,-0.43,0.14144503093177047,-0.11532486788241239,0.03714946113857889
1592167944.2593906,0.01880707251566696,8.384576991942705,4.8854230080572965,-0.4488888888888889,-0.14555555555555555,-0.43,0.10888190444374203,-0.11999138607461016,0.011168564229203867
1592167944.2693906,0.01781606346058503,8.343842340109074,4.962315319781854,-0.4408538533575717,-0.1348421748471327,-0.43870462182559355,0.09555964288439267,-0.1167045620386051,-0.0011051624710121505
1592167944.2793906,0.030269672244502832,8.31328838795925,4.956307103673996,-0.43555555555555553,-0.12777777777777777,-0.4444444444444444,0.09818947876395547,-0.10868024575074829,-0.017914958375938313
1592167944.2893906,0.12973303243463857,8.396377451804192,4.770533935130723,-0.43555555555555553,-0.12777777777777777,-0.4444444444444444,0.09999039492518992,-0.10218661731209405,-0.024364314279406052
1592167944.2993906,0.14336127449813066,8.479958088252804,4.683340318624532,-0.43555555555555553,-0.12777777777777777,-0.4444444444444444,0.0778362171071418,-0.10326226616806518,-0.018913067402737353
1592167944.3093905,0.194696612169223,8.400014326647565,4.721170571380415,-0.43555555555555553,-0.12777777777777777,-0.4444444444444444,0.0267631370340998,-0.11306020720153706,0.002243162137510201
1592167944.3193905,0.3608906882591093,8.314888663967611,4.795334008097166,-0.44982737291947816,-0.15212381916329284,-0.4276540710751237,-0.036531238376367896,-0.11477957766491934,0.027634563836533448
1592167944.3293905,0.32296833043752965,8.322325067129995,4.8069187332175005,-0.45444444444444443,-0.16,-0.4222222222222222,-0.05135769508527758,-0.10470743567550427,0.028609066102507057
1592167944.3393905,0.15,8.393577364262045,4.787549324496559,-0.45444444444444443,-0.16,-0.4222222222222222,-0.09964960256089342,-0.07286137894289813,0.010272272563205093
1592167944.3493905,0.1018529314846265,8.3168277103242,4.986344579351601,-0.45444444444444443,-0.16,-0.4222222222222222,-0.18812936457603177,-0.05344520593869356,-0.003480118221250892
1592167944.3593905,0.09795829713292789,8.10837532580365,5.16979148566464,-0.45444444444444443,-0.16,-0.4222222222222222,-0.21511637938541317,-0.0493025186507651,-0.025481465898333805
1592167944.3693905,0.19537673219465035,8.14229455365775,5.187311633902675,-0.45839707093493753,-0.14577054463422495,-0.44910008235757515,-0.14317806128258742,-0.03776067364991953,-0.04283565576672
1592167944.3793905,0.2721523472099203,8.261312505032611,5.074199210886545,-0.46,-0.14,-0.46,-0.08235047763838613,-0.023110698097672116,-0.04137998369027763
1592167944.3893905,0.3205335250676351,8.42488824977455,4.796712325428356,-0.46,-0.14,-0.46,-0.012139915838037408,-0.0040967104636553155,-0.036705236825147015
1592167944.3993905,0.2772716251871925,8.473091349925124,4.782365399700492,-0.46,-0.14,-0.46,-3.959444257938373e-05,-0.00432372868740644,-0.030662045237638918
1592167944.4093904,0.3270548718527718,8.469683865868806,4.840948402393587,-0.46,-0.14,-0.46,-0.02141548255084467,-0.003766180412481695,-0.021644191229076116
1592167944.4193904,0.42302281368821293,8.327908745247148,4.941549429657795,-0.4483808618504436,-0.1461153358681876,-0.46794993662864387,-0.05935280797537751,0.012227259113306282,0.0022490608053562892
1592167944.4293904,0.36294878065823494,8.24117462092097,5.039996506184054,-0.4388888888888889,-0.1511111111111111,-0.47444444444444445,-0.07128915689217354,0.03246751759462741,0.015913430632724136
1592167944.4393904,0.014189015840816208,8.345896900450464,5.2058969004504645,-0.4388888888888889,-0.1511111111111111,-0.47444444444444445,-0.055007861881100184,0.06391143743806277,0.02330816509403058
1592167944.4493904,-0.0027199137827805045,8.240419590468207,5.277740150880134,-0.4388888888888889,-0.1511111111111111,-0.47444444444444445,-0.03832521814650146,0.0657967287874113,0.052464663148827445
1592167944.4593904,-0.013835214973190792,8.196684650481233,5.266630699037533,-0.4388888888888889,-0.1511111111111111,-0.47444444444444445,-0.015615623917266262,0.06440983950178028,0.055937309914255516
1592167944.4693904,-0.14954358141858143,8.38099587912088,5.106410776723277,-0.45476717726717725,-0.16235823204573205,-0.4870147560772561,0.10944293117417857,0.05069420837796592,0.021058462374744347
1592167944.4793904,-0.14081499820309068,8.505522501297769,5.045407499101546,-0.46555555555555556,-0.17,-0.4955555555555556,0.1528114844590496,0.034095006589242735,0.008821821169517418
1592167944.4893904,-0.05505419957778885,8.470469176213857,4.934945800422212,-0.46555555555555556,-0.17,-0.4955555555555556,0.10180163594034497,-0.00970329415759994,0.0032724923474893677
1592167944.4993904,-0.020204202719406678,8.26530630407911,5.00469369592089,-0.46555555555555556,-0.17,-0.4955555555555556,0.044334518184872336,-0.03288074103388662,0.008348185958326277
1592167944.5093904,0.06284572971756498,8.171231011589963,5.08,-0.46555555555555556,-0.17,-0.4955555555555556,0.037062961228352634,-0.03261592631782641,-0.006939117432977624
1592167944.5193903,0.049872719983964725,8.209241330928041,5.061771898175987,-0.46150486626133047,-0.1684809915146656,-0.4955555555555556,0.06977206440987754,-0.014153031980556341,-0.041286053819381295
1592167944.5293903,-0.13574409972687165,8.357841585545206,5.081914699908958,-0.45666666666666667,-0.16666666666666666,-0.4955555555555556,0.09251175515220539,-0.001090830782496456,-0.05019150856127401
1592167944.5393903,-0.17505140600531083,8.286391366514605,5.098762851501328,-0.45666666666666667,-0.16666666666666666,-0.4955555555555556,0.08454499316877516,-0.012122875523348472,-0.026815260255606006
1592167944.5493903,-0.12934281141135487,8.19,5.04737124564542,-0.45666666666666667,-0.16666666666666666,-0.4955555555555556,0.13187231112113967,-0.030025936361323925,0.010669980658898934
1592167944.5593903,-0.0006883220664780365,8.452485691453749,4.819101315306365,-0.45666666666666667,-0.16666666666666666,-0.4955555555555556,0.21940340989281581,-0.0470291992554568,0.04876410105006721
1592167944.5693903,-0.018961307409082112,8.728541437891609,4.587082875783218,-0.44966421204487217,-0.16284714596386968,-0.5159263326371394,0.21304046377746888,-0.059848038757560784,0.05809788986694345
1592167944.5793903,-0.11196631033365728,8.654627874959509,4.615084224165857,-0.4444444444444444,-0.16,-0.5311111111111111,0.13508227198736844,-0.06365273238805061,0.04501439374470281
1592167944.5893903,-0.02609535036018337,8.2865721021611,4.764023837590045,-0.4444444444444444,-0.16,-0.5311111111111111,-0.03258190820137973,-0.06285525557109814,0.012277111151066137
1592167944.5993903,0.011315347049875914,8.225525578416459,4.764263069409975,-0.4444444444444444,-0.16,-0.5311111111111111,-0.04974776967933581,-0.055494651538574004,-0.00045350126118838324
1592167944.6093903,0.13160331593490943,8.414809947804729,4.8151900521952715,-0.4444444444444444,-0.16,-0.5311111111111111,0.006561194768627132,-0.02070957479378427,-0.018194334027266494
1592167944.6193902,0.14029459169054442,8.37594108166189,4.88653026504298,-0.4462484081502706,-0.16721585482330467,-0.5247972381407195,0.020424067793011855,0.010863670497994566,-0.028695452387760015
1592167944.6293902,0.04724842183438545,8.42114649090234,4.929770701819533,-0.4488888888888889,-0.17777777777777778,-0.5155555555555555,0.022041728612191433,0.0361725036819204,-0.049287485623240354
1592167944.6393902,-0.06505877066433319,8.47,4.855764018636331,-0.4488888888888889,-0.17777777777777778,-0.5155555555555555,0.04672621886801288,0.03770418173086638,-0.038948873752792594
1592167944.6493902,-0.06,8.489389622641509,4.819084433962264,-0.4488888888888889,-0.17777777777777778,-0.5155555555555555,0.05265949584504106,0.028461473106644913,-0.008002015603844405
1592167944.6593902,-0.09567266917812273,8.486218220547919,4.85,-0.4488888888888889,-0.17777777777777778,-0.5155555555555555,0.03735402109958728,0.02163018838556881,0.009119337596279123
1592167944.6693902,-0.13616389041430227,8.45691805479285,4.836163890414302,-0.45157924353055234,-0.17777777777777778,-0.5259326377448289,0.03284832333277082,0.017117104449750505,0.020890318011268845
1592167944.6793902,-0.210404122845883,8.446094256465265,4.838686892241681,-0.45666666666666667,-0.17777777777777778,-0.5455555555555556,0.04396378993658005,0.0248026323247166,0.02840934629035817
1592167944.6893902,-0.31527919884169886,8.443604005791506,4.8322335907335905,-0.45666666666666667,-0.17777777777777778,-0.5455555555555556,0.05166218282310043,0.028544335559485327,0.017486538641523726
1592167944.6993902,-0.2957191658956658,8.450958887860889,4.785239721965222,-0.45666666666666667,-0.17777777777777778,-0.5455555555555556,0.06960024678419799,0.01781938705840977,0.004987187350905439
1592167944.7093902,-0.28,8.44577908016291,4.7760552299592725,-0.45666666666666667,-0.17777777777777778,-0.5455555555555556,0.09263024670266244,0.0033628621570256792,-0.0006002765837760872
1592167944.7193902,-0.31586422649773194,8.47,4.841728452995463,-0.45865912369431844,-0.17777777777777778,-0.5479465039887377,0.09745225926162723,-0.018281525371224037,-0.017107871303599507
1592167944.7293901,-0.3649212376933896,8.50015752461322,5.025288795124238,-0.4622222222222222,-0.17777777777777778,-0.5522222222222222,0.08068138360874724,-0.056814844794936835,-0.039835370709115886
1592167944.7393901,-0.23264439411098525,8.45489241223103,4.9955039637599095,-0.4622222222222222,-0.17777777777777778,-0.5522222222222222,0.07462184371608967,-0.08595388309076689,-0.023150814115496698
1592167944.7493901,-0.12981964573268923,8.39129974695192,4.878700253048079,-0.4622222222222222,-0.17777777777777778,-0.5522222222222222,0.0823991038797324,-0.10716530388292121,0.005576260712289682
1592167944.75939,-0.18719006090528317,8.457818133991623,4.853438012181057,-0.4622222222222222,-0.17777777777777778,-0.5522222222222222,0.10441502616267496,-0.12193504297908103,0.0175903168111907
1592167944.76939,-0.13528940338379342,8.511847729296527,4.884203027604631,-0.4622222222222222,-0.1791223904224795,-0.5629791233798357,0.13783006337901957,-0.1373992677850417,0.03146022028806342
1592167944.77939,0.09580421725239617,8.444425559105431,4.791668242811502,-0.4622222222222222,-0.18222222222222223,-0.5877777777777777,0.14878561060487258,-0.14652875490261724,0.045865022289692775
1592167944.78939,0.13191097292788354,8.41885341624327,4.646942443315386,-0.4622222222222222,-0.18222222222222223,-0.5877777777777777,0.1440938906942448,-0.13809775427725685,0.04793401798701648
1592167944.79939,0.1614839878510151,8.377129003037247,4.549951510630362,-0.4622222222222222,-0.18222222222222223,-0.5877777777777777,0.14383836406606343,-0.1090883676193481,0.02930906595848933
1592167944.80939,0.07818232662192394,8.387726510067115,4.6545469798657715,-0.4622222222222222,-0.18222222222222223,-0.5877777777777777,0.12965969749833084,-0.09232345161320256,-0.00733931449297112
1592167944.81939,0.06994266706330962,8.436857776455634,4.7033715552911275,-0.4622222222222222,-0.17999362967370108,-0.5807205680407941,0.12108534388371625,-0.0770749518743841,-0.04075353479489099
1592167944.82939,0.037881461939093454,8.597585116786828,4.71817780709136,-0.4622222222222222,-0.17555555555555555,-0.5666666666666667,0.12541321374565884,-0.07626117605045118,-0.05248918252556419
1592167944.83939,0.1729175491126853,8.636275225784464,4.666477032060177,-0.4622222222222222,-0.17555555555555555,-0.5666666666666667,0.11530980770646808,-0.09389551872431579,-0.031550021262776645
1592167944.84939,0.3757526472056544,8.553547649701779,4.660968233532148,-0.4622222222222222,-0.17555555555555555,-0.5666666666666667,0.07789455836117622,-0.10134164487801922,-0.007424579689172848
1592167944.85939,0.46525974025974026,8.473814935064935,4.753814935064935,-0.4622222222222222,-0.17555555555555555,-0.5666666666666667,0.0560821605221798,-0.09294551181962904,0.01889297665333553
1592167944.86939,0.5943936922240348,8.486590538336051,4.817311038607939,-0.4622222222222222,-0.18595976073953235,-0.5723022778079875,0.05983464868850258,-0.08311786526813399,0.045360528330108195
1592167944.87939,0.57,8.45,4.86,-0.4622222222222222,-0.20222222222222222,-0.5811111111111111,0.06981317007977318,-0.06981317007977318,0.05999569303730508
1592167944.88939,0.3852234703066496,8.283358926963363,4.7500767808900894,-0.4622222222222222,-0.20222222222222222,-0.5811111111111111,0.08710345063435265,-0.03533011628640116,0.049877318551634485
1592167944.89939,0.42492234338856627,8.314611716942832,4.608808242458576,-0.4622222222222222,-0.20222222222222222,-0.5811111111111111,0.11595029651028885,-0.011236077165029232,0.00884524057107439
1592167944.90939,0.4267853908843948,8.456581863654003,4.550203527230391,-0.4622222222222222,-0.20222222222222222,-0.5811111111111111,0.15773654884129143,0.015950748493550868,-0.040305235510372156
1592167944.91939,0.4407606885063854,8.544009500894566,4.4868779690295515,-0.4524705067829258,-0.197346364502574,-0.5912378925288421,0.17807682975901487,0.0407981076521927,-0.07064641835748803
1592167944.92939,0.56,8.65,4.52,-0.43333333333333335,-0.18777777777777777,-0.6111111111111112,0.1636246173744684,0.05235987755982988,-0.08726646259971647
1592167944.93939,0.5777085011825246,8.703020245861165,4.54,-0.43333333333333335,-0.18777777777777777,-0.6111111111111112,0.09856075844619232,0.08618711364966307,-0.04551900179026333
1592167944.94939,0.5812522113315801,8.616261056657901,4.623103992349988,-0.43333333333333335,-0.18777777777777777,-0.6111111111111112,0.06115771597940506,0.10158192808799187,0.01328810786199687
1592167944.95939,0.540996317230242,8.512869015499144,4.8242619690017134,-0.43333333333333335,-0.18777777777777777,-0.6111111111111112,0.04779227473803953,0.11531510190243184,0.05609727860543072
1592167944.96939,0.4101135962519655,8.3962019061066,4.9377665821647465,-0.44084402086519986,-0.1911917266558989,-0.610428321335487,0.07003821102899725,0.12670085473605394,0.07183034767830102
1592167944.97939,0.23,8.32,4.82,-0.4577777777777778,-0.1988888888888889,-0.6088888888888889,0.11235557059713495,0.13199052468207118,0.06654067773228381
1592167944.98939,0.4407016574585635,8.627161225514817,4.469951783023606,-0.4577777777777778,-0.1988888888888889,-0.6088888888888889,0.19042914032919295,0.14352341668184537,0.062097309209368436
1592167944.99939,0.2956205253454014,8.757402964346431,4.227402964346431,-0.4577777777777778,-0.1988888888888889,-0.6088888888888889,0.1748078595867269,0.14882653386789724,0.04377278805753557
1592167945.0093899,0.18333845004140495,8.756600149461736,4.310061400496859,-0.4577777777777778,-0.1988888888888889,-0.6088888888888889,0.11814040414069901,0.14398631441193047,0.034544091071588345
1592167945.0193899,0.22794966422651097,8.642893096981064,4.4306603545284045,-0.45416352404191956,-0.20039482794549648,-0.6128043304360686,0.0575258974535343,0.13933064971723436,0.035406034937759005
1592167945.0293899,0.33,8.57,4.54,-0.4444444444444444,-0.20444444444444446,-0.6233333333333333,0.009817477042468103,0.13853550937704992,0.03381575425739013
1592167945.0393898,0.3694677593867262,8.524752641635397,4.689505283270794,-0.4444444444444444,-0.20444444444444446,-0.6233333333333333,0.01405649684195927,0.1402567966071017,0.05481955168480388
1592167945.0493898,0.3929034328642069,8.464193134271586,4.54225537276531,-0.4444444444444444,-0.20444444444444446,-0.6233333333333333,0.05894090863146491,0.14842367880999643,0.09060964733768428
1592167945.0593898,0.32127273490990044,8.52364808669719,4.404287394463813,-0.4444444444444444,-0.20444444444444446,-0.6233333333333333,0.0980532106285722,0.16369371355710394,0.0967378172525102
1592167945.0693898,0.0722071354347073,8.733327675788015,4.252207135434707,-0.44147896701689565,-0.20444444444444446,-0.6270401801177693,0.1301755590902036,0.1769571993191335,0.0799917888132389
1592167945.0793898,0.01,8.71,4.19,-0.4311111111111111,-0.20444444444444446,-0.64,0.14289883250703572,0.1778054175469223,0.06981317007977318
1592167945.0893898,0.013241032741071197,8.73329641309643,4.24,-0.4311111111111111,-0.20444444444444446,-0.64,0.060612160798958974,0.14429487664054066,0.03229284787150964
1592167945.0993898,-0.02,8.72,4.24,-0.4311111111111111,-0.20444444444444446,-0.64,0.020725784867432664,0.12326387842209952,0.007635815477475192
1592167945.1093898,0.1710106126386879,8.66876326579836,4.456968162083936,-0.4311111111111111,-0.20444444444444446,-0.64,-0.00991614118704991,0.08926388531872696,0.018593455374730655
1592167945.1193898,0.13192031217909223,8.605760936537278,4.5592339289381805,-0.4311111111111111,-0.2034184523402022,-0.64,-0.043130718782885644,0.0677986392939428,0.034948927824419725
1592167945.1293898,0.07,8.42,4.63,-0.4311111111111111,-0.19555555555555557,-0.64,-0.0643590161672909,0.05235987755982988,0.04363323129985824
1592167945.1393898,0.17943407752971233,8.54997334221926,4.617816283461068,-0.4311111111111111,-0.19555555555555557,-0.64,-0.046002998472962416,0.02836450825769025,0.031634092692397225
1592167945.1493897,0.23,8.68,4.43,-0.4311111111111111,-0.19555555555555557,-0.64,-0.015271630954950384,0.014180800172453926,0.031634092692397225
1592167945.1593897,0.1463265306122449,8.651428571428571,4.324081632653061,-0.4311111111111111,-0.19555555555555557,-0.64,-0.009439025546499946,-0.015115797986022318,0.021304593037736904
1592167945.1693897,0.1949698643897539,8.54858864892014,4.354314414866901,-0.430156816786651,-0.19539650650147888,-0.6419881131759585,-0.021818807173349504,-0.028598010933881847,0.0010798731653945326
1592167945.1793897,0.023299342957398207,8.66582483573935,4.534175164260651,-0.4177777777777778,-0.19333333333333333,-0.6677777777777778,-0.02837272366942145,-0.05375728052418614,-0.08379177236020277
1592167945.1893897,0.1469776119402985,8.66660447761194,4.525358208955224,-0.4177777777777778,-0.19333333333333333,-0.6677777777777778,-0.004849312665172678,-0.08097627643826118,-0.10991911049861862
1592167945.1993897,0.3322753209700428,8.63,4.542275320970043,-0.4177777777777778,-0.19333333333333333,-0.6677777777777778,-0.0002085182950849144,-0.10750207386303162,-0.09034288550555883
1592167945.2093897,0.32907272902417883,8.609966669877661,4.58096060109816,-0.4177777777777778,-0.19333333333333333,-0.6677777777777778,-0.029549944947475277,-0.12534802616702145,-0.0952959691098187
1592167945.2193897,0.28058838262209806,8.521078701473845,4.718332915904055,-0.4177777777777778,-0.19333333333333333,-0.6677777777777778,-0.02514259348709103,-0.12975537762740572,-0.08736273648112705
1592167945.2293897,0.3052765565657728,8.435276556565773,4.693191391414432,-0.4266666666666667,-0.21333333333333335,-0.6677777777777778,0.030116119240506597,-0.14106529774142856,-0.09370466162734667
1592167945.2393897,0.3108920488317864,8.509201682593389,4.668521329614558,-0.4266666666666667,-0.21333333333333335,-0.6677777777777778,0.07861403133697197,-0.14359020904706435,-0.11272170789192289
1592167945.2493896,0.28,8.73128788238084,4.456129475930757,-0.4266666666666667,-0.21333333333333335,-0.6677777777777778,0.13339688673999783,-0.13663557031744397,-0.15380639017566422
1592167945.2593896,0.2941330852664081,8.802726229118836,4.45256274245903,-0.4266666666666667,-0.21333333333333335,-0.6677777777777778,0.1792210103559866,-0.1290606279892539,-0.17936493162105113
1592167945.2693896,0.36884747842609455,8.711408637479218,4.5189755363787505,-0.4266666666666667,-0.21333333333333335,-0.6677777777777778,0.19823785434528327,-0.13087175598823453,-0.17030929162614797
1592167945.2793896,0.3069941295175197,8.59,4.514300587048248,-0.41888888888888887,-0.21777777777777776,-0.6611111111111111,0.1950468625641835,-0.12512900694907855,-0.1427462442715462
1592167945.2893896,0.1536630488992329,8.619304391193863,4.50435865770537,-0.41888888888888887,-0.21777777777777776,-0.6611111111111111,0.22895472604138833,-0.1193920211000492,-0.14796941977820796
1592167945.2993896,0.17,8.739297665185745,4.391783722469042,-0.41888888888888887,-0.21777777777777776,-0.6611111111111111,0.2803787756944254,-0.11983207672978011,-0.15229189708133523
1592167945.3093896,0.1746042780748663,8.671582887700534,4.372374331550803,-0.41888888888888887,-0.21777777777777776,-0.6611111111111111,0.2927690653785715,-0.13651601409950834,-0.13392368682816383
1592167945.3193896,0.18689881862856772,8.573082630910925,4.216917369089074,-0.4168338016149387,-0.2183771782326799,-0.6611111111111111,0.27858420166402037,-0.14944381720201447,-0.12872207941725192
1592167945.3293896,0.03,8.61,4.18,-0.39222222222222225,-0.22555555555555556,-0.6611111111111111,0.296705972839036,-0.14944381720201447,-0.15489797111449674
1592167945.3393896,-0.07354170666812958,8.816791562662864,4.083833557341526,-0.39222222222222225,-0.22555555555555556,-0.6611111111111111,0.3558971493752641,-0.1477212039916602,-0.23639664762513582
1592167945.3493896,-0.027584237713852423,8.925168475427705,3.8593260982891806,-0.39222222222222225,-0.22555555555555556,-0.6611111111111111,0.37749473268602385,-0.16054213254041752,-0.25476412116771285
1592167945.3593895,-0.03380931580828336,8.902108962395266,3.9417003534130166,-0.39222222222222225,-0.22555555555555556,-0.6611111111111111,0.33225095140123656,-0.1712158605263593,-0.24743310784229133
1592167945.3693895,-0.0981016127000126,8.864757780017639,4.034289089076477,-0.39222222222222225,-0.22587326585751685,-0.6616935799980401,0.27042034565396295,-0.1852861363205992,-0.23660545037255754
1592167945.3793895,-0.26,8.76,4.12,-0.39222222222222225,-0.23222222222222222,-0.6733333333333333,0.2247111411942699,-0.20398535632683729,-0.2127120025868089
1592167945.3893895,-0.22524028776978416,8.773810071942446,4.076029736211031,-0.39222222222222225,-0.23222222222222222,-0.6733333333333333,0.2103918028965378,-0.23239937933093274,-0.20372575429601006
1592167945.3993895,-0.3076079615713878,8.80790307238657,3.98,-0.39222222222222225,-0.23222222222222222,-0.6733333333333333,0.2077153273122061,-0.2627258624549956,-0.20886478259694838
1592167945.4093895,-0.13473510564050506,8.86,3.98,-0.39222222222222225,-0.23222222222222222,-0.6733333333333333,0.19171449627707682,-0.3173642772158314,-0.19856207041314908
1592167945.4193895,0.06187137585661571,8.86023721665788,3.979710068529257,-0.39222222222222225,-0.2322661512329409,-0.6732454753118959,0.1558594202807245,-0.3589235794997287,-0.14816035156862906
1592167945.4293895,0.7848314606741573,8.95,3.8885393258426966,-0.39222222222222225,-0.24888888888888888,-0.64,0.09921657510459336,-0.366874582162544,-0.07263829924118255
1592167945.4393895,0.8711686111245582,8.93412354165658,3.959415694437721,-0.39222222222222225,-0.24888888888888888,-0.64,0.05967700379044608,-0.32372422011835217,-0.05011812181705313
1592167945.4493895,0.97,8.86,3.91,-0.39222222222222225,-0.24888888888888888,-0.64,0.032724923474893676,-0.2716168648416175,0.001090830782496456
1592167945.4593894,0.8952237170778737,8.765906043209606,4.07272930452693,-0.39222222222222225,-0.24888888888888888,-0.64,0.003049201643030761,-0.19361880691626565,0.04596375333449022
1592167945.4693894,0.8308911433454577,8.71076383715325,4.109490775231167,-0.39222222222222225,-0.24888888888888888,-0.64,4.1660853978950276e-05,-0.1274529095571258,0.047968780527191425
1592167945.4793894,0.73,8.84,4.0,-0.38,-0.24888888888888888,-0.6588888888888889,0.028361600344907853,-0.056723200689815706,0.04363323129985824
1592167945.4893894,0.6866654766154945,8.784444841128169,3.8819992859692967,-0.38,-0.24888888888888888,-0.6588888888888889,0.05381405897426821,0.012872270565460678,0.056577548882370626
1592167945.4993894,0.5481102971522905,8.837558811390839,3.807558811390838,-0.38,-0.24888888888888888,-0.6588888888888889,0.02121546006625091,0.07303391774584976,0.02922063521360412
1592167945.5093894,0.5108294451008271,8.911369325349941,3.8854773013997637,-0.38,-0.24888888888888888,-0.6588888888888889,-0.00754533705263789,0.14093908555284004,-0.006305136045844605
1592167945.5193894,0.39324088351322667,8.919768508320484,3.919074033281935,-0.38,-0.24888888888888888,-0.6588888888888889,-0.020372259317561373,0.17575501741477523,-0.018215849577559267
1592167945.5293894,0.36,8.88,3.98,-0.38,-0.25555555555555554,-0.6377777777777778,-0.028361600344907853,0.19853120241435498,-0.0032724923474893677
1592167945.5393894,0.2709753336029115,8.838374443995148,4.097399110392236,-0.38,-0.25555555555555554,-0.6377777777777778,-0.04507870338810769,0.20690320736857365,0.026365816698129256
1592167945.5493894,0.3,8.778403964947564,4.031596035052434,-0.38,-0.25555555555555554,-0.6377777777777778,-0.057371650305958546,0.19714012284874358,0.06767946056469319
1592167945.5593894,0.29318084815321477,8.707726949384405,4.10909220246238,-0.38,-0.25555555555555554,-0.6377777777777778,-0.06800343555202981,0.20118381636642843,0.0870185112415501
1592167945.5693893,0.24727879616963064,8.692426265389877,4.170294938440493,-0.38,-0.25555555555555554,-0.6377777777777778,-0.07050700411620212,0.19701120209280792,0.08534946553210192
1592167945.5793893,0.26654024179620034,8.90702590673575,4.147405181347151,-0.37777777777777777,-0.26222222222222225,-0.6577777777777778,-0.06302650702075534,0.18771724485810792,0.10267381626549768
1592167945.5893893,0.22946897695163815,8.77265511524181,4.112034654274572,-0.37777777777777777,-0.26222222222222225,-0.6577777777777778,-0.07303749296202888,0.18911920477304464,0.11811886498030769
1592167945.5993893,0.21933844292053248,8.81735377168213,3.9696692214602662,-0.37777777777777777,-0.26222222222222225,-0.6577777777777778,-0.09173803275370154,0.19631345850802898,0.16256986893330502
1592167945.6093893,0.199289750758432,8.741183748735947,3.9609469989887574,-0.37777777777777777,-0.26222222222222225,-0.6577777777777778,-0.09505723042438109,0.19520705928446916,0.1638312205040543
1592167945.6193893,0.1743400154660639,8.782766640889893,3.994213312711915,-0.37777777777777777,-0.26222222222222225,-0.6577777777777778,-0.10050041827879176,0.1933926633329989,0.17108880430993517
1592167945.6293893,0.08776454754898606,8.777764547548985,4.014470904902027,-0.35888888888888887,-0.24333333333333335,-0.6644444444444444,-0.12217304763960307,0.16689710972195776,0.11890055529211369
1592167945.6393893,0.05143574036989045,8.740913652962657,4.08921686888915,-0.35888888888888887,-0.24333333333333335,-0.6644444444444444,-0.12221576081572533,0.16662659293985013,0.11900021936973228
1592167945.6493893,0.16003669811098825,8.809963301889013,4.030073396221977,-0.35888888888888887,-0.24333333333333335,-0.6644444444444444,-0.125537612274081,0.1461433028541373,0.1264896674356092
1592167945.6593893,0.1896372532875391,8.780362746712461,4.089274506575078,-0.35888888888888887,-0.24333333333333335,-0.6644444444444444,-0.1998027648348839,0.12354086511824072,0.08881893787578161
1592167945.6693892,0.0772176094269547,8.747776459836272,4.114167655122795,-0.35888888888888887,-0.24333333333333335,-0.6644444444444444,-0.22443940391318096,0.1100824673477478,0.08396348969076237
1592167945.6793892,0.10953224002981737,8.75984408000994,4.179532240029817,-0.35888888888888887,-0.24884557778053865,-0.6578297511077981,-0.23774158177055965,0.08417255669323029,0.07099754614089036
1592167945.6893892,0.13830350071281483,8.77886900047521,4.21773800095042,-0.35888888888888887,-0.24888888888888888,-0.6577777777777778,-0.22853881163524278,0.05311964042227831,0.07502057817292948
1592167945.6993892,0.24773570382141882,8.750617535321432,4.1416467608571494,-0.35888888888888887,-0.24888888888888888,-0.6577777777777778,-0.23332551636459223,0.030969892050568253,0.08595108963792134
1592167945.7093892,0.44915623642752794,8.756947921190823,4.2089228886168915,-0.35888888888888887,-0.24888888888888888,-0.6577777777777778,-0.24944186474263588,0.02330696261430409,0.09367827523406905
1592167945.7193892,0.573360642792277,8.715546452402576,4.465611995104039,-0.35888888888888887,-0.24888888888888888,-0.6577777777777778,-0.25937750399348947,0.02872640220567877,0.09187179537027748
1592167945.7293892,0.44,8.4,4.72,-0.3388888888888889,-0.23555555555555555,-0.7066666666666667,-0.22362031041177347,0.04690572364734761,0.10690141668465267
1592167945.7393892,0.5949047595730095,8.414852609930467,4.727816325531291,-0.3388888888888889,-0.23555555555555555,-0.7066666666666667,-0.15290726636310803,0.06616445274861356,0.04694356781586189
1592167945.7493892,0.3850185909047574,8.60900371818095,4.640996281819048,-0.3388888888888889,-0.23555555555555555,-0.7066666666666667,-0.11530608638798318,0.09604339169726435,-0.03975895686418928
1592167945.7593892,0.2904186234001814,8.588325506399274,4.66,-0.3388888888888889,-0.23555555555555555,-0.7066666666666667,-0.08730700461247318,0.11762706559314076,-0.04885906156674492
1592167945.7693892,0.2988723168396654,8.554510732641338,4.66,-0.3388888888888889,-0.23555555555555555,-0.7066666666666667,-0.06609744184444488,0.11393844598130975,-0.04424828705195616
1592167945.7793891,0.23107330552094058,8.589386682559462,4.600919976160806,-0.353111857590917,-0.23555555555555555,-0.670562207653826,-0.02889682077977202,0.09303840364539934,-0.04470733644376519
1592167945.7893891,0.24970661776962827,8.75750625104184,4.659119853308885,-0.35333333333333333,-0.23555555555555555,-0.67,-0.019762966232106986,0.06799954343789626,-0.044724062082354694
1592167945.7993891,0.23138297632722932,8.62037232245422,4.687925535509156,-0.35333333333333333,-0.23555555555555555,-0.67,-0.0277581630852256,0.046308084889020606,-0.0020772148308353666
1592167945.809389,0.42515957828300943,8.517066867484282,4.699293313251572,-0.35333333333333333,-0.23555555555555555,-0.67,-0.014169195312232288,0.03458662991615786,0.03657184336418537
1592167945.819389,0.4475264478764479,8.494947104247105,4.677420656370656,-0.35333333333333333,-0.23555555555555555,-0.67,0.0402755572821913,0.04448885959181989,0.048300997299005284
1592167945.829389,0.4304253603467392,8.578085878439673,4.562339481907065,-0.3413710535452295,-0.24316791542071253,-0.6645626000963164,0.14749503333053304,0.06828154294539403,0.05340430872633868
1592167945.839389,0.4497792727011563,8.609668909051734,4.4314347274424835,-0.3411111111111111,-0.24333333333333335,-0.6644444444444444,0.20661979192421925,0.0816678430079646,0.03942641265574781
1592167945.849389,0.5692525513870921,8.659688563077955,4.320685161228499,-0.3411111111111111,-0.24333333333333335,-0.6644444444444444,0.19750152212850558,0.09048459895018623,-0.012763833407839806
1592167945.859389,0.4514645243850419,8.818047300819945,4.142196786577562,-0.3411111111111111,-0.24333333333333335,-0.6644444444444444,0.1758900140287495,0.09700406222813855,-0.02925273759228926
1592167945.869389,0.44172284270044554,8.762059898903118,4.197940101096881,-0.3411111111111111,-0.24333333333333335,-0.6644444444444444,0.13950784408625247,0.09618104184479265,-0.010491577382173909
1592167945.879389,0.35,8.8,4.19,-0.31444444444444447,-0.24888888888888888,-0.67,0.07635815477475191,0.08290313946973066,0.019634954084936207
1592167945.889389,0.14799669620063072,8.732665565400211,4.324668869199579,-0.31444444444444447,-0.24888888888888888,-0.67,0.049732357955753065,0.07463996114659309,0.03432504888162523
1592167945.899389,0.17115982306213667,8.650103059357559,4.323788647259084,-0.31444444444444447,-0.24888888888888888,-0.67,0.017084983342379758,0.05783651553624189,0.0266044581173028
1592167945.909389,0.2339646545562101,8.595029454536492,4.418935200019718,-0.31444444444444447,-0.24888888888888888,-0.67,0.002297813224562177,0.04778352905975904,0.006448110984462976
1592167945.919389,0.24736958891311117,8.604739177826222,4.393152055434444,-0.31444444444444447,-0.24888888888888888,-0.67,0.01234539499956924,0.04047454409473458,-0.002067856422627197
1592167945.929389,0.3272480526538253,8.747329871384578,4.105340257230843,-0.3201665224188019,-0.24412049057692436,-0.67,0.05006828322652669,0.026943803557682673,0.004999405061425246
1592167945.939389,0.3594192472109269,8.85738661244917,3.9046460223125847,-0.3211111111111111,-0.24333333333333335,-0.67,0.04715912485508425,0.015556707313654102,0.023491474799448752
1592167945.949389,0.31118367249336426,8.869763265501327,3.83165714149071,-0.3211111111111111,-0.24333333333333335,-0.67,-0.012734671413239133,0.015271630954950384,0.017608234887002024
1592167945.959389,0.3832149972109331,8.903279544186788,3.923182723723006,-0.3211111111111111,-0.24333333333333335,-0.67,-0.07153851511016451,0.01744977202853433,0.01237096334824742
1592167945.969389,0.5335363790186125,8.692927241962774,4.280332769317541,-0.3211111111111111,-0.24333333333333335,-0.67,-0.14494206376968138,0.03092902101910848,0.018899735368025174
1592167945.979389,0.58,8.52,4.6,-0.31444444444444447,-0.24333333333333335,-0.68,-0.16144295580947549,0.05999569303730508,0.016362461737446838
1592167945.989389,0.5124380457871135,8.52,4.622520651404296,-0.31444444444444447,-0.24333333333333335,-0.68,-0.11640488618773329,0.0755542989066342,0.014724713751201667
1592167945.999389,0.42744886434935375,8.689781653908899,4.370859580875894,-0.31444444444444447,-0.24333333333333335,-0.68,-0.04101258186694386,0.0797467249869115,0.02295357643289004
1592167946.009389,0.3469710909883299,8.764771681758752,4.257842477361871,-0.31444444444444447,-0.24333333333333335,-0.68,-0.012904431492348697,0.07166442892603503,0.03993071360733456
1592167946.019389,0.34,8.78581391512352,4.1867443395059185,-0.31444444444444447,-0.24333333333333335,-0.68,-0.026433582692634662,0.06141633288758235,0.05697684460253543
1592167946.029389,0.405585418324345,8.771261309050187,4.17,-0.32069067476104873,-0.24645644849163548,-0.6716716929111943,-0.06120437327751621,0.05583875111804707,0.07130689427567334
1592167946.039389,0.4283311463676488,8.721116943019602,4.286097260328443,-0.3211111111111111,-0.24666666666666667,-0.6711111111111111,-0.08326436412107387,0.06229776281941239,0.07532752810081265
1592167946.049389,0.4559031795480394,8.602532512485784,4.423612718192158,-0.3211111111111111,-0.24666666666666667,-0.6711111111111111,-0.10640171553402977,0.08822527497049558,0.0852554405630046
1592167946.0593889,0.4342156737570542,8.485457470442533,4.60330073287199,-0.3211111111111111,-0.24666666666666667,-0.6711111111111111,-0.0987700881000089,0.1256879623026632,0.08257873980442706
1592167946.0693889,0.14804280100181222,8.484839852578853,4.7190391154731115,-0.3211111111111111,-0.24666666666666667,-0.6711111111111111,-0.06066146164056196,0.14870623870036798,0.049436772685791865
1592167946.0793889,-0.05133182275931521,8.582119838872105,4.6578801611278955,-0.30780491216291817,-0.24666666666666667,-0.6844173100593041,-0.0007675911473005101,0.1428395124040601,-0.004025528099152326
1592167946.0893888,-0.13110670139319525,8.604221340278638,4.65,-0.30666666666666664,-0.24666666666666667,-0.6855555555555556,0.03119602868722254,0.10690358129987282,-0.02004627607291215
1592167946.0993888,-0.030964486993330542,8.687421307804001,4.460747914256885,-0.30666666666666664,-0.24666666666666667,-0.6855555555555556,0.047234264171458346,0.026096152624027577,-0.011013517035128803
1592167946.1093888,0.2409559490287787,8.734614613659142,4.386731732926073,-0.30666666666666664,-0.24666666666666667,-0.6855555555555556,0.033837047140988716,-0.041366398200471,0.02620013838587154
1592167946.1193888,0.4463690345720833,8.689365945999802,4.416167181428714,-0.30666666666666664,-0.24666666666666667,-0.6855555555555556,0.01743127375771018,-0.07779480836783956,0.047415002619827264
1592167946.1293888,0.6689480173275575,8.567151282905698,4.43934988337221,-0.33159968899255804,-0.2414722870154393,-0.6606225332296641,0.014038966726492541,-0.08427763714414988,0.038151997449589886
1592167946.1393888,0.6375554748648431,8.52361897845558,4.464254014362948,-0.3333333333333333,-0.2411111111111111,-0.6588888888888889,0.03666927181873546,-0.06745832933584363,0.00930836986535526
1592167946.1493888,0.48481460353679406,8.61683970336566,4.446617227609812,-0.3333333333333333,-0.2411111111111111,-0.6588888888888889,0.07949063746675829,-0.02850161000039086,-0.0642594537456141
1592167946.1593888,0.4938405176515368,8.69922090589019,4.456920258825768,-0.3333333333333333,-0.2411111111111111,-0.6588888888888889,0.10354194020967905,-0.0007588794224789794,-0.06696161136352549
1592167946.1693888,0.4738262586012877,8.71654343534968,4.453456564650322,-0.3333333333333333,-0.2411111111111111,-0.6588888888888889,0.11475297545762742,0.0039862704177598,-0.03404361185788836
1592167946.1793888,0.3678273533695221,8.650870515027142,4.488405269429366,-0.32309192815216914,-0.2504990658605117,-0.6520612854347794,0.1172248092879688,0.00017395811962359065,-0.016615419517870846
1592167946.1893888,0.32346607983720216,8.613466079837202,4.417330399186011,-0.32,-0.25333333333333335,-0.65,0.12393317735468827,-0.006501543503172069,-0.02357674536501432
1592167946.1993887,0.3430036767963143,8.633003676796315,4.254310046956676,-0.32,-0.25333333333333335,-0.65,0.14886578416311028,-0.010981564645477743,-0.020070484245414657
1592167946.2093887,0.38253903721159077,8.770156148846363,4.177460962788409,-0.32,-0.25333333333333335,-0.65,0.1692992706806935,-0.019098055292101183,-0.0016841961764193537
1592167946.2193887,0.5035781278734752,8.814197265984184,4.148704101023723,-0.32,-0.25333333333333335,-0.65,0.15531576739531802,-0.02304880708185839,0.021540180018540633
1592167946.2293887,0.5252197213290462,8.811739907109683,4.131739907109682,-0.3236711523956969,-0.25975785002580287,-0.6573423047913938,0.10870738661894655,-0.018592059060298653,0.031254503845612104
1592167946.2393887,0.5443777169537917,8.777496377394945,4.146251811302528,-0.3244444444444444,-0.2611111111111111,-0.6588888888888889,0.08794684876158916,-0.009032503900885763,0.02986129508838511
1592167946.2493887,0.6433442902992028,8.659617455223108,4.219267781343825,-0.3244444444444444,-0.2611111111111111,-0.6588888888888889,0.06750990668798111,0.021698599481825922,0.013451189211658984
1592167946.2593887,0.6409509976665556,8.659049002333445,4.254524501166722,-0.3244444444444444,-0.2611111111111111,-0.6588888888888889,0.07287818692151034,0.04767277004643054,0.0060514381801685625
1592167946.2693887,0.618230859926165,8.664115429963083,4.307076560295339,-0.3244444444444444,-0.2611111111111111,-0.6588888888888889,0.08040258010267617,0.06288633030425647,0.00673796794008746
1592167946.2793887,0.61,8.647136138536768,4.3528638614632325,-0.30729262916013467,-0.2611111111111111,-0.6531716171274523,0.0846955850555203,0.07784333174008815,0.004829356264302449
1592167946.2893887,0.5410124004344677,8.736582639391745,4.263417360608255,-0.29777777777777775,-0.2611111111111111,-0.65,0.09863048453371547,0.09042851919139283,0.007035182208320452
1592167946.2993886,0.48204919452624284,8.821926208210636,4.1501229863156075,-0.29777777777777775,-0.2611111111111111,-0.65,0.10395751514450116,0.09762264717048831,0.02625816568861987
1592167946.3093886,0.4211749958998149,8.770249994142592,4.189750005857407,-0.29777777777777775,-0.2611111111111111,-0.65,0.08460756097002133,0.1068741465540343,0.044467717742989646
1592167946.3193886,0.36631171794921386,8.68385286324869,4.315450132477227,-0.29777777777777775,-0.2611111111111111,-0.65,0.07268333326770987,0.11139884953448939,0.0539871472217299
1592167946.3293886,0.3528659188034188,8.646432959401709,4.409298878205128,-0.29777777777777775,-0.2518190586419753,-0.6421374940645774,0.08454943736943583,0.1165659326798957,0.0641295745964533
1592167946.3393886,0.3377114132243191,8.67228858677568,4.382852355373865,-0.29777777777777775,-0.24666666666666667,-0.6377777777777778,0.11703369306545496,0.11809011940700516,0.07006281617010589
1592167946.3493886,0.3510243825562285,8.694016255037486,4.2859024697750865,-0.29777777777777775,-0.24666666666666667,-0.6377777777777778,0.14302830680483436,0.11933866075463828,0.06402378775967497
1592167946.3593886,0.30584644460193716,8.7,4.283845972123789,-0.29777777777777775,-0.24666666666666667,-0.6377777777777778,0.1586570982008631,0.11186893585825798,0.055179287298818123
1592167946.3693886,0.23065405877218506,8.694517117641354,4.250654058772185,-0.29777777777777775,-0.24666666666666667,-0.6377777777777778,0.16791659376022808,0.09603045375991326,0.04219235290867938
1592167946.3793886,0.1339209726443769,8.739848024316109,4.110303951367781,-0.3116244511989193,-0.2556670043904087,-0.6336237757514352,0.17982793054790358,0.06850351002176072,0.022940602383261333
1592167946.3893886,0.09244573118147098,8.84554268818529,3.97445731181471,-0.32,-0.2611111111111111,-0.6311111111111111,0.18105423065529921,0.02732444429624521,0.004825861184340426
1592167946.3993886,0.10950135919178805,8.881700815515073,3.8875956505862783,-0.32,-0.2611111111111111,-0.6311111111111111,0.1642452937607925,0.00256241448509747,-0.003163705798888066
1592167946.4093885,0.15441991318793205,8.878370130218102,3.8981493489094903,-0.32,-0.2611111111111111,-0.6311111111111111,0.1010886114530553,-0.03724195431307169,-0.017682319635629547
1592167946.4193885,0.17157894736842105,8.855526315789474,3.9631578947368418,-0.32,-0.2611111111111111,-0.6311111111111111,0.07607109404251601,-0.04615936574353424,-0.022936152505649166
1592167946.4293885,0.17454957507082153,8.781824362606232,4.077263456090652,-0.31505130626377087,-0.26181806735914387,-0.6353528485993075,0.0464106780627699,-0.049583666865793574,-0.03460807440648954
1592167946.4393885,0.1288760334193605,8.766224793316127,4.1660231398451515,-0.31222222222222223,-0.26222222222222225,-0.6377777777777778,0.04770734899820454,-0.042564397498715656,-0.04157417546933121
1592167946.4493885,0.07239506360935477,8.751197531804678,4.181197531804678,-0.31222222222222223,-0.26222222222222225,-0.6377777777777778,0.053596601177231716,-0.031749460768603965,-0.04636793944577404
1592167946.4593885,0.025162731333758775,8.708953414167198,4.194837268666241,-0.31222222222222223,-0.26222222222222225,-0.6377777777777778,0.06579234136267073,-0.023884112410627573,-0.045287228708417
1592167946.4693885,0.03506436663233779,8.745141606591144,4.174909886714727,-0.31222222222222223,-0.26222222222222225,-0.6377777777777778,0.08839942124456475,-0.019629337036622632,-0.03980549372657188
1592167946.4793885,0.04314190888061953,8.833716182238762,4.111903181467699,-0.31222222222222223,-0.26222222222222225,-0.6340315353068043,0.12127014737409508,-0.012549472592703202,-0.03293252836785798
1592167946.4893885,0.03231455968257467,8.862314559682574,4.076112641904552,-0.31222222222222223,-0.26222222222222225,-0.6311111111111111,0.1324048311822897,-0.0051919361304228985,-0.02827094825519086
1592167946.4993885,0.012226478903009326,8.853335887341805,3.9688982535866204,-0.31222222222222223,-0.26222222222222225,-0.6311111111111111,0.11320603759918754,0.012604227045161169,-0.013454694047213745
1592167946.5093884,-0.027770074283692964,8.828153283810872,3.9851569390402077,-0.31222222222222223,-0.26222222222222225,-0.6311111111111111,0.09866126474748667,0.02520695013430367,-0.001174434132174878
1592167946.5193884,-0.05023134219972197,8.830231342199722,4.045347013299583,-0.31222222222222223,-0.26222222222222225,-0.6311111111111111,0.09320294310526019,0.03444949396609987,0.009968890158116406
1592167946.5293884,-0.03748646582046185,8.84,4.037486465820462,-0.3165998538682435,-0.2547177108290428,-0.6386156225042905,0.09299480055778847,0.03695115458208464,0.023116037166549072
1592167946.5393884,0.04872203895340954,8.877484748520041,3.9450305029599164,-0.32,-0.24888888888888888,-0.6444444444444445,0.09762824591451165,0.03804189170037303,0.034495027978877824
1592167946.5493884,0.10776564910476369,8.9,3.8585468187555514,-0.32,-0.24888888888888888,-0.6444444444444445,0.09474376059379257,0.04702163493567515,0.040762986309310204
1592167946.5593884,0.13708864291693795,8.894303785694355,3.8527848572225842,-0.32,-0.24888888888888888,-0.6444444444444445,0.07920257391311167,0.05670940169563661,0.04129967933570272
1592167946.5693884,0.15,8.876183551144738,3.883816448855262,-0.32,-0.24888888888888888,-0.6444444444444445,0.06478936750773732,0.06702901663815528,0.037346457409147354
1592167946.5793884,0.13626993400069473,8.864576688666434,3.932036820665046,-0.31644035325943937,-0.2585507871846963,-0.6383421928891977,0.0569079051031086,0.08425363117490556,0.028823361378140084
1592167946.5893884,0.10834317716544697,8.87,3.981656822834553,-0.31222222222222223,-0.27,-0.6311111111111111,0.05009107171390949,0.09998852654680689,0.01972854113891607
1592167946.5993884,0.08867770140739702,8.853016552111095,3.9673554028147944,-0.31222222222222223,-0.27,-0.6311111111111111,0.039495296547291024,0.10733413788719161,0.013130543378243624
1592167946.6093884,0.045889331907031025,8.828629777302345,4.023906447534766,-0.31222222222222223,-0.27,-0.6311111111111111,0.031955305919023624,0.11265450681663074,0.009197327596345933
1592167946.6193883,-0.01696220902476751,8.81075944774381,4.116962209024767,-0.31222222222222223,-0.27,-0.6311111111111111,0.03356722556439712,0.11352924427729576,0.00822265231755559
1592167946.6293883,-0.07971651514066863,8.780283484859332,4.219149545422006,-0.31605598905513,-0.26616623316709226,-0.6311111111111111,0.043002776555604166,0.10267724885958551,0.00871118455942513
1592167946.6393883,-0.09354493307839389,8.755158699808796,4.283227533460804,-0.32,-0.26222222222222225,-0.6311111111111111,0.052608078062921816,0.08849578509150119,0.011225754182700621
1592167946.6493883,-0.020747828523395906,8.769252171476605,4.187850938638274,-0.32,-0.26222222222222225,-0.6311111111111111,0.0923127393255242,0.04880200871987289,0.017932445060632476
1592167946.6593883,0.03892476433794379,8.811569905735178,4.088430094264822,-0.32,-0.26222222222222225,-0.6311111111111111,0.1305384541047193,0.021654735247046968,0.014298090188314815
1592167946.6693883,0.06,8.84427354976051,4.01203406067057,-0.32,-0.26222222222222225,-0.6311111111111111,0.15411482543829252,0.00034867108460211356,0.009880871785123034
1592167946.6793883,0.07707683438490856,8.932615059411331,3.82046215930564,-0.31177782048134034,-0.2666495496553467,-0.6266837836779866,0.1693640300173444,-0.01820845081234508,0.003910228154544754
1592167946.6893883,0.09,8.98343739395996,3.716250424160163,-0.3055555555555556,-0.27,-0.6233333333333333,0.17228315611357836,-0.022907446432425576,0.0005283885110328099
1592167946.6993883,0.08575539085817767,9.0,3.616043126865421,-0.3055555555555556,-0.27,-0.6233333333333333,0.14523742971899567,-0.023833476494738708,-0.004496736720775742
1592167946.7093883,0.08,8.99628236050812,3.5755764592378196,-0.3055555555555556,-0.27,-0.6233333333333333,0.11910717993623346,-0.024683576437821795,-0.007737198367374364
1592167946.7193882,0.062193329045300005,8.96,3.678968345125425,-0.3055555555555556,-0.27,-0.6233333333333333,0.06785658069360007,-0.018297776766036125,-0.008726646259971648
1592167946.7293882,0.03056308516563669,8.96,3.7777476593374533,-0.3123711051581513,-0.2726213652317676,-0.6191391489625052,0.04836509280895023,-0.016815742533918526,-0.009241350119627696
1592167946.7393882,0.04448866162738996,8.96,3.82,-0.32,-0.27555555555555555,-0.6144444444444445,0.03450619339428818,-0.023886720487499093,-0.00928321732396217
1592167946.7493882,0.04611183780248529,8.945667102681492,3.7626684107259645,-0.32,-0.27555555555555555,-0.6144444444444445,0.019974545616962575,-0.02945243112740431,-0.009247805113217992
1592167946.7593882,0.03003315649867374,8.93,3.735116047745358,-0.32,-0.27555555555555555,-0.6144444444444445,0.007074124428000059,-0.028905207329686426,-0.008723029447032335
1592167946.7693882,0.06042948743011299,8.917742307541932,3.798601282402158,-0.32,-0.27555555555555555,-0.6144444444444445,-0.001383956636509755,-0.027470195794532186,-0.004515899551160359
1592167946.7793882,0.08643042535649943,8.892860850713,3.8649870225045038,-0.31682704476133283,-0.2707961226975548,-0.6176173996831116,-0.010438786596527964,-0.019949855737436177,0.0019469009507746143
