time,acc_x,acc_y,acc_z,mag_x,mag_y,mag_z,gyr_x,gyr_y,gyr_z
1592167953.4393818,-0.025681162517362965,8.61,4.468405812586815,-0.36444444444444446,-0.07444444444444444,-0.29777777777777775,-0.01634981560646053,0.010127336390183332,0.009966083650832564
1592167953.4493818,-0.03806122733223767,8.609515306833059,4.540484693166941,-0.36444444444444446,-0.07444444444444444,-0.29777777777777775,-0.022451077521806497,0.010961179647621007,0.013248584857926815
1592167953.4593818,0.0,8.590140283099528,4.56232464612559,-0.36882654084465416,-0.07444444444444444,-0.29777777777777775,-0.03732652364777701,0.013074666877634537,0.017706872075163742
1592167953.4693818,0.0,8.56,4.6,-0.38222222222222224,-0.07444444444444444,-0.29777777777777775,-0.044724062082354694,0.016362461737446838,0.02181661564992912
1592167953.4793818,-0.011398958047710447,8.54,4.571450781464217,-0.38222222222222224,-0.07444444444444444,-0.29777777777777775,-0.04270065622534612,0.01620985908726047,0.019013237368594792
1592167953.4893818,-0.036221751244254995,8.536221751244254,4.58022599004596,-0.38222222222222224,-0.07444444444444444,-0.29777777777777775,-0.041597167966377545,0.010204968357270562,0.014568291487256385
1592167953.4993818,-0.020563621176564177,8.517418161568752,4.6646000556859315,-0.38222222222222224,-0.07444444444444444,-0.29777777777777775,-0.04294699846679814,0.002709222580241884,0.009474360625938054
1592167953.5093818,0.0022854959498700904,8.49,4.767425951398441,-0.3791748942890621,-0.0759681084110245,-0.29777777777777775,-0.038210553598859276,-0.00476834594872293,0.00847733732643272
1592167953.5193818,0.01,8.49,4.86,-0.3688888888888889,-0.0811111111111111,-0.29777777777777775,-0.0272707695624114,-0.009817477042468103,0.007635815477475192
1592167953.5293818,0.021091492776886035,8.5,4.775457463884431,-0.3688888888888889,-0.0811111111111111,-0.29777777777777775,-0.0018052111344363502,-0.00795973794097735,0.008931505331483822
1592167953.5393817,-0.0232777115613826,8.506650774731824,4.643396901072705,-0.3688888888888889,-0.0811111111111111,-0.29777777777777775,0.01744029096115311,-0.004010980886771832,0.013087369078199435
1592167953.5493817,-0.07501708090416284,8.532542702260407,4.597525621356244,-0.3688888888888889,-0.0811111111111111,-0.29777777777777775,0.03055071486032224,0.008464186371177062,0.015271630954950384
1592167953.5593817,-0.0847598726323737,8.57,4.626986836490168,-0.3688888888888889,-0.08246966265086607,-0.29777777777777775,0.03689771019698587,0.018405974559411443,0.016986458625993052
1592167953.5693817,-0.06,8.57,4.66,-0.3688888888888889,-0.08888888888888889,-0.29777777777777775,0.03599741582238304,0.022907446432425576,0.025089107997418484
1592167953.5793817,-0.05218592547477991,8.541125629810088,4.7066557776424345,-0.3688888888888889,-0.08888888888888889,-0.29777777777777775,0.02751278046687202,0.02654117342418222,0.035267819684153864
1592167953.5893817,-0.1362686905301314,8.500596964204803,4.736268690530132,-0.3688888888888889,-0.08888888888888889,-0.29777777777777775,0.03417396885168751,0.03129218866258666,0.044463587310095684
1592167953.5993817,-0.15,8.482313395750095,4.754626791500189,-0.3688888888888889,-0.08888888888888889,-0.29777777777777775,0.05346688421772624,0.030038557250640873,0.056983640957145594
1592167953.6093817,-0.12989437484647506,8.494021125030706,4.76195774993859,-0.37156963890935885,-0.0862081388684189,-0.2956555173449057,0.07800880334460547,0.02726500860396785,0.06970927186412272
1592167953.6193817,0.04711506443152013,8.541539742273919,4.646725966472802,-0.39555555555555555,-0.06222222222222222,-0.27666666666666667,0.10757325599245368,0.015250408953411565,0.07791042103502148
1592167953.6293817,0.04,8.575343841678684,4.499921187409875,-0.39555555555555555,-0.06222222222222222,-0.27666666666666667,0.1196999247246154,0.00952601569247334,0.07373500262479904
1592167953.6393816,0.03381854238968766,8.602362915220624,4.3714556271690626,-0.39555555555555555,-0.06222222222222222,-0.27666666666666667,0.11620338559530341,0.011423815956781923,0.06350636182337224
1592167953.6493816,0.02,8.63,4.33,-0.39555555555555555,-0.06222222222222222,-0.27666666666666667,0.11017390903214205,0.017453292519943295,0.056723200689815706
1592167953.6593816,-0.0832825774408574,8.643434845118286,4.418206443602144,-0.39117878563441233,-0.06422824176941286,-0.2742959162927141,0.08681240125681285,0.024177314040842814,0.0416638262147296
1592167953.6693816,-0.1,8.61,4.46,-0.3688888888888889,-0.07444444444444444,-0.26222222222222225,0.056723200689815706,0.025089107997418484,0.031634092692397225
1592167953.6793816,-0.1526964919288517,8.60507859677154,4.474607016142297,-0.3688888888888889,-0.07444444444444444,-0.26222222222222225,0.037884935747301486,0.017418998208822728,0.032724923474893676
1592167953.6893816,-0.18509847774330856,8.627352283385036,4.412253805641729,-0.3688888888888889,-0.07444444444444444,-0.26222222222222225,0.03274640798565203,0.006363586170077623,0.0329922600428282
1592167953.6993816,-0.1838498321675699,8.64406435764247,4.45,-0.3688888888888889,-0.07444444444444444,-0.26222222222222225,0.02707834461499369,-0.013031466642044784,0.03381575425739013
1592167953.7093816,-0.23890655765372137,8.620468618148404,4.45,-0.3688888888888889,-0.07444444444444444,-0.26222222222222225,0.01764072632383279,-0.034480599121955925,0.03381575425739013
1592167953.7193816,-0.29287608951185434,8.607338818780633,4.4459670873161965,-0.37666666666666665,-0.06666666666666667,-0.29777777777777775,0.0068821602503393135,-0.064194916160689,0.02001901535646876
1592167953.7293816,-0.23442235585426247,8.635577644145739,4.2914078528475414,-0.37666666666666665,-0.06666666666666667,-0.29777777777777775,-0.005223794528983736,-0.09111983102077152,0.00010433698039867111
1592167953.7393816,-0.21175204192436617,8.665256125773098,4.227520419243661,-0.37666666666666665,-0.06666666666666667,-0.29777777777777775,-0.023704312713411724,-0.10913895622514293,-0.020455304565762705
1592167953.7493815,-0.23101143912889657,8.684494280435551,4.327893588584456,-0.37666666666666665,-0.06666666666666667,-0.29777777777777775,-0.05400236281053723,-0.11393665132405857,-0.030803738013060276
1592167953.7593815,-0.2969621447383938,8.651518927630804,4.4350634851998905,-0.37666666666666665,-0.06666666666666667,-0.29777777777777775,-0.08997289271363787,-0.1103395983337485,-0.03889710724125792
1592167953.7693815,-0.32788888628864293,8.528422222742272,4.626844445484543,-0.37777777777777777,-0.0811111111111111,-0.28444444444444444,-0.12297783880407342,-0.10362892433716332,-0.043575053317753694
1592167953.7793815,-0.3513892762683337,8.53145275306564,4.591389276268334,-0.37777777777777777,-0.0811111111111111,-0.28444444444444444,-0.11250480904754143,-0.1045659005062882,-0.049243547907194665
1592167953.7893815,-0.21012670219064536,8.601493664890468,4.49344298401421,-0.37777777777777777,-0.0811111111111111,-0.28444444444444444,-0.09381144729469522,-0.11098857685277025,-0.04887474748183185
1592167953.7993815,-0.026834629840048946,8.598151166856043,4.580532296127961,-0.37777777777777777,-0.0811111111111111,-0.28444444444444444,-0.09668368550138219,-0.11677695822729912,-0.03987183872118749
1592167953.8093815,0.06069599267376133,8.516520036631192,4.656263934063852,-0.376849787546096,-0.0811111111111111,-0.2847537745216717,-0.11585582601450359,-0.12329181487849275,-0.02945243112740431
1592167953.8193815,0.07,8.47,4.74,-0.36444444444444446,-0.0811111111111111,-0.28888888888888886,-0.11890055529211369,-0.1090830782496456,-0.02945243112740431
1592167953.8293815,-0.09164135702746365,8.436529886914377,4.863059773828756,-0.36444444444444446,-0.0811111111111111,-0.28888888888888886,-0.10439620660323595,-0.06902156880756413,-0.04685074154651741
1592167953.8393815,-0.30679967131498176,8.42839983565749,4.8362998767431185,-0.36444444444444446,-0.0811111111111111,-0.28888888888888886,-0.08039436312238966,-0.03423036855316609,-0.06446805442807359
1592167953.8493814,-0.37,8.46,4.86,-0.36444444444444446,-0.0811111111111111,-0.28888888888888886,-0.0545415391248228,-0.015271630954950384,-0.07308566242726255
1592167953.8593814,-0.6128295780668009,8.459196128717103,4.8,-0.3653090377426337,-0.08166130684632242,-0.29006787975005593,-0.011402868401384915,0.012395486447190218,-0.06772972125147142
1592167953.8693814,-0.65,8.58,4.8,-0.37666666666666665,-0.08888888888888889,-0.3055555555555556,0.025089107997418484,0.0032724923474893677,-0.04036073895236887
1592167953.8793814,-0.7498823715581813,8.394070577065092,4.979364648169638,-0.37666666666666665,-0.08888888888888889,-0.3055555555555556,0.02599000142296691,0.04537086178833859,-0.006963353226444699
1592167953.8893814,-0.8325518562874251,8.3697925748503,4.675793532934132,-0.37666666666666665,-0.08888888888888889,-0.3055555555555556,0.02203446827422745,0.0480191810036798,-0.013007353655005285
1592167953.8993814,-0.8,8.5,4.57,-0.37666666666666665,-0.08888888888888889,-0.3055555555555556,0.09926560120717749,0.03381575425739013,0.020725784867432664
1592167953.9093814,-0.5952811710912441,8.7242158602334,4.394526718078209,-0.37666666666666665,-0.08888888888888889,-0.3055555555555556,0.13754793269237114,0.03806934664463387,0.040930348706840425
1592167953.9193814,-0.54,8.65,4.32,-0.38222222222222224,-0.0811111111111111,-0.29777777777777775,0.07526732399225547,0.04581489286485115,0.03381575425739013
1592167953.9293814,-0.5135336994760953,8.678822100174635,4.2958652020956185,-0.38222222222222224,-0.0811111111111111,-0.29777777777777775,0.010069154130196524,0.06545249734474369,0.027784725317693576
1592167953.9393814,-0.5652248617604481,8.673363314901392,4.183273370197214,-0.38222222222222224,-0.0811111111111111,-0.29777777777777775,-0.026779317119785852,0.08346327202878506,0.031634092692397225
1592167953.9493814,-0.7107199262436364,8.691381328416242,4.15,-0.38222222222222224,-0.0811111111111111,-0.29777777777777775,-0.0632024215856653,0.09147910617398487,0.031483413136679794
1592167953.9593813,-0.836816250450956,8.699787750030064,4.15,-0.38222222222222224,-0.0811111111111111,-0.29777777777777775,-0.10263335049376449,0.09056210782728488,0.03056641478997981
1592167953.9693813,-1.0,8.7,4.26,-0.36444444444444446,-0.09333333333333334,-0.31222222222222223,-0.14726215563702155,0.0643590161672909,0.0272707695624114
1592167953.9793813,-0.7870297062862118,8.716382330285676,4.26,-0.36444444444444446,-0.09333333333333334,-0.31222222222222223,-0.18836396101569206,0.02415072829685236,0.024590217037715495
1592167953.9893813,-0.5973149848676893,8.670653146744613,4.32402027988308,-0.36444444444444446,-0.09333333333333334,-0.31222222222222223,-0.2617328809532831,-0.029455591401794223,0.030980226277777332
1592167953.9993813,-0.40955248990578735,8.529552489905786,4.5443775235531625,-0.36444444444444446,-0.09333333333333334,-0.31222222222222223,-0.32888621499454046,-0.06050220262002551,0.0370882466048795
1592167954.0093813,-0.3348380967461009,8.4548380967461,4.718711107592432,-0.36444444444444446,-0.09333333333333334,-0.31222222222222223,-0.3795977989659983,-0.06412445861798677,0.0370882466048795
1592167954.0193813,-0.49,8.35,5.02,-0.4088888888888889,-0.08888888888888889,-0.3333333333333333,-0.3817907738737596,-0.042542400517361786,0.02945243112740431
1592167954.0293813,-0.5634215429549803,8.422923758686675,5.027807180984993,-0.4088888888888889,-0.08888888888888889,-0.3333333333333333,-0.3344609511703004,-0.02562180673411198,0.02524857429621933
1592167954.0393813,-0.475102742177991,8.420821937423929,5.0489725782200905,-0.4088888888888889,-0.08888888888888889,-0.3333333333333333,-0.31685272001609643,-0.0182770193233363,0.027671425531066572
1592167954.0493813,-0.44,8.14,5.4,-0.4088888888888889,-0.08888888888888889,-0.3333333333333333,-0.32834006553143325,-0.016362461737446838,0.030543261909900768
1592167954.0593812,-0.4560348553502963,8.172069710700592,5.480174276751481,-0.4088888888888889,-0.08888888888888889,-0.3333333333333333,-0.2977302663657162,-0.012864198975650606,0.03928891881439135
1592167954.0693812,-0.34,8.28,5.55,-0.39555555555555555,-0.08888888888888889,-0.32666666666666666,-0.17998707911191522,-0.01308996938995747,0.07308566242726255
1592167954.0793812,-0.4274778761061947,8.241120943952803,5.55,-0.39555555555555555,-0.08888888888888889,-0.32666666666666666,-0.10152770752014212,-0.01308996938995747,0.11337561000141631
1592167954.0893812,-0.35,8.1,5.48,-0.39555555555555555,-0.08888888888888889,-0.32666666666666666,-0.06763150851478027,-0.016362461737446838,0.12326387842209952
1592167954.0993812,-0.3683269511665548,8.045019146500335,5.434182622083613,-0.39555555555555555,-0.08888888888888889,-0.32666666666666666,-0.010655441441686397,-0.007366240620642542,0.10627101631258029
1592167954.1093812,-0.42723836313984764,8.195361271379587,5.462707636079912,-0.39555555555555555,-0.08888888888888889,-0.32666666666666666,0.06768676341777226,-0.0011932102561796236,0.06190555960926687
1592167954.1193812,-0.5373125393824827,8.195745566657665,5.4464195697182465,-0.38222222222222224,-0.09333333333333334,-0.35555555555555557,0.18220089902430822,0.004827409815175658,0.013733259079743224
1592167954.1293812,-0.6694580970384374,8.29957421910163,5.201006391214331,-0.38222222222222224,-0.09333333333333334,-0.35555555555555557,0.24191953930683668,-0.0064985392039245615,-0.014066797603502771
1592167954.1393812,-0.5562074882623513,8.42689720918039,5.050343907147453,-0.38222222222222224,-0.09333333333333334,-0.35555555555555557,0.3241274241435134,-0.04416009744628864,-0.04186547656982627
1592167954.1493812,-0.64,8.52,4.92,-0.38222222222222224,-0.09333333333333334,-0.35555555555555557,0.3556108350938446,-0.08072147790473774,-0.062177354602297986
1592167954.1593812,-0.36394855354553085,8.52,4.7543691321273185,-0.38222222222222224,-0.09333333333333334,-0.35555555555555557,0.37023692669632613,-0.11427545275748938,-0.0647584295909712
1592167954.1693811,-0.12,8.51,4.6,-0.4088888888888889,-0.09555555555555556,-0.35333333333333333,0.3817907738737596,-0.14508049407202864,-0.0545415391248228
1592167954.1793811,-0.01840134854365126,8.54126112352503,4.474955505899879,-0.4088888888888889,-0.09555555555555556,-0.35333333333333333,0.3698555653309751,-0.15786821751072636,-0.05027896464525689
1592167954.1893811,-0.044042956262284216,8.592812522200383,4.3703319993369485,-0.4088888888888889,-0.09555555555555556,-0.35333333333333333,0.3141486228554299,-0.1612469477586672,-0.043535227274454094
1592167954.199381,-0.12710795069214506,8.442892049307854,4.592249371683887,-0.4088888888888889,-0.09555555555555556,-0.35333333333333333,0.24238314817995812,-0.1570095274259451,-0.041486622361637616
1592167954.209381,-0.05181234292097181,8.518187657079027,4.650812622172578,-0.4088888888888889,-0.09555555555555556,-0.35333333333333333,0.19127707109506692,-0.15518431038719896,-0.04239923088101067
1592167954.219381,-0.031007567518578937,8.717281357621896,4.62393533623346,-0.38222222222222224,-0.11,-0.37444444444444447,0.1868286216861575,-0.1582160877511036,-0.02267517283051553
1592167954.229381,0.3776268805510241,8.593740710531085,4.34834466195396,-0.38222222222222224,-0.11,-0.37444444444444447,0.20030481575977618,-0.16028934837781414,0.037449385344090994
1592167954.239381,0.02013617659763106,8.663972764680473,4.256780639734467,-0.38222222222222224,-0.11,-0.37444444444444447,0.14523727294321653,-0.14219647705151783,0.005984553548193605
1592167954.249381,0.09031462619268087,8.798217118241476,4.34,-0.38222222222222224,-0.11,-0.37444444444444447,0.15673642874353372,-0.11777540411602165,0.010195001372019646
1592167954.259381,0.11564354442610411,8.65468658158541,4.34,-0.38222222222222224,-0.11,-0.37444444444444447,0.1291068650471799,-0.11501244774638628,0.04058752143800886
1592167954.269381,0.05,8.37,4.52,-0.4088888888888889,-0.12222222222222222,-0.35333333333333333,0.028361600344907853,-0.09708393964218458,0.008726646259971648
1592167954.279381,0.03402298410266232,8.625632254357402,4.512011492051331,-0.4088888888888889,-0.12222222222222222,-0.35333333333333333,0.04666123213582159,-0.08139854096425853,-0.027001206284193252
1592167954.289381,0.05655505162597703,8.778516838753257,4.394928109620766,-0.4088888888888889,-0.12222222222222222,-0.35333333333333333,0.11209988904056989,-0.0677932963091156,-0.03889412259682288
1592167954.299381,0.13165389988919401,8.557124825360118,4.514351062292239,-0.4088888888888889,-0.12222222222222222,-0.35333333333333333,0.07407104675964199,-0.06360959224409436,-0.024614480728925123
1592167954.309381,0.09556850623141896,8.470758008308557,4.52259475103857,-0.4088888888888889,-0.12222222222222222,-0.35333333333333333,0.025909609645633616,-0.06246039803287665,-0.017252934969001016
1592167954.319381,0.19837848960834076,8.528918993072226,4.421351258659716,-0.4351952199129646,-0.12879880497824114,-0.3675825959713743,0.04426712377460342,-0.05141644623144675,-0.009891176769524761
1592167954.329381,0.18163864153611595,8.814601056190202,4.3557352453764056,-0.43555555555555553,-0.1288888888888889,-0.36777777777777776,0.06074737009903993,-0.03524573876064819,-0.03585535256958162
1592167954.339381,-0.07821825295172447,8.644110290864209,4.545889709135791,-0.43555555555555553,-0.1288888888888889,-0.36777777777777776,0.03012497589735829,-0.01924649120969027,-0.03429394057465599
1592167954.349381,-0.06461116528522672,8.34766699171136,4.70616650414432,-0.43555555555555553,-0.1288888888888889,-0.36777777777777776,-0.031253445402766436,-0.020423984805254404,0.0038130146898838826
1592167954.359381,-0.14777917189460477,8.288080301129234,4.727979924717691,-0.43555555555555553,-0.1288888888888889,-0.36777777777777776,-0.04840441838616018,-0.026819108134276102,0.006765340725068986
1592167954.369381,-0.2,8.49,4.56,-0.42777777777777776,-0.14666666666666667,-0.3977777777777778,0.06326818538479445,-0.015271630954950384,0.0
1592167954.379381,-0.27792796312211887,8.770540667239628,4.458693647941245,-0.42777777777777776,-0.14666666666666667,-0.3977777777777778,0.12702285112793638,-0.018671879794584623,-0.006800497679268475
1592167954.389381,-0.3096866575920143,8.704700136119785,4.371880054447915,-0.42777777777777776,-0.14666666666666667,-0.3977777777777778,0.09330462309575485,-0.03442806007815729,-0.014009898400407748
1592167954.399381,-0.20559773666680042,8.641273726875074,4.38305028291665,-0.42777777777777776,-0.14666666666666667,-0.3977777777777778,0.03468718442662474,-0.05198936543080986,-0.016316147721319337
1592167954.409381,-0.005325895721648405,8.623778486121749,4.383110756939126,-0.42777777777777776,-0.14666666666666667,-0.3977777777777778,-0.005406174788585916,-0.07010452189848314,-0.0197077920396137
1592167954.419381,0.043625965808845896,8.63,4.4045610512867315,-0.4159520864174998,-0.14666666666666667,-0.40960346913805573,0.009829953539828285,-0.07239036315682296,-0.017153524761560592
1592167954.429381,0.006757817913067579,8.663242182086933,4.393378908956533,-0.41333333333333333,-0.14666666666666667,-0.4122222222222222,0.011461180510120565,-0.063835972657766,-0.019988621287224655
1592167954.439381,0.0,8.611334043274118,4.39,-0.41333333333333333,-0.14666666666666667,-0.4122222222222222,0.0072514717403247145,-0.05760630949649818,-0.01615473976163286
1592167954.4493809,-0.05060118178990933,8.709635893878136,4.398433530298319,-0.41333333333333333,-0.14666666666666667,-0.4122222222222222,0.0047050738040743285,-0.047523646235293676,-0.01711154184585479
1592167954.4593809,-0.1587249218018449,8.652430418584265,4.505776701930548,-0.41333333333333333,-0.14666666666666667,-0.4122222222222222,-0.026405872213159282,-0.04273797333053664,-0.012837913218471528
1592167954.4693809,-0.10837552548405904,8.511716530117525,4.633294976832674,-0.4179608320462596,-0.1503686656370077,-0.4001907255686138,-0.05653344587359022,-0.044177391477557615,-0.01817716580547732
1592167954.4793808,-0.0049286779787432455,8.634621247436137,4.454335959351109,-0.41888888888888887,-0.1511111111111111,-0.3977777777777778,0.008675135371351991,-0.05029196708846202,-0.012211080743459767
1592167954.4893808,0.08438878035166063,8.75918504046888,4.196833658945018,-0.41888888888888887,-0.1511111111111111,-0.3977777777777778,0.11539561826071809,-0.062088456307994616,-0.016318012590295156
1592167954.4993808,0.17808120959017837,8.858081209590178,4.097945860273215,-0.41888888888888887,-0.1511111111111111,-0.3977777777777778,0.16176140408239026,-0.054895306505566,-0.021238776384633253
1592167954.5093808,0.19,8.773869400427403,4.104789323011169,-0.41888888888888887,-0.1511111111111111,-0.3977777777777778,0.14160730575016198,-0.04619101638553654,-0.016976821012069255
1592167954.5193808,-0.001178892585394803,8.673087387595112,4.291619947956125,-0.42632362360054316,-0.1638563706168041,-0.44663460588293424,0.07677452379571995,-0.02486428741024235,-0.032997855739587606
1592167954.5293808,-0.01,8.675895092819111,4.376636206648438,-0.4266666666666667,-0.16444444444444445,-0.4488888888888889,0.05938623117041164,-0.014995509017058418,-0.04217546758397778
1592167954.5393808,-0.041007413425408756,8.726511120138113,4.344729613080126,-0.4266666666666667,-0.16444444444444445,-0.4488888888888889,0.048241789186089776,-0.002807474076216442,-0.0488421504560948
1592167954.5493808,-0.0026389617825277947,8.597916885347583,4.446296101913259,-0.4266666666666667,-0.16444444444444445,-0.4488888888888889,0.040247122673052596,-0.0028129267284501148,-0.041337953455549054
1592167954.5593808,0.03589076977207866,8.611781539544157,4.447636537784902,-0.4266666666666667,-0.16444444444444445,-0.4488888888888889,0.04100332225236718,-0.005390675996232779,-0.04280021425111143
1592167954.5693808,0.05712671100110339,8.689886977007724,4.36585960099007,-0.4290422370003678,-0.16998744188974707,-0.4393866075540844,0.090741422092712,-0.010432002563958591,-0.041614447787170813
1592167954.5793808,-0.02190362056647692,8.739783134751447,4.347445783687861,-0.43,-0.17222222222222222,-0.43555555555555553,0.11017390903214205,-0.011999138607461015,-0.04036073895236887
1592167954.5893807,-0.0038645537449543965,8.765378482085016,4.265418348532417,-0.43,-0.17222222222222222,-0.43555555555555553,0.0816558622332538,-0.02709692808922539,-0.04036073895236887
1592167954.5993807,0.05605051098320217,8.670223892869728,4.232324914836133,-0.43,-0.17222222222222222,-0.43555555555555553,0.05131789262418973,-0.07014630080552606,-0.014406859571782046
1592167954.6093807,0.038745611297495514,8.665003510962004,4.280007021924007,-0.43,-0.17222222222222222,-0.43555555555555553,0.039269142196786476,-0.08794909355849845,-0.021546014380291335
1592167954.6193807,0.03575618889120033,8.6642438111088,4.3178780944456,-0.4413794697547558,-0.16521947160391096,-0.440807618519289,0.04630981733679306,-0.09506725290117231,-0.04171503021717828
1592167954.6293807,0.06714572460859093,8.691670012043357,4.30190285026094,-0.4444444444444444,-0.16333333333333333,-0.44222222222222224,0.042671583608825635,-0.09401901605860662,-0.04225644608100282
1592167954.6393807,0.19516235971848592,8.715359636966388,4.2360789108991606,-0.4444444444444444,-0.16333333333333333,-0.44222222222222224,0.015742394643100396,-0.08763724606370518,-0.04006841610307184
1592167954.6493807,0.1258554004544822,8.695122200064926,4.264633399805222,-0.4444444444444444,-0.16333333333333333,-0.44222222222222224,-0.0010108510270298281,-0.0780610507447188,-0.024943034914616535
1592167954.6593807,0.15121446260525012,8.683878553739474,4.36570024764735,-0.4444444444444444,-0.16333333333333333,-0.44222222222222224,-0.008369800338612926,-0.06792211577643911,-0.008283268660492752
1592167954.6693807,0.2044143331292495,8.672792833435375,4.43441433312925,-0.43403409273998644,-0.16813811104308318,-0.45343337021163854,0.0008843908899433105,-0.052261666584213766,0.009129508103757032
1592167954.6793807,0.11737154654480503,8.61596673548447,4.416842886636202,-0.43,-0.17,-0.4577777777777778,0.011348268733713682,-0.04041840680254655,0.02066811701725499
1592167954.6893806,0.07501808001866325,8.577527120027995,4.432472879972005,-0.43,-0.17,-0.4577777777777778,0.008187147540995213,-0.03491052948806778,0.026993131306560787
1592167954.6993806,0.055438756215421256,8.584561243784579,4.600173681630366,-0.43,-0.17,-0.4577777777777778,0.005750792047396051,-0.04255187338079967,0.04424545329656154
1592167954.7093806,0.07337815677271237,8.578310921613644,4.654155460806822,-0.43,-0.17,-0.4577777777777778,0.007366774890909979,-0.04836505416942141,0.06165394186540316
1592167954.7193806,0.15000784262466504,8.516659695444742,4.6366649238611854,-0.43370418781633735,-0.1722225126898024,-0.4755578792961971,0.02472758895303972,-0.0378138511865571,0.06181269873323914
1592167954.7293806,0.2423048237962317,8.552304823796232,4.52615862700628,-0.43555555555555553,-0.17333333333333334,-0.48444444444444446,0.05613475248093105,-0.015020665655854571,0.03591451401505139
1592167954.7393806,0.1994445711967957,8.615277714401604,4.345944685273912,-0.43555555555555553,-0.17333333333333334,-0.48444444444444446,0.06423175672396064,0.012374833261325616,0.017713895082729983
1592167954.7493806,0.2951700181138651,8.72040056863779,4.387354458533006,-0.43555555555555553,-0.17333333333333334,-0.48444444444444446,0.03520177190836671,0.03589681917901523,0.03314459306193213
1592167954.7593806,0.3443995622520568,8.68719430927674,4.441200875495887,-0.43555555555555553,-0.17333333333333334,-0.48444444444444446,-0.0039727250875851924,0.05598248627736717,0.062222611363964564
1592167954.7693806,0.3719246820676284,8.604460254345897,4.590468601097565,-0.43555555555555553,-0.17333333333333334,-0.48444444444444446,-0.02787506207108102,0.07907747106376521,0.0924695867080575
1592167954.7793806,0.35343071904694373,8.509547581903277,4.67,-0.43555555555555553,-0.17333333333333334,-0.48444444444444446,-0.006315710660138321,0.09814290102442656,0.1147171550383218
1592167954.7893806,0.35385389058783556,8.556196398233096,4.573022765885152,-0.43555555555555553,-0.17333333333333334,-0.48444444444444446,0.020316361937651628,0.11160544374099622,0.12679189871435717
1592167954.7993805,0.35331062445486905,8.543174371184083,4.523310624454869,-0.43555555555555553,-0.17333333333333334,-0.48444444444444446,0.03055069337300021,0.12949231878920922,0.13053856079310905
1592167954.8093805,0.31189256166094287,8.514556080237277,4.47644864189822,-0.43555555555555553,-0.17333333333333334,-0.48444444444444446,0.028664895065088,0.15298135452498865,0.11664754528849043
1592167954.8193805,0.24986483420310526,8.540135165796896,4.446027033159379,-0.4141261043222082,-0.1813693775458386,-0.5031952142736233,0.03341185940703011,0.17610137233828616,0.09354315051411814
1592167954.8293805,0.16807389208232895,8.615045429260153,4.388073892082329,-0.4,-0.18666666666666668,-0.5155555555555555,0.03592738056214952,0.18442043750213458,0.06891262282381734
1592167954.8393805,0.15982714617169375,8.666436194895592,4.333563805104409,-0.4,-0.18666666666666668,-0.5155555555555555,0.01904600669958371,0.18111562074976945,0.04883062237502204
1592167954.8493805,0.19590393137278134,8.68,4.378283845588758,-0.4,-0.18666666666666668,-0.5155555555555555,-0.011697136758319895,0.1682999461810042,0.031239678225719554
1592167954.8593805,0.17866001659302705,8.674776669432172,4.436116652839144,-0.4,-0.18666666666666668,-0.5155555555555555,-0.03197515489368135,0.15569646286732108,0.03306598567617781
1592167954.8693805,0.17181241274273384,8.67,4.509077928671151,-0.4145416084951559,-0.1787899620651239,-0.5337325661745004,-0.04283895585891622,0.14349540438694147,0.04809367561196378
1592167954.8793805,0.28206744623591895,8.610813784562623,4.563152492319417,-0.4266666666666667,-0.17222222222222222,-0.5488888888888889,-0.04653225003927956,0.14140493807476356,0.05167211042710914
1592167954.8893805,0.1762878119046513,8.592809349007945,4.473929882440407,-0.4266666666666667,-0.17222222222222222,-0.5488888888888889,-0.025946475344936146,0.15267981504816108,0.05157549921499773
1592167954.8993804,0.10248608359279177,8.618729125389189,4.413756958203604,-0.4266666666666667,-0.17222222222222222,-0.5488888888888889,-0.005327667354157141,0.16225652476273847,0.051678867343037824
1592167954.9093804,0.06011696579229942,8.59009357263384,4.39004678631692,-0.4266666666666667,-0.17222222222222222,-0.5488888888888889,0.004897255431427514,0.16852442460363068,0.05018076779257176
1592167954.9193804,0.0350928718844261,8.575092871884426,4.400111446261311,-0.4266666666666667,-0.17556793847347904,-0.5488888888888889,0.01364956783265616,0.16687684821988566,0.0310218143443111
1592167954.9293804,0.030001599670924837,8.665996480723965,4.400001599670925,-0.4266666666666667,-0.17888888888888888,-0.5488888888888889,0.027924709641417536,0.15751617438892265,0.008508724399312492
1592167954.9393804,0.07477698257789345,8.768888165979904,4.350555917010048,-0.4266666666666667,-0.17888888888888888,-0.5488888888888889,0.032979474314617424,0.14397767700463812,0.014447337297071726
1592167954.9493804,0.10246058413026621,8.757381752390799,4.3826182476092015,-0.4266666666666667,-0.17888888888888888,-0.5488888888888889,0.01505256258637976,0.12933858507489576,0.041133821920992616
1592167954.9593804,0.09,8.68629387836095,4.448890961404901,-0.4266666666666667,-0.17888888888888888,-0.5488888888888889,0.001696734845670199,0.12225369920217041,0.0682384299218726
1592167954.9693804,0.011526399364827314,8.618610559745932,4.485231573375678,-0.43364209783423757,-0.17830760295825798,-0.5523766044726743,0.007989465790710115,0.12227409058624161,0.08124163255932633
1592167954.9793804,-0.20851918746481515,8.667488271720774,4.406054372302496,-0.44,-0.17777777777777778,-0.5555555555555556,0.03781205550840877,0.12435470920459597,0.0680424890934174
1592167954.9893804,-0.2127831013344546,8.751578330050679,4.3362409542567555,-0.44,-0.17777777777777778,-0.5555555555555556,0.07350360460836244,0.10880445012891232,0.055255176666420165
1592167954.9993804,-0.06991099339012576,8.78,4.325630562913117,-0.44,-0.17777777777777778,-0.5555555555555556,0.09866111118732603,0.08097719464912997,0.05188324591217454
1592167955.0093803,0.01396690307328605,8.766033096926714,4.278788022064618,-0.44,-0.17777777777777778,-0.5555555555555556,0.09768497107096434,0.05645878812189143,0.04271070994778953
1592167955.0193803,0.09574105679956309,8.709543965046423,4.245285021845985,-0.4411237787487105,-0.18452045027004066,-0.5521842193094241,0.0861507589689572,0.0364619944567771,0.03549552791559476
1592167955.0293803,0.14809055693612044,8.673969814354626,4.271323271451542,-0.44222222222222224,-0.19111111111111112,-0.5488888888888889,0.08226181197269794,0.027287233277992855,0.04085771992610748
1592167955.0393803,0.1557562571024696,8.66973308572854,4.24468860001663,-0.44222222222222224,-0.19111111111111112,-0.5488888888888889,0.06264998041764722,0.011989433330674482,0.044115562391994
1592167955.0493803,0.1733191705537339,8.623329792638433,4.221113471574378,-0.44222222222222224,-0.19111111111111112,-0.5488888888888889,0.04969237236733059,0.01757591211651635,0.018903871264283705
1592167955.0593803,0.11086772869901038,8.623698406951485,4.2802274921554435,-0.44222222222222224,-0.19111111111111112,-0.5488888888888889,0.052290038586849635,0.025895975227194105,-0.014065937771086782
1592167955.0693803,0.05860870636803352,8.695188391509289,4.330801934748452,-0.44222222222222224,-0.18804508936059508,-0.558597957765523,0.058992339765725106,0.028950754491614324,-0.04753597844555268
1592167955.0793803,0.049239477370318495,8.748788720751337,4.27515488300535,-0.44222222222222224,-0.18444444444444444,-0.57,0.0584255118980924,0.0222467960871055,-0.04763395445263635
1592167955.0893803,0.12319113678329624,8.680612186922968,4.229202215804176,-0.44222222222222224,-0.18444444444444444,-0.57,0.04064810141029275,0.008030448213096394,-0.02648754675967674
1592167955.0993803,0.18201281236246272,8.618993593818768,4.280535233996773,-0.44222222222222224,-0.18444444444444444,-0.57,0.017285125663773306,-0.001200612666714643,-0.018653905186657938
1592167955.1093802,0.24097345988054047,8.646420853227147,4.293579146772853,-0.44222222222222224,-0.18444444444444444,-0.57,0.018357493042144075,-0.003671498608428815,-0.01913834173712424
1592167955.1193802,0.28198742394690113,8.722050304212395,4.290062880265494,-0.4395513635378559,-0.18177358576007815,-0.579348005395282,0.02421164195037642,-0.003706080991319434,-0.017233068611567617
1592167955.1293802,0.29021489089790314,8.785161168173428,4.279247881857339,-0.43555555555555553,-0.17777777777777778,-0.5933333333333334,-0.0051724493283340015,1.1720480315553393e-05,0.000715362355823753
1592167955.1393802,0.30005129659835,8.730359076188451,4.1552821312909245,-0.43555555555555553,-0.17777777777777778,-0.5933333333333334,-0.05115713496029836,0.0054317715490752655,0.02721481365389386
1592167955.1493802,0.2998132991720637,8.63546675206984,4.15397314544635,-0.43555555555555553,-0.17777777777777778,-0.5933333333333334,-0.08700170588641681,0.01624026633130853,0.022122104165274898
1592167955.1593802,0.3507171695073686,8.662932320359578,4.246645452556631,-0.43555555555555553,-0.17777777777777778,-0.5933333333333334,-0.10455635070340387,0.03001393313238777,-0.004317265299965738
1592167955.1693802,0.3942120670027647,8.795257765490325,4.288159050252073,-0.425030266890732,-0.18830306644260134,-0.6038586219981569,-0.11683296173706471,0.04251348436554085,-0.015099730641364585
1592167955.1793802,0.3810110662797008,8.775394870342842,4.2810110662797,-0.4088888888888889,-0.20444444444444446,-0.62,-0.14433260539439008,0.04461377186025051,0.019009427067947195
1592167955.1893802,0.5174465053105031,8.608434236601278,4.315489301062101,-0.4088888888888889,-0.20444444444444446,-0.62,-0.179879334342234,0.05030631471334438,0.03142059482821821
1592167955.1993802,0.5591505966587113,8.572802625298328,4.382802625298329,-0.4088888888888889,-0.20444444444444446,-0.62,-0.18779656838772057,0.07280545689714299,0.0077562234099106606
1592167955.2093801,0.442885794087982,8.701342617736053,4.414506168050275,-0.4088888888888889,-0.20444444444444446,-0.62,-0.14699954039006005,0.09856700064125949,0.0044407620442525825
1592167955.2193801,0.3963963117606124,8.826396311760613,4.393603688239388,-0.4188991339982989,-0.19723706796566923,-0.617997950978118,-0.10690141668465267,0.11401644965806962,0.04658200424080925
1592167955.2293801,0.2959011482775836,8.614158761857215,4.4176435346979535,-0.43666666666666665,-0.18444444444444444,-0.6144444444444445,-0.14346902712973858,0.12146670339352322,0.1046527695049583
1592167955.2393801,0.21681159420289856,8.47,4.431014492753623,-0.43666666666666665,-0.18444444444444444,-0.6144444444444445,-0.17029607520364962,0.12403852636908975,0.11044266444232234
1592167955.24938,0.019431085644121562,8.530426685766908,4.530640028650364,-0.43666666666666665,-0.18444444444444444,-0.6144444444444445,-0.15361320617825144,0.1308996938995747,0.051106142088184384
1592167955.25938,-0.028082549317147196,8.635596358118361,4.674715629742034,-0.43666666666666665,-0.18444444444444444,-0.6144444444444445,-0.11062023924791192,0.12443376546889344,0.023885188354436204
1592167955.26938,0.0426459927507048,8.610716874748288,4.7353362867499,-0.43096657269432137,-0.18133530227771066,-0.6279173938336242,-0.08399880276878267,0.11264903614796365,0.023122713078991528
1592167955.27938,0.08201809107922645,8.522018091079225,4.7259638178415475,-0.42444444444444446,-0.17777777777777778,-0.6433333333333333,-0.07031418328227663,0.10645127035737796,0.02913208889979345
1592167955.28938,0.11452761963378982,8.578740319023439,4.607676822075191,-0.42444444444444446,-0.17777777777777778,-0.6433333333333333,-0.0024091767405082128,0.09007942073004245,0.035469176665951785
1592167955.29938,0.08104274117594296,8.634687177647217,4.539582903529622,-0.42444444444444446,-0.17777777777777778,-0.6433333333333333,0.03946271276752315,0.08032393155596589,0.03650870758844442
1592167955.30938,0.011867082624314611,8.65,4.570879750425411,-0.42444444444444446,-0.17777777777777778,-0.6433333333333333,0.0598879918017937,0.06833847575929555,0.03461868738640071
1592167955.31938,-0.014512312972774834,8.622561564863874,4.603719217568063,-0.4229200869368819,-0.18296059330349043,-0.6411992328227457,0.07233390557389158,0.05430886200000158,0.0274636796548073
1592167955.32938,0.01883187823894673,8.517044213081844,4.588212334842896,-0.41888888888888887,-0.19666666666666666,-0.6355555555555555,0.09824235212543143,0.031052951179765118,0.014304351947902659
1592167955.33938,0.014061728948903146,8.540522632452559,4.473800412722624,-0.41888888888888887,-0.19666666666666666,-0.6355555555555555,0.1149181249617134,0.018515618124080584,-0.023754747566674148
1592167955.34938,0.015402369522548306,8.69867193227233,4.407867193227233,-0.41888888888888887,-0.19666666666666666,-0.6355555555555555,0.14003456011208512,0.007744467764368919,-0.06339218622598583
1592167955.35938,0.08615750843086689,8.813536996627654,4.384453481452093,-0.41888888888888887,-0.19666666666666666,-0.6355555555555555,0.16218128444067523,-0.006059185229256747,-0.05190220902085348
1592167955.36938,0.11731020492366936,8.778481639389355,4.312689795076331,-0.4227741484435887,-0.1951723360687052,-0.6409351457082169,0.1450119327094099,-0.017701733693896552,-0.002482198872795968
1592167955.37938,0.11,8.72,4.32,-0.43333333333333335,-0.19111111111111112,-0.6555555555555556,0.10035643198967394,-0.0272707695624114,0.017453292519943295
1592167955.38938,0.10384713851405408,8.579222891887566,4.40923569257027,-0.43333333333333335,-0.19111111111111112,-0.6555555555555556,0.07719607386001054,-0.021900686826029574,-0.008222219203368934
1592167955.39938,0.09380282695602513,8.716619788692176,4.309577384351798,-0.43333333333333335,-0.19111111111111112,-0.6555555555555556,0.10791546568876953,-0.021294250366592007,-0.013520134241650106
1592167955.40938,0.19772781346657148,8.722169878658102,4.244237449440876,-0.43333333333333335,-0.19111111111111112,-0.6555555555555556,0.1212708996976669,-0.024342162722133024,0.010316565216329792
1592167955.41938,0.3675258044930176,8.635003035822708,4.219993928354584,-0.42667071443027726,-0.19249915671591447,-0.6555555555555556,0.08454898919316944,-0.020183349888158467,0.03027204442026367
1592167955.42938,0.24,8.62,4.25,-0.4066666666666667,-0.19666666666666666,-0.6555555555555556,0.0370882466048795,-0.00545415391248228,0.022907446432425576
1592167955.43938,0.16128218031571143,8.708717819684288,4.271355016421231,-0.4066666666666667,-0.19666666666666666,-0.6555555555555556,0.022296071546621794,0.005733882263900085,0.009154183973696156
1592167955.44938,0.21374847462493718,8.648754576125189,4.234969492498744,-0.4066666666666667,-0.19666666666666666,-0.6555555555555556,-0.0021763370015581446,0.023313679301537025,-0.00912888570650702
1592167955.45938,0.19570693495123262,8.669476230704248,4.363036633131096,-0.4066666666666667,-0.19666666666666666,-0.6555555555555556,-0.023335786636012424,0.038550283223889426,-0.04172568065724674
1592167955.46938,0.14952948683503495,8.74665871843095,4.37,-0.40709019941489044,-0.2006902277747925,-0.6610614812824647,-0.022440319104792168,0.04815313055707371,-0.04570704070795736
1592167955.47938,0.21120916741952356,8.643339831677048,4.378483666967809,-0.4088888888888889,-0.21777777777777776,-0.6844444444444444,-0.03295521631281314,0.056226981865406804,-0.012363457727629108
1592167955.48938,0.20881400668660918,8.642371986626781,4.308136767552349,-0.4088888888888889,-0.21777777777777776,-0.6844444444444444,-0.03300240583455344,0.06042092605591727,0.004751438534210325
1592167955.4993799,0.21038552507095554,8.74,4.18,-0.4088888888888889,-0.21777777777777776,-0.6844444444444444,-0.011232667441746617,0.06072010994153723,0.0317182012153617
1592167955.5093799,0.2540848506845724,8.7204296977396,4.224732119452342,-0.4088888888888889,-0.21777777777777776,-0.6844444444444444,-0.01969399043724844,0.06152054218933393,0.04277676427812438
1592167955.5193799,0.07879628467428142,8.666099535584285,4.353651625455002,-0.4101890436941272,-0.21366062089452323,-0.6801105950936501,-0.07167351783293936,0.06587532161485674,0.010378672306652533
1592167955.5293798,-0.05,8.680428691510228,4.417607172877557,-0.41555555555555557,-0.19666666666666666,-0.6622222222222223,-0.0817187827081241,0.06680169468051916,-0.012306918545251413
1592167955.5393798,-0.022427679710047655,8.705874219746292,4.392088059601315,-0.41555555555555557,-0.19666666666666666,-0.6622222222222223,-0.0739116744339828,0.06018641819928932,-0.02463356405965804
1592167955.5493798,0.009063054117313282,8.657009007731045,4.3379459536137315,-0.41555555555555557,-0.19666666666666666,-0.6622222222222223,-0.0884398465026416,0.04463168305162196,-0.05112753819508036
1592167955.5593798,-0.04965132934366723,8.65723849700775,4.4234309820465025,-0.41555555555555557,-0.19666666666666666,-0.6622222222222223,-0.10750388317863308,0.023211718980330406,-0.08293813423730412
1592167955.5693798,-0.06793617306275535,8.677806576920501,4.561096711539749,-0.4118998504230572,-0.19898194658391563,-0.6646593589772212,-0.09942764411626444,-0.00674183979801515,-0.1013559035937154
1592167955.5793798,0.03723162777555394,8.638305116673338,4.562768372224446,-0.38222222222222224,-0.21777777777777776,-0.6844444444444444,-0.06786570746165452,-0.04318949133427372,-0.07067599208277822
1592167955.5893798,0.08630435750211421,8.606600792273111,4.543399207726888,-0.38222222222222224,-0.21777777777777776,-0.6844444444444444,-0.04988287065945948,-0.061774222542518395,-0.05304757628254675
1592167955.5993798,0.1912397150190707,8.617160025907356,4.53,-0.38222222222222224,-0.21777777777777776,-0.6844444444444444,-0.02391548429156897,-0.06981317007977318,-0.05767879954187962
1592167955.6093798,0.2892775885083577,8.61481939712709,4.537229095690634,-0.38222222222222224,-0.21777777777777776,-0.6844444444444444,0.012064988771248081,-0.06613316736226028,-0.042253094451245136
1592167955.6193798,0.33616616196444093,8.63345845950889,4.5611528198362965,-0.3806851291071601,-0.2170092312202467,-0.6859815375595065,0.03146448130997206,-0.05303250148789699,-0.017581956457170565
1592167955.6293797,0.2589468783462917,8.62526374598445,4.561315936496113,-0.3688888888888889,-0.2111111111111111,-0.6977777777777778,0.057010090353688446,-0.03829395513913382,0.020754250375770538
1592167955.6393797,0.3572443161485793,8.518204547081137,4.510031252236563,-0.3688888888888889,-0.2111111111111111,-0.6977777777777778,0.08775609642782133,-0.02400509539525493,0.04582512013535049
1592167955.6493797,0.3196913710833745,8.494975906729662,4.416547728180899,-0.3688888888888889,-0.2111111111111111,-0.6977777777777778,0.11478128000519963,0.0007920914024135703,-0.003550206382823478
1592167955.6593797,0.04089519650655022,8.668937409024744,4.335887918486172,-0.3688888888888889,-0.2111111111111111,-0.6977777777777778,0.1572368266350459,0.020219271010640277,-0.06983301780143432
1592167955.6693797,0.14162536376167867,8.907676213815286,4.184419053453822,-0.37302292336753967,-0.21235132145470634,-0.6955040588145199,0.19500522431664297,0.016717762816028086,-0.06915452815746387
1592167955.6793797,0.28,8.81,4.16,-0.39111111111111113,-0.21777777777777776,-0.6855555555555556,0.18435040224190105,0.008726646259971648,-0.01854412330243975
1592167955.6893797,0.4524082981753688,8.687619917770672,4.15753526993255,-0.39111111111111113,-0.21777777777777776,-0.6855555555555556,0.11428068334831526,-0.002187817329492529,0.00600418612710522
1592167955.6993797,0.37573356302038474,8.647133218489808,4.14010766580534,-0.39111111111111113,-0.21777777777777776,-0.6855555555555556,0.10073961644628733,0.014964785861883802,-0.013166308753504274
1592167955.7093797,0.03,8.82,4.18,-0.39111111111111113,-0.21777777777777776,-0.6855555555555556,0.10799224746714915,0.03599741582238304,-0.04145156973486533
1592167955.7193797,-0.2048975273944485,8.833862696182145,4.247172135030158,-0.38752504359603235,-0.21777777777777776,-0.6869501373669751,0.13504507133338295,0.028534833932086136,-0.058430975903881674
1592167955.7293797,-0.09,8.76,4.28,-0.3711111111111111,-0.21777777777777776,-0.6933333333333334,0.1090830782496456,0.004363323129985824,-0.05126904677733343
1592167955.7393796,0.003404473835825754,8.79284787455224,4.160621477417901,-0.3711111111111111,-0.21777777777777776,-0.6933333333333334,0.06816174501522725,-0.04904995032413581,-0.06118467427121125
1592167955.7493796,0.1411616826681351,8.838820360571743,3.96,-0.3711111111111111,-0.21777777777777776,-0.6933333333333334,0.062050634680908545,-0.08027012306519686,-0.03484518385786133
1592167955.7593796,0.24,8.86,3.96,-0.3711111111111111,-0.21777777777777776,-0.6933333333333334,0.05126904677733343,-0.09490227807719166,-0.016362461737446838
1592167955.7693796,0.5540302681362066,8.881092284915283,4.055291988813949,-0.367591526384091,-0.21777777777777776,-0.6956392681544845,0.006399097965883551,-0.10572840125034123,0.027774105694160462
1592167955.7793796,0.7433105372086746,8.806381715108433,4.230170970934941,-0.3388888888888889,-0.21777777777777776,-0.7144444444444444,-0.059701709577071396,-0.07778026908923123,0.08474978749556578
1592167955.7893796,0.73,8.64,4.33,-0.3388888888888889,-0.21777777777777776,-0.7144444444444444,-0.10035643198967394,-0.05890486225480862,0.10144726277217041
1592167955.7993796,0.5628352092950879,8.556398412780746,4.374291197676228,-0.3388888888888889,-0.21777777777777776,-0.7144444444444444,-0.1318275139717453,-0.015108620244624522,0.08890061526555347
1592167955.8093796,0.5,8.47,4.39,-0.3388888888888889,-0.21777777777777776,-0.7144444444444444,-0.1112647398146385,0.00545415391248228,0.08290313946973066
1592167955.8193796,0.538890224241536,8.742774439396161,4.303896233328447,-0.33919715993290667,-0.21777777777777776,-0.7132730144771768,-0.03303018982343519,0.02060341613213693,0.07514626623635538
1592167955.8293796,0.5089257233994077,8.79,4.193355434039645,-0.34444444444444444,-0.21777777777777776,-0.6933333333333334,-0.006889308451203523,0.03829626278586014,0.06607916857757484
1592167955.8393795,0.46634009698225126,8.76072077585801,4.155360387929005,-0.34444444444444444,-0.21777777777777776,-0.6933333333333334,-0.0352554393078353,0.043340867491904175,0.03925578555487376
1592167955.8493795,0.42773002793957476,8.624860775678364,4.115696121608183,-0.34444444444444444,-0.21777777777777776,-0.6933333333333334,-0.0697827960446305,0.0476531935257737,0.02870496124897822
1592167955.8593795,0.3421813172552856,8.626340314240652,4.237227335343089,-0.34444444444444444,-0.21777777777777776,-0.6933333333333334,-0.06012470502707346,0.05142027217519834,0.025694009588878117
1592167955.8693795,0.4761604344267204,8.78544051588173,4.22047994569666,-0.34444444444444444,-0.21777777777777776,-0.6933333333333334,-0.03454870961317086,0.05233370058283771,0.029347723219435635
1592167955.8793795,0.5346103941402163,8.75006487617719,4.343051970701081,-0.34444444444444444,-0.2311111111111111,-0.7066666666666667,-0.05931334356910516,0.04111629241169272,0.043630872335487306
1592167955.8893795,0.543301389794792,8.445047915307812,4.454692940645226,-0.34444444444444444,-0.2311111111111111,-0.7066666666666667,-0.11805677734952437,0.040636060022628685,0.05229288760058169
1592167955.8993795,0.422673087406869,8.636386516445574,4.342673087406869,-0.34444444444444444,-0.2311111111111111,-0.7066666666666667,-0.11890580824790802,0.04757532684256349,0.02709791758306615
1592167955.9093795,0.35180235594498926,8.79819764405501,4.262145882899088,-0.34444444444444444,-0.2311111111111111,-0.7066666666666667,-0.050332728728549846,0.040594818464564766,0.005922312936874074
1592167955.9193795,0.44104450763070857,8.708955492369292,4.278371728660129,-0.34444444444444444,-0.2311111111111111,-0.7066666666666667,-0.043252867917277074,0.042364783667382964,0.009462243342510458
1592167955.9293795,0.43,8.58,4.4,-0.3244444444444444,-0.2222222222222222,-0.6788888888888889,-0.13199052468207118,0.06544984694978735,-0.02945243112740431
1592167955.9393795,0.5277005500951587,8.726131866412912,4.3734848919362825,-0.3244444444444444,-0.2222222222222222,-0.6788888888888889,-0.16060685222980564,0.06842970304439228,-0.01339429402961893
1592167955.9493794,0.47119138507940994,8.843067062538292,4.236210471747019,-0.3244444444444444,-0.2222222222222222,-0.6788888888888889,-0.14755389722195333,0.059656964349531424,0.06836428112299482
1592167955.9593794,0.47385333641369215,8.560340957221516,4.440537137576527,-0.3244444444444444,-0.2222222222222222,-0.6788888888888889,-0.2136382700099499,0.048800029361643606,0.1215025506546436
1592167955.9693794,0.4173285587770975,8.471516306649725,4.537436756382118,-0.3244444444444444,-0.2222222222222222,-0.6788888888888889,-0.28234397656340204,0.04615750218651083,0.11533665391266715
1592167955.9793794,0.3974983980227023,8.50227068839253,4.537273892347125,-0.31777777777777777,-0.21666666666666667,-0.6788888888888889,-0.25034671307462614,0.04869065592830001,0.10315802674813386
1592167955.9893794,0.4732280070985734,8.615208002028163,4.465208002028164,-0.31777777777777777,-0.21666666666666667,-0.6788888888888889,-0.18588411198137872,0.054058736701465215,0.0924193301009554
1592167955.9993794,0.33653974935425235,8.58448675021525,4.442562900602698,-0.31777777777777777,-0.21666666666666667,-0.6788888888888889,-0.15600288992489303,0.06703010625710046,0.06938009366655588
1592167956.0093794,0.19505696645662277,8.628352322152208,4.580709906010651,-0.31777777777777777,-0.21666666666666667,-0.6788888888888889,-0.14445142587142532,0.07100629590096087,0.01722097632121418
1592167956.0193794,0.1416638024314175,8.610554600810472,4.696395094731929,-0.31777777777777777,-0.21666666666666667,-0.6788888888888889,-0.13765642006717477,0.06032842963713856,-0.020636913159610408
1592167956.0293794,0.14,8.45,4.84,-0.31222222222222223,-0.23444444444444446,-0.6933333333333334,-0.13635384781205698,0.030543261909900768,-0.03490658503988659
1592167956.0393794,0.19,8.483868949958984,4.810327625102543,-0.31222222222222223,-0.23444444444444446,-0.6933333333333334,-0.09360384045175904,-0.0005615787472850139,-0.06129754230536138
1592167956.0493793,0.20911655742376745,8.53029353092049,4.718529495582787,-0.31222222222222223,-0.23444444444444446,-0.6933333333333334,-0.02412697597352948,-0.030671338935374843,-0.06182452104911091
1592167956.0593793,0.3188195700807315,8.586458710242194,4.7135412897578055,-0.31222222222222223,-0.23444444444444446,-0.6933333333333334,0.013154351854583368,-0.05698073054831929,-0.053643855736204026
1592167956.0693793,0.302500924034627,8.537502772103881,4.762497227896119,-0.31222222222222223,-0.23444444444444446,-0.6933333333333334,0.01404439592637111,-0.06054090683547027,-0.05631398795156725
1592167956.0793793,0.3008482316140375,8.600848231614037,4.668692604516291,-0.31222222222222223,-0.21666666666666667,-0.7066666666666667,0.004941428326518126,-0.054776681564203324,-0.056430324940988714
1592167956.0893793,0.24887401737217243,8.54621181216052,4.643139366992872,-0.31222222222222223,-0.21666666666666667,-0.7066666666666667,0.03315687576467375,-0.048022579567803376,-0.032434521935474456
1592167956.0993793,0.3446732663842749,8.611557755461424,4.4694807481795245,-0.31222222222222223,-0.21666666666666667,-0.7066666666666667,0.06107188318962382,-0.036465189148273916,-0.02894265684472701
1592167956.1093793,0.4279162538147517,8.641250247711149,4.460833498474099,-0.31222222222222223,-0.21666666666666667,-0.7066666666666667,0.08081239848400888,-0.024816346259605073,-0.018953049740402683
1592167956.1193793,0.38635725892750983,8.666185644643495,4.477457096428997,-0.31222222222222223,-0.21666666666666667,-0.7066666666666667,0.08262575172051354,-0.01937628655009112,-0.005352900466617799
1592167956.1293793,0.27,8.66,4.48,-0.3055555555555556,-0.2411111111111111,-0.6711111111111111,0.06326818538479445,-0.014180800172453926,0.0
1592167956.1393793,0.36124403972322805,8.568755960276773,4.496589825404223,-0.3055555555555556,-0.2411111111111111,-0.6711111111111111,0.03974248548947544,-0.013275965561095504,0.01085801533630108
1592167956.1493793,0.4139185750636132,8.539287531806615,4.433206106870228,-0.3055555555555556,-0.2411111111111111,-0.6711111111111111,0.03338552837625285,-0.01659561640851478,0.041179555951952725
1592167956.1593792,0.5180571889772858,8.523497059840885,4.5207771244090855,-0.3055555555555556,-0.2411111111111111,-0.6711111111111111,0.05171409517164494,-0.022886253651744074,0.03301042859149312
1592167956.1693792,0.4374564741150697,8.668578346592874,4.553017410353972,-0.3055555555555556,-0.2411111111111111,-0.6711111111111111,0.07017766075285915,-0.022007036243114824,-0.00039983293641834144
1592167956.1793792,0.5314716384180791,8.673377627118644,4.53073581920904,-0.3055555555555556,-0.21666666666666667,-0.6855555555555556,0.08258207777230164,-0.028602396617979614,0.0007954066898989978
1592167956.1893792,0.5693862146892655,8.502762033898305,4.549693107344632,-0.3055555555555556,-0.21666666666666667,-0.6855555555555556,0.07431040039191766,-0.0348061546532676,0.04939151129965484
1592167956.1993792,0.6474062272396213,8.425928623452295,4.458888383102694,-0.3055555555555556,-0.21666666666666667,-0.6855555555555556,0.06581362272876445,-0.021977797219484087,0.0557127124148793
1592167956.2093792,0.5805815276766205,8.57867079388201,4.430249226147123,-0.3055555555555556,-0.21666666666666667,-0.6855555555555556,0.07518576492633001,0.001973232840961188,0.029678984088308356
1592167956.2193792,0.5066184256971409,8.571846491744127,4.446307016511747,-0.3055555555555556,-0.21666666666666667,-0.6855555555555556,0.10639666626021478,0.027974545158444917,0.00988541598754417
1592167956.2293792,0.48928357720536675,8.607179888738253,4.5083079332429525,-0.31222222222222223,-0.23444444444444446,-0.6644444444444444,0.11083406283022572,0.0590279128217837,-0.033602901763998515
1592167956.2393792,0.31218879644007697,8.568755185760308,4.4741632094931285,-0.31222222222222223,-0.23444444444444446,-0.6644444444444444,0.10374830466383606,0.0604100353019894,-0.06681923182785351
1592167956.2493792,0.37122025912838635,8.799477031802121,4.320871613663133,-0.31222222222222223,-0.23444444444444446,-0.6644444444444444,0.10659716612011184,0.04230470476381427,-0.07370110170266396
1592167956.2593791,0.5095481743227326,8.740193639575972,4.41967726737338,-0.31222222222222223,-0.23444444444444446,-0.6644444444444444,0.0721074865835285,0.015359642625858521,-0.01981097742675248
1592167956.2693791,0.7354126709031389,8.619243212016176,4.5810090506451,-0.31222222222222223,-0.23444444444444446,-0.6644444444444444,0.018426574889983553,-0.011951581494201394,0.022517116804073
1592167956.2793791,0.72,8.4,4.74,-0.31777777777777777,-0.2288888888888889,-0.6766666666666666,-0.0272707695624114,-0.020725784867432664,0.039269908169872414
1592167956.2893791,0.7379618584787571,8.453885575436273,4.5693623444518074,-0.31777777777777777,-0.2288888888888889,-0.6766666666666666,-0.005718086608990883,-0.007010441169801427,0.035351238541977775
1592167956.299379,0.56,8.64,4.3,-0.31777777777777777,-0.2288888888888889,-0.6766666666666666,0.074176493209759,0.011999138607461015,0.02945243112740431
1592167956.309379,0.4951598391655719,8.737260241251642,4.308105020104303,-0.31777777777777777,-0.2288888888888889,-0.6766666666666666,0.11219367652662472,0.021724464572240615,0.017074743535866636
1592167956.319379,0.45674996873567053,8.620499812414023,4.45725019800742,-0.31777777777777777,-0.2288888888888889,-0.6766666666666666,0.08726641712759248,0.023152882221684178,-0.0027270996923031386
1592167956.329379,0.567270416967339,8.52136479151633,4.5684077432309484,-0.31234859180706764,-0.23431807485959905,-0.6647224575311043,0.022016040585442154,0.01544531922468243,-0.02682414258310042
1592167956.339379,0.6901960520412741,8.556983400628084,4.643966801256169,-0.31222222222222223,-0.23444444444444446,-0.6644444444444444,0.024760048052083976,0.011237367770299066,-0.028279335358574225
1592167956.349379,0.7459483600504966,8.486482623919207,4.723517376080795,-0.31222222222222223,-0.23444444444444446,-0.6644444444444444,0.05115248848254079,0.03195949975525565,-0.02134453636814416
1592167956.359379,0.7409716788868327,8.452915036660498,4.73,-0.31222222222222223,-0.23444444444444446,-0.6644444444444444,0.06822326421908473,0.056467006601752995,-0.012847088399828193
1592167956.369379,0.7088872424934658,8.527781893766337,4.636661727480398,-0.31222222222222223,-0.23444444444444446,-0.6644444444444444,0.17078096208878663,0.09454055355210748,-0.007756794405401626
1592167956.379379,0.7,8.674868473802695,4.446710457334937,-0.31755848178644,-0.24831871931141059,-0.6644444444444444,0.22895965242489225,0.11310193204195713,0.0007894201120314656
1592167956.389379,0.7447617969899287,8.747619101505036,4.309047640602014,-0.31777777777777777,-0.24888888888888888,-0.6644444444444444,0.2079331589657017,0.11022585217950819,0.023686593642917555
1592167956.399379,0.8396876768133982,8.7001561615933,4.29006246463732,-0.31777777777777777,-0.24888888888888888,-0.6644444444444444,0.17790421815327176,0.11126133289717817,0.03921880440796752
1592167956.409379,0.878926393221286,8.661073606778714,4.445705572885144,-0.31777777777777777,-0.24888888888888888,-0.6644444444444444,0.1682514432520208,0.1282495830055745,0.05307009326250792
1592167956.419379,0.8948405522912081,8.504174200942314,4.546463589892853,-0.31777777777777777,-0.24888888888888888,-0.6644444444444444,0.19469901709747608,0.15461968236417875,0.05830726772287577
1592167956.429379,0.7564826302729528,8.536110421836227,4.484321753515302,-0.29864212848083815,-0.24888888888888888,-0.6421195202646816,0.2791308753930075,0.19284787478909016,0.039121937741146674
1592167956.439379,0.5944784945027767,8.686373181644445,4.333626818355555,-0.29777777777777775,-0.24888888888888888,-0.6411111111111111,0.333419466327551,0.20813886185796845,0.01123503956686302
1592167956.449379,0.4373395981853532,8.814128321451717,4.082232663642255,-0.29777777777777775,-0.24888888888888888,-0.6411111111111111,0.33089535254590724,0.20113986449304058,-0.008910100950871082
1592167956.459379,0.28467807206726925,8.926569413817335,3.8665493008941767,-0.29777777777777775,-0.24888888888888888,-0.6411111111111111,0.29881740062427525,0.18063345721365234,-0.00559023351284799
1592167956.469379,0.320077284018769,8.97007728401877,3.739768147943693,-0.29777777777777775,-0.24888888888888888,-0.6411111111111111,0.268943230464425,0.16075136367384357,0.015530262929050426
1592167956.479379,0.4491218236173393,8.989926818634778,3.6901463627304434,-0.3319701530753474,-0.23455015086087583,-0.6642736879255937,0.20549129523595638,0.1429946266901025,0.04779698321512163
1592167956.489379,0.45,8.971103989745234,3.69,-0.3322222222222222,-0.23444444444444446,-0.6644444444444444,0.16728687941350834,0.14221175418529344,0.05143194603855546
1592167956.499379,0.30436611094102256,8.896285173536699,3.662693645801442,-0.3322222222222222,-0.23444444444444446,-0.6644444444444444,0.11330810823998735,0.13882934055278542,0.04451472482706473
1592167956.509379,0.2162708878838372,8.926864556058081,3.7152968340871224,-0.3322222222222222,-0.23444444444444446,-0.6644444444444444,0.06996091650092065,0.12546628680440294,0.029558683913930746
1592167956.519379,0.12982991080688655,8.93,3.7841360713544905,-0.3322222222222222,-0.23444444444444446,-0.6644444444444444,0.024563717191163188,0.1112369090354958,0.02223996026599443
1592167956.529379,0.03091097814140921,8.850910978141409,3.9779502991818294,-0.3058592149360253,-0.23444444444444446,-0.6501644821644211,-0.02248511415792258,0.08211042558688338,0.020725784867432664
1592167956.539379,0.051321644498186214,8.857107214832729,3.987107214832729,-0.3055555555555556,-0.23444444444444446,-0.65,-0.03608715325193062,0.06165511002210883,0.021501061739168253
1592167956.5493789,0.1040890760138991,8.851182184797219,3.954728739188881,-0.3055555555555556,-0.23444444444444446,-0.65,-0.05491781169544577,0.030365722124188442,0.02374036450144061
1592167956.5593789,0.19315935046395433,8.81673625981442,3.983263740185582,-0.3055555555555556,-0.23444444444444446,-0.65,-0.07123724538397447,0.017292363835177245,0.02036976604138234
1592167956.5693789,0.286751399821472,8.78906780004869,4.059773999837702,-0.3055555555555556,-0.23444444444444446,-0.65,-0.0779820745518024,0.012988282149724346,0.005173744985171303
1592167956.5793788,0.2083824591573517,8.798602923473775,4.183014617368874,-0.3303594535205885,-0.24787988917550396,-0.6355310595203975,-0.08470380751464614,0.004896714058094237,-0.02442736858755873
1592167956.5893788,0.14162076643618893,8.77405367397164,4.2872987226063515,-0.3322222222222222,-0.24888888888888888,-0.6344444444444445,-0.09216056381582972,-0.00483516848545218,-0.03891631178590603
1592167956.5993788,-0.02821613968853233,8.613145351580934,4.521408683341199,-0.3322222222222222,-0.24888888888888888,-0.6344444444444445,-0.08845458786918406,-0.026779149271102237,-0.05618035922679423
1592167956.6093788,-0.05,8.564077731536997,4.610485293080341,-0.3322222222222222,-0.24888888888888888,-0.6344444444444445,-0.042023569173186455,-0.04924619700151119,-0.05781403147231216
1592167956.6193788,-0.05,8.603813254715076,4.612697790880821,-0.3322222222222222,-0.24888888888888888,-0.6344444444444445,0.018462094025875467,-0.06112189949599977,-0.04905200953614228
1592167956.6293788,0.014091549746940879,8.656623742712538,4.54590845025306,-0.2945811533232252,-0.23668097465137633,-0.6476696848684164,0.08212441390054889,-0.05836647027913095,-0.036826074032611227
1592167956.6393788,0.01373945867801783,8.691302706609912,4.377225925628464,-0.2911111111111111,-0.23555555555555555,-0.6488888888888888,0.10598028626563671,-0.0523506785210248,-0.03053406287109568
1592167956.6493788,0.0352946952275135,8.785884085682541,4.069210873104055,-0.2911111111111111,-0.23555555555555555,-0.6488888888888888,0.13712428704124377,-0.04080971555592914,-0.01991284097893462
1592167956.6593788,0.04,8.851507131233847,3.9613238250215375,-0.2911111111111111,-0.23555555555555555,-0.6488888888888888,0.13790789272864457,-0.03177849960081042,-0.013861992946775998
1592167956.6693788,0.0472530348479053,8.881759104543717,3.928240895456284,-0.2911111111111111,-0.23555555555555555,-0.6488888888888888,0.11687391103015549,-0.027378528438454924,-0.00992523591851163
1592167956.6793787,0.09611498598526824,8.89,3.8831080112117853,-0.3105818829715577,-0.25605110488234145,-0.6406906691581745,0.07789481757642919,-0.018131355380375223,-0.004702354560201788
1592167956.6893787,0.09422857142857143,8.89,3.908857142857143,-0.31222222222222223,-0.2577777777777778,-0.64,0.05575080296370459,-0.006750684213963781,-0.0018450623521082915
1592167956.6993787,0.09,8.865110039433016,3.8802200788660346,-0.31222222222222223,-0.2577777777777778,-0.64,0.018825957100208804,0.012856149352517847,0.0018100490107725218
1592167956.7093787,0.07451924751785403,8.852259623758927,3.931923009928584,-0.31222222222222223,-0.2577777777777778,-0.64,0.003204327299027322,0.03131416823149696,0.004714693766552898
1592167956.7193787,0.05118704678653025,8.83118704678653,4.0001678752359195,-0.31222222222222223,-0.2577777777777778,-0.64,-0.006840582824972808,0.04420611521235041,0.009558503607465964
1592167956.7293787,0.016065895476141293,8.804043930317428,4.101802313571576,-0.29537970422395127,-0.24625394967369768,-0.6470915865255877,-0.022221799610280087,0.054308996805563066,0.014609944404072293
1592167956.7393787,0.027126797576465432,8.787154901817651,4.145690196364698,-0.2911111111111111,-0.24333333333333335,-0.6488888888888888,-0.028825595597817322,0.05703355275746882,0.017139874755149803
1592167956.7493787,0.07816216071380724,8.748878379464644,4.1729594598215485,-0.2911111111111111,-0.24333333333333335,-0.6488888888888888,-0.02767172389574347,0.06504889261645529,0.019634954084936207
1592167956.7593787,0.09,8.74,4.206324947096167,-0.2911111111111111,-0.24333333333333335,-0.6488888888888888,-0.014786771676504273,0.07476389519849011,0.018842466675635113
1592167956.7693787,0.06564843640161482,8.74,4.256527345397578,-0.2911111111111111,-0.24333333333333335,-0.6488888888888888,0.0037015815213067398,0.08010532907475225,0.01854412330243975
1592167956.7793787,0.07107410881801127,8.732975297060664,4.294049405878674,-0.2911111111111111,-0.24801646862622473,-0.6270342575220623,0.028415493798201928,0.07874720380558531,0.01854412330243975
1592167956.7893786,0.08742280312221026,8.73,4.3,-0.2911111111111111,-0.25,-0.6177777777777778,0.04381330939181613,0.07744898555724837,0.01854412330243975
1592167956.7993786,0.09,8.70878888428038,4.215155537121526,-0.2911111111111111,-0.25,-0.6177777777777778,0.062330882286050424,0.0797627593530538,0.013916575710828903
1592167956.8093786,0.09691745160221518,8.748422161215506,4.173082548397785,-0.2911111111111111,-0.25,-0.6177777777777778,0.08456845449994078,0.08373978556238805,0.009735407864223293
1592167956.8193786,0.08284646564508157,8.815742758279782,4.1299750865051905,-0.2911111111111111,-0.25,-0.6177777777777778,0.10098558738118008,0.0825899205943295,0.004984325599380544
1592167956.8293786,0.05705052503909866,8.85647473748045,4.1,-0.2947081874891393,-0.2406476014171268,-0.6379214054947354,0.10163568881011592,0.08001519360951183,-0.0013497599111366569
1592167956.8393786,0.06368621545003544,8.832627569099929,4.113686215450035,-0.2966666666666667,-0.23555555555555555,-0.6488888888888888,0.08623129433765925,0.07067304005697495,-0.0070048286246836775
1592167956.8493786,-0.01676798842955285,8.799976618054718,4.066604314812583,-0.2966666666666667,-0.23555555555555555,-0.6488888888888888,0.0814495486179243,0.061444182739977905,-0.012366999825904439
1592167956.8593786,-0.09377288761968755,8.796754577523938,4.073772887619687,-0.2966666666666667,-0.23555555555555555,-0.6488888888888888,0.08696997944734301,0.05079995106035192,-0.014180800172453926
1592167956.8693786,-0.11,8.80558813119396,4.095588131193959,-0.2966666666666667,-0.23555555555555555,-0.6488888888888888,0.09432468858310906,0.03044731873524868,-0.010523376858654166
1592167956.8793786,-0.07139209606122585,8.835738602625849,4.054957445404764,-0.2966666666666667,-0.25271462397278854,-0.639594393496221,0.09957859342681706,-0.001498318008893166,-0.004126257972135106
1592167956.8893785,0.008527186427933639,8.871947694910476,3.9275774237511163,-0.2966666666666667,-0.26222222222222225,-0.6344444444444445,0.09317406562571783,-0.02636387133537325,-0.005373824393417851
1592167956.8993785,0.05093326322046686,8.873022245593177,3.8132447015249546,-0.2966666666666667,-0.26222222222222225,-0.6344444444444445,0.08521087043744241,-0.04076795185199168,-0.007306139624944941
1592167956.9093785,0.07321737529909811,8.896434750598196,3.786608687649549,-0.2966666666666667,-0.26222222222222225,-0.6344444444444445,0.07425238756569194,-0.043282270098348244,-0.006914919485471966
1592167956.9193785,0.07443815170721735,8.91,3.7955618482927824,-0.2966666666666667,-0.26222222222222225,-0.6344444444444445,0.05707239589655354,-0.038295475789621905,-0.008971798825115812
1592167956.9293785,0.0370326805904011,8.89681307223616,3.8659346388191977,-0.291538416980729,-0.24976790155637377,-0.6439683367183285,0.021732486867479243,-0.027714231674209916,-0.009469837151829225
1592167956.9393785,0.02300032175032175,8.877998712998714,3.921002252252252,-0.28888888888888886,-0.24333333333333335,-0.6488888888888888,0.0038173812760047303,-0.02367099288265757,-0.008399361927707186
1592167956.9493785,0.03,8.85,3.9000557110281924,-0.28888888888888886,-0.24333333333333335,-0.6488888888888888,-0.008329428054477693,-0.027069121894440586,-0.004861365169465186
1592167956.9593785,0.0364558690771047,8.843544130922895,3.9503821670794657,-0.28888888888888886,-0.24333333333333335,-0.6488888888888888,-0.012952002690215321,-0.03226933541423343,-0.0032724923474893677
1592167956.9693785,0.05603017595955138,8.845343391986518,3.9893132160269658,-0.28888888888888886,-0.24333333333333335,-0.6488888888888888,-0.020517493770604373,-0.03731299613449279,-0.0021067450551218144
1592167956.9793785,0.06451500512370077,8.860969989752597,3.9690300102474017,-0.2931549960148994,-0.25125610371021,-0.6360905675108574,-0.022695827496257474,-0.04036073895236887,-0.0028857911583672164
1592167956.9893785,0.072605213754426,8.87,3.991513034386065,-0.2966666666666667,-0.2577777777777778,-0.6255555555555555,-0.028975877977398017,-0.03898572343404131,-0.005738338648313383
1592167956.9993784,0.06728941346501265,8.831868240395037,3.990934120197519,-0.2966666666666667,-0.2577777777777778,-0.6255555555555555,-0.04421457854935201,-0.03679256748178104,-0.007931494600573652
1592167957.0093784,0.034940885088088236,8.77867610636011,4.04264778727978,-0.2966666666666667,-0.2577777777777778,-0.6255555555555555,-0.0488114532984355,-0.03394727177778084,-0.007359883563570181
1592167957.0193784,0.035468703442522,8.785781172404203,4.105781172404203,-0.2966666666666667,-0.2577777777777778,-0.6255555555555555,-0.0412470592776793,-0.02653788625207598,-0.004857610906937546
1592167957.0293784,0.03886026962727994,8.78772053925456,4.1801287866772405,-0.29233454929949776,-0.2454002995858666,-0.6385519076570623,-0.02883080464024971,-0.017080316627650534,-0.0020573362675619915
