time,acc_x,acc_y,acc_z,mag_x,mag_y,mag_z,gyr_x,gyr_y,gyr_z
1592167959.3893762,0.0,8.76,4.265232299149857,-0.29438944135967066,-0.2493153893611904,-0.6670931671389682,0.030543261909900768,-0.015531668697403894,-0.013245328167525433
1592167959.3993762,0.0,8.76,4.29,-0.30333333333333334,-0.23555555555555555,-0.6533333333333333,0.030543261909900768,-0.014180800172453926,-0.015271630954950384
1592167959.4093761,0.0038515891191420433,8.757703178238284,4.129929341451153,-0.30333333333333334,-0.23555555555555555,-0.6533333333333333,0.027609967181031616,-0.01871372211174986,-0.015271630954950384
1592167959.4193761,0.05307101174323384,8.76521433202853,4.0404286640570595,-0.30333333333333334,-0.23555555555555555,-0.6533333333333333,0.032678163480014684,-0.022291891048858856,-0.01370552477352419
1592167959.4293761,0.1153286607311991,8.7753286607312,4.0185035044516,-0.30333333333333334,-0.23555555555555555,-0.6533333333333333,0.03256168113388739,-0.024834325963923858,-0.00656482173894912
1592167959.439376,0.14297920304810288,8.826812827432926,4.014896015240514,-0.30333333333333334,-0.2398588488472597,-0.6520092430897321,0.024043649125545,-0.024230054944608212,0.00673139051404195
1592167959.449376,0.1031591751895505,8.847843257670597,4.106208989772539,-0.30333333333333334,-0.25,-0.6488888888888888,-0.006601977814256959,-0.009926825504591423,0.0067232556679832686
1592167959.459376,0.027301709641255608,8.76368273542601,4.1563810257847535,-0.30333333333333334,-0.25,-0.6488888888888888,-0.04430147215827798,0.006042829549168638,-0.009910952802487244
1592167959.469376,0.02715689381933439,8.72452614896989,4.167156893819334,-0.30333333333333334,-0.25,-0.6488888888888888,-0.06970979182178065,0.008543054771697284,-0.012802999643690575
1592167959.479376,0.06,8.748978073762512,4.192408770494995,-0.30333333333333334,-0.25,-0.6488888888888888,-0.06096710467700457,0.00270717376577498,-0.008161327678257259
1592167959.489376,0.04636597241006221,8.790225520692452,4.173182986205031,-0.29840993448141134,-0.24356170919364048,-0.6488888888888888,-0.041005957836227167,0.001115431273838258,-0.003223291364805764
1592167959.499376,0.02,8.81,4.16,-0.28888888888888886,-0.2311111111111111,-0.6488888888888888,-0.03381575425739013,0.0032724923474893677,0.001090830782496456
1592167959.509376,-0.018851733464470125,8.82229653307106,4.051962134251291,-0.28888888888888886,-0.2311111111111111,-0.6488888888888888,-0.05342111527708526,0.009537371080533721,0.0012160872308431105
1592167959.519376,0.01681976602215464,8.872614824516615,3.9662543565609254,-0.28888888888888886,-0.2311111111111111,-0.6488888888888888,-0.06624386966735032,0.017329939310938545,0.006941996053760217
1592167959.529376,0.0527494465687261,8.877250553431274,4.084185147917086,-0.28888888888888886,-0.2311111111111111,-0.6488888888888888,-0.08713645857689611,0.03452443204609109,0.011651451388037009
1592167959.539376,0.0937256565108231,8.77862658614372,4.293334464273597,-0.28766883053237124,-0.23629635912631095,-0.6488888888888888,-0.11945677758396886,0.06014550924845883,0.010608860452324984
1592167959.549376,0.13,8.59,4.54,-0.28444444444444444,-0.25,-0.6488888888888888,-0.14398966328953217,0.08072147790473774,0.009817477042468103
1592167959.559376,0.09226913632966799,8.531596295505498,4.54134568164834,-0.28444444444444444,-0.25,-0.6488888888888888,-0.1343376974298999,0.096588890890568,0.017453292519943295
1592167959.569376,0.08,8.55,4.48,-0.28444444444444444,-0.25,-0.6488888888888888,-0.10690141668465267,0.09926560120717749,0.017453292519943295
1592167959.579376,-0.008985834840265218,8.655259407560491,4.4038915439593564,-0.28444444444444444,-0.25,-0.6488888888888888,-0.035866216485824706,0.08502820708428403,0.006452367873180621
1592167959.589376,-0.07791691713860854,8.76279779795615,4.246725725314013,-0.2875727950559475,-0.24516527632767707,-0.6523016350105286,0.0020323957968308858,0.05291162596112614,0.0004804459557418662
1592167959.599376,-0.13,8.8,4.15,-0.2966666666666667,-0.2311111111111111,-0.6622222222222223,0.017453292519943295,0.019634954084936207,-0.007635815477475192
1592167959.609376,-0.04473094662859653,8.840524104985723,4.05525505161432,-0.2966666666666667,-0.2311111111111111,-0.6622222222222223,0.008036012373656285,-0.044842986116982786,-0.01733895054960584
1592167959.619376,0.10369065849923428,8.77926493108729,4.1103522205206735,-0.2966666666666667,-0.2311111111111111,-0.6622222222222223,-0.02407679030340187,-0.09445625691497642,-0.02226096632090011
1592167959.629376,0.24,8.72,4.3,-0.2966666666666667,-0.2311111111111111,-0.6622222222222223,-0.04799655442984406,-0.1112647398146385,-0.022907446432425576
1592167959.639376,0.36230098383042114,8.61277862263741,4.529681574128674,-0.2947531802930456,-0.2311111111111111,-0.6641357085958434,-0.0790939154495527,-0.13173952628284616,-0.034889217602767295
1592167959.649376,0.4,8.56,4.59,-0.28888888888888886,-0.2311111111111111,-0.67,-0.07744898555724837,-0.12762720155208535,-0.038179077387375956
1592167959.659376,0.3193740678008949,8.610156483049776,4.502603079101044,-0.28888888888888886,-0.2311111111111111,-0.67,-0.025622872454429922,-0.10278790613040908,-0.03304301466168986
1592167959.669376,0.19853648048162836,8.633769410865307,4.394922356538774,-0.28888888888888886,-0.2311111111111111,-0.67,0.007543926965384732,-0.08424550397845998,-0.024392516979784337
1592167959.679376,0.11193485935542649,8.646021713548192,4.354945716129523,-0.28888888888888886,-0.2311111111111111,-0.67,0.023787216800451982,-0.07482151735655122,-0.020291821135110494
1592167959.6893759,0.06833868717349688,8.671629189785522,4.32,-0.2883351179467212,-0.23018815954083158,-0.67,0.02944892704721134,-0.06926600264842847,-0.02399126905453609
1592167959.6993759,0.06,8.73,4.32,-0.28555555555555556,-0.22555555555555556,-0.67,0.03490658503988659,-0.07199483164476608,-0.03490658503988659
1592167959.7093759,0.08960630134757736,8.753921260269516,4.252551178113392,-0.28555555555555556,-0.22555555555555556,-0.67,0.03753746267615078,-0.07960917419178679,-0.03368777440879974
1592167959.7193758,0.2916906765311173,8.757190455101988,4.194440565816552,-0.28555555555555556,-0.22555555555555556,-0.67,0.03281062815720825,-0.08015138263398347,-0.014223652513611212
1592167959.7293758,0.55,8.73,4.31,-0.28555555555555556,-0.22555555555555556,-0.67,0.028361600344907853,-0.07199483164476608,-0.011999138607461015
1592167959.7393758,0.8170436920195487,8.6753042053203,4.298868923941354,-0.28555555555555556,-0.2299904727530492,-0.6650433278380954,0.03279129078041035,-0.018249700186143337,-0.01669429826503019
1592167959.7493758,0.84,8.66,4.23,-0.28555555555555556,-0.24444444444444444,-0.6488888888888888,0.02945243112740431,0.02181661564992912,0.0
1592167959.7593758,0.5637130649644806,8.740767270668178,4.138044630907031,-0.28555555555555556,-0.24444444444444444,-0.6488888888888888,0.027003452567658265,0.1004238999802623,0.054625235371158175
1592167959.7693758,0.3066893847000024,8.830013630820002,4.013310615299997,-0.28555555555555556,-0.24444444444444444,-0.6488888888888888,0.037083785929465034,0.16000437494539832,0.06181176181905941
1592167959.7793758,0.3484016703121893,8.833196659375622,4.024808908331676,-0.28555555555555556,-0.24444444444444444,-0.6488888888888888,0.015574087595060357,0.1832595714594046,0.06226528914181361
1592167959.7893758,0.3483004475824245,8.777341927756414,4.167124440521969,-0.28656016446377663,-0.24323891375457912,-0.6488888888888888,-0.03592624329134328,0.17793370001712008,0.06853694688792096
1592167959.7993758,0.25,8.72,4.29,-0.2911111111111111,-0.23777777777777778,-0.6488888888888888,-0.09490227807719166,0.1538071403320003,0.05781403147231216
1592167959.8093758,0.2027208723730877,8.63,4.486196601556297,-0.2911111111111111,-0.23777777777777778,-0.6488888888888888,-0.1292152608491166,0.11473765954268185,0.04442726094837387
1592167959.8193758,0.3047577581528442,8.618193793477726,4.515903103261137,-0.2911111111111111,-0.23777777777777778,-0.6488888888888888,-0.09858319288303447,0.08327795277994313,0.03394069202746096
1592167959.8293757,0.34,8.59,4.53,-0.2911111111111111,-0.23777777777777778,-0.6488888888888888,-0.07090400086226964,0.07635815477475191,0.031634092692397225
1592167959.8393757,0.2575077591558039,8.607495344506518,4.535003103662322,-0.2911111111111111,-0.2395822125663839,-0.6515261397337747,0.02194814505992287,0.06858539297464487,0.0019098002619685002
1592167959.8493757,0.17,8.66,4.5,-0.2911111111111111,-0.25222222222222224,-0.67,0.07635815477475191,0.07526732399225547,-0.007635815477475192
1592167959.8593757,0.13332035783365573,8.742226547388782,4.3421486943907155,-0.2911111111111111,-0.25222222222222224,-0.67,0.10362467811482333,0.0699282400677817,0.0007371283737909436
1592167959.8693757,0.12406391382405746,8.738280071813286,4.221719928186714,-0.2911111111111111,-0.25222222222222224,-0.67,0.09394759551013354,0.05276832220614489,0.023402217507631867
1592167959.8793757,0.19106072547625,8.703829222813864,4.271487668441591,-0.2911111111111111,-0.25222222222222224,-0.67,0.08476024212867639,0.02854788935649353,0.0388522047580324
1592167959.8893757,0.27975048538090386,8.719954633705619,4.319863901116857,-0.2911111111111111,-0.25222222222222224,-0.67,0.07420618537999824,0.010957794775363277,0.03709319529991937
1592167959.8993757,0.32099164652097945,8.693312190334858,4.365696163144164,-0.28555555555555556,-0.23777777777777778,-0.6755555555555556,0.07921871679228014,-0.0016109329675015878,0.015474136604895153
1592167959.9093757,0.40875760671611955,8.648993914627106,4.288521298805135,-0.28555555555555556,-0.23777777777777778,-0.6755555555555556,0.09326271284740821,-0.004498847213788186,0.002181661564992912
1592167959.9193757,0.36663962201116784,8.693441511955328,4.173279244022336,-0.28555555555555556,-0.23777777777777778,-0.6755555555555556,0.11310639203297536,-0.008543366072419565,0.001448540814784584
1592167959.9293756,0.3283976804517015,8.76945101480238,4.14,-0.28555555555555556,-0.23777777777777778,-0.6755555555555556,0.12482892012961304,-0.008224927355890414,-0.0030653293826157467
1592167959.9393756,0.20038608271020905,8.825456088814283,4.14,-0.28555555555555556,-0.23777777777777778,-0.6755555555555556,0.10824678990882239,-0.011715902139214758,-0.008301791557602264
1592167959.9493756,0.18851014653538575,8.76723478019692,4.1678724633661535,-0.2788888888888889,-0.23222222222222222,-0.6844444444444444,0.07552279915332967,-0.018683244188535425,-0.018637080661452938
1592167959.9593756,0.24717306366352562,8.723623075155137,4.127392323603769,-0.2788888888888889,-0.23222222222222222,-0.6844444444444444,0.06475423235794302,-0.02806120194371566,-0.006758537823117206
1592167959.9693756,0.3930149667136401,8.759946304485155,3.9922746489139413,-0.2788888888888889,-0.23222222222222222,-0.6844444444444444,0.067210155976267,-0.030127766643435028,0.010827551680490419
1592167959.9793756,0.5186600486911884,8.863300243455942,4.065359805235246,-0.2788888888888889,-0.23222222222222222,-0.6844444444444444,0.06885767667369229,-0.018747129367063103,0.001147670833649998
1592167959.9893756,0.510744333515768,8.823721667578841,4.097022665936928,-0.2788888888888889,-0.23222222222222222,-0.6844444444444444,0.05676908858334024,-0.0006142472315350325,-0.017848681879760363
1592167959.9993756,0.446393419506463,8.79,4.1,-0.29777777777777775,-0.25222222222222224,-0.6755555555555556,0.042542400517361786,0.024874530943376293,-0.03141951563835503
1592167960.0093756,0.40249639381797364,8.788382140812821,4.078967830566685,-0.29777777777777775,-0.25222222222222224,-0.6755555555555556,0.03883629825081298,0.03575704592082046,-0.03841944728893854
1592167960.0193756,0.2538157955757548,8.771342113806057,3.9737105226545473,-0.29777777777777775,-0.25222222222222224,-0.6755555555555556,0.01572232016523007,0.044600627165632005,-0.023099782314958225
1592167960.0293756,0.22063017098731383,8.718177054605627,4.003270821842251,-0.29777777777777775,-0.25222222222222224,-0.6755555555555556,-0.014407479983433264,0.03519463536372563,0.017570317664563018
1592167960.0393755,0.3280407375305335,8.80080056733118,4.036320226932472,-0.29777777777777775,-0.25222222222222224,-0.6755555555555556,-0.038742113163969055,0.027083090970213698,0.05181906065939117
1592167960.0493755,0.34,8.833509097913032,4.067990075003966,-0.28555555555555556,-0.23777777777777778,-0.6622222222222223,-0.06910151366911274,0.04483188206996544,0.04232315171174343
1592167960.0593755,0.3482469618661824,8.743092610699819,4.164845648833636,-0.28555555555555556,-0.23777777777777778,-0.6622222222222223,-0.09419390088654687,0.05995059094041739,0.05423786183057563
1592167960.0693755,0.41349839457723864,8.772438102033535,4.129752408134142,-0.28555555555555556,-0.23777777777777778,-0.6622222222222223,-0.07561430391579232,0.08075611363061794,0.05816101139584903
1592167960.0793755,0.32054272969165754,8.797405697292222,4.235459970261387,-0.28555555555555556,-0.23777777777777778,-0.6622222222222223,-0.04233015462340484,0.10750855305381177,0.02232991137597823
1592167960.0893755,0.07435983722022221,8.764581311629362,4.178017295351385,-0.28555555555555556,-0.23777777777777778,-0.6622222222222223,-0.039644715851086275,0.1289920632323603,-0.012580792664163131
1592167960.0993755,-0.07,8.73,4.21,-0.2911111111111111,-0.24444444444444444,-0.6888888888888889,-0.039269908169872414,0.13744467859455345,-0.014180800172453926
1592167960.1093755,-0.11430978364924373,8.731219332075163,4.145529115724406,-0.2911111111111111,-0.24444444444444444,-0.6888888888888889,-0.06816354249944909,0.12150800515876704,0.056740774042045965
1592167960.1193755,0.02822672607924872,8.75835465478415,4.0794882851803935,-0.2911111111111111,-0.24444444444444444,-0.6888888888888889,-0.08108043654659418,0.10365683405101761,0.08523637064179748
1592167960.1293755,0.07,8.75,4.28,-0.2911111111111111,-0.24444444444444444,-0.6888888888888889,-0.08290313946973066,0.09272061651219875,0.09708393964218458
1592167960.1393754,0.1261085341723702,8.7259534853547,4.376186058581206,-0.2911111111111111,-0.24444444444444444,-0.6888888888888889,-0.08028007163104599,0.08222834515746007,0.09008909207235878
1592167960.1493754,0.22412649028642,8.641678145632453,4.405804635918871,-0.2788888888888889,-0.25222222222222224,-0.6888888888888889,-0.08535187400619451,0.06271150054523988,0.0746341364381065
1592167960.1593754,0.16390751820416494,8.6623445109225,4.358436992718334,-0.2788888888888889,-0.25222222222222224,-0.6888888888888889,-0.07499417360986603,0.04284858798063661,0.07792567066613394
1592167960.1693754,0.20523856666827642,8.69,4.34,-0.2788888888888889,-0.25222222222222224,-0.6888888888888889,-0.05971280506212731,0.02032181346377332,0.057698611071266635
1592167960.1793754,0.11790184167389836,8.692622697907627,4.338950920836949,-0.2788888888888889,-0.25222222222222224,-0.6888888888888889,-0.07537807944630702,0.01257500386000832,0.05334363421865636
1592167960.1893754,0.08554777745636871,8.73306527817954,4.322773888728185,-0.2788888888888889,-0.25222222222222224,-0.6888888888888889,-0.09390680426966497,0.004634121792854917,0.018050825031307907
1592167960.1993754,-0.11678917191465363,8.521376069179434,4.64770655136761,-0.2733333333333333,-0.22555555555555556,-0.7055555555555556,-0.10248805826734116,-0.007105318394230839,-0.016942994108016904
1592167960.2093754,-0.04556947365933209,8.550632932334382,4.596835338328094,-0.2733333333333333,-0.22555555555555556,-0.7055555555555556,-0.09951408096614563,-0.042314597326840675,0.01511970200500234
1592167960.2193754,0.08768682850132214,8.571619220049074,4.5,-0.2733333333333333,-0.22555555555555556,-0.7055555555555556,-0.039704686496621545,-0.06902513273839088,-0.024194318557160716
1592167960.2293754,-0.009097962955831953,8.640180407408835,4.4992783703646655,-0.2733333333333333,-0.22555555555555556,-0.7055555555555556,-0.011920421025482566,-0.08232397297009413,-0.07846109875776638
1592167960.2393754,0.03127998767761562,8.648255997535523,4.466976009857907,-0.2733333333333333,-0.22555555555555556,-0.7055555555555556,-0.008396780106675616,-0.1052276389423393,-0.07493745783895943
1592167960.2493753,0.05419165032221911,8.643493041935184,4.452315307742598,-0.3055555555555556,-0.24444444444444444,-0.7122222222222222,0.03204344714126906,-0.12496436003138768,-0.06722653491242447
1592167960.2593753,0.1125896610211155,8.69517932204223,4.336015830485976,-0.3055555555555556,-0.24444444444444444,-0.7122222222222222,0.06767063051550941,-0.1329118625470838,-0.07534119726984888
1592167960.2693753,0.17439914519767305,8.793199810043927,4.079200047489018,-0.3055555555555556,-0.24444444444444444,-0.7122222222222222,0.08731015799399575,-0.12945981798767253,-0.05358179452516415
1592167960.2793753,0.34402484315659165,8.82865838561447,4.073354035963827,-0.3055555555555556,-0.24444444444444444,-0.7122222222222222,0.07395019714927636,-0.12346984972262377,-0.018770419362922397
1592167960.2893753,0.3968287207033299,8.81105709309889,4.117357267252775,-0.3055555555555556,-0.24444444444444444,-0.7122222222222222,0.056670168630329684,-0.09754980694420377,-0.03605044788186906
1592167960.2993753,0.31,8.79,4.16,-0.31222222222222223,-0.23222222222222222,-0.6977777777777778,0.02945243112740431,-0.06544984694978735,-0.05017821599483697
1592167960.3093753,0.4036856607006414,8.737893908171062,4.21,-0.31222222222222223,-0.23222222222222222,-0.6977777777777778,0.021414572435319412,-0.05167066062049896,-0.022562837962760113
1592167960.3193753,0.4655304347826087,8.701646681922195,4.209059038901602,-0.31222222222222223,-0.23222222222222222,-0.6977777777777778,0.014309103838861977,-0.0389876401037747,-0.016234158071038788
1592167960.3293753,0.28316956521739134,8.768832265446223,4.170667276887872,-0.31222222222222223,-0.23222222222222222,-0.6977777777777778,0.019543968313718824,-0.02747093825908964,-0.010999293596181941
1592167960.3393753,0.313377065111759,8.71159013605442,4.253442662779397,-0.31222222222222223,-0.23222222222222222,-0.6977777777777778,0.02782691834692763,-0.02180946005441712,-0.019100272086955986
1592167960.3493752,0.05775134482064265,8.787416218393119,4.172870868452089,-0.3240935605225223,-0.23222222222222222,-0.6977777777777778,0.02309534433322783,-0.00907112574477578,-0.010130640210471862
1592167960.3593752,0.32447935287808366,8.689357570611369,4.23404518233822,-0.3244444444444444,-0.23222222222222222,-0.6977777777777778,0.04286814825103363,-0.024695207714858093,-0.023789968315493744
1592167960.3693752,0.213900685717199,8.757771036733029,4.1330648244920845,-0.3244444444444444,-0.23222222222222222,-0.6977777777777778,0.05002625213579536,-0.024059062758538672,0.031114106569052665
1592167960.3793752,0.4898130675917538,8.76,4.120973772013169,-0.3244444444444444,-0.23222222222222222,-0.6977777777777778,0.055101259663769976,-0.02596749468249523,0.022878836137027663
1592167960.3893752,0.4202640722724114,8.78301598332175,4.158359972202919,-0.3244444444444444,-0.23222222222222222,-0.6977777777777778,0.04810040697828188,-0.006094704302481938,-0.02086450761461602
1592167960.3993752,0.25119321664509975,8.751491520806375,4.2279118708710755,-0.31222222222222223,-0.22555555555555556,-0.7055555555555556,0.04415387027852303,0.027726328668743094,-0.05706561294048152
1592167960.4093752,0.2892808009262412,8.799101001157803,4.161258598379078,-0.31222222222222223,-0.22555555555555556,-0.7055555555555556,0.06077271402444193,0.042267816946422135,-0.033176025055723105
1592167960.4193752,0.13672096908939016,8.808360484544696,4.14,-0.31222222222222223,-0.22555555555555556,-0.7055555555555556,0.06646119177997158,0.061146138284035714,-0.0647961889050082
1592167960.4293752,-0.0384795321637427,8.72076023391813,4.14,-0.31222222222222223,-0.22555555555555556,-0.7055555555555556,0.06221421178273322,0.06433137328196448,-0.08815457888981917
1592167960.4393752,-0.16105015804358674,8.754585759441024,4.105414240558975,-0.31222222222222223,-0.22555555555555556,-0.7055555555555556,0.052745551843726174,0.03134770651228955,-0.03742555848592514
1592167960.4493752,0.11,8.75,4.16,-0.3244444444444444,-0.22,-0.6977777777777778,0.044724062082354694,-0.0272707695624114,0.02181661564992912
1592167960.4593751,0.15898539816348037,8.758164233027246,4.08652190275478,-0.3244444444444444,-0.22,-0.6977777777777778,0.04739580109283318,-0.054878739337355764,0.032503571691843064
1592167960.4693751,0.195914747832572,8.777276498555047,3.949064510114664,-0.3244444444444444,-0.22,-0.6977777777777778,0.05836170947052512,-0.08087454707928354,0.02831057728672592
1592167960.4793751,0.1562964577128883,8.911110626861335,3.9125185830851557,-0.3244444444444444,-0.22,-0.6977777777777778,0.036159108421846574,-0.09734245763688387,0.012968818793136298
1592167960.489375,0.2445384371783707,8.871822500197926,4.026354999604148,-0.3244444444444444,-0.22,-0.6977777777777778,-0.01249161446346498,-0.1135445079245539,0.0077352174433253556
1592167960.499375,0.45918681598371086,8.76936593280733,4.222308793586154,-0.3553043960860835,-0.23095030542122677,-0.7047461539549221,-0.09004580448209784,-0.1257417426063533,-0.004205452513112052
1592167960.509375,0.3157343461096397,8.6826985158163,4.317301484183699,-0.35888888888888887,-0.23222222222222222,-0.7055555555555556,-0.12870500407227525,-0.1223202288455768,-0.03496714738056689
1592167960.519375,0.3879154970128842,8.641042251493559,4.3297394371266105,-0.35888888888888887,-0.23222222222222222,-0.7055555555555556,-0.10537348412671839,-0.1083617464711388,-0.0731816881990176
1592167960.529375,0.24776666357222427,8.69689333457111,4.320517777571482,-0.35888888888888887,-0.23222222222222222,-0.7055555555555556,-0.06438010468478578,-0.09454569732219115,-0.08865739336586761
1592167960.539375,0.3359922649262751,8.707999355410523,4.304001289178954,-0.35888888888888887,-0.23222222222222222,-0.7055555555555556,-0.03687211954870685,-0.10340998472881599,-0.0772318037940102
1592167960.549375,0.3412549042571881,8.77560783509984,4.1875294255431275,-0.3453507641857469,-0.20722876123180625,-0.7055555555555556,-0.024408943672769995,-0.11705683600356263,-0.06395262948120772
1592167960.559375,0.16497031531729628,8.85001187387308,4.057479220722107,-0.34444444444444444,-0.20555555555555555,-0.7055555555555556,-0.029726110251998283,-0.13117466826279514,-0.08999807289115028
1592167960.569375,0.08890214404809432,8.800385834722777,3.971869525397459,-0.34444444444444444,-0.20555555555555555,-0.7055555555555556,-0.06305774518851404,-0.13586831117416304,-0.12818390104637212
1592167960.579375,0.07154563576819024,8.705456357681902,4.010726185390858,-0.34444444444444444,-0.20555555555555555,-0.7055555555555556,-0.09085581309846495,-0.1455761285625521,-0.1258721335716185
1592167960.589375,0.11145475819032763,8.738363884555381,4.130546021840873,-0.34444444444444444,-0.20555555555555555,-0.7055555555555556,-0.0918876029895279,-0.15630618090001283,-0.09270062078412647
1592167960.599375,0.17165682173760338,8.784994093042561,4.2549822791276855,-0.35647863739086316,-0.2175897485019743,-0.6916699483096878,-0.07599798104245536,-0.16762261197935427,-0.0721781402564165
1592167960.609375,0.08463116883116883,8.763990318772137,4.27,-0.35888888888888887,-0.22,-0.6888888888888889,-0.08065157200760208,-0.16624155519432335,-0.0841443426278638
1592167960.619375,0.06166704915775462,8.735001147473264,4.170004589893056,-0.35888888888888887,-0.22,-0.6888888888888889,-0.10362792297783667,-0.17762307001353764,-0.08163071217334451
1592167960.629375,0.09314203798829292,8.738285509497073,4.158285509497073,-0.35888888888888887,-0.22,-0.6888888888888889,-0.12245318956006787,-0.19354421232402655,-0.06354910916939675
1592167960.639375,0.11993215869133161,8.753288105794221,4.15335594710289,-0.35888888888888887,-0.22,-0.6888888888888889,-0.12617029372916275,-0.20649609323834617,-0.07014224542628919
1592167960.649375,0.13,8.808943459350953,4.125528270324524,-0.347106204230326,-0.22,-0.6961397717556969,-0.13988362878505992,-0.21340080620637522,-0.09662293681700909
1592167960.659375,0.13,8.743319848470676,4.154080067346366,-0.34444444444444444,-0.22,-0.6977777777777778,-0.1810038087012784,-0.20450893673656326,-0.11074115940491251
1592167960.669375,0.08174145757582602,8.649569095959711,4.216301632828204,-0.34444444444444444,-0.22,-0.6977777777777778,-0.22096276686603386,-0.19324350988531247,-0.13165760191519166
1592167960.679375,-0.0072190996751405195,8.587100500180478,4.393018099314186,-0.34444444444444444,-0.22,-0.6977777777777778,-0.24966474610526374,-0.17217694895414526,-0.14852083250083445
1592167960.689375,-0.0052844362769845915,8.557926654415477,4.530366727922615,-0.34444444444444444,-0.22,-0.6977777777777778,-0.25146752255009247,-0.17228920926512134,-0.1264563631482309
1592167960.699375,0.008998191568969818,8.51400723372412,4.731967448241456,-0.3574418322662897,-0.2070026121781547,-0.6857801890191513,-0.2361678234488363,-0.17834984659205266,-0.11192042189947782
1592167960.709375,0.04665233637349834,8.497782554542168,4.780543613644582,-0.35888888888888887,-0.20555555555555555,-0.6844444444444444,-0.22386688576563762,-0.17956260660886256,-0.09260670799021281
1592167960.719375,0.08682909015025042,8.47317090984975,4.682196368948247,-0.35888888888888887,-0.20555555555555555,-0.6844444444444444,-0.19504609822403346,-0.17906919463305018,-0.06236378832743668
1592167960.729375,0.08143297343779858,8.607072424995224,4.591463787502389,-0.35888888888888887,-0.20555555555555555,-0.6844444444444444,-0.1507111288962692,-0.17609269544286454,-0.05797034462595721
1592167960.7393749,0.06024005424126368,8.63,4.6063465943449815,-0.35888888888888887,-0.20555555555555555,-0.6844444444444444,-0.12818284142053293,-0.1749052640787931,-0.05565855576290318
1592167960.7493749,-0.005131738954195379,8.606372111876773,4.706635589785164,-0.3842669909471693,-0.21693194613340538,-0.6669423050939063,-0.13545580268872895,-0.17281465668675308,-0.06399201594456205
1592167960.7593749,0.030087799395940158,8.5165203343401,4.78843576596193,-0.39111111111111113,-0.22,-0.6622222222222223,-0.15237504662155277,-0.17053001985415342,-0.07109378718300038
1592167960.7693748,0.1101136617390916,8.429886338260909,4.776628779420302,-0.39111111111111113,-0.22,-0.6622222222222223,-0.135352535209313,-0.15997198333630777,-0.04820038793410761
1592167960.7793748,0.32097937610115035,8.468124157943828,4.761696548865167,-0.39111111111111113,-0.22,-0.6622222222222223,-0.0818032645932763,-0.13624701445217938,0.01651745489765024
1592167960.7893748,0.43025884314581764,8.529181190202072,4.696767041168764,-0.39111111111111113,-0.22,-0.6622222222222223,-0.030608956867900175,-0.10593275167441485,0.040624081760275536
1592167960.7993748,0.49339733663672963,8.61679467327346,4.644951997522453,-0.39111111111111113,-0.20701214686349403,-0.6817040019269812,-0.00033917439009800016,-0.040256013792079645,0.040350266436339946
1592167960.8093748,0.3756113056935733,8.574716135863811,4.681462898102143,-0.39111111111111113,-0.20444444444444446,-0.6855555555555556,-0.010884495602947044,0.0007002392601494281,0.02620375100193246
1592167960.8193748,0.20627820481031492,8.494185469873543,4.6272055541780315,-0.39111111111111113,-0.20444444444444446,-0.6855555555555556,-0.02704248759354777,0.07222446599496185,-0.003755022006793526
1592167960.8293748,0.1257807923169268,8.52298631452581,4.649479471788715,-0.39111111111111113,-0.20444444444444446,-0.6855555555555556,-0.0029825906444532722,0.11599567160880489,-0.013932750752501371
1592167960.8393748,-0.18612014532455168,8.550190009908492,4.639809990091508,-0.39111111111111113,-0.20444444444444446,-0.6855555555555556,0.019800769010666273,0.13354169109874234,-0.030688349969914576
1592167960.8493748,-0.36244025319726136,8.535669810102053,4.61377987340137,-0.4181446554421622,-0.20444444444444446,-0.6684343108125564,0.041631660387239755,0.11641874263983007,-0.030217041361976817
1592167960.8593748,-0.25308282208588956,8.568972392638036,4.554325153374233,-0.42444444444444446,-0.20444444444444446,-0.6644444444444444,0.05383383755887801,0.08211345828976388,-0.00285422901064257
1592167960.8693748,-0.15212769203386814,8.678723079661317,4.328936916778967,-0.42444444444444446,-0.20444444444444446,-0.6644444444444444,0.07482629319379946,0.03314279467856251,0.02775811955044174
1592167960.8793747,-0.07915909988156336,8.713282668772207,4.275572443742598,-0.42444444444444446,-0.20444444444444446,-0.6644444444444444,0.07177821582021192,0.015071595069253738,0.034407033635348146
1592167960.8893747,0.06092855672225654,8.723633930409719,4.250901791229154,-0.42444444444444446,-0.20444444444444446,-0.6644444444444444,0.036185397161676756,-0.008631195759135535,0.04413092144068841
1592167960.8993747,0.1697441625608226,8.72,4.24,-0.4084956119322799,-0.18672351943092833,-0.64849561193228,-0.01754866552069588,-0.007221809192794192,0.0312479939431132
1592167960.9093747,0.16075416968817985,8.65175972927242,4.366731931351221,-0.40444444444444444,-0.18222222222222223,-0.6444444444444445,-0.051729162734659107,0.004116521676658128,0.00972453098232065
1592167960.9193747,0.16016725170348958,8.489498244889532,4.537709064629362,-0.40444444444444444,-0.18222222222222223,-0.6444444444444445,-0.10377487898243642,0.03886132525856774,-0.012017382938120155
1592167960.9293747,0.13908796185935637,8.436815971394518,4.681376162097735,-0.40444444444444444,-0.18222222222222223,-0.6444444444444445,-0.10139663470224142,0.06039364474875503,-0.006346008839253757
1592167960.9393747,0.11957711618697406,8.471691535252104,4.730422883813026,-0.40444444444444444,-0.18222222222222223,-0.6444444444444445,-0.0849102341681095,0.07080179092048279,0.011933107128087778
1592167960.9493747,0.05331080409502038,8.55778153265083,4.788907663254149,-0.3992567560105578,-0.1925975990899955,-0.6548198213122177,-0.04047252173109403,0.08799614068004658,0.04848423526273036
1592167960.9593747,0.004709763063679151,8.511475924212558,4.8088225592340805,-0.3977777777777778,-0.19555555555555557,-0.6577777777777778,-0.03731256483811986,0.09426008376117591,0.03429874932649744
1592167960.9693747,0.003183742591024552,8.45,4.748027095681626,-0.3977777777777778,-0.19555555555555557,-0.6577777777777778,-0.032509712998753396,0.09878622679895085,0.026742441698238688
1592167960.9793746,0.06079610714129148,8.470398053570646,4.747197404760861,-0.3977777777777778,-0.19555555555555557,-0.6577777777777778,-0.001268053126099622,0.1041083236881136,0.04127611674547514
1592167960.9893746,0.09601229868228404,8.496012298682285,4.74932513421181,-0.3977777777777778,-0.19555555555555557,-0.6577777777777778,0.03412363578893398,0.10981253473484648,0.059206035895742685
1592167960.9993746,0.08133401060351123,8.538665989396488,4.6941344169656185,-0.39395564585824594,-0.19937768747508738,-0.6584147997643665,0.0672093955458654,0.12236188856334519,0.0765325547182629
1592167961.0093746,0.08674893836660957,8.620185111324872,4.586440419491824,-0.39111111111111113,-0.20222222222222222,-0.6588888888888889,0.09203826824194747,0.13491511205672294,0.10260540193178638
1592167961.0193746,0.13227127215366058,8.65,4.453186183539018,-0.39111111111111113,-0.20222222222222222,-0.6588888888888889,0.10489800073606288,0.14870947765232423,0.10640590196852469
1592167961.0293746,0.061594656054576466,8.58685332575327,4.463146674246731,-0.39111111111111113,-0.20222222222222222,-0.6588888888888889,0.09972636713747589,0.17211855513464935,0.07291868904000436
1592167961.0393746,-0.0764665060240964,8.48896481927711,4.530517590361446,-0.39111111111111113,-0.20222222222222222,-0.6588888888888889,0.08158646728763878,0.1893814715212493,0.049529289962107516
1592167961.0493746,-0.13326801845713915,8.536927926171444,4.5225752258399945,-0.3994277275911123,-0.19568773784507845,-0.6440377880317439,0.07397115159921107,0.1829359094110854,0.09320534748479375
1592167961.0593746,0.04415094760809875,8.69166037904324,4.49,-0.4066666666666667,-0.19,-0.6311111111111111,0.09400985542952078,0.15848083534299826,0.1699843675724395
1592167961.0693746,0.14607923027833686,8.638811545824947,4.4352869274949684,-0.4066666666666667,-0.19,-0.6311111111111111,0.09965007742426671,0.15650291835385582,0.1670223054595002
1592167961.0793746,0.1262248518001419,8.591887574099928,4.352449703600284,-0.4066666666666667,-0.19,-0.6311111111111111,0.08411660788477437,0.17461618996013023,0.12958101477941003
1592167961.0893745,0.14667070401211202,8.668102736022494,4.251897263977506,-0.4066666666666667,-0.19,-0.6311111111111111,0.07526732399225547,0.19463651066390258,0.11510868263001685
1592167961.0993745,0.15995944088760766,8.73,4.176639627258405,-0.41037788131710967,-0.18035084190884815,-0.6222041959500478,0.07235254282182381,0.21637317630117178,0.1141706723594085
1592167961.1093745,0.12605048164857943,8.76459374872983,4.17,-0.4122222222222222,-0.17555555555555555,-0.6177777777777778,0.05726101223278535,0.2248516904598275,0.11286584867199378
1592167961.1193745,0.014509617215768426,8.743024729983404,4.182997252224067,-0.4122222222222222,-0.17555555555555555,-0.6177777777777778,-0.01510066280907444,0.23267390617063685,0.0977958271414507
1592167961.1293745,-0.11912233609891003,8.658175532780218,4.239884496502359,-0.4122222222222222,-0.17555555555555555,-0.6177777777777778,-0.04912012610698353,0.2273160387144042,0.08815827488171354
1592167961.1393745,-0.3755040793142621,8.620336052876175,4.360336052876175,-0.4122222222222222,-0.17555555555555555,-0.6177777777777778,-0.09023181449017824,0.19294429677264685,0.08572186063144126
1592167961.1493745,-0.4016656708908525,8.612501493663721,4.364167164554574,-0.41935124332218765,-0.17555555555555555,-0.6210182419141257,-0.09962899422342752,0.14735528495919625,0.08962982067283441
1592167961.1593745,-0.407469850360989,8.64807284314121,4.322047755414835,-0.42444444444444446,-0.17555555555555555,-0.6233333333333333,-0.10696719299328142,0.11823016491447086,0.0897109654140392
1592167961.1693745,-0.25272027037648354,8.77159003379706,4.234546621603919,-0.42444444444444446,-0.17555555555555555,-0.6233333333333333,-0.14870127835135494,0.056473820580091476,0.0979769467804556
1592167961.1793745,-0.064807822720014,8.664807822720014,4.357091199439984,-0.42444444444444446,-0.17555555555555555,-0.6233333333333333,-0.19976096122204545,0.012426589262785736,0.10926269199846651
1592167961.1893744,-0.04609799291617473,8.543658008658008,4.46073199527745,-0.42444444444444446,-0.17555555555555555,-0.6233333333333333,-0.25490882310420626,-0.012185451303094019,0.08497812199125628
1592167961.1993744,-0.04069504614805047,8.508489357694481,4.563957430777925,-0.41211820598145704,-0.17966430170988468,-0.613746258973232,-0.27663933002288393,-0.022996414171890814,0.03201318155917175
1592167961.2093744,-0.01,8.52290302907095,4.604193941858101,-0.40444444444444444,-0.18222222222222223,-0.6077777777777778,-0.2602166963385523,-0.02762247877587742,0.009254875356110408
1592167961.2193744,-0.0466120953876056,8.603224190775212,4.541183872816526,-0.40444444444444444,-0.18222222222222223,-0.6077777777777778,-0.2469907435805939,-0.03315012757971519,-0.02475732756505568
1592167961.2293744,-0.1449714937286203,8.57502850627138,4.567670379791246,-0.40444444444444444,-0.18222222222222223,-0.6077777777777778,-0.2519416301006484,-0.032095837219748145,-0.04904088545264459
1592167961.2393744,-0.22422786327347446,8.452161982834271,4.706911453093897,-0.40444444444444444,-0.18222222222222223,-0.6077777777777778,-0.25293797825764336,-0.04009121238930004,-0.07737112077139992
1592167961.2493744,-0.38010714177315086,8.352894345463927,4.820842261814429,-0.4219125329232471,-0.1719823082863724,-0.6077777777777778,-0.25447929643439726,-0.05914039721054601,-0.12774245277234425
1592167961.2593744,-0.4808738840689048,8.36954650236808,4.83,-0.43666666666666665,-0.16333333333333333,-0.6077777777777778,-0.2473362216049554,-0.07128169284827925,-0.15055938244334535
1592167961.2693744,-0.2066037347600185,8.506226400535006,4.841169813261999,-0.43666666666666665,-0.16333333333333333,-0.6077777777777778,-0.20194364702129936,-0.11356166278336863,-0.11538519470929101
1592167961.2793744,-0.0735370085657808,8.380136613222051,4.8989791346365035,-0.43666666666666665,-0.16333333333333333,-0.6077777777777778,-0.2013731604073207,-0.1409916395878649,-0.10420766601038942
1592167961.2893744,-0.13475054018804383,8.33412509003134,4.952375270094022,-0.43666666666666665,-0.16333333333333333,-0.6077777777777778,-0.19670368765963392,-0.15259365983274342,-0.10882397647611536
1592167961.2993743,-0.1895268924302789,8.379053784860558,5.012959163346613,-0.42842197875166,-0.16333333333333333,-0.6077777777777778,-0.14466056768016122,-0.15622761126551185,-0.09923322395885238
1592167961.3093743,-0.05810409713839379,8.37859120925939,5.063252147979834,-0.41555555555555557,-0.16333333333333333,-0.6077777777777778,-0.07891540665887607,-0.15428900203035364,-0.07508708091685468
1592167961.3193743,-0.017757500498924536,8.299026764529792,5.003540146794687,-0.41555555555555557,-0.16333333333333333,-0.6077777777777778,-0.056581649328546244,-0.1442342820380828,-0.08853732871747073
1592167961.3293743,-0.12891735913216312,8.318195598553604,4.931082640867837,-0.41555555555555557,-0.16333333333333333,-0.6077777777777778,-0.038165102089389044,-0.12632556580743112,-0.11490550085562233
1592167961.3393743,-0.09271951362095171,8.39770372968549,4.9158307026774235,-0.41555555555555557,-0.16333333333333333,-0.6077777777777778,-0.002185105085526922,-0.1145603165034855,-0.10099590650661971
1592167961.3493743,0.01726940335715473,8.44,4.932730596642846,-0.42282495891271027,-0.15485236274998615,-0.5948543940317249,0.028659462232167567,-0.11166122426225687,-0.06089326711145165
1592167961.3593743,0.04600519626430728,8.423994803735692,4.882654542049949,-0.43555555555555553,-0.14,-0.5722222222222222,0.026688804203577943,-0.10886377844413422,-0.04203353509369879
1592167961.3693743,0.02038957241503407,8.41495130344812,4.780681751726309,-0.43555555555555553,-0.14,-0.5722222222222222,0.03320128325901318,-0.09986944826599618,-0.06468664079759467
1592167961.3793743,-0.010692223230056811,8.438615553539886,4.784462214159546,-0.43555555555555553,-0.14,-0.5722222222222222,0.047467985544450496,-0.08873484258606548,-0.08980476495403134
1592167961.3893743,0.02687527008446278,8.440803378511099,4.935268513062267,-0.43555555555555553,-0.14,-0.5722222222222222,0.04851267958970999,-0.08248433415693011,-0.08183167837938458
1592167961.3993742,0.0734940714073389,8.399517785777984,5.050482214222017,-0.4336144047737006,-0.14232938093822595,-0.5753280634731901,0.034420238151723306,-0.08028773242828781,-0.05254355016045633
1592167961.4093742,-0.06813994075366843,8.446407559648197,4.906535237789056,-0.43,-0.14666666666666667,-0.5811111111111111,0.03558191968741924,-0.07020504453177619,-0.03555829800445844
1592167961.4193742,-0.154107771459518,8.528630742846827,4.698765457171224,-0.43,-0.14666666666666667,-0.5811111111111111,0.05770995997334125,-0.057171289045365975,-0.03223154383313091
1592167961.4293742,-0.12404488698383961,8.530545778866378,4.630272889433188,-0.43,-0.14666666666666667,-0.5811111111111111,0.0917435706397372,-0.04699502650552967,-0.016010535872259757
1592167961.4393742,-0.16,8.51,4.62,-0.43,-0.14666666666666667,-0.5811111111111111,0.10799224746714915,-0.04363323129985824,-0.008726646259971648
1592167961.4493742,-0.16730604190810286,8.547866382685502,4.687413787703198,-0.42672294087553897,-0.14292145623871122,-0.572216236344717,0.06670641895838994,-0.0558098643764228,-0.017741281139784265
1592167961.4593742,-0.035913586471706165,8.491362137842765,4.782383741224838,-0.4222222222222222,-0.13777777777777778,-0.56,0.05274492394510313,-0.06642923809061699,-0.018966316234935277
1592167961.4693742,0.08427725058994828,8.482950243510569,4.82433649646031,-0.4222222222222222,-0.13777777777777778,-0.56,0.028992318188520303,-0.0590690044376244,0.004665756607966716
1592167961.4793742,0.08137852623995318,8.411378526239954,4.781378526239953,-0.4222222222222222,-0.13777777777777778,-0.56,0.03152193238927767,-0.04216522558079289,-0.00790083011092453
1592167961.4893742,0.010787230684239611,8.439475179543841,4.756841606818719,-0.4222222222222222,-0.13777777777777778,-0.56,0.05293443399913076,-0.014711386773371084,-0.043490108722642515
1592167961.4993742,-0.14232034375463032,8.52,4.712370721588384,-0.42809864835942774,-0.14202186332131508,-0.5472677433693881,0.08437088792666506,0.017959512998648126,-0.07378308942777703
1592167961.5093741,-0.22,8.52,4.67,-0.44222222222222224,-0.15222222222222223,-0.5166666666666667,0.10362892433716332,0.03490658503988659,-0.09381144729469522
1592167961.5193741,-0.2767724343083788,8.55379276152702,4.5463014377788795,-0.44222222222222224,-0.15222222222222223,-0.5166666666666667,0.10907280269938904,0.03603851802340919,-0.058190441102762114
1592167961.5293741,-0.002656625686158872,8.597213854738465,4.454557229052307,-0.44222222222222224,-0.15222222222222223,-0.5166666666666667,0.11086422087719192,0.016444930979339065,0.01871136290818519
1592167961.539374,0.041020959554609465,8.57,4.474694612739479,-0.44222222222222224,-0.15222222222222223,-0.5166666666666667,0.09706107631482916,0.008325912862144434,0.044567948425255965
1592167961.549374,0.04256493711685521,8.531642861657081,4.53138311318966,-0.43796031796189794,-0.14679798043635495,-0.5193787875596003,0.06570768093364229,0.014102174595291745,0.0326243406453631
1592167961.559374,0.01,8.46,4.59,-0.43,-0.13666666666666666,-0.5244444444444445,0.04581489286485115,0.02617993877991494,0.028361600344907853
1592167961.569374,0.17843063468928053,8.58,4.615867497018683,-0.43,-0.13666666666666666,-0.5244444444444445,0.000730381093164317,0.053585764958619525,0.07933298488380572
1592167961.579374,0.07054870557261958,8.52951206669592,4.694695261079421,-0.43,-0.13666666666666666,-0.5244444444444445,-0.02272788295368334,0.08662132162991049,0.08279668893615136
1592167961.589374,-0.14951482479784367,8.469973045822103,4.7633513027852645,-0.43,-0.13666666666666666,-0.5244444444444445,-0.032371114029717374,0.12178101501336894,0.057840493674582966
1592167961.599374,-0.4129799593377868,8.54197502178333,4.736139994191112,-0.42807499919321007,-0.1389766676348146,-0.5194394423467906,-0.0027886995490949175,0.14252085948248788,0.06199137793389095
1592167961.609374,-0.23,8.64,4.71,-0.42444444444444446,-0.14333333333333334,-0.51,0.039269908169872414,0.14180800172453928,0.10690141668465267
1592167961.619374,-0.006961895218273851,8.597466533055835,4.664809476091369,-0.42444444444444446,-0.14333333333333334,-0.51,0.024688052017903552,0.149761741443795,0.09198815471104815
1592167961.629374,-0.07648769522560704,8.48261643290327,4.6404301402580375,-0.42444444444444446,-0.14333333333333334,-0.51,0.0015131199933287303,0.17595220314591006,0.057055530268363984
1592167961.639374,-0.2005657513453843,8.499973782254726,4.665552642472747,-0.42444444444444446,-0.14333333333333334,-0.51,0.028297026534270214,0.1915010862702268,0.07016915390764736
1592167961.649374,-0.16306293533871663,8.626734266165322,4.693062935338716,-0.4200901326648722,-0.1413376071010294,-0.5029242433581952,0.044968545884682076,0.1932551666515881,0.11119837416202655
1592167961.659374,-0.3179721310203976,8.537327370026627,4.7370507484294615,-0.3977777777777778,-0.13111111111111112,-0.4666666666666667,0.026531826955091146,0.1920817334470026,0.11969984737009247
1592167961.669374,-0.46,8.42,4.7,-0.3977777777777778,-0.13111111111111112,-0.4666666666666667,0.02181661564992912,0.18871372537188688,0.10690141668465267
1592167961.679374,-0.5648552783917482,8.550289443216503,4.596856909798968,-0.3977777777777778,-0.13111111111111112,-0.4666666666666667,0.07102940449580103,0.1678002799514608,0.0980186832287223
1592167961.689374,-0.45559835603191234,8.64079941977597,4.606000483520026,-0.3977777777777778,-0.13111111111111112,-0.4666666666666667,0.08399370653296306,0.143465916831146,0.07692497537959817
1592167961.699374,-0.3619245182012848,8.567113222698072,4.618075481798715,-0.40216268141803474,-0.12794423625981444,-0.463743397573162,0.06592816573669466,0.13236387728420665,0.046800757462575795
1592167961.709374,-0.42829603500011454,8.49388986874957,4.513666078750258,-0.4177777777777778,-0.11666666666666667,-0.4533333333333333,0.07497255956178359,0.1259787495273374,0.050840979961800314
1592167961.719374,-0.3893510494896977,8.62396013864818,4.431364336606971,-0.4177777777777778,-0.11666666666666667,-0.4533333333333333,0.08894535053137503,0.11439565312353696,0.07438886176764538
1592167961.729374,-0.34615193116449944,8.69,4.3883088413013,-0.4177777777777778,-0.11666666666666667,-0.4533333333333333,0.0655487425427961,0.10708589348131552,0.0839939702522271
1592167961.739374,-0.32651517231909927,8.6475324140366,4.428874482650399,-0.4177777777777778,-0.11666666666666667,-0.4533333333333333,0.028031041023615852,0.10394767261920662,0.07241273274542984
1592167961.749374,-0.39715085872389244,8.528159732766474,4.48495562978709,-0.41755358354609295,-0.11610618108745449,-0.4533333333333333,0.014381542187088864,0.09979649648020543,0.03050454159464665
1592167961.759374,-0.5640523656407901,8.672434542949013,4.457565457050988,-0.41555555555555557,-0.1111111111111111,-0.4533333333333333,-0.015152275928588116,0.07320501745362482,-0.01792389806469326
1592167961.769374,-0.6055067804668222,8.608986439066356,4.462087795159721,-0.41555555555555557,-0.1111111111111111,-0.4533333333333333,-0.050620465381378967,0.04179649363378381,-0.03930455614224892
1592167961.779374,-0.5881147931247918,8.559115602532971,4.421846402894825,-0.41555555555555557,-0.1111111111111111,-0.4533333333333333,-0.08072147790473774,0.016257523224089982,-0.04283181891166076
1592167961.7893739,-0.4299170643924576,8.603305688130819,4.50900868476645,-0.41555555555555557,-0.1111111111111111,-0.4533333333333333,-0.08291218634109788,0.005580383372408127,-0.02885747131324401
1592167961.7993739,-0.3695988196677829,8.575569775537947,4.61516859520573,-0.4166220910741981,-0.11152131707981977,-0.4538255804957837,-0.08965297365750008,0.01038128331773541,-0.036809833576012495
1592167961.8093739,-0.4379195129885218,8.477684604303175,4.670234908685348,-0.43,-0.11666666666666667,-0.46,-0.060431310599895496,0.018873567479931477,-0.004366998265063246
1592167961.8193738,-0.3359744165066735,8.434808123800051,4.617140709213296,-0.43,-0.11666666666666667,-0.46,-0.00465962962020941,0.024097592751456138,0.0367205318401662
1592167961.8293738,-0.33639915769770706,8.588963032288254,4.523678989237249,-0.43,-0.11666666666666667,-0.46,0.035211833897131735,0.030342604174477577,0.056531067462613244
1592167961.8393738,-0.3313993273022501,8.690693961184568,4.51139932730225,-0.43,-0.11666666666666667,-0.46,0.008318354362471476,0.03340995053031319,0.04561136895870686
1592167961.8493738,-0.44933869583187613,8.573717610402824,4.633637172924681,-0.4288243481455576,-0.11633601458260473,-0.4593019567114248,-0.0651076812899104,0.035925278728064766,0.02818125760911217
1592167961.8593738,-0.42476646543506874,8.39,4.7583173709772595,-0.39444444444444443,-0.10666666666666667,-0.4388888888888889,-0.10263018856875805,0.03609931449926461,0.024049226553362814
1592167961.8693738,-0.39190844647362727,8.39678433257239,4.782862669710441,-0.39444444444444443,-0.10666666666666667,-0.4388888888888889,-0.03945523013628476,0.04920290344515229,0.0314644195539832
1592167961.8793738,-0.33,8.42,4.701499043615841,-0.39444444444444443,-0.10666666666666667,-0.4388888888888889,0.024903228598016067,0.07801571680257163,0.047821854584119666
1592167961.8893738,-0.3353852662346403,8.42538526623464,4.73820491125512,-0.39444444444444443,-0.10666666666666667,-0.4388888888888889,0.04665449044384089,0.10169941893309169,0.05708711860311939
1592167961.8993738,-0.3595817548987558,8.449581754898755,4.730139415033748,-0.39444444444444443,-0.10666666666666667,-0.4388888888888889,0.06513048270804152,0.11753598373097796,0.06852463762381503
1592167961.9093738,-0.41639842847238273,8.57552992835683,4.681800785763809,-0.39444444444444443,-0.11333333333333333,-0.42444444444444446,0.08992877541728803,0.1217732192085794,0.07595832634372825
1592167961.9193738,-0.45053845807236514,8.620326904879917,4.617423061325644,-0.39444444444444443,-0.11333333333333333,-0.42444444444444446,0.06264724791463369,0.11677763039116275,0.06502819634519826
1592167961.9293737,-0.42566632279846195,8.469443871330771,4.485666322798462,-0.39444444444444443,-0.11333333333333333,-0.42444444444444446,0.032082782912037984,0.11221020151320665,0.04357256707271575
1592167961.9393737,-0.4426965286890135,8.524606942621972,4.512921388524394,-0.39444444444444443,-0.11333333333333333,-0.42444444444444446,0.010650857186390155,0.10387401318111321,0.05261732819840429
1592167961.9493737,-0.40100202791363476,8.60799594417273,4.529599188834546,-0.39444444444444443,-0.11333333333333333,-0.42444444444444446,-0.015728496859441027,0.08659098811660314,0.07899668224423548
1592167961.9593737,-0.34,8.56,4.68,-0.4122222222222222,-0.09333333333333334,-0.4122222222222222,-0.05999569303730508,0.074176493209759,0.08290313946973066
1592167961.9693737,-0.35782547611614113,8.49,4.6209381829534815,-0.4122222222222222,-0.09333333333333334,-0.4122222222222222,-0.11402553273949256,0.07635815477475191,0.07264377889922972
1592167961.9793737,-0.5164861783984042,8.488310772299801,4.633378455400399,-0.4122222222222222,-0.09333333333333334,-0.4122222222222222,-0.10447642431458735,0.07230429931190066,0.08760546259068609
1592167961.9893737,-0.45390761501256044,8.490420306700162,4.644789846649919,-0.4122222222222222,-0.09333333333333334,-0.4122222222222222,-0.08266481803560344,0.04880775527495803,0.07470352427208322
1592167961.9993737,-0.4774967192831165,8.553324584754979,4.613337707622511,-0.4122222222222222,-0.09333333333333334,-0.4122222222222222,-0.08781116224957167,0.027364654383423753,0.05154497530922621
1592167962.0093737,-0.5,8.57,4.59,-0.38555555555555554,-0.09333333333333334,-0.4122222222222222,-0.0916297857297023,-0.007635815477475192,-0.001090830782496456
1592167962.0193737,-0.4649424976322554,8.502528751183872,4.635664997970505,-0.38555555555555554,-0.09333333333333334,-0.4122222222222222,-0.07081264323077656,-0.03468269242764912,-0.04719411268117227
1592167962.0293736,-0.3330131045985228,8.57,4.49890826781034,-0.38555555555555554,-0.09333333333333334,-0.4122222222222222,-0.03762651454639729,-0.059128746371092264,-0.08908849048499998
1592167962.0393736,-0.3656887099865823,8.573620471535365,4.3775863523097565,-0.38555555555555554,-0.09333333333333334,-0.4122222222222222,-0.034548871161662525,-0.06812040645145521,-0.1171515042099625
1592167962.0493736,-0.4702045236726088,8.59773950546291,4.36150699635806,-0.38555555555555554,-0.09333333333333334,-0.4122222222222222,-0.07576753378350834,-0.07864432031235202,-0.11276654010125547
1592167962.0593736,-0.4451709830689955,8.606927212295613,4.479804590778291,-0.3977777777777778,-0.08,-0.43333333333333335,-0.17739562296734163,-0.11179683280624773,-0.03274623931431608
1592167962.0693736,-0.27,8.343341576885406,4.673316846229187,-0.3977777777777778,-0.08,-0.43333333333333335,-0.22130905259416858,-0.12508103049422442,-0.01163732681070056
1592167962.0793736,-0.2541737093982283,8.38726504429284,4.62,-0.3977777777777778,-0.08,-0.43333333333333335,-0.18789013202577026,-0.12138832923227821,-0.01980744774191788
1592167962.0893736,-0.12043118259537561,8.517526133846696,4.606236933076652,-0.3977777777777778,-0.08,-0.43333333333333335,-0.15747824237547614,-0.11259027003519553,-0.03381575425739013
1592167962.0993736,0.059187436301306406,8.644593718150654,4.549010469748912,-0.3973773124556039,-0.08,-0.43032984341702957,-0.19522010195430065,-0.09095141491416295,-0.03433996213828963
1592167962.1093736,-0.11,8.56,4.69,-0.39111111111111113,-0.08,-0.38333333333333336,-0.26289021858164585,-0.06326818538479445,-0.042542400517361786
1592167962.1193736,-0.12630935971242466,8.434479310251628,4.766845320143787,-0.39111111111111113,-0.08,-0.38333333333333336,-0.3033094217476878,-0.03562572729904639,-0.06013685625216475
1592167962.1293736,-0.2,8.37,4.73,-0.39111111111111113,-0.08,-0.38333333333333336,-0.2912518189265538,-0.01854412330243975,-0.08726646259971647
1592167962.1393735,-0.7644000441062961,8.300550005513287,5.01550005513287,-0.39111111111111113,-0.08,-0.38333333333333336,-0.267853504656068,-0.02119485774047045,-0.12207485001573823
1592167962.1493735,-0.8383980593229683,8.309799757415371,5.1079975741537105,-0.39111111111111113,-0.08,-0.38333333333333336,-0.27794341876131634,-0.04742863441411628,-0.08373317641579434
1592167962.1593735,-0.46,8.32,5.1,-0.38333333333333336,-0.057777777777777775,-0.37666666666666665,-0.25198191075668136,-0.09599310885968812,-0.019634954084936207
1592167962.1693735,-0.3573773370519574,8.356455169920462,5.0361674930275795,-0.38333333333333336,-0.057777777777777775,-0.37666666666666665,-0.19153677538039446,-0.10670023102592449,-0.044654849934007576
1592167962.1793735,-0.43887098530212304,8.415564507348938,4.914784975503538,-0.38333333333333336,-0.057777777777777775,-0.37666666666666665,-0.15360773860267948,-0.10552615043954555,-0.0664175213336503
1592167962.1893735,-0.4905507934328475,8.38559365253722,5.007160314627018,-0.38333333333333336,-0.057777777777777775,-0.37666666666666665,-0.1461713248545251,-0.11059448473408494,-0.07199483164476608
1592167962.1993735,-0.4987779761087464,8.31977619113003,5.114113689413703,-0.38333333333333336,-0.057777777777777775,-0.37666666666666665,-0.1461713248545251,-0.11687660961534937,-0.07199483164476608
1592167962.2093735,-0.6,8.3,5.11,-0.39111111111111113,-0.06555555555555556,-0.3622222222222222,-0.1112647398146385,-0.12435470920459597,-0.08944812416470939
1592167962.2193735,-0.6948943396226415,8.366426037735849,5.015105660377358,-0.39111111111111113,-0.06555555555555556,-0.3622222222222222,-0.07607009312132133,-0.13263580254420002,-0.10808058417881847
1592167962.2293735,-0.7589690041249263,8.358969004124926,4.913092987625221,-0.39111111111111113,-0.06555555555555556,-0.3622222222222222,-0.07627950182569697,-0.1518842184290996,-0.12010385027832587
1592167962.2393734,-0.7299512789281364,8.337655298416564,4.972679658952496,-0.39111111111111113,-0.06555555555555556,-0.3622222222222222,-0.09490227807719166,-0.17722612129702164,-0.12257496762949975
1592167962.2493734,-0.4827527405602923,8.279975639464068,5.038599269183922,-0.39111111111111113,-0.06555555555555556,-0.3622222222222222,-0.09490227807719166,-0.18980987079887784,-0.13246219938095818
1592167962.2593734,-0.28,8.28,5.0,-0.37666666666666665,-0.056666666666666664,-0.36444444444444446,-0.07963064712224129,-0.1908953869368798,-0.1407171709420428
1592167962.2693734,-0.2439125705702595,8.367825918060806,5.009565183612161,-0.37666666666666665,-0.056666666666666664,-0.36444444444444446,-0.07948852328977793,-0.1784219372288305,-0.12350094922353709
1592167962.2793734,-0.12297623253951429,8.302305137446117,5.017694862553883,-0.37666666666666665,-0.056666666666666664,-0.36444444444444446,-0.1300166587625697,-0.1663150917714165,-0.10369030974548273
1592167962.2893734,-0.22173711549230501,8.170868557746152,5.156079904223068,-0.37666666666666665,-0.056666666666666664,-0.36444444444444446,-0.17093008934562168,-0.15248071099576985,-0.09409820980793032
1592167962.2993734,-0.23793538919033733,8.178967694595169,5.2127738621661805,-0.37666666666666665,-0.056666666666666664,-0.36444444444444446,-0.1576779076657844,-0.1401120080945884,-0.07642863423481396
1592167962.3093734,-0.2444590513412684,8.2,5.25133771540238,-0.38333333333333336,-0.042222222222222223,-0.3333333333333333,-0.10920109493938451,-0.11817094472254552,-0.05747354653984702
1592167962.3193734,-0.3375994848108012,8.2,5.279279845443241,-0.38333333333333336,-0.042222222222222223,-0.3333333333333333,-0.0888810045546586,-0.10293087693400112,-0.05036151490519295
1592167962.3293734,-0.3102432274978153,8.219837848334791,5.160972909991261,-0.38333333333333336,-0.042222222222222223,-0.3333333333333333,-0.06779954454123241,-0.08847226540031176,-0.04368629530821155
1592167962.3393734,-0.2413593193976386,8.229805811514623,5.1501941884853775,-0.38333333333333336,-0.042222222222222223,-0.3333333333333333,-0.04302960210550952,-0.076591164229953,-0.029727805938096506
1592167962.3493733,-0.22275173556492375,8.14375867782462,5.279361983263072,-0.38333333333333336,-0.042222222222222223,-0.3333333333333333,-0.027490450285025777,-0.05942471076337391,-0.016281974674110307
1592167962.3593733,-0.20153794430661506,8.05205059240882,5.418462055693385,-0.37666666666666665,-0.02666666666666667,-0.3422222222222222,0.013731963355783423,-0.03082360155128338,0.01432023651699943
1592167962.3693733,-0.23185486789721318,8.094869028230184,5.384899113282663,-0.37666666666666665,-0.02666666666666667,-0.3422222222222222,0.08751609920455082,0.00491974355491559,0.03731587314235077
1592167962.3793733,-0.30775606225117624,8.294109663409339,5.176170828809266,-0.37666666666666665,-0.02666666666666667,-0.3422222222222222,0.1423680246941271,0.0276884673430416,0.04663035105567505
1592167962.3893733,-0.44,8.68,5.01,-0.37666666666666665,-0.02666666666666667,-0.3422222222222222,0.09599310885968812,0.0370882466048795,0.042542400517361786
1592167962.3993733,-0.4323168279970216,8.480237527922561,5.086831720029784,-0.37666666666666665,-0.02666666666666667,-0.3422222222222222,-0.034751123378107124,0.029545310129622082,0.03918998430613626
1592167962.4093733,-0.39,7.95,5.36,-0.38333333333333336,-0.04,-0.31555555555555553,-0.1908953869368798,0.014180800172453926,0.04799655442984406
1592167962.4193733,-0.4079524937102264,7.716617581767057,5.476691209116472,-0.38333333333333336,-0.04,-0.31555555555555553,-0.055771770881225674,0.008305860343947227,0.023517638477732812
1592167962.4293733,-0.40048641297748855,8.413032613710872,5.128483693144564,-0.38333333333333336,-0.04,-0.31555555555555553,0.19313781651020334,0.009711358192698055,-2.964228479597833e-05
1592167962.4393733,-0.4470746310876432,8.572394040827872,5.081755221347414,-0.38333333333333336,-0.04,-0.31555555555555553,0.24204851590818113,0.002628413109358888,-0.005198867315701722
1592167962.4493732,-0.3898996975696786,8.373941820238898,5.131514544940275,-0.38333333333333336,-0.04,-0.31555555555555553,0.13851471853774122,-0.007183946996198674,-0.006390714768601438
1592167962.4593732,-0.5,8.2,5.15,-0.37777777777777777,-0.03111111111111111,-0.31555555555555553,0.0916297857297023,-0.004363323129985824,-0.002181661564992912
1592167962.4693732,-0.5570301349602513,8.346648918469219,5.101117027176928,-0.37777777777777777,-0.03111111111111111,-0.31555555555555553,0.13695437950074585,0.008078722218928087,-0.003070379089915334
1592167962.4793732,-0.5522638428660616,8.397736157133938,4.956978821495462,-0.37777777777777777,-0.03111111111111111,-0.31555555555555553,0.13758858255457446,0.020581880907411643,-0.00230513503924466
1592167962.4893732,-0.615027198323186,8.381420800479091,4.986447998802276,-0.37777777777777777,-0.03111111111111111,-0.31555555555555553,0.08163358838286569,0.0268833063378172,0.00288502912289517
1592167962.4993732,-0.7099516834113045,8.162616765089348,5.102439604264131,-0.37777777777777777,-0.03111111111111111,-0.31555555555555553,0.04637699824314655,0.026453085685724506,0.011449331114358268
1592167962.5093732,-0.7496376255463979,8.061087123360807,5.111087123360806,-0.37777777777777777,-0.030040263828178006,-0.32090979197022107,0.0822546977335975,0.011461712717255797,0.003667781556268823
1592167962.5193732,-0.6743388888888889,8.31535625,5.0059659722222225,-0.37777777777777777,-0.03,-0.3211111111111111,0.1995408269052656,0.0005916241952289795,0.004304160710462926
1592167962.5293732,-0.5319281249221727,8.527245535825466,4.674544865887978,-0.37777777777777777,-0.03,-0.3211111111111111,0.23736543570915214,-0.008606460087537102,0.0151213982394072
1592167962.5393732,-0.53,8.471545052254967,4.67,-0.37777777777777777,-0.03,-0.3211111111111111,0.18041309983367357,-0.02041679659804743,0.003581480616874603
1592167962.5493731,-0.53,8.478122042390742,4.678122042390743,-0.37777777777777777,-0.03,-0.3211111111111111,0.14079922074619808,-0.02338371702440155,-0.006473258894729883
1592167962.5593731,-0.5,8.51,4.68,-0.37333333333333335,-0.022222222222222223,-0.33,0.09272061651219875,-0.0272707695624114,-0.01090830782496456
1592167962.5693731,-0.303383587193037,8.49487566055331,4.6195026422132415,-0.37333333333333335,-0.022222222222222223,-0.33,0.05477499793543791,-0.03469491232742982,-0.006783784066620989
1592167962.5793731,-0.12363745106568072,8.4415156046107,4.59030312092214,-0.37333333333333335,-0.022222222222222223,-0.33,-0.003999277928650284,-0.03391495034719686,0.016758919891296208
1592167962.589373,-0.04073195000606723,8.390457468753793,4.718810581240141,-0.37333333333333335,-0.022222222222222223,-0.33,-0.025990310800421627,-0.027330652082251394,0.034746898320313274
1592167962.599373,0.02516693730444771,8.40303338746089,4.85685056833934,-0.37333333333333335,-0.022222222222222223,-0.33,-0.02120391169502537,-0.015186132356251011,0.03917175111264908
1592167962.609373,0.08,8.41,4.96,-0.36,-0.03666666666666667,-0.3088888888888889,-0.0032724923474893677,0.014180800172453926,0.03490658503988659
1592167962.619373,0.06302251304821999,8.41848874347589,4.90906753914466,-0.36,-0.03666666666666667,-0.3088888888888889,-0.010680318498062792,0.03547830035535252,0.03212865023342156
1592167962.629373,0.04135948480619016,8.410679742403095,4.732235363255711,-0.36,-0.03666666666666667,-0.3088888888888889,-0.02928273921621158,0.056553508778622974,0.02858404552614712
1592167962.639373,-0.011130741280650988,8.45260895106721,4.788174321707534,-0.36,-0.03666666666666667,-0.3088888888888889,-0.037979926779340284,0.07268736121119121,0.024643267910188095
1592167962.649373,-0.03410077426084166,8.431798451478317,4.89165503269547,-0.36,-0.03666666666666667,-0.3088888888888889,-0.061573168169974116,0.08218902537159738,0.02322919928388404
1592167962.659373,-0.05642475955015527,8.321451442699068,5.036760937076009,-0.37186232634177885,-0.03849163995001725,-0.3088888888888889,-0.09419562416840525,0.08598063270034416,0.022011614766804972
1592167962.669373,-0.085164085245138,8.266447886339815,5.110328170490276,-0.37444444444444447,-0.03888888888888889,-0.3088888888888889,-0.09011568160759036,0.08068568005746773,0.022731607609887832
1592167962.679373,-0.1152848169807234,8.30214136163454,5.077858638365461,-0.37444444444444447,-0.03888888888888889,-0.3088888888888889,-0.052501399682142076,0.06583991877606019,0.023826828322170982
1592167962.689373,-0.111597181026505,8.31,5.08680563794699,-0.37444444444444447,-0.03888888888888889,-0.3088888888888889,-0.023816364234370453,0.04676928891193392,0.028581304012938843
1592167962.699373,-0.08861316380863685,8.30287105460288,5.068613163808637,-0.37444444444444447,-0.03888888888888889,-0.3088888888888889,-0.014191422924794963,0.028080285128026114,0.028674783818812704
1592167962.709373,0.010250908768507844,8.349227768419185,5.027181487720542,-0.37444444444444447,-0.027037759454640382,-0.3088888888888889,0.0023206387646070095,0.012866754792386604,0.03194154468792486
1592167962.719373,0.05497423757136889,8.376649491714247,5.003350508285754,-0.37444444444444447,-0.024444444444444446,-0.3088888888888889,0.016351220757373764,0.01090830782496456,0.02818447895618889
1592167962.729373,0.06841961060058677,8.346321557597653,4.932643115195305,-0.37444444444444447,-0.024444444444444446,-0.3088888888888889,0.01303350105058764,0.012745181908915262,0.019923273226608584
1592167962.739373,0.04606688435986939,8.324044589573246,4.935955410426754,-0.37444444444444447,-0.024444444444444446,-0.3088888888888889,0.013739603891547804,0.017441132600174443,0.0072310989558756165
1592167962.749373,0.007089656549520769,8.313417931309905,5.038731030351438,-0.37444444444444447,-0.024444444444444446,-0.3088888888888889,0.019924738684184068,0.020698100244338553,0.001491353874120754
1592167962.759373,-0.026395997754515732,8.301802001122743,5.122791995509031,-0.3908404421989602,-0.024444444444444446,-0.31435422147372744,0.032744338915628265,0.022710878602947546,-0.004471314765092133
1592167962.769373,-0.0635149037799109,8.308378725944978,5.213787259449777,-0.39444444444444443,-0.024444444444444446,-0.31555555555555553,0.04039044834721664,0.021079491996648894,-0.00545415391248228
1592167962.779373,-0.10177392175615976,8.230565195609602,5.174395636926721,-0.39444444444444443,-0.024444444444444446,-0.31555555555555553,0.0518495613145412,0.018126286972513693,-0.004587654614175957
1592167962.789373,-0.10225217166129147,8.248739141693543,5.129008686645166,-0.39444444444444443,-0.024444444444444446,-0.31555555555555553,0.08158656200278008,0.010692036800453974,-0.0009826952702411632
1592167962.799373,-0.08095828105395234,8.298083437892096,5.06922208281054,-0.39444444444444443,-0.024444444444444446,-0.31555555555555553,0.12129744037096805,0.0018028818673067205,0.0027695057570659705
1592167962.809373,-0.0610369886188865,8.382741079667795,4.968295908951092,-0.36556362999418984,-0.04237046720667145,-0.3095802146348132,0.17091315205837734,-0.010003364539700658,0.004363323129985824
1592167962.819373,-0.009276438635206254,8.455216007469021,4.786090646749279,-0.3622222222222222,-0.044444444444444446,-0.3088888888888889,0.1784851267804733,-0.020393591619461412,0.005944203762401966
1592167962.829373,0.05210488812882998,8.488420977625767,4.63579022374234,-0.3622222222222222,-0.044444444444444446,-0.3088888888888889,0.16712687285385597,-0.032265552666531555,0.00011488156594910686
1592167962.8393729,0.07664976295492607,8.523299525909852,4.64497464443239,-0.3622222222222222,-0.044444444444444446,-0.3088888888888889,0.14836958159971259,-0.043804894931266505,-0.008355660363497453
1592167962.8493729,0.03815900084063889,8.467238501260958,4.76854949761819,-0.3622222222222222,-0.044444444444444446,-0.3088888888888889,0.12454184163798089,-0.051139728681085746,-0.020467148674937305
1592167962.8593729,-0.0049375522980134486,8.423374965134657,4.811687482567328,-0.3770000309914154,-0.027819409579102145,-0.33105560204267864,0.09023892323695526,-0.058891238279684004,-0.03687692286169342
1592167962.8693728,-0.03286360269754025,8.425715900674385,4.7814204966280744,-0.38,-0.024444444444444446,-0.33555555555555555,0.08259076887259897,-0.0656072654020854,-0.0442579724941216
1592167962.8793728,-0.10889639425363905,8.466810246408524,4.664293359337837,-0.38,-0.024444444444444446,-0.33555555555555555,0.0855399278919815,-0.07463162006701694,-0.049602704425591976
1592167962.8893728,-0.07885157378679866,8.48,4.710376098335031,-0.38,-0.024444444444444446,-0.33555555555555555,0.08328115704331586,-0.08751701033267364,-0.05177233821739722
1592167962.8993728,-0.03048806857672407,8.450488068576725,4.793121476561897,-0.38,-0.024444444444444446,-0.33555555555555555,0.06764759845836331,-0.09806829037918907,-0.04978447570003518
1592167962.9093728,-0.003074737616150812,8.402298950464603,4.885402099070793,-0.3761526320089727,-0.03829496921214282,-0.31708818919862436,0.04950431314862794,-0.10933695400131759,-0.04648569655281057
1592167962.9193728,0.031031819366455802,8.405515909683228,4.925515909683227,-0.37444444444444447,-0.044444444444444446,-0.3088888888888889,0.05004620084007611,-0.10981678581199998,-0.04496863126980616
1592167962.9293728,0.06151088348271447,8.45302176696543,4.829615877080665,-0.37444444444444447,-0.044444444444444446,-0.3088888888888889,0.06065494032198923,-0.0989150269096018,-0.04785269326390663
1592167962.9393728,0.028458137212951082,8.442305424808634,4.810770931393525,-0.37444444444444447,-0.044444444444444446,-0.3088888888888889,0.06813527805815398,-0.08508399716094765,-0.04984263759051313
1592167962.9493728,-0.002053781093493485,8.423973109453254,4.832053781093493,-0.37444444444444447,-0.044444444444444446,-0.3088888888888889,0.070470601852886,-0.07020256953493256,-0.049520784221724144
1592167962.9593728,-0.05194046306504962,8.482910694597575,4.770099228224917,-0.36978439299277227,-0.040561068234717626,-0.2886953325983095,0.08157898876242238,-0.05564319402754248,-0.04908738521234052
1592167962.9693727,-0.09194097151055544,8.52462731434037,4.696118056978889,-0.36777777777777776,-0.03888888888888889,-0.28,0.09654698290324305,-0.04517971142335239,-0.044300607788022195
1592167962.9793727,-0.09290942446550791,8.515818848931016,4.623275395724063,-0.36777777777777776,-0.03888888888888889,-0.28,0.09030142851344164,-0.035581244264585574,-0.03944855329390569
1592167962.9893727,-0.11788261638185032,8.496058691809075,4.62788261638185,-0.36777777777777776,-0.03888888888888889,-0.28,0.0671661216635561,-0.030443782256454006,-0.03133565373205694
1592167962.9993727,-0.061807313642756684,8.501365447726208,4.668413619315518,-0.36777777777777776,-0.03888888888888889,-0.28,0.05022641608918779,-0.026352986068254012,-0.02402237726209744
1592167963.0093727,-0.01,8.503375400641026,4.69,-0.35452857905982904,-0.04698562143874644,-0.307234464031339,0.042187967919363134,-0.02038511876368427,-0.0156673630356998
1592167963.0193727,-0.002899649811522762,8.507100350188477,4.682899649811523,-0.3477777777777778,-0.051111111111111114,-0.3211111111111111,0.03602987334839849,-0.019318651357649298,-0.009991857169119277
1592167963.0293727,-0.03398342100319369,8.482813263197446,4.659609947398084,-0.3477777777777778,-0.051111111111111114,-0.3211111111111111,0.024177512208936866,-0.018152147615943397,-0.010950855963460864
