time,acc_x,acc_y,acc_z,mag_x,mag_y,mag_z,gyr_x,gyr_y,gyr_z
1592167973.289363,-0.13960795220935013,8.557794035842988,4.526617892471037,-0.38,-0.021111111111111112,-0.3211111111111111,-0.008967279620726966,-0.025768242299859384,0.010015344623398363
1592167973.299363,-0.13802011941100809,8.561979880588993,4.55,-0.38,-0.021111111111111112,-0.3211111111111111,-0.003936866909771233,-0.03402623900839076,0.016572946488447468
1592167973.309363,-0.10927725468324531,8.604537908861257,4.577630327089006,-0.37155740005613697,-0.02571616562594549,-0.30652843848080225,0.009795503678718462,-0.040855748019771224,0.02340245549982792
1592167973.3193629,-0.05657614349775785,8.61276269058296,4.579144035874439,-0.36777777777777776,-0.027777777777777776,-0.3,0.016154470146093704,-0.04372660250154565,0.02864171394997008
1592167973.3293629,0.07081786146320938,8.625408930731606,4.471068742439384,-0.36777777777777776,-0.027777777777777776,-0.3,0.022406638464171666,-0.039578603011571366,0.03906411160873978
1592167973.3393629,0.10674483421432004,8.62651033157136,4.42,-0.36777777777777776,-0.027777777777777776,-0.3,0.02546977177168515,-0.018339481141225616,0.03924432789972065
1592167973.3493629,0.036550530274389634,8.62,4.499099428935272,-0.36777777777777776,-0.027777777777777776,-0.3,0.025563623837340038,0.008055656292204064,0.03571381761707635
1592167973.3593628,-0.07653965274519005,8.588589081808228,4.622821836383545,-0.36777777777777776,-0.03266392060760902,-0.3090742652554009,0.017551028774004607,0.036892774096756877,0.03244519439858761
1592167973.3693628,-0.17061351548912357,8.547269931691577,4.667576689436141,-0.36777777777777776,-0.035555555555555556,-0.31444444444444447,0.0180489010297721,0.05242680171793732,0.038246001545483396
1592167973.3793628,-0.3051700470241771,8.563034009404836,4.562507956110768,-0.36777777777777776,-0.035555555555555556,-0.31444444444444447,0.03471067798680061,0.0470036771738906,0.04873614112007132
1592167973.3893628,-0.34822765134908934,8.565886174325456,4.509430871627277,-0.36777777777777776,-0.035555555555555556,-0.31444444444444447,0.048693632297069286,0.038890328098851866,0.05351279061714221
1592167973.3993628,-0.3717030943818773,8.60681237752751,4.4331876224724915,-0.36777777777777776,-0.035555555555555556,-0.31444444444444447,0.06728379284318323,0.018415471087798327,0.049701848108598505
1592167973.4093628,-0.45416840102277456,8.666970327644645,4.373029672355355,-0.36777777777777776,-0.030311325180207856,-0.32418372942723306,0.0731105056329292,-0.008570062713028289,0.021923512785539168
1592167973.4193628,-0.30563697374997023,8.731621647350009,4.2272586210999785,-0.36777777777777776,-0.027777777777777776,-0.3288888888888889,0.06050109044499305,-0.052044017160233644,0.002863953257455174
1592167973.4293628,-0.21564623638432776,8.743911559096082,4.161734677288246,-0.36777777777777776,-0.027777777777777776,-0.3288888888888889,0.04367774414759139,-0.07631364192701877,0.00033207293777021845
1592167973.4393628,-0.16,8.709754566210046,4.167239345509894,-0.36777777777777776,-0.027777777777777776,-0.3288888888888889,-0.010138749122244457,-0.11835181925921404,-0.01068748515514412
1592167973.4493628,-0.31115458303922555,8.663722900070585,4.31092366643138,-0.36777777777777776,-0.027777777777777776,-0.3288888888888889,-0.04467214394891329,-0.12148832225682193,-0.0354890141004209
1592167973.4593627,-0.47200789587317254,8.63311023379187,4.465787428289433,-0.36777777777777776,-0.027777777777777776,-0.3288888888888889,-0.07243288657006694,-0.11138498622808131,-0.06227613565150561
1592167973.4693627,-0.5253038197439702,8.626107104654775,4.521410924398744,-0.36777777777777776,-0.027777777777777776,-0.3288888888888889,-0.08066306137754978,-0.10841689647471014,-0.06872233929727672
1592167973.4793627,-0.6479889762764312,8.580018372872615,4.586014698298092,-0.36777777777777776,-0.027777777777777776,-0.3288888888888889,-0.09075631943590469,-0.11606078775252092,-0.060873167670104894
1592167973.4893627,-0.6324256846690598,8.557493244060824,4.580027023756706,-0.36777777777777776,-0.027777777777777776,-0.3288888888888889,-0.08944222849557477,-0.12546027915992897,-0.054538591290255484
1592167973.4993627,-0.4824365504815713,8.570788753697979,4.578816869453033,-0.36777777777777776,-0.027777777777777776,-0.3288888888888889,-0.07269848386115949,-0.15314650795628504,-0.055237523958444446
1592167973.5093627,-0.28513585155732274,8.596743207422133,4.5162839628893305,-0.37601947573816363,-0.027777777777777776,-0.323644172005007,-0.06032590609326557,-0.18274943276940608,-0.07435182853533523
1592167973.5193627,-0.1769798312002219,8.611472045013274,4.468451876213496,-0.38,-0.027777777777777776,-0.3211111111111111,-0.062346228710441334,-0.19699184165484201,-0.0880693386065664
1592167973.5293627,-0.0380192333377855,8.65918845999733,4.383603846667557,-0.38,-0.027777777777777776,-0.3211111111111111,-0.08416053065700205,-0.21362578280607716,-0.11339689365959771
1592167973.5393627,-0.0041696831659006825,8.651531297026883,4.390553544556066,-0.38,-0.027777777777777776,-0.3211111111111111,-0.09565903167287403,-0.21396987196271244,-0.1165981290388727
1592167973.5493627,0.029645408551017306,8.589645408551018,4.430354591448983,-0.38,-0.027777777777777776,-0.3211111111111111,-0.1108547041671064,-0.1959240616548257,-0.10283208942187086
1592167973.5593626,-0.10049215363009098,8.573975392318495,4.5785659766746045,-0.38870221109550657,-0.023761372656774745,-0.3211111111111111,-0.11322286665983793,-0.16529210245869672,-0.09467874335739818
1592167973.5693626,-0.2102309159530863,8.561755204740066,4.694734385779798,-0.39444444444444443,-0.021111111111111112,-0.3211111111111111,-0.1117559921661406,-0.1458211575930687,-0.09051376592422625
1592167973.5793626,-0.30869389656779,8.51507480457628,4.76623129885593,-0.39444444444444443,-0.021111111111111112,-0.3211111111111111,-0.11085363829284038,-0.11811099190230857,-0.07229609903745743
1592167973.5893626,-0.3462477833692787,8.454066379103763,4.868429187634795,-0.39444444444444443,-0.021111111111111112,-0.3211111111111111,-0.11269633431821388,-0.11450296235249804,-0.06439328597692073
1592167973.5993626,-0.4077447581866523,8.392634537071315,5.00718608016693,-0.39444444444444443,-0.021111111111111112,-0.3211111111111111,-0.10982334385386794,-0.11449585746782324,-0.06281530319407401
1592167973.6093626,-0.59,8.201164935797472,5.413252596303792,-0.3822356783938124,-0.029928553258789826,-0.302797962035163,-0.08001187147049554,-0.09352678675173312,-0.04044409219209445
1592167973.6193626,-0.5258354589254626,8.172291590752662,5.427917729462731,-0.37444444444444447,-0.035555555555555556,-0.2911111111111111,-0.06231395687810922,-0.0739040836277339,-0.025770926922078607
1592167973.6293626,-0.3219840937630808,8.419681875261615,5.062341984093763,-0.37444444444444447,-0.035555555555555556,-0.2911111111111111,0.02958210711829129,-0.029906982003911307,-0.021379415786287277
1592167973.6393626,-0.38684896080478315,8.554733795197874,4.89,-0.37444444444444447,-0.035555555555555556,-0.2911111111111111,0.13067685881754723,-0.004878121343296942,-0.004590894428042464
1592167973.6493626,-0.5004217234241182,8.464939724804156,4.879277103543451,-0.37444444444444447,-0.035555555555555556,-0.2911111111111111,0.1665488337575499,0.020738934875242115,0.019490392551273387
1592167973.6593626,-0.6386891587944219,8.371379517168991,4.784138551506972,-0.36744832641908665,-0.031103480448509687,-0.3044673364322487,0.18156681275974113,0.050516636880874634,0.04162452587062957
1592167973.6693625,-0.7101683381088825,8.450841690544413,4.6438085004775544,-0.3622222222222222,-0.027777777777777776,-0.31444444444444447,0.20654000492156632,0.06511072047442672,0.0498207266803727
1592167973.6793625,-0.8361599279423539,8.755072057646117,4.323840072057647,-0.3622222222222222,-0.027777777777777776,-0.31444444444444447,0.26805987439372925,0.07036644574087127,0.05909858515548315
1592167973.6893625,-0.8977878942384734,8.61327263456916,4.303717192317965,-0.3622222222222222,-0.027777777777777776,-0.31444444444444447,0.22528956992881535,0.04454995079568337,0.0669461605127733
1592167973.6993625,-0.9145615201567749,8.56189529675252,4.314526175811871,-0.3622222222222222,-0.027777777777777776,-0.31444444444444447,0.1881050573698255,0.024178033729296885,0.06732910224872005
1592167973.7093625,-0.9862868615060558,8.853603212216957,4.265257372301211,-0.37156866186881987,-0.034203455034813646,-0.3179493593119186,0.1672220181797511,-0.06621196371686328,0.0356725073645897
1592167973.7193625,-0.9796390911623095,8.891157136604194,4.262409772790577,-0.38,-0.04,-0.3211111111111111,0.17945093085576164,-0.11012642310336677,0.016654278829911273
1592167973.7293625,-0.6491865904365904,8.654953742203743,4.118151507276507,-0.38,-0.04,-0.3211111111111111,0.10028179172329367,-0.1986300235190271,-0.004677872463732723
1592167973.7393625,-0.43996584054073695,8.67170651936914,4.065017079729632,-0.38,-0.04,-0.3211111111111111,0.030442733279026028,-0.24962900168168098,-0.03355515677341123
1592167973.7493625,-0.37838689929599023,8.74161310070401,4.09,-0.38,-0.04,-0.3211111111111111,0.01934847327337148,-0.2663386729194553,-0.05606476227442452
1592167973.7593625,-0.17761582603443068,8.84737994563576,4.076427967381456,-0.3830160072485654,-0.043518675123326286,-0.33066180073156815,0.03459412840620503,-0.2892263856784016,-0.12388786921099965
1592167973.7693624,-0.09,8.82,4.06,-0.38666666666666666,-0.04777777777777778,-0.3422222222222222,0.01308996938995747,-0.2999784651865254,-0.14180800172453928
1592167973.7793624,0.013786867162099396,8.667021888063168,4.24812558058523,-0.38666666666666666,-0.04777777777777778,-0.3422222222222222,-0.08986535553924994,-0.2967339972596848,-0.16854944222981497
1592167973.7893624,0.018808981217166024,8.673573056348502,4.401550603305587,-0.38666666666666666,-0.04777777777777778,-0.3422222222222222,-0.11405677676842199,-0.2768626495857495,-0.1811171344810445
1592167973.7993624,0.01,8.7,4.45,-0.38666666666666666,-0.04777777777777778,-0.3422222222222222,-0.11453723216212788,-0.26725354171163174,-0.1854412330243975
1592167973.8093624,-0.15293032594033315,8.599553282931266,4.56,-0.38360928987462223,-0.0508351545698222,-0.3350883430407852,-0.11940081739988154,-0.23534137733938487,-0.15902479985862966
1592167973.8193624,-0.19007563566140973,8.548396363051173,4.560839636305118,-0.38,-0.05444444444444444,-0.32666666666666666,-0.11788481348084558,-0.22205502792387108,-0.13778628733332687
1592167973.8293624,-0.364239472192155,8.605409514973456,4.55023400855626,-0.38,-0.05444444444444444,-0.32666666666666666,-0.07334092616379849,-0.17744506836466264,-0.09125667336061583
1592167973.8393624,-0.4565301027201826,8.580612041088074,4.514081938367891,-0.38,-0.05444444444444444,-0.32666666666666666,-0.04432348212694107,-0.1533397970506844,-0.06999138717855892
1592167973.8493624,-0.5570037743547893,8.61264816892788,4.613240844639396,-0.38,-0.05444444444444444,-0.32666666666666666,-0.03768497099070175,-0.141230260887783,-0.06485312256396511
1592167973.8593624,-0.6113822636907632,8.588509684921018,4.792908595899152,-0.38905848135648763,-0.059688828387674135,-0.3328645749632108,-0.03193958470842491,-0.14181585944323002,-0.05608864350168811
1592167973.8693624,-0.56,8.52,4.85,-0.4011111111111111,-0.06666666666666667,-0.3411111111111111,-0.025089107997418484,-0.15053464798451094,-0.04363323129985824
1592167973.8793623,-0.25424696288899984,8.4183835358074,4.8387399456371,-0.4011111111111111,-0.06666666666666667,-0.3411111111111111,-0.02931498051873727,-0.17456578264187458,-0.012175467497470149
1592167973.8893623,-0.00365315173399898,8.480897898844,4.714551050578,-0.4011111111111111,-0.06666666666666667,-0.3411111111111111,0.016989313384553353,-0.17550622129809693,-0.02090208689318137
1592167973.8993623,0.07,8.53,4.69,-0.4011111111111111,-0.06666666666666667,-0.3411111111111111,0.05126904677733343,-0.16907877128695067,-0.030543261909900768
1592167973.9093623,0.1638849579885021,8.536115042011497,4.658345126034494,-0.4006794491123886,-0.06666666666666667,-0.33981612511494375,0.10446877238481536,-0.12086982564656558,-0.042291417782517375
1592167973.9193623,0.17,8.53,4.64,-0.4,-0.06666666666666667,-0.3377777777777778,0.11780972450961724,-0.074176493209759,-0.05563236990731925
1592167973.9293623,0.1513707490089714,8.641421343626122,4.579974702691425,-0.4,-0.06666666666666667,-0.3377777777777778,0.13886491501106113,-0.03955240216294016,-0.0364487518948926
1592167973.9393623,0.06,8.63,4.54,-0.4,-0.06666666666666667,-0.3377777777777778,0.16689710972195776,0.006544984694978735,-0.01090830782496456
1592167973.9493623,-0.15517665365679445,8.595704191219612,4.557852095609806,-0.4,-0.06666666666666667,-0.3377777777777778,0.16347869465251202,0.04138631634375402,0.01730736979798693
1592167973.9593623,-0.4737940166748406,8.598247506947851,4.54270099722086,-0.4016220006175867,-0.07072166821063339,-0.33939977839536445,0.1944221033097945,0.061882721511102856,0.04068690038790688
1592167973.9693623,-0.55,8.63,4.53,-0.40444444444444444,-0.07777777777777778,-0.3422222222222222,0.22143864884678055,0.06326818538479445,0.0545415391248228
1592167973.9793622,-0.49252890453877507,8.65494219092245,4.357702331771425,-0.40444444444444444,-0.07777777777777778,-0.3422222222222222,0.22350129804231877,0.05768240711859756,0.051701755791256875
1592167973.9893622,-0.5868184436656906,8.661422879362489,4.3675298833469345,-0.40444444444444444,-0.07777777777777778,-0.3422222222222222,0.2149712701822209,0.04296706050635199,0.04550446874317485
1592167973.9993622,-0.6123383084577114,8.620467661691542,4.4682805970149255,-0.40444444444444444,-0.07777777777777778,-0.3422222222222222,0.20485411349928517,0.020691269027747698,0.05103047503007699
1592167974.0093622,-0.43255326025478735,8.59,4.43475181125266,-0.40681638491625294,-0.07777777777777778,-0.3493380436376477,0.19388936179620447,0.009724637879746544,0.044708608474889014
1592167974.0193622,-0.36599806562011755,8.610009671899412,4.355978721821293,-0.4122222222222222,-0.07777777777777778,-0.3655555555555556,0.2103168170437825,0.011562595286350352,0.01984953310353011
1592167974.0293622,-0.2960184962767235,8.703981503723277,4.174833293298102,-0.4122222222222222,-0.07777777777777778,-0.3655555555555556,0.21726655519194868,0.006255441573513786,0.005469639883956106
1592167974.0393622,-0.17998623766135155,8.785712319665906,4.02,-0.4122222222222222,-0.07777777777777778,-0.3655555555555556,0.19229102085374125,0.0,-0.005924869758402947
1592167974.0493622,-0.2001626000158441,8.765844094113918,4.051850788243682,-0.4122222222222222,-0.07777777777777778,-0.3655555555555556,0.1646304146871101,-0.005018551815764462,-0.01565767340231688
1592167974.0593622,-0.3160327529289922,8.75508188232248,4.119049129393488,-0.4078652339957279,-0.08213476600427212,-0.36790162613905253,0.1413216503471145,-0.018129227731338113,-0.018994746776702962
1592167974.0693622,-0.33,8.79,4.14,-0.3977777777777778,-0.09222222222222222,-0.37333333333333335,0.11999138607461016,-0.0272707695624114,-0.025089107997418484
1592167974.0793622,-0.24473906560636183,8.846425944333996,4.146104373757455,-0.3977777777777778,-0.09222222222222222,-0.37333333333333335,0.08521188390520924,-0.04117555484849905,-0.011219400619694411
1592167974.0893621,-0.18701239844080214,8.737160569201146,4.169851829239656,-0.3977777777777778,-0.09222222222222222,-0.37333333333333335,0.06950343622775733,-0.043697882990437795,0.011902161071591678
1592167974.0993621,-0.10415161692735822,8.690484790327224,4.19,-0.3977777777777778,-0.09222222222222222,-0.37333333333333335,0.06720507857123031,-0.025409773098569975,0.022295928014678303
1592167974.1093621,0.0,8.75742148429686,4.191060212042409,-0.39907359249627705,-0.0932824342646307,-0.3755715587561957,0.08539749567591529,0.0044946854286581316,0.01579991687701958
1592167974.119362,-0.0034646300409920537,8.816535369959007,4.1792122197540476,-0.41,-0.10222222222222223,-0.39444444444444443,0.11373840039528628,0.0270217372938629,0.0373890138346241
1592167974.129362,0.017767037216046402,8.763721604639922,4.044357982922507,-0.41,-0.10222222222222223,-0.39444444444444443,0.10781808711505408,0.036763475332758755,0.054042607500607
1592167974.139362,0.029192997438087107,8.741855726349748,3.858226112534396,-0.41,-0.10222222222222223,-0.39444444444444443,0.09884330406393947,0.04735438848598757,0.044882268254766294
1592167974.149362,-0.16867384916748285,8.972891283055827,3.94271737947546,-0.41,-0.10222222222222223,-0.39444444444444443,0.08029226822172608,0.04682984389588698,0.013386389507913033
1592167974.159362,-0.38843072587173566,9.010050070458428,4.000734566605702,-0.40795214156980714,-0.10222222222222223,-0.3931645329255739,0.026811844202174223,0.026276453085648972,0.020469012988639762
1592167974.169362,-0.45,8.91,4.07,-0.4011111111111111,-0.10222222222222223,-0.3888888888888889,-0.062177354602297986,0.001090830782496456,0.030543261909900768
1592167974.179362,-0.33697780292703006,8.64719977365673,4.03302219707297,-0.4011111111111111,-0.10222222222222223,-0.3888888888888889,-0.10244124055275894,-0.03734031131204656,-0.004537781984523309
1592167974.189362,-0.301809034467994,8.762858060372512,4.0717148362235065,-0.4011111111111111,-0.10222222222222223,-0.3888888888888889,-0.07314801563191392,-0.05337807970320059,-0.025089107997418484
1592167974.199362,-0.18212131274558635,8.86814544247053,4.108278820078588,-0.4011111111111111,-0.10222222222222223,-0.3888888888888889,-0.09333409940620115,-0.06830318836900882,-0.025977637935809254
1592167974.209362,-0.006332290423507403,8.884459245879432,4.058706899332322,-0.4006713687205897,-0.10327760395947345,-0.3911755493195999,-0.14543441681631572,-0.082589397635472,-0.029656748591970865
1592167974.219362,-0.06762878980303415,8.773607961761378,4.197113630590898,-0.39555555555555555,-0.11555555555555555,-0.4177777777777778,-0.186273404899432,-0.09871460660198411,-0.043037199969906646
1592167974.229362,-0.034486456757871584,8.645189055410421,4.233134882441909,-0.39555555555555555,-0.11555555555555555,-0.4177777777777778,-0.17333590602232526,-0.11153006081755838,-0.030549111270620877
1592167974.239362,-0.010249080101896405,8.648256439286724,4.139252759694311,-0.39555555555555555,-0.11555555555555555,-0.4177777777777778,-0.1430075142040181,-0.10043794326241073,-0.0065721551192243315
1592167974.249362,-0.015202754853648397,8.82088582794039,4.2612913376476875,-0.39555555555555555,-0.11555555555555555,-0.4177777777777778,-0.14047559884569943,-0.0909656243763507,-0.0011391452017651348
1592167974.259362,-0.15541903785656216,8.6526704605705,4.3973295394295,-0.3961663505080139,-0.11479206186498257,-0.418083175254007,-0.18509996041982799,-0.09222091106024745,0.007086139480328768
1592167974.269362,-0.06,8.5,4.55,-0.4088888888888889,-0.09888888888888889,-0.42444444444444446,-0.20071286397934787,-0.0818123086872342,-0.004363323129985824
1592167974.279362,-0.15131129354337697,8.499723485688929,4.611587807854448,-0.4088888888888889,-0.09888888888888889,-0.42444444444444446,-0.08798166228071871,-0.05012566515533186,-0.01857428633467153
1592167974.289362,-0.005259087762846981,8.625378189369167,4.369362722867986,-0.4088888888888889,-0.09888888888888889,-0.42444444444444446,0.0042197345254206264,-0.03394179459006468,-0.0074402589935424306
1592167974.299362,0.03,8.71,4.32,-0.4088888888888889,-0.09888888888888889,-0.42444444444444446,0.053450708342326333,-0.031634092692397225,-0.004363323129985824
1592167974.309362,0.03242217898832685,8.635920881971467,4.319461738002595,-0.40921782677619256,-0.09942715088629485,-0.42483318922034874,0.08414535662541404,-0.023851489025967416,0.014034011983499312
1592167974.319362,0.12,8.85,4.3,-0.4211111111111111,-0.11888888888888889,-0.4388888888888889,0.05017821599483697,-0.01854412330243975,0.008726646259971648
1592167974.329362,0.07524924795874517,8.684252256123765,4.461312311989686,-0.4211111111111111,-0.11888888888888889,-0.4388888888888889,-0.009250439575653632,-0.002877435346222119,0.021155237961809358
1592167974.339362,0.09692180153989416,8.560382702309841,4.513593994867019,-0.4211111111111111,-0.11888888888888889,-0.4388888888888889,-0.058512818231500716,0.02297822940604733,0.021382825280610477
1592167974.349362,0.05445765494866368,8.488514115017113,4.655141150171121,-0.4211111111111111,-0.11888888888888889,-0.4388888888888889,-0.03302315452623201,0.05989034108414779,0.010054119713161018
1592167974.359362,0.0793501355120774,8.480216621495975,4.572166214959743,-0.4211111111111111,-0.11888888888888889,-0.4388888888888889,0.014042884495963102,0.08975917354054083,-0.0008072739073455432
1592167974.3693619,0.08391276580646688,8.802981763133618,4.423105471059914,-0.4211111111111111,-0.11888888888888889,-0.4888888888888889,0.06059863396796186,0.11938844514395336,-0.024926478046805263
1592167974.3793619,0.02374018637546427,8.817401863754643,4.4,-0.4211111111111111,-0.11888888888888889,-0.4888888888888889,0.037526345091864824,0.13108007169615993,-0.010483188775931235
1592167974.3893619,-0.0030636617547914863,8.55089521332948,4.403063661754792,-0.4211111111111111,-0.11888888888888889,-0.4888888888888889,0.0033325337413251306,0.12679171741476444,0.03788611951036629
1592167974.3993618,-0.012110658124635994,8.417612696563774,4.405536206561832,-0.4211111111111111,-0.11888888888888889,-0.4888888888888889,0.048445847108575274,0.12188618307389355,0.0883874707043845
1592167974.4093618,0.03674548631333721,8.58860920209668,4.315966608425548,-0.4211111111111111,-0.11888888888888889,-0.4888888888888889,0.1390452837625334,0.12010972353165908,0.07506402413762595
1592167974.4193618,-0.08816493416493416,8.794494802494803,4.251835065835066,-0.44555555555555554,-0.13333333333333333,-0.47444444444444445,0.173520712851711,0.14360957339525693,0.06270818022632364
1592167974.4293618,-0.059700097048311127,8.760630814022297,4.233453973063176,-0.44555555555555554,-0.13333333333333333,-0.47444444444444445,0.10523752986535535,0.15349918145343294,0.08508141857366108
1592167974.4393618,0.042546311650163454,8.69956483631023,4.095962950679869,-0.44555555555555554,-0.13333333333333333,-0.47444444444444445,0.04681078565770218,0.1673647452142314,0.11258586111529502
1592167974.4493618,-0.021072726919263592,8.661072726919263,4.140536363459631,-0.44555555555555554,-0.13333333333333333,-0.47444444444444445,0.03036773737818897,0.19177862926451014,0.09863776753726575
1592167974.4593618,-0.16784346507513753,8.807843465075138,4.213921732537568,-0.44555555555555554,-0.13333333333333333,-0.47444444444444445,0.006352431505665803,0.21312556781786407,0.07906974053002465
1592167974.4693618,-0.28630421728486305,8.711376506998015,4.388768072428287,-0.41888888888888887,-0.14,-0.4888888888888889,-0.02779252820035083,0.2091865165047861,0.0761606876475588
1592167974.4793618,-0.2413330864197531,8.645087654320989,4.365262962962963,-0.41888888888888887,-0.14,-0.4888888888888889,-0.03701932225988176,0.1982288133478096,0.10784683029690967
1592167974.4893618,-0.07384620841313755,8.620513111536733,4.2210255137026795,-0.41888888888888887,-0.14,-0.4888888888888889,-0.01454438463983635,0.18809842262859744,0.12150169573005216
1592167974.4993618,-0.12437220204814879,8.756100447672296,4.177547985474667,-0.41888888888888887,-0.14,-0.4888888888888889,-0.0025006929437690383,0.20744314340693468,0.08396980501902983
1592167974.5093617,-0.32583914538782255,8.723865736737949,4.322604184679232,-0.41888888888888887,-0.14,-0.4888888888888889,-0.005137889065173664,0.2179919278925532,0.05671877843118203
1592167974.5193617,-0.25,8.68,4.26,-0.4311111111111111,-0.14,-0.5111111111111111,-0.039269908169872414,0.2203478180642841,0.05999569303730508
1592167974.5293617,-0.35981760133985813,8.759978541334101,4.26998927066705,-0.4311111111111111,-0.14,-0.5111111111111111,-0.04037010206169446,0.22141055951880378,0.08726997376571358
1592167974.5393617,-0.18662725386376647,8.748769139954208,4.266745492272467,-0.4311111111111111,-0.14,-0.5111111111111111,-0.050338277616703356,0.19356632622566883,0.09120119210245677
1592167974.5493617,-0.14911383800801375,8.846304021179163,4.341772323983973,-0.4311111111111111,-0.14,-0.5111111111111111,-0.06425134579919889,0.17474276339052783,0.09856693408142497
1592167974.5593617,-0.24929307103709392,8.701856813789085,4.435664433794911,-0.4311111111111111,-0.14,-0.5111111111111111,-0.053875326260837894,0.14540847401235085,0.12878587531448818
1592167974.5693617,-0.10228251467046968,8.675394056998574,4.4469293713323825,-0.42444444444444446,-0.13777777777777778,-0.5244444444444445,-0.045991295654520516,0.1070733564862937,0.11210212388270178
1592167974.5793617,-0.16231016687889552,8.641028528025378,4.410775417197239,-0.42444444444444446,-0.13777777777777778,-0.5244444444444445,-0.02206861576434942,0.09501447308026593,0.11811694484058105
1592167974.5893617,-0.09752382083877867,8.584158726387074,4.275841273612927,-0.42444444444444446,-0.13777777777777778,-0.5244444444444445,-0.017420970647880254,0.08903776339606298,0.12331755813103501
1592167974.5993617,0.06622551686615888,8.647548966267683,4.22539211876263,-0.42444444444444446,-0.13777777777777778,-0.5244444444444445,-0.030869447105607243,0.0992335104679287,0.062097170146169736
1592167974.6093616,0.009175734494015236,8.76164853101197,4.306891807865693,-0.42444444444444446,-0.13777777777777778,-0.5244444444444445,-0.019312139052730763,0.11523593700268076,0.011422819452788259
1592167974.6193616,-0.1,8.83,4.37,-0.43333333333333335,-0.14333333333333334,-0.5311111111111111,0.017453292519943295,0.11453723216212788,-0.02399827721492203
1592167974.6293616,0.036953094896136185,8.787202157844957,4.31008302098294,-0.43333333333333335,-0.14333333333333334,-0.5311111111111111,-0.00495560523068625,0.09866426292209861,-0.006257899829006975
1592167974.6393616,0.019012718258245312,8.582675145505497,4.262112524250916,-0.43333333333333335,-0.14333333333333334,-0.5311111111111111,-0.06889516978340195,0.0758935111821214,0.01751466497828164
1592167974.6493616,0.3483681431732598,8.805812531542374,4.302791645638417,-0.43333333333333335,-0.14333333333333334,-0.5311111111111111,-0.0708274999962197,0.04753977248041287,0.03828058448724955
1592167974.6593616,0.1448324857331418,8.732539694863931,4.351640203424046,-0.43333333333333335,-0.14333333333333334,-0.5311111111111111,-0.05040138763285694,0.039546945903444826,0.04005676817102023
1592167974.6693616,0.3116548810518944,8.633930822583196,4.485448116937397,-0.41333333333333333,-0.14333333333333334,-0.5733333333333334,-0.018656895632844464,0.037140985413241845,0.042459644947978256
1592167974.6793616,0.20801700257904288,8.559752125322381,4.426281879835705,-0.41333333333333333,-0.14333333333333334,-0.5733333333333334,0.008005087069142727,0.06492683375724356,0.04058632388350889
1592167974.6893616,0.1331482228922814,8.555509390061493,4.278163536646169,-0.41333333333333333,-0.14333333333333334,-0.5733333333333334,0.06610806448432396,0.08746678967544501,0.005285785933256527
1592167974.6993616,0.24759412725606597,8.761850671341488,4.210370134268297,-0.41333333333333333,-0.14333333333333334,-0.5733333333333334,0.09078120725931531,0.0948417149991643,-0.041290068193459026
1592167974.7093616,0.13897246902267021,8.845405793059484,4.227081158611897,-0.41333333333333333,-0.14333333333333334,-0.5733333333333334,0.10171854711594279,0.09210738003500743,-0.0339985082890407
1592167974.7193615,0.2761399532544798,8.78227990650896,4.179227990650896,-0.42777777777777776,-0.13777777777777778,-0.5666666666666667,0.06946843695763286,0.06763150851478027,0.006131799410979086
1592167974.7293615,0.23317227590803066,8.69317227590803,4.163655448183938,-0.42777777777777776,-0.13777777777777778,-0.5666666666666667,0.03809336665811482,0.06721625856945405,0.027063144589748296
1592167974.7393615,0.27976007997334223,8.739760079973342,4.0704798400533155,-0.42777777777777776,-0.13777777777777778,-0.5666666666666667,0.020814766998573993,0.06111792927785142,0.02401397994394697
1592167974.7493615,0.10270460247840493,8.579799659075674,4.428597613529716,-0.42777777777777776,-0.13777777777777778,-0.5666666666666667,0.024881496852532017,0.06219920840702288,0.048083969648743626
1592167974.7593615,0.3196054471279999,8.56373292984237,4.316130508896593,-0.42777777777777776,-0.13777777777777778,-0.5666666666666667,0.008231718171895216,0.06395181668919517,0.055094402777432806
1592167974.7693615,0.17303016022620168,8.691742459943448,4.32069698397738,-0.4177777777777778,-0.14,-0.6,0.02101507092909613,0.10167535024540023,-0.019608531510845576
1592167974.7793615,-0.01901674635159829,8.739262559763699,4.33434629152169,-0.4177777777777778,-0.14,-0.6,0.08917998332803975,0.10769729254681255,-0.04903375704500659
1592167974.7893615,0.02,8.71,4.11,-0.4177777777777778,-0.14,-0.6,0.07853981633974483,0.09599310885968812,-0.04690572364734761
1592167974.7993615,-0.10988245039643406,8.744635320105715,4.196588300264289,-0.4177777777777778,-0.14,-0.6,0.06059371150660158,0.08088059952651487,-0.051628382813964244
1592167974.8093615,-0.12126326049505848,8.784946958019765,4.279893916039532,-0.4177777777777778,-0.14,-0.6,0.0644852445457623,0.04613678141155844,-0.05331290799889418
1592167974.8193614,0.07,8.76,4.24,-0.4266666666666667,-0.14333333333333334,-0.6,0.05781403147231216,-0.00545415391248228,-0.0272707695624114
1592167974.8293614,0.1664667157185455,8.733690895713124,4.204921194284165,-0.4266666666666667,-0.14333333333333334,-0.6,0.04250801503709411,-0.02936980459251049,-0.011008127099992215
1592167974.8393614,0.32,8.77,4.16,-0.4266666666666667,-0.14333333333333334,-0.6,0.038179077387375956,-0.044724062082354694,0.004363323129985824
1592167974.8493614,0.32793839981118716,8.817630398867124,4.2631991975454335,-0.4266666666666667,-0.14333333333333334,-0.6,0.03731313229959526,-0.042992171906793296,0.011290883832231431
1592167974.8593614,0.3212391091590481,8.628499510658106,4.29,-0.4266666666666667,-0.14333333333333334,-0.6,0.027531597193477853,-0.030118756282539638,0.03793725785960176
1592167974.8693614,0.24,8.68,4.27,-0.4266666666666667,-0.14333333333333334,-0.6088888888888889,0.039269908169872414,-0.015271630954950384,0.02617993877991494
1592167974.8793614,0.3076696647587899,8.722293540474244,4.202330335241211,-0.4266666666666667,-0.14333333333333334,-0.6088888888888889,0.08171419635193197,0.005950513136079399,0.014184813858898108
1592167974.8893614,0.02682309594221166,8.739161778251805,4.180838221748194,-0.4266666666666667,-0.14333333333333334,-0.6088888888888889,0.11043541861760987,0.020810821755892172,0.0010057938940369465
1592167974.8993614,0.0721757273132194,8.667824272686781,4.14391213634339,-0.4266666666666667,-0.14333333333333334,-0.6088888888888889,0.1261335839900427,0.01788004039481262,0.001968287627558249
1592167974.9093614,0.011777514650397378,8.75096331379947,4.109678895400176,-0.4266666666666667,-0.14333333333333334,-0.6088888888888889,0.14912607781899379,0.006703854386489065,-0.004433377286363536
1592167974.9193614,0.11398851124940165,8.903988511249402,3.9855490665390136,-0.42136801233976917,-0.15710983458326683,-0.6163070049465454,0.16951385037166877,-0.01961605122503847,0.004899287091285182
1592167974.9293613,0.2583363021888192,8.959405822210293,3.8910695200214733,-0.4211111111111111,-0.15777777777777777,-0.6166666666666667,0.1313663600443425,-0.034738066709831567,0.04317952810355624
1592167974.9393613,0.729756373937677,8.891493862134089,3.7334145420207743,-0.4211111111111111,-0.15777777777777777,-0.6166666666666667,0.07111681072030908,-0.03597413652523061,0.07886243031621121
1592167974.9493613,0.39,8.84,3.77,-0.4211111111111111,-0.15777777777777777,-0.6166666666666667,0.015271630954950384,-0.0032724923474893677,0.038179077387375956
1592167974.9593613,0.3968889419469268,8.936445187256975,3.77,-0.4211111111111111,-0.15777777777777777,-0.6166666666666667,0.0024966920662343843,0.010253913534680513,0.031415874446291014
1592167974.9693613,0.3319146540228182,8.941094088013038,3.847811823973922,-0.4070617540047085,-0.1642620964422713,-0.6307160237730692,-0.0382852996410812,0.031216379983213076,0.045337506911497835
1592167974.9793613,0.37410752688172044,8.83414193548387,3.9117505376344086,-0.4066666666666667,-0.16444444444444445,-0.6311111111111111,-0.08353464838725333,0.039332308382376516,0.06506043208979936
1592167974.9893613,0.28516102336139226,8.75964792395725,3.945865175446893,-0.4066666666666667,-0.16444444444444445,-0.6311111111111111,-0.1280079812466374,0.050706066462154434,0.050702790771494796
1592167974.9993613,0.10652731920332303,8.75,4.200017041218447,-0.4066666666666667,-0.16444444444444445,-0.6311111111111111,-0.14780850048255245,0.06599619179531825,0.018626031461099885
1592167975.0093613,0.09201573157749478,8.702094389464968,4.233952805267516,-0.4066666666666667,-0.16444444444444445,-0.6311111111111111,-0.15444962645920618,0.07437921492616861,0.007872858171861867
1592167975.0193613,0.18,8.64,4.21,-0.43555555555555553,-0.16444444444444445,-0.6311111111111111,-0.14944381720201447,0.07963064712224129,-0.007635815477475192
1592167975.0293612,0.18733273793344465,8.720660117267892,4.180669048266221,-0.43555555555555553,-0.16444444444444445,-0.6311111111111111,-0.12464761080289377,0.08762942338002215,-0.03083226662503972
1592167975.0393612,0.1715380566375408,8.870002631855986,3.985380566375408,-0.43555555555555553,-0.16444444444444445,-0.6311111111111111,-0.10555863488238601,0.101615325815668,-0.06444347832546819
1592167975.0493612,0.16148849383793218,8.871488493837932,4.021069036972407,-0.43555555555555553,-0.16444444444444445,-0.6311111111111111,-0.12978821002253782,0.10439501614006523,-0.07025452290308055
1592167975.0593612,0.20175034674063802,8.821291262135922,4.099583911234396,-0.43555555555555553,-0.16444444444444445,-0.6311111111111111,-0.14783495526844065,0.0971293278855617,-0.04661463371315576
1592167975.0693612,0.1480886992578348,8.823970433580723,4.265832456957423,-0.40359497744792655,-0.15734209375386024,-0.6479791940012486,-0.1581650881352733,0.08248078300618542,-0.0011338333961990327
1592167975.0793612,0.12199881981797961,8.773991738725858,4.332004720728081,-0.39555555555555555,-0.15555555555555556,-0.6522222222222223,-0.1662436411555613,0.07002992011950801,0.06785855758552935
1592167975.0893612,0.16937810451023247,8.669473475064574,4.27416252731969,-0.39555555555555555,-0.15555555555555556,-0.6522222222222223,-0.17696513323463567,0.052370280873471814,0.14394805003496447
1592167975.0993612,0.14686258179654968,8.600293872694824,4.3097061273051755,-0.39555555555555555,-0.15555555555555556,-0.6522222222222223,-0.17889624832941878,0.04185792204658412,0.17063487611528289
1592167975.1093612,0.026930353689128897,8.723023113306906,4.393162712318799,-0.39555555555555555,-0.15555555555555556,-0.6522222222222223,-0.16728779178712372,0.04181179602015576,0.15530388106960047
1592167975.1193612,0.043892096958302554,8.699687437050963,4.364318136037064,-0.4065025328827115,-0.14460857822839962,-0.645836485448048,-0.15696496836806828,0.03358642563454743,0.15244050727249514
1592167975.1293612,0.05151616266944734,8.578193952033368,4.409386861313869,-0.4088888888888889,-0.14222222222222222,-0.6444444444444445,-0.1837520946385714,0.024230547961309704,0.12234207522487833
1592167975.1393611,0.10678016589523853,8.551888547729252,4.4118885477292515,-0.4088888888888889,-0.14222222222222222,-0.6444444444444445,-0.19490748065126504,0.02821637952903543,0.07159296240593703
1592167975.1493611,0.16745617123142997,8.55,4.497002980590954,-0.4088888888888889,-0.14222222222222222,-0.6444444444444445,-0.177368434969851,0.032903541287315416,0.027438199760668268
1592167975.1593611,0.14767043119140358,8.54353408623828,4.532931827523439,-0.4088888888888889,-0.14222222222222222,-0.6444444444444445,-0.16529804586618918,0.04298493735611624,-0.013195356654689079
1592167975.169361,0.1139555346587856,8.620222326706072,4.523955534658786,-0.4160197623738731,-0.1529185324496985,-0.6845556077974805,-0.13869062012171304,0.05587236293714644,-0.0541706874318079
1592167975.179361,-0.18955549401093957,8.714888873502735,4.628172817281729,-0.4177777777777778,-0.15555555555555556,-0.6944444444444444,-0.11129706520236324,0.03966045625380851,-0.04819586914527771
1592167975.189361,0.018273209367958676,8.753671165532467,4.531644172337665,-0.4177777777777778,-0.15555555555555556,-0.6944444444444444,-0.12239415829688312,-0.011341516881654377,-0.005361623099582803
1592167975.199361,0.02033592343409457,8.551007770302284,4.592885435421207,-0.4177777777777778,-0.15555555555555556,-0.6944444444444444,-0.13329119024979152,-0.04932885026568191,0.04598307079369809
1592167975.209361,0.03178394177766444,8.502713576711066,4.6899246719108625,-0.4177777777777778,-0.15555555555555556,-0.6944444444444444,-0.1179275659894848,-0.06435079914744904,0.027303637641778847
1592167975.219361,0.24108941653584515,8.517643576661433,4.7452871533228675,-0.40758634222919937,-0.16659627739984884,-0.6732122870515728,-0.05713137033210188,-0.05871692084448054,-0.01936499344485409
1592167975.229361,0.27662000269215237,8.52,4.726620002692152,-0.40444444444444444,-0.17,-0.6666666666666666,-0.0031961385977386444,-0.038629956068596275,-0.030911962420716303
1592167975.239361,0.1784422898695373,8.588668282597846,4.597923053159382,-0.40444444444444444,-0.17,-0.6666666666666666,0.03343659069531757,-0.021331508184240597,-0.059099434053326204
1592167975.249361,0.12000680192330244,8.632494898557523,4.470020405769907,-0.40444444444444444,-0.17,-0.6666666666666666,0.08153051180114493,-0.00763804140167074,-0.05699831980331833
1592167975.259361,0.1284713965116737,8.66462852868223,4.458471396511674,-0.40444444444444444,-0.17,-0.6666666666666666,0.11505144598782298,-0.01242299029423835,-0.043376124387010676
1592167975.269361,0.08450171714984067,8.69387457071254,4.45612542928746,-0.3998195875402645,-0.15150057238328024,-0.6959574270598063,0.13443786552430836,-0.017453292519943295,-0.035574765722163275
1592167975.279361,0.0819539599890381,8.707317986663012,4.515861879967114,-0.3977777777777778,-0.14333333333333334,-0.7088888888888889,0.13744467859455345,-0.0278307831732299,-0.010160261174357008
1592167975.289361,0.29751251595170314,8.613654903308138,4.42142141945617,-0.3977777777777778,-0.14333333333333334,-0.7088888888888889,0.12370132972809673,-0.024358202116037786,0.021545273232844008
1592167975.299361,0.17192597093050427,8.587336075150722,4.4606968266579425,-0.3977777777777778,-0.14333333333333334,-0.7088888888888889,0.11329886367413322,0.005391600780261727,-0.0017569936013440077
1592167975.309361,0.08811394547895628,8.607829081781565,4.5018860545210435,-0.3977777777777778,-0.14333333333333334,-0.7088888888888889,0.14043750666110624,0.03342357477053031,-0.04031788511332736
1592167975.319361,0.08698374333675463,8.717772406714564,4.398260106611926,-0.39389792036846966,-0.15497290556125773,-0.6988012596246878,0.19996615251266864,0.05267116685275896,-0.06499932802183779
1592167975.329361,0.02260724793030311,8.76,4.297583415056902,-0.39222222222222225,-0.16,-0.6944444444444444,0.24729778431198088,0.06216695554952166,-0.07661656377280858
1592167975.339361,-0.023239743525522216,8.806479487051044,4.163801282372389,-0.39222222222222225,-0.16,-0.6944444444444444,0.26081614835115857,0.04999366051881224,-0.06611031239426136
1592167975.349361,-0.07756171502815071,8.812073047495309,4.04280352244839,-0.39222222222222225,-0.16,-0.6944444444444444,0.2522877276152937,0.03716792906134597,-0.02586010662757622
1592167975.359361,-0.07883261772365735,8.776497853170973,4.131673822763426,-0.39222222222222225,-0.16,-0.6944444444444444,0.23883669727944248,0.02881572286641664,-0.02042303651976014
1592167975.369361,-0.03179760163790582,8.69884820122843,4.277696402456859,-0.3875218224952065,-0.16861739949952878,-0.7030618439439732,0.19650568375224414,0.0062385055929997674,-0.018810657387171408
1592167975.379361,0.06010079769605266,8.75553701629677,4.216308655802153,-0.38555555555555554,-0.17222222222222222,-0.7066666666666667,0.17620576011796776,-0.004469486588463799,0.015707280111828183
1592167975.389361,0.11785659660262798,8.724286806794744,4.186071701698686,-0.38555555555555554,-0.17222222222222222,-0.7066666666666667,0.16779323867398013,-0.012622351308925295,0.03714649031007456
1592167975.399361,0.20520099549656318,8.665817729319745,4.12530836691159,-0.38555555555555554,-0.17222222222222222,-0.7066666666666667,0.14119681071085277,-0.00855995780169351,0.031011189274243525
1592167975.409361,0.112470478738875,8.655544761793962,4.183171426909429,-0.38555555555555554,-0.17222222222222222,-0.7066666666666667,0.12678466469384628,0.010271677888324053,0.020736381618097363
1592167975.4193609,-0.00783300946530433,8.68377734595374,4.226222654046261,-0.3749878462427826,-0.17618511321451205,-0.7027037756743768,0.12500313572690613,0.03133699122245758,-0.018652570467301493
1592167975.4293609,0.08143037000769392,8.828478468676412,4.101807605325126,-0.36777777777777776,-0.17888888888888888,-0.7,0.10921784573738076,0.03561300167308753,-0.0366414207901939
1592167975.4393609,0.33210109256813547,8.836106375315165,4.023053187657582,-0.36777777777777776,-0.17888888888888888,-0.7,0.07425743130840023,0.02535340101207545,0.018359327740655323
1592167975.4493608,0.42285206474058384,8.788556194221751,4.060035546815913,-0.36777777777777776,-0.17888888888888888,-0.7,0.0174222720711293,0.019166347304980083,0.08028001401749386
1592167975.4593608,0.36330111065405185,8.742200740436035,4.142998765939942,-0.36777777777777776,-0.17888888888888888,-0.7,-0.026113977395699813,0.029539482205892302,0.09902553766598637
1592167975.4693608,0.2890675286947111,8.726822078550882,4.248220785508815,-0.3761158737844107,-0.18267893252826747,-0.7015160174557514,-0.0429399163916474,0.05385757570376787,0.08656379620434972
1592167975.4793608,0.2767319046577739,8.750195713973321,4.3136595232888695,-0.38,-0.18444444444444444,-0.7022222222222222,-0.04143022065219893,0.06805204966272281,0.06127222505841371
1592167975.4893608,0.3691339902478667,8.753143539211703,4.30257415684681,-0.38,-0.18444444444444444,-0.7022222222222222,-0.04559620589316721,0.06492061007278582,0.05460364910588631
1592167975.4993608,0.35269238224462107,8.578077146733863,4.490576662143827,-0.38,-0.18444444444444444,-0.7022222222222222,-0.04799655442984406,0.060614531764320294,0.06657212977316312
1592167975.5093608,0.2687786506843768,8.522244269863124,4.533267190410626,-0.38,-0.18444444444444444,-0.7022222222222222,-0.04131834119189905,0.0713486555418116,0.06489360894811913
1592167975.5193608,0.15435321806825383,8.585015841404905,4.365583416312121,-0.37159480200758377,-0.18062389990243705,-0.6961093509550104,0.007171321225563965,0.08829192450577474,0.0415823074877417
1592167975.5293608,0.12690841393824112,8.685992553320652,4.227461653648468,-0.36777777777777776,-0.17888888888888888,-0.6933333333333334,0.051762478954109625,0.0930974120413018,0.025189012892832686
1592167975.5393608,0.2017747649362065,8.912366353248276,3.9184034307327598,-0.36777777777777776,-0.17888888888888888,-0.6933333333333334,0.09517984530584118,0.08632413449759557,0.0019235324684449932
1592167975.5493608,0.19863457114689453,8.92211961879724,3.85394019060138,-0.36777777777777776,-0.17888888888888888,-0.6933333333333334,0.06872090540863723,0.07491978523325767,-0.002941981016085578
1592167975.5593607,0.17466716877478236,8.835332831225218,3.903111445849855,-0.36777777777777776,-0.17888888888888888,-0.6933333333333334,-0.011587530793424627,0.048650888584845314,-0.0024725223879091965
1592167975.5693607,0.26176248313090417,8.816862498125657,3.9611749887539363,-0.3532902817347262,-0.17278889055497243,-0.6940958331250728,-0.04797473454284675,0.0268862553918472,-0.00034224836246747397
1592167975.5793607,0.3066652848022552,8.81666694303955,4.016663626564961,-0.3466666666666667,-0.17,-0.6944444444444444,-0.0570865094746004,0.014544922942566749,0.0
1592167975.5893607,0.32212455647205196,8.798083037648034,4.066166075296069,-0.3466666666666667,-0.17,-0.6944444444444444,-0.0767084360662973,-0.004968002587063428,-0.010399511493900133
1592167975.5993607,0.22959613076325638,8.79,4.107431335169102,-0.3466666666666667,-0.17,-0.6944444444444444,-0.0957349386427194,-0.010443955725291387,-0.020585685934059718
1592167975.6093607,0.18404478285613363,8.813407971426889,4.154681594285378,-0.3466666666666667,-0.17,-0.6944444444444444,-0.10822506877904803,-0.016015134982614233,-0.02443949457972048
1592167975.6193607,0.1904559192334898,8.792279596167448,4.164772040383255,-0.3466666666666667,-0.17371158696475397,-0.6981560314091984,-0.11188475481602016,-0.030665946177059554,-0.028782683052600365
1592167975.6293607,0.16245257236557425,8.751698285089617,4.187547427634426,-0.3466666666666667,-0.17777777777777778,-0.7022222222222222,-0.11464020634950285,-0.04737920616536441,-0.02270149805767562
1592167975.6393607,0.13314236974909374,8.731903949581824,4.205619210083635,-0.3466666666666667,-0.17777777777777778,-0.7022222222222222,-0.12087452817588924,-0.062167249291900276,-0.034751283735078825
1592167975.6493607,0.12,8.715547723240686,4.243286339444116,-0.3466666666666667,-0.17777777777777778,-0.7022222222222222,-0.116001925681646,-0.0679976818946598,-0.04908738521234052
1592167975.6593606,0.13355540355677153,8.706444596443228,4.328740082079343,-0.3466666666666667,-0.17777777777777778,-0.7022222222222222,-0.10869524388525321,-0.07196244993754287,-0.04563716653626657
1592167975.6693606,0.19384348374881666,8.626670523473932,4.468200974720381,-0.3412538908952078,-0.17994288808636133,-0.698433279182201,-0.08989668008550873,-0.07853981633974483,-0.03773178360380259
1592167975.6793606,0.2625632698324686,8.570529525921819,4.530974692067013,-0.33555555555555555,-0.18222222222222223,-0.6944444444444444,-0.07199483164476608,-0.07853981633974483,-0.03381575425739013
1592167975.6893606,0.4800588907444845,8.702047112595588,4.425964665553309,-0.33555555555555555,-0.18222222222222223,-0.6944444444444444,-0.023530253249058795,-0.06675113510835656,-0.022027073026001872
1592167975.6993606,0.5353482947232947,8.726741473616475,4.3830224420849415,-0.33555555555555555,-0.18222222222222223,-0.6944444444444444,0.007965512763931952,-0.05484548360926357,-0.01113626618829514
1592167975.7093606,0.49500109346979837,8.65999956261208,4.330001312163758,-0.33555555555555555,-0.18222222222222223,-0.6944444444444444,0.015816593085802612,-0.037088437451362026,-0.013634836097568435
1592167975.7193606,0.37177972260916964,8.71622130700745,4.328888316879656,-0.33170377997160144,-0.17516063365163967,-0.6989381826257243,0.04760827918856664,-0.03398541408716731,-0.03752435429037761
1592167975.7293606,0.27545111492281305,8.739771297884506,4.364320182961692,-0.3288888888888889,-0.17,-0.7022222222222222,0.0677312986378217,-0.0360223633531434,-0.04425280322629162
1592167975.7393606,0.20036969916636463,8.643983327292498,4.358890902500906,-0.3288888888888889,-0.17,-0.7022222222222222,0.10008323007930606,-0.04147173369641202,-0.03540159052726809
1592167975.7493606,0.18945426305509144,8.671455298519756,4.3,-0.3288888888888889,-0.17,-0.7022222222222222,0.13286335873557792,-0.03587835449065268,-0.0355016093193558
1592167975.7593606,0.16427976939628924,8.822756079736918,4.2786011530185535,-0.3288888888888889,-0.17,-0.7022222222222222,0.14073078916564793,-0.025250777347891603,-0.039579628647213524
1592167975.7693605,0.16181445138269404,8.895443354148082,4.2581855486173055,-0.3288888888888889,-0.1731832689067301,-0.7022222222222222,0.0945897224595843,-0.018295596824429407,-0.030290259230642
1592167975.7793605,0.19014547438287038,8.779709051234258,4.2900727371914344,-0.3288888888888889,-0.17777777777777778,-0.7022222222222222,0.02500976402996864,-0.01143587082353657,-0.009801608248978133
1592167975.7893605,0.2010662685417068,8.675888557118089,4.242487959930649,-0.3288888888888889,-0.17777777777777778,-0.7022222222222222,0.021683545221684877,-0.0039148342843793775,-0.007558274240961766
1592167975.7993605,0.1409796034262458,8.68869386209834,4.17,-0.3288888888888889,-0.17777777777777778,-0.7022222222222222,0.06413861476528113,-0.003201253576023507,-0.008762265645704578
1592167975.8093605,0.13884579152160556,8.775329100962523,4.137033381118165,-0.3288888888888889,-0.17777777777777778,-0.7022222222222222,0.07711948004748342,-0.013095866980098347,-0.007635815477475192
1592167975.8193605,0.23254550451991204,8.835958038113853,4.138503542633765,-0.3315835301463203,-0.17957420528273205,-0.6932400846974509,0.028018300466651505,-0.03017101224084337,-0.004549447964514522
1592167975.8293605,0.38864772010190013,8.725136373197467,4.262431813401267,-0.33555555555555555,-0.18222222222222223,-0.68,-0.047035133445930175,-0.039269908169872414,0.005147481243619077
1592167975.8393605,0.47092058674759735,8.553555892766818,4.299079413252403,-0.33555555555555555,-0.18222222222222223,-0.68,-0.04290959722234478,-0.03212240085755117,0.0014787185114266584
1592167975.8493605,0.4865685763540873,8.497389648398348,4.294105360221304,-0.33555555555555555,-0.18222222222222223,-0.68,-0.011036707743876061,-0.025463418251493262,-0.006439369639062088
1592167975.8593605,0.5153530790539101,8.67335265288728,4.283176646068613,-0.33555555555555555,-0.18222222222222223,-0.68,0.10722218090366933,-0.008598340572364992,-0.019224282909458955
1592167975.8693604,0.4229959669675437,8.81,4.184569123981453,-0.32998329477108046,-0.1852226703369396,-0.6885727088991925,0.1345765977909713,0.008992253634512953,-0.023499863106120802
1592167975.8793604,0.3310256818906243,8.78773894631392,4.146643367788352,-0.3211111111111111,-0.19,-0.7022222222222222,0.11828013628165099,0.019276426850836692,-0.02763692133660987
1592167975.8893604,0.21711201384187168,8.786443993079065,4.1167780034604675,-0.3211111111111111,-0.19,-0.7022222222222222,0.10366535921773418,0.022907446432425576,-0.026567838961127667
1592167975.8993604,0.1593408161324075,8.810659183867593,4.13736326452963,-0.3211111111111111,-0.19,-0.7022222222222222,0.08747605816526798,0.01832228403553426,-0.010170884218838591
1592167975.9093604,0.1737524976944359,8.784990009222257,4.202514986166615,-0.3211111111111111,-0.19,-0.7022222222222222,0.06789931199884766,0.010224631392521106,0.007637995127055956
1592167975.9193604,0.18327416721664525,8.740354996700129,4.259645003299871,-0.31929212932408596,-0.18745342549816482,-0.6949462950741216,0.055275213668623514,0.004025528957699328,0.01166134443517452
1592167975.9293604,0.19,8.7,4.3,-0.31555555555555553,-0.18222222222222223,-0.68,0.0545415391248228,0.001090830782496456,0.008726646259971648
1592167975.9393604,0.1733846958948715,8.79972031631585,3.983230608210257,-0.31555555555555553,-0.18222222222222223,-0.68,0.09110802889653473,-0.009817477042468103,0.003963601325631092
1592167975.9493604,0.22969695490923286,8.860909135272301,3.824242387273082,-0.31555555555555553,-0.18222222222222223,-0.68,0.09248921687275351,-0.008131645231699437,-0.011800822675380664
1592167975.9593604,0.22,8.89,3.8,-0.31555555555555553,-0.18222222222222223,-0.68,0.08508480103472357,-0.006544984694978735,-0.022907446432425576
1592167975.9693604,0.263185857805255,8.909085522926325,3.9343363601236474,-0.32328417482397387,-0.1878040028049688,-0.6885873547426871,0.021218091804819008,0.005058369482511579,-0.03329446949299582
1592167975.9793603,0.3,8.86,4.1,-0.33555555555555555,-0.19666666666666666,-0.7022222222222222,-0.01090830782496456,0.01308996938995747,-0.0272707695624114
1592167975.9893603,0.26270149253731345,8.725134328358209,4.247567164179104,-0.33555555555555555,-0.19666666666666666,-0.7022222222222222,-0.026238550583153556,0.04330923827640033,-0.015910391069874925
1592167975.9993603,0.09329399423026488,8.699336480461579,4.262677681615526,-0.33555555555555555,-0.19666666666666666,-0.7022222222222222,0.010988410793519242,0.05825087873296574,-0.019345439070017137
1592167976.0093603,-0.06714435664349513,8.71775553046957,4.28448893906086,-0.33555555555555555,-0.19666666666666666,-0.7022222222222222,0.05334035713251524,0.05068972452942926,-0.02315228007784241
1592167976.0193603,-0.11,8.758723023339085,4.238457732495687,-0.32598121444252753,-0.19427308138840965,-0.6970361207859987,0.09247096216397661,0.026206178939683987,-0.019075069322773384
1592167976.0293603,-0.11,8.81,4.2,-0.3088888888888889,-0.19,-0.6877777777777778,0.11344640137963141,0.008726646259971648,-0.014180800172453926
1592167976.0393603,-0.11288692407527581,8.822886924075275,4.117393737832576,-0.3088888888888889,-0.19,-0.6877777777777778,0.10886788515562942,-0.03649690801634739,-0.005769068477286375
1592167976.0493603,-0.032025249983589694,8.77156116666302,4.07531650001094,-0.3088888888888889,-0.19,-0.6877777777777778,0.09035023212819616,-0.0609852765454574,0.0016707709692040872
1592167976.0593603,0.06722847581381199,8.76,4.136987700465036,-0.3088888888888889,-0.19,-0.6877777777777778,0.07852668408163924,-0.06797323167876977,0.006190129272883644
1592167976.0693603,0.2077966303861637,8.746343819889667,4.227554495303415,-0.31571697894405515,-0.19227603001838875,-0.6896744694597684,0.07524091115207693,-0.056165896267674306,0.0001875246596419293
1592167976.0793602,0.3,8.72,4.3,-0.3288888888888889,-0.19666666666666666,-0.6933333333333334,0.07308566242726255,-0.04036073895236887,-0.014180800172453926
1592167976.0893602,0.33366011347143426,8.717320226942869,4.252418524871355,-0.3288888888888889,-0.19666666666666666,-0.6933333333333334,0.0950662121398996,-0.01833024620219041,-0.02945243112740431
1592167976.0993602,0.34,8.734293484772243,4.135652121822059,-0.3288888888888889,-0.19666666666666666,-0.6933333333333334,0.12874769933523197,-0.015117493243202327,-0.024768965773662308
1592167976.1093602,0.28965143730037496,8.790348562699625,4.050440415021723,-0.3288888888888889,-0.19666666666666666,-0.6933333333333334,0.16230359699462604,-0.019108549839807032,-0.012659648797382192
1592167976.1193602,0.1846046007774167,8.892316319378066,3.9584464410883835,-0.3182831694244426,-0.1922191068912537,-0.6851224537479556,0.18292369595178828,-0.027692907798701524,-0.000502284026911323
1592167976.1293602,0.15,8.92,3.91,-0.29444444444444445,-0.18222222222222223,-0.6666666666666666,0.18216874067690814,-0.03599741582238304,0.0032724923474893677
1592167976.1393602,0.19874282733437665,8.891257172665624,3.8856285863328117,-0.29444444444444445,-0.18222222222222223,-0.6666666666666666,0.1329309892495052,-0.026317075044172453,0.002181661564992912
1592167976.1493602,0.25,8.84,3.86,-0.29444444444444445,-0.18222222222222223,-0.6666666666666666,0.1112647398146385,-0.020725784867432664,0.002181661564992912
1592167976.1593602,0.3164519556954265,8.85,3.9107532594923775,-0.29444444444444445,-0.18222222222222223,-0.6666666666666666,0.10612735349563468,-0.002943820890892161,0.015201366953919835
1592167976.1693602,0.35034216945844854,8.852298259879655,3.947701740120345,-0.29687038542852495,-0.18490352541515334,-0.6666666666666666,0.11113938918349327,0.01631176090192277,0.023534199588151707
1592167976.1793602,0.4002664334252843,8.886518648097065,3.8705328668505685,-0.31555555555555553,-0.20555555555555555,-0.6666666666666666,0.10981352803555197,0.03849101942033503,0.02944274333467811
1592167976.1893601,0.31996423665387713,8.937173511439534,3.7185152290275214,-0.31555555555555553,-0.20555555555555555,-0.6666666666666666,0.10752196200616237,0.05579823447137655,0.03257076243848715
1592167976.1993601,0.2615284156142365,8.991295445847685,3.637176138538079,-0.31555555555555553,-0.20555555555555555,-0.6666666666666666,0.09500393031428998,0.07166138308467461,0.03860301104968945
1592167976.2093601,0.24936824556242032,9.008289693046974,3.6557626752966557,-0.31555555555555553,-0.20555555555555555,-0.6666666666666666,0.061844574726041254,0.08172321935942571,0.046208199568286125
1592167976.21936,0.261215128572403,8.955169838346634,3.7657056135325013,-0.3161048208019765,-0.20412746591486103,-0.6643597526316986,0.023039996397572385,0.10174610472278066,0.03939010714191546
1592167976.22936,0.09,8.82,4.0,-0.3211111111111111,-0.19111111111111112,-0.6433333333333333,0.004363323129985824,0.12435470920459597,0.030543261909900768
1592167976.23936,-0.029276637053597697,8.805716302876979,4.097148908630935,-0.3211111111111111,-0.19111111111111112,-0.6433333333333333,0.02641049767772741,0.12256450038760786,0.024621829128950126
1592167976.24936,-0.10364005736137667,8.808200286806883,4.006319311663479,-0.3211111111111111,-0.19111111111111112,-0.6433333333333333,0.06198990065090818,0.09131536366381064,0.028863476362189326
1592167976.25936,-0.11,8.84,3.93,-0.3211111111111111,-0.19111111111111112,-0.6433333333333333,0.08072147790473774,0.062177354602297986,0.039269908169872414
1592167976.26936,0.03301985435986805,8.901699757266448,3.7296203398269743,-0.31411896710303383,-0.19545106256440048,-0.6483966100288375,0.10562517114725502,-0.0009783666515942712,0.05203046255038986
1592167976.27936,0.08,8.98,3.62,-0.28888888888888886,-0.2111111111111111,-0.6666666666666666,0.09708393964218458,-0.03599741582238304,0.04690572364734761
1592167976.28936,0.30793403998794333,9.005484527278208,3.6337415854516224,-0.28888888888888886,-0.2111111111111111,-0.6666666666666666,0.02432934594658346,-0.05627982121321675,0.024835853980473478
1592167976.29936,0.556644785525028,8.873368343159955,3.749921227890101,-0.28888888888888886,-0.2111111111111111,-0.6666666666666666,-0.037434194084798526,-0.053456436811811676,0.0021902542692209172
1592167976.30936,0.5729922025316455,8.802992202531646,3.9011809620253164,-0.28888888888888886,-0.2111111111111111,-0.6666666666666666,-0.05972085891205432,-0.03946748385975324,-0.01585567556388357
1592167976.31936,0.5190160642570282,8.77977108433735,4.037116465863454,-0.2959674252565819,-0.20842614904060688,-0.6617849174475681,-0.0403283206881501,-0.021866557300212086,-0.030997555693615154
1592167976.32936,0.48,8.85,4.24,-0.3211111111111111,-0.1988888888888889,-0.6444444444444445,-0.01308996938995747,-0.006544984694978735,-0.04036073895236887
1592167976.33936,0.5437386110548694,8.796869305527435,4.199300971856651,-0.3211111111111111,-0.1988888888888889,-0.6444444444444445,0.005188900264015334,0.004562263366336033,-0.02835166161536496
1592167976.34936,0.53,8.79,4.11,-0.3211111111111111,-0.1988888888888889,-0.6444444444444445,0.014180800172453926,-0.002181661564992912,-0.016362461737446838
1592167976.35936,0.5035438967964553,8.781263380778732,4.0540524644159515,-0.3211111111111111,-0.1988888888888889,-0.6444444444444445,0.05405743832114108,-0.0051364814730986315,0.0032170162260566773
1592167976.36936,0.5199901972316983,8.87994118339019,3.980044112457358,-0.3211111111111111,-0.1988888888888889,-0.6444444444444445,0.08724668025109455,-0.008724507627688198,0.013084088151177984
1592167976.37936,0.6675177722436043,8.9,4.014379443060901,-0.3022222222222222,-0.2111111111111111,-0.6355555555555555,0.09554729320911927,-0.0006769226114608975,0.013328830955008539
1592167976.38936,0.7335582001099242,8.882208999450379,4.010429899395417,-0.3022222222222222,-0.2111111111111111,-0.6355555555555555,0.08656377123823879,0.022572692473747068,0.014374869882963309
1592167976.39936,0.737363973668462,8.809025733093955,3.9163897067624176,-0.3022222222222222,-0.2111111111111111,-0.6355555555555555,0.09465844377804261,0.05776710812303279,0.015074720005080706
1592167976.40936,0.65926692920949,8.852961867255786,3.889633464604745,-0.3022222222222222,-0.2111111111111111,-0.6355555555555555,0.12730249839245067,0.09130508257006763,0.014342344971267972
1592167976.41936,0.5464627797521853,8.869076745749688,3.833231389876093,-0.3022222222222222,-0.2111111111111111,-0.6355555555555555,0.14927575528912193,0.11327833946673888,0.015221275247134824
1592167976.42936,0.35,8.92,3.77,-0.33555555555555555,-0.2,-0.6577777777777778,0.15926129424448257,0.13199052468207118,0.01090830782496456
1592167976.43936,0.04338842975206611,8.998305785123968,3.599235537190083,-0.33555555555555555,-0.2,-0.6577777777777778,0.14984724428892948,0.1401469639421015,-0.008961039651251878
1592167976.44936,-0.08815660647485338,9.057679074493143,3.47,-0.33555555555555555,-0.2,-0.6577777777777778,0.12389317287180877,0.12059463519505553,-0.025394372354622444
1592167976.45936,-0.17391771271987266,9.081958856359936,3.4837119945195543,-0.33555555555555555,-0.2,-0.6577777777777778,0.09159563064445315,0.08376857745992994,-0.028811396882632057
1592167976.4693599,-0.1781403056527343,9.081261277849382,3.553732277665255,-0.33465394136541254,-0.20124838887865956,-0.6574310030892613,0.05284071882171471,0.04015928373696767,-0.02577140447470452
1592167976.4793599,0.0,8.95,3.76,-0.3211111111111111,-0.22,-0.6522222222222223,0.01090830782496456,0.004363323129985824,-0.019634954084936207
1592167976.4893599,0.0615194980932464,8.9,3.764805019067536,-0.3211111111111111,-0.22,-0.6522222222222223,-0.0019464801122430916,-0.00932022245425075,-0.01669396479625841
1592167976.4993598,0.061316975695896656,8.913892838886566,3.681736604860821,-0.3211111111111111,-0.22,-0.6522222222222223,0.007159061747776824,-0.004840076859684191,-0.01987016272989106
1592167976.5093598,0.01740754287572137,8.98,3.6964811428106965,-0.3211111111111111,-0.22,-0.6522222222222223,0.013857664938217698,0.0053934413725883965,-0.02617993877991494
1592167976.5193598,0.00036170039827684505,8.98,3.739095749004308,-0.3211111111111111,-0.22,-0.6522222222222223,0.004560600094226628,0.019339038638575,-0.02617993877991494
1592167976.5293598,-0.0444,8.914133333333334,3.8575999999999997,-0.3022222222222222,-0.20777777777777778,-0.6433333333333333,-0.02158390508299654,0.028870654710072868,-0.01835504596680703
1592167976.5393598,-0.0767469393246334,8.86785550921566,3.9613493878649266,-0.3022222222222222,-0.20777777777777778,-0.6433333333333333,-0.03823954049545998,0.03832627276943488,-0.009730744768493206
1592167976.5493598,-0.12,8.79,3.97,-0.3022222222222222,-0.20777777777777778,-0.6433333333333333,-0.031634092692397225,0.039269908169872414,-0.002181661564992912
1592167976.5593598,-0.08406194690265487,8.789257743362832,4.087422566371681,-0.3022222222222222,-0.20777777777777778,-0.6433333333333333,0.0038437305028365164,0.04003686839703475,0.0007287087495017806
1592167976.5693598,-0.009815916348381441,8.780030680608602,4.180214764260222,-0.3022631297003597,-0.2077539150821976,-0.6433606049854249,0.038309600061306875,0.03600745602807003,0.009827517248155098
1592167976.5793598,0.05,8.79,4.25,-0.31555555555555553,-0.2,-0.6522222222222223,0.08072147790473774,0.039269908169872414,0.01308996938995747
1592167976.5893598,0.048641351389082786,8.751358648610918,4.202300991204803,-0.31555555555555553,-0.2,-0.6522222222222223,0.12320649673302446,0.0529526998507837,0.016214256164708382
1592167976.5993598,0.02,8.78,4.04,-0.31555555555555553,-0.2,-0.6522222222222223,0.1679879405044542,0.06544984694978735,0.01308996938995747
1592167976.6093597,-0.06261894194922776,8.83349192259897,4.013452645126931,-0.31555555555555553,-0.2,-0.6522222222222223,0.220023091121554,0.0705707049044276,0.010955921533227707
1592167976.6193597,-0.11846351855139357,8.907951358068525,3.873841203621516,-0.31555555555555553,-0.2,-0.6522222222222223,0.25961913019708444,0.0634637235318965,0.011971204586446437
1592167976.6293597,-0.12,8.963269059483403,3.7687511133578875,-0.3088888888888889,-0.20777777777777778,-0.6522222222222223,0.28194820692302724,0.04857352017339891,0.01961392051673179
1592167976.6393597,-0.12,8.98,3.66,-0.3088888888888889,-0.20777777777777778,-0.6522222222222223,0.2901609881440573,0.04036073895236887,0.025089107997418484
1592167976.6493597,0.0034441175691076304,9.111377647027643,3.25,-0.3088888888888889,-0.20777777777777778,-0.6522222222222223,0.28756737757639306,0.028851319213337195,0.030918956856192715
1592167976.6593597,0.05136113831211655,9.131361138312117,3.247277723375767,-0.3088888888888889,-0.20777777777777778,-0.6522222222222223,0.26175988690229135,0.020280353396405063,0.03540350719434624
1592167976.6693597,0.05974320030376306,9.139743200303764,3.230513599392474,-0.3088888888888889,-0.20777777777777778,-0.6522222222222223,0.2279292653095495,0.01753733002402059,0.03174614269783362
1592167976.6793597,0.06,9.15,3.25,-0.3088888888888889,-0.22,-0.6311111111111111,0.17889624832941878,0.015271630954950384,0.025089107997418484
1592167976.6893597,0.060777558002779855,9.17,3.1815551160055597,-0.3088888888888889,-0.22,-0.6311111111111111,0.12968861864613268,0.0010790220990015596,0.012496240446731357
1592167976.6993597,0.07,9.17,3.2,-0.3088888888888889,-0.22,-0.6311111111111111,0.08944812416470939,-0.011999138607461015,0.00545415391248228
1592167976.7093596,-0.009612395276067427,9.128837185828203,3.302325628343595,-0.3088888888888889,-0.22,-0.6311111111111111,0.04030997959123726,-0.019136058932469117,-0.004617009828569839
1592167976.7193596,-0.0011450489552841427,9.103435146865852,3.353129706268295,-0.3088888888888889,-0.22,-0.6311111111111111,0.015371586156762262,-0.03206707775034504,-0.01015887503623095
1592167976.7293596,0.0,9.1,3.47,-0.3088888888888889,-0.21333333333333335,-0.6166666666666667,-0.001090830782496456,-0.04363323129985824,-0.009817477042468103
1592167976.7393596,0.047405660377358494,9.062075471698114,3.5174056603773587,-0.3088888888888889,-0.21333333333333335,-0.6166666666666667,-0.015570065791671112,-0.04259900022777434,-0.0067147838262163915
1592167976.7493596,0.03069837981800695,9.02,3.452793519272028,-0.3088888888888889,-0.21333333333333335,-0.6166666666666667,-0.03716442802521513,-0.031253185590719094,-0.008840918390475086
1592167976.7593596,0.04946131563297332,9.02,3.5353868436702665,-0.3088888888888889,-0.21333333333333335,-0.6166666666666667,-0.03938743086779288,-0.020431978122631502,-0.011999138607461015
1592167976.7693596,0.04141500565925528,9.02,3.615849943407447,-0.3088888888888889,-0.21333333333333335,-0.6166666666666667,-0.04114286338876086,-0.01604339682021156,-0.011999138607461015
1592167976.7793596,0.02,8.98,3.72,-0.29444444444444445,-0.21444444444444444,-0.6444444444444445,-0.04799655442984406,-0.009817477042468103,-0.01308996938995747
1592167976.7893596,-0.022057171437365342,8.937942828562635,3.7788800400123117,-0.29444444444444445,-0.21444444444444444,-0.6444444444444445,-0.04983164471898841,-0.007064841608751573,-0.014007514534529647
1592167976.7993596,-0.06,8.93,3.63,-0.29444444444444445,-0.21444444444444444,-0.6444444444444445,-0.02945243112740431,0.001090830782496456,-0.01308996938995747
1592167976.8093596,-0.06980463980463981,8.998632478632478,3.6201953601953605,-0.29444444444444445,-0.21444444444444444,-0.6444444444444445,0.0026331776031690984,0.001090830782496456,-0.008811888225881016
1592167976.8193595,-0.03823184630413546,9.023826115271898,3.5882318463041356,-0.29444444444444445,-0.21444444444444444,-0.6444444444444445,0.018000306328163594,-0.005839905208409063,-0.005261278264518889
1592167976.8293595,0.04840422190111203,9.010398944524722,3.6388031664258342,-0.3020670771292748,-0.22206707712927476,-0.6008865433882711,0.018609400447651026,-0.0022904568070117046,-8.703619361503413e-05
