time,acc_x,acc_y,acc_z,mag_x,mag_y,mag_z,gyr_x,gyr_y,gyr_z
1592167804.1395242,0.09,9.299553294453407,2.820297803697729,-0.35555555555555557,-0.6075957866291655,-0.4275461526795439,0.02292368910445679,-0.014245770860578794,-0.010061117122936353
1592167804.1495242,0.09,9.27,2.84,-0.35555555555555557,-0.5955555555555555,-0.4122222222222222,0.02399827721492203,-0.01854412330243975,-0.02617993877991494
1592167804.1595242,0.06215043944755165,9.263306414792831,2.8454568542403837,-0.35555555555555557,-0.5955555555555555,-0.4122222222222222,0.028244312067643655,-0.025819264876342677,-0.039765488494268204
1592167804.1695242,-0.020807238283735065,9.243467873047289,2.7808072382837348,-0.35555555555555557,-0.5955555555555555,-0.4122222222222222,0.03541695536217005,-0.03138789048072611,-0.05135710281420421
1592167804.1795242,0.004093318429308046,9.25,2.8020538708397935,-0.35555555555555557,-0.5955555555555555,-0.4122222222222222,0.042542400517361786,-0.03960518533390082,-0.05227645160195749
1592167804.1895242,0.19845702730030335,9.25338281092012,2.747462891809909,-0.35593142343556905,-0.5964952252555892,-0.4128799910122458,0.04263465237443762,-0.04727473107565096,-0.040912617709021985
1592167804.1995242,0.49,9.37,2.66,-0.3688888888888889,-0.6288888888888889,-0.43555555555555553,0.04581489286485115,-0.05999569303730508,0.015271630954950384
1592167804.2095242,0.46422902025630425,9.365572550640762,2.6653741215378255,-0.3688888888888889,-0.6288888888888889,-0.43555555555555553,0.043085335722870564,-0.03794593992786762,-0.007364347874720803
1592167804.2195241,0.45,9.33,2.58,-0.3688888888888889,-0.6288888888888889,-0.43555555555555553,0.022907446432425576,-0.01854412330243975,-0.017453292519943295
1592167804.2295241,0.37364957499314505,9.287528692859102,2.6069395589329782,-0.3688888888888889,-0.6288888888888889,-0.43555555555555553,0.0066860334008826405,-0.008790910802134469,-0.019224327588802752
1592167804.2395241,0.2585102825614446,9.32016552415984,2.679668951680321,-0.3686681900091029,-0.6285394489958944,-0.43504059150272156,0.011908859183061124,-0.004291099590465911,-0.017399124865303362
1592167804.249524,0.17863332644485777,9.324244449036762,2.651366673555142,-0.35555555555555557,-0.6077777777777778,-0.40444444444444444,0.004347568438654045,-0.0025113328643710745,-0.013552966956361158
1592167804.259524,0.23314082370785208,9.345690117839226,2.556070470190176,-0.35555555555555557,-0.6077777777777778,-0.40444444444444444,-0.0016470004849243537,-0.008726646259971648,-0.01060871435139127
1592167804.269524,0.34890570210929495,9.447299185412957,2.323795112477747,-0.35555555555555557,-0.6077777777777778,-0.40444444444444444,-0.008280916219403085,-0.00666435407741894,-0.005661145188170432
1592167804.279524,0.4,9.44,2.28,-0.35555555555555557,-0.6077777777777778,-0.40444444444444444,-0.02181661564992912,-0.001090830782496456,-0.0032724923474893677
1592167804.289524,0.3406371191135734,9.44,2.3294690674053555,-0.35555555555555557,-0.6077777777777778,-0.40444444444444444,-0.07146200663651066,0.014018636039506623,-0.0032724923474893677
1592167804.299524,0.42,9.42,2.4,-0.35555555555555557,-0.6077777777777778,-0.4266666666666667,-0.12980886311707826,0.038179077387375956,0.001090830782496456
1592167804.309524,0.3878262317834837,9.34,2.6430426092990977,-0.35555555555555557,-0.6077777777777778,-0.4266666666666667,-0.18876056826489235,0.055679576158253655,0.0017074189080752299
1592167804.319524,0.38,9.34,2.69,-0.35555555555555557,-0.6077777777777778,-0.4266666666666667,-0.2203478180642841,0.06763150851478027,0.0
1592167804.329524,0.34705025055401384,9.29276947034279,2.873417716464693,-0.35555555555555557,-0.6077777777777778,-0.4266666666666667,-0.2639379509968649,0.0685771463641596,0.008903221076487874
1592167804.339524,0.28006069196829647,9.100174489408852,3.149749645630777,-0.35555555555555557,-0.6077777777777778,-0.4266666666666667,-0.3032153725253582,0.06218314751068394,0.009816649484127252
1592167804.349524,0.18,9.06,3.28,-0.3422222222222222,-0.6144444444444445,-0.41888888888888887,-0.3196134192714616,0.04690572364734761,0.008726646259971648
1592167804.359524,0.14352487815935622,9.096762439079678,3.315143658619517,-0.3422222222222222,-0.6144444444444445,-0.41888888888888887,-0.27172235632582525,0.03349393259504872,-0.0032724923474893677
1592167804.369524,0.11,9.062284840959022,3.2959050530136595,-0.3422222222222222,-0.6144444444444445,-0.41888888888888887,-0.20404683212793315,0.023603373340085696,-0.006171128467297268
1592167804.379524,0.11,9.02,3.31,-0.3422222222222222,-0.6144444444444445,-0.41888888888888887,-0.16253378659197193,0.017453292519943295,-0.01308996938995747
1592167804.389524,0.21438648767329527,9.010510319302428,3.177144470233988,-0.3422222222222222,-0.6144444444444445,-0.41888888888888887,-0.09214266300934666,-0.006355469868297603,-0.022406441628834345
1592167804.399524,0.3604170266420716,9.170834053284144,3.132552128330259,-0.3622222222222222,-0.6144444444444445,-0.44,-0.01506692348071861,-0.02771383121654374,0.016288775197325835
1592167804.409524,0.41068305124043586,9.27136610248087,3.1167076281010897,-0.3622222222222222,-0.6144444444444445,-0.44,0.013164478721866456,-0.0064838799611389155,0.04116693700529855
1592167804.419524,0.36592213393870604,9.195922133938707,3.042011123723042,-0.3622222222222222,-0.6144444444444445,-0.44,0.0032360900489588383,0.020536740549757796,0.02572297849774906
1592167804.429524,0.3087298242973776,9.138729824297378,3.042378945784266,-0.3622222222222222,-0.6144444444444445,-0.44,-0.02179900902794594,0.04242145246378501,0.012016745229444197
1592167804.439524,0.30083957259490574,9.130839572594907,2.9950374355694347,-0.3622222222222222,-0.6144444444444445,-0.44,-0.014913465476984824,0.04844630307087598,0.01890228878040531
1592167804.449524,0.21,9.32,3.08,-0.3422222222222222,-0.5955555555555555,-0.43555555555555553,0.025089107997418484,0.05890486225480862,0.02399827721492203
1592167804.459524,0.18229824514256537,9.20482894842923,3.0971271935717932,-0.3422222222222222,-0.5955555555555555,-0.43555555555555553,0.025515871979348115,0.06083582416507821,0.007385115822751866
1592167804.469524,0.22327220766849248,9.11509168849726,3.0630888306739696,-0.3422222222222222,-0.5955555555555555,-0.43555555555555553,-0.0027370786197624813,0.05368918956603002,0.00577108974354817
1592167804.479524,0.22218475839019636,9.098313779417909,3.1228739033560786,-0.3422222222222222,-0.5955555555555555,-0.43555555555555553,0.00531179981179338,0.03791996520143481,0.01854412330243975
1592167804.489524,0.11266919649073945,9.149421041637655,3.079067678596296,-0.3422222222222222,-0.5955555555555555,-0.43555555555555553,0.03796500507429517,0.03632712592033716,0.01854412330243975
1592167804.4995239,0.12415248342067431,9.25453369197236,3.016228725131011,-0.3622222222222222,-0.6022222222222222,-0.44,0.08726646259971647,0.032724923474893676,0.02945243112740431
1592167804.5095239,0.14177351256361687,9.283397311545748,3.0329059497455324,-0.3622222222222222,-0.6022222222222222,-0.44,0.08629916155094773,0.03175762242612494,0.029839351546911808
1592167804.5195239,0.15138896740154512,9.161388967401546,3.0069448370077256,-0.3622222222222222,-0.6022222222222222,-0.44,0.08256987288597897,0.023482948568687545,0.02814929737817128
1592167804.5295238,0.16292539800409325,9.172925398004093,3.0480497346639375,-0.3622222222222222,-0.6022222222222222,-0.44,0.08928750158919825,-0.0009573342581755796,0.0058003913830643955
1592167804.5395238,0.1857151395504682,9.195715139550467,3.032856573633021,-0.3622222222222222,-0.6022222222222222,-0.44,0.10503201093835024,-0.008415259739352832,-2.1732451791194735e-07
1592167804.5495238,0.22828076831870997,9.182655916528338,3.0629689352620346,-0.38222222222222224,-0.6022222222222222,-0.4488888888888889,0.13163251903754303,-0.01262978727896359,-0.00560754794948024
1592167804.5595238,0.3347097701815821,9.26,3.0080969829085595,-0.38222222222222224,-0.6022222222222222,-0.4488888888888889,0.14901101128708366,-0.008807596574296191,-0.0075548651631506475
1592167804.5695238,0.29576974314628274,9.255769743146283,2.933172692640288,-0.38222222222222224,-0.6022222222222222,-0.4488888888888889,0.14501770125604976,-0.002412386284687981,-0.014872974331539134
1592167804.5795238,0.2528187074347333,9.216735776106697,2.96,-0.38222222222222224,-0.6022222222222222,-0.4488888888888889,0.13690094634529723,-0.00450575176613684,-0.021010642139734696
1592167804.5895238,0.17099177071509647,9.179541713961408,2.96,-0.38222222222222224,-0.6022222222222222,-0.4488888888888889,0.15556426318581446,-0.006128648882703556,-0.024256436372868125
1592167804.5995238,0.15639562529719447,9.246395625297195,2.904650499286733,-0.3477777777777778,-0.6077777777777778,-0.4488888888888889,0.19718672624306122,-0.026903009683766608,-0.01919094497898425
1592167804.6095238,0.21299249530956849,9.296496247654783,2.772715759849906,-0.3477777777777778,-0.6077777777777778,-0.4488888888888889,0.19977655050281481,-0.03884472975511887,-0.008159741706966922
1592167804.6195238,0.3365100130347197,9.34,2.588412608128925,-0.3477777777777778,-0.6077777777777778,-0.4488888888888889,0.17318204780380386,-0.032361106396991725,-0.0036706927632446213
1592167804.6295238,0.53,9.34,2.58,-0.3477777777777778,-0.6077777777777778,-0.4488888888888889,0.14289883250703572,-0.01308996938995747,0.0
1592167804.6395237,0.6237887786788869,9.332184268443426,2.572184268443426,-0.3477777777777778,-0.6077777777777778,-0.4488888888888889,0.12414242325382824,0.015044644489853745,0.01108333274053169
1592167804.6495237,0.5,9.34,2.62,-0.3477777777777778,-0.6144444444444445,-0.45444444444444443,0.11671889372712078,0.0643590161672909,0.019634954084936207
1592167804.6595237,0.4317620195820546,9.408237980417946,2.62,-0.3477777777777778,-0.6144444444444445,-0.45444444444444443,0.08588108518878837,0.08881658845631317,0.02069832679315457
1592167804.6695237,0.1837851821687786,9.27054135626512,2.6940537044578052,-0.3477777777777778,-0.6144444444444445,-0.45444444444444443,0.03823813019520507,0.11061609959271378,0.021669218796405213
1592167804.6795237,0.08,9.21,2.72,-0.3477777777777778,-0.6144444444444445,-0.45444444444444443,0.031634092692397225,0.11344640137963141,0.020725784867432664
1592167804.6895237,0.04961230027132951,9.240387699728672,2.6516276756104915,-0.3477777777777778,-0.6144444444444445,-0.45444444444444443,0.06312453905202556,0.10930292159546981,0.024869264651594284
1592167804.6995237,0.06,9.47,2.58,-0.3622222222222222,-0.6144444444444445,-0.4622222222222222,0.07090400086226964,0.10035643198967394,0.02399827721492203
1592167804.7095237,0.09035515877829262,9.389289682443415,2.538934523665122,-0.3622222222222222,-0.6144444444444445,-0.4622222222222222,0.009920391598474234,0.08491046287710763,0.014277654704462782
1592167804.7195237,0.11240188790560472,9.348970619469027,2.4830881415929205,-0.3622222222222222,-0.6144444444444445,-0.4622222222222222,-0.04513578473805377,0.0752298946599192,0.019784671414281325
1592167804.7295237,0.1821910564021939,9.319269647865935,2.5732865846032906,-0.3622222222222222,-0.6144444444444445,-0.4622222222222222,-0.05662361436607825,0.0741964104745065,0.02411778080340698
1592167804.7395236,0.2721122684151287,9.28929591052829,2.708168402622693,-0.3622222222222222,-0.6144444444444445,-0.4622222222222222,-0.052536579946782444,0.07501381735836567,0.029022222106561954
1592167804.7495236,0.3536636559341071,9.290974822163983,2.781949644327967,-0.3477777777777778,-0.6288888888888889,-0.4711111111111111,-0.04991237448885371,0.08785131391287965,0.045336378154081286
1592167804.7595236,0.22342111363530995,9.310299040289305,2.8131220733460056,-0.3477777777777778,-0.6288888888888889,-0.4711111111111111,-0.044724062082354694,0.09936346191301136,0.03586693488127122
1592167804.7695236,0.009932636853550156,9.32,2.590246998203649,-0.3477777777777778,-0.6288888888888889,-0.4711111111111111,-0.04474610662048069,0.1025209478027911,0.031638991478647446
1592167804.7795236,-0.01980854684693202,9.32,2.6992980051054176,-0.3477777777777778,-0.6288888888888889,-0.4711111111111111,-0.05447888622699103,0.0949510081088386,0.033801831391205295
1592167804.7895236,0.024701528559935636,9.305099490480021,2.7447015285599354,-0.3477777777777778,-0.6288888888888889,-0.4711111111111111,-0.06510659652335096,0.08677531084755462,0.03869193459517236
1592167804.7995236,0.11103594531194465,9.308446082032084,2.7720718906238893,-0.37444444444444447,-0.6288888888888889,-0.45444444444444443,-0.0754368301475433,0.08164280253194638,0.03932641022163502
1592167804.8095236,0.15074149902082962,9.25074149902083,2.847775502937511,-0.37444444444444447,-0.6288888888888889,-0.45444444444444443,-0.08195385742972879,0.07508533275190528,0.04163356097521551
1592167804.8195236,0.1880772654441873,9.288077265444187,2.7357682036674382,-0.37444444444444447,-0.6288888888888889,-0.45444444444444443,-0.08908108300770061,0.06592175700879864,0.050797136718322144
1592167804.8295236,0.15195198928844683,9.261463991966336,2.8821920428462127,-0.37444444444444447,-0.6288888888888889,-0.45444444444444443,-0.08426013150259475,0.0592242557552498,0.04504345558279586
1592167804.8395236,0.12103933807519233,9.267240165481201,2.8610393380751926,-0.37444444444444447,-0.6288888888888889,-0.45444444444444443,-0.08083485210132178,0.04389905103800832,0.03919560531827037
1592167804.8495235,0.12987066562604527,9.279935332813022,2.8798059984390676,-0.38217192552123985,-0.6222653336802071,-0.4621719255212398,-0.06987665694212832,0.01650354365379157,0.02191537299137043
1592167804.8595235,0.10044925007074805,9.220898500141496,2.939101499858504,-0.38222222222222224,-0.6222222222222222,-0.4622222222222222,-0.07518564802455369,0.006692001436841937,-0.02116320790831488
1592167804.8695235,0.1,9.2388131347634,2.78008835451109,-0.38222222222222224,-0.6222222222222222,-0.4622222222222222,-0.07731951864377268,-0.005768183214124585,-0.02797319960448078
1592167804.8795235,0.09071539841389728,9.258569203172206,2.844276812688822,-0.38222222222222224,-0.6222222222222222,-0.4622222222222222,-0.06630826342257848,-0.010596156380313242,-0.022284842816906094
1592167804.8895235,0.08240014843460089,9.275199703130797,2.812000742173004,-0.38222222222222224,-0.6222222222222222,-0.4622222222222222,-0.06959492296475797,-0.020856490260894034,-0.016842524431964382
1592167804.8995235,0.10857563699518544,9.24935256227054,2.9302589750917845,-0.39555555555555555,-0.6077777777777778,-0.47555555555555556,-0.06644180343157739,-0.03067038601080902,-0.024351399717444957
1592167804.9095235,0.00714599775760108,9.203248180798909,2.9487007276804365,-0.39555555555555555,-0.6077777777777778,-0.47555555555555556,-0.059400912439167654,-0.03972296014390726,-0.04949743897605118
1592167804.9195235,0.054786641060471215,9.254786641060472,2.730853435758115,-0.39555555555555555,-0.6077777777777778,-0.47555555555555556,-0.043964123620222055,-0.060281723798484295,-0.026367815719689144
1592167804.9295235,0.1322655640874188,9.314199173065564,2.7280663910218546,-0.39555555555555555,-0.6077777777777778,-0.47555555555555556,-0.04352776929012462,-0.07695788619374051,0.003592048422437353
1592167804.9395235,0.11089839695536848,9.334550801522315,2.73,-0.39555555555555555,-0.6077777777777778,-0.47555555555555556,-0.05791844728934274,-0.08092068567132558,0.009719477137086402
1592167804.9495234,-0.023597749022350817,9.269372714844371,2.897739802244619,-0.38378434136295075,-0.6136633848740802,-0.4834030316839588,-0.08830697082266688,-0.08566442952382995,-0.0025741151031205937
1592167804.9595234,-0.004172870721543286,9.21521608840193,2.911043217680386,-0.38222222222222224,-0.6144444444444445,-0.48444444444444446,-0.09651495266287988,-0.0969229990702107,-0.015110690382976494
1592167804.9695234,0.11664217328865487,9.25486237434179,2.784385351842987,-0.38222222222222224,-0.6144444444444445,-0.48444444444444446,-0.0755515457227068,-0.11187720291889416,0.007127422538347118
1592167804.9795234,0.13,9.295578445037682,2.823367667556522,-0.38222222222222224,-0.6144444444444445,-0.48444444444444446,-0.06823440454720496,-0.11635715610766598,-0.004736296597704671
1592167804.9895234,0.10186720268765453,9.271867202687655,2.9214315912651228,-0.38222222222222224,-0.6144444444444445,-0.48444444444444446,-0.08681158433105526,-0.12669253315158377,-0.017285827152092734
1592167804.9995234,0.1695014652878364,9.189332030855256,3.0306679691447433,-0.39400021707967947,-0.6213149414446278,-0.48444444444444446,-0.09682944797918157,-0.14246271331151408,-0.015071520992964473
1592167805.0095234,0.22304732072938807,9.223047320729389,2.9452958943953464,-0.39555555555555555,-0.6222222222222222,-0.48444444444444446,-0.07172697466215286,-0.14023307588508305,-0.029207149790250506
1592167805.0195234,-0.02122651933701661,9.31075138121547,2.9120552486187847,-0.39555555555555555,-0.6222222222222222,-0.48444444444444446,-0.0549079618407111,-0.13962634015954636,-0.09133688862456789
1592167805.0295234,0.07125068643602417,9.138123970345964,2.9359822899505765,-0.39555555555555555,-0.6222222222222222,-0.48444444444444446,-0.06762184918124499,-0.1386815974369518,-0.08872734319873528
1592167805.0395234,-0.02650778579567034,9.11,2.9331466008355487,-0.39555555555555555,-0.6222222222222222,-0.48444444444444446,-0.049628243391812266,-0.14376863851837313,-0.07979056382639761
1592167805.0495234,-0.08,9.302014722575763,2.8950882322589524,-0.38973692759871426,-0.6096151949823994,-0.4582606186386586,-0.00322997880214973,-0.14902753717377273,-0.06778951781700904
1592167805.0595233,-0.006702122562407167,9.23837765320301,2.8991622346796992,-0.3888888888888889,-0.6077777777777778,-0.45444444444444443,-0.030800015597745808,-0.16343604387711574,-0.043553448194617435
1592167805.0695233,0.025432855567805956,9.27238809261301,2.7728357221609703,-0.3888888888888889,-0.6077777777777778,-0.45444444444444443,-0.056934872374181066,-0.17766215430236776,-0.03867727556085041
1592167805.0795233,0.063612163652933,9.296806081826468,2.7752091227396996,-0.3888888888888889,-0.6077777777777778,-0.45444444444444443,-0.07850248563979226,-0.1873201156677008,-0.04459548437368833
1592167805.0895233,0.13137415202643937,9.27272259909936,2.8140967511257995,-0.3888888888888889,-0.6077777777777778,-0.45444444444444443,-0.09148269297213137,-0.182762719658104,-0.041351638579513995
1592167805.0995233,0.26,9.29,2.83,-0.39555555555555555,-0.6077777777777778,-0.4622222222222222,-0.08835729338221293,-0.16907877128695067,-0.03381575425739013
1592167805.1095233,0.32007981798515533,9.29,2.842015963597031,-0.39555555555555555,-0.6077777777777778,-0.4622222222222222,-0.09097876997681259,-0.15203917342205284,-0.03184964681144038
1592167805.1195233,0.3925111874284525,9.29,2.8012332188573215,-0.39555555555555555,-0.6077777777777778,-0.4622222222222222,-0.10424648281950077,-0.10968599242238351,-0.027883446608215685
1592167805.1295233,0.3554947869969516,9.209890616594512,2.985822937213413,-0.39555555555555555,-0.6077777777777778,-0.4622222222222222,-0.13214619797380178,-0.07438045288600056,-0.017561238297354054
1592167805.1395233,0.3034277485245786,9.153427748524578,3.0698786090398276,-0.39555555555555555,-0.6077777777777778,-0.4622222222222222,-0.14106901080322404,-0.04840577498932355,-0.017813960180862714
1592167805.1495233,0.25671233801295895,9.184337877969762,3.1155251079913606,-0.42056822954163664,-0.612952813774898,-0.4415220782337413,-0.1346752671553253,-0.026080323900816826,-0.010923253738088667
1592167805.1595232,0.25,9.208354151880767,3.086583392476934,-0.42777777777777776,-0.6144444444444445,-0.43555555555555553,-0.1274340416654758,-0.017439666812511117,0.013144472219686181
1592167805.1695232,0.31458556396529447,9.250365977478308,2.910462894591102,-0.42777777777777776,-0.6144444444444445,-0.43555555555555553,-0.13270091388143465,-0.006675322561689245,0.03154367677559071
1592167805.1795232,0.36220496596682966,9.235846275524878,2.9585636564087814,-0.42777777777777776,-0.6144444444444445,-0.43555555555555553,-0.15261552456564506,0.014080015188595144,0.027880551394712887
1592167805.1895232,0.376302329916123,9.21109301025163,3.0682326188257223,-0.42777777777777776,-0.6144444444444445,-0.43555555555555553,-0.1749540489117734,0.03435610689253693,0.022742551042937296
1592167805.1995232,0.34571007523462344,9.062840300938493,3.4028918793143568,-0.42301528822703105,-0.5982519799719055,-0.47746546360212694,-0.19011679620734256,0.07262172303411749,0.0010884194990634956
1592167805.2095232,0.357401983394834,9.010996694341943,3.45,-0.4222222222222222,-0.5955555555555555,-0.48444444444444446,-0.1750765376338989,0.09263508088811001,-0.01230572511890067
1592167805.2195232,0.29125412541254125,9.016248624862486,3.3187568756875687,-0.4222222222222222,-0.5955555555555555,-0.48444444444444446,-0.11113113604443176,0.12080860913608439,-0.011045111685475666
1592167805.2295232,0.28643078428175445,9.077877058535789,3.2228305886189466,-0.4222222222222222,-0.5955555555555555,-0.48444444444444446,-0.06925592683151599,0.1274728168921788,0.014734664032994275
1592167805.2395232,0.3204551711480224,9.146546205377627,3.1860910342296047,-0.4222222222222222,-0.5955555555555555,-0.48444444444444446,-0.042869499596455606,0.13911086580592727,0.03832803179724608
1592167805.2495232,0.32499091239549255,9.13247728098873,3.205009087604507,-0.4263914132234743,-0.5955555555555555,-0.4677676804394362,-0.04554664603665818,0.15408530019892913,0.05454748694806433
1592167805.2595232,0.32,9.170174744320214,3.184912627839893,-0.42777777777777776,-0.5955555555555555,-0.4622222222222222,-0.04525994664942515,0.16255284824032748,0.07058486778093376
1592167805.2695231,0.327638731596829,9.225832389580974,3.080696489241223,-0.42777777777777776,-0.5955555555555555,-0.4622222222222222,-0.0313919603782757,0.17195718093951776,0.07308566242726255
1592167805.2795231,0.3076069217107474,9.202678202851246,3.1545010320165123,-0.42777777777777776,-0.5955555555555555,-0.4622222222222222,-0.03459888729624235,0.18511798414829989,0.07471413303478054
1592167805.2895231,0.2880959065214917,9.166191813042984,3.243568420653287,-0.42777777777777776,-0.5955555555555555,-0.4622222222222222,-0.04942433062874805,0.19455713359371934,0.07786439431306989
1592167805.299523,0.28,9.114087502178839,3.3446424960780896,-0.4237875002420932,-0.5899691670055971,-0.47179888830786515,-0.05311309650035306,0.20401562654830727,0.06239388555839123
1592167805.309523,0.19307358398095642,9.020975985437232,3.4095120072813834,-0.4222222222222222,-0.5877777777777777,-0.47555555555555556,-0.028856571590539695,0.20702903616824533,0.029771821614864944
1592167805.319523,0.2074429068102802,9.029954325448223,3.2926941168450474,-0.4222222222222222,-0.5877777777777777,-0.47555555555555556,0.004866388795238295,0.19827219610067068,0.04251250659312948
1592167805.329523,0.22731598143236076,9.127791777188328,3.220736074270557,-0.4222222222222222,-0.5877777777777777,-0.47555555555555556,0.04131449252446541,0.18169186389085987,0.0802113264396478
1592167805.339523,0.18397684558712976,9.171505788603218,3.1984942113967825,-0.4222222222222222,-0.5877777777777777,-0.47555555555555556,0.05817202438924107,0.1735768696681042,0.08472680811779466
1592167805.349523,0.15,9.166807378865892,3.222981552835271,-0.4222222222222222,-0.5973057819301895,-0.4726238619701981,0.04959681401164053,0.1626258825110043,0.07603291781351657
1592167805.359523,0.23992965672481714,9.189976552241605,3.142576205214781,-0.4222222222222222,-0.6022222222222222,-0.4711111111111111,0.03436756403279763,0.14672569238359628,0.07581146050667183
1592167805.369523,0.1762182934428878,9.171144090290118,3.11,-0.4222222222222222,-0.6022222222222222,-0.4711111111111111,0.03478178414924484,0.14053806391440002,0.04802893166312332
1592167805.379523,0.0396910678307589,9.224484313537369,3.0168559915571334,-0.4222222222222222,-0.6022222222222222,-0.4711111111111111,0.02896326840291151,0.12321332951411278,0.014422660475471225
1592167805.389523,0.10989985224101134,9.25,3.0459399113446066,-0.4222222222222222,-0.6022222222222222,-0.4711111111111111,0.011194671052876533,0.09454069749110394,0.016243546675949933
1592167805.399523,0.1691643424157906,9.188328684831582,3.1863398412357866,-0.43044506424467804,-0.5892027223533338,-0.47522253212233906,-0.026654558995942153,0.062230831288374026,0.016343622029660748
1592167805.409523,0.1139053938455136,9.128343236307307,3.297751369847178,-0.43555555555555553,-0.5811111111111111,-0.4777777777777778,-0.0724659621986656,0.043213700398722396,-0.03791434544453118
1592167805.419523,-0.20582647892560066,9.126950601793764,3.1531855569496723,-0.43555555555555553,-0.5811111111111111,-0.4777777777777778,-0.08778493544898334,0.02638062650090121,-0.0885673083425681
1592167805.429523,-0.10101949913521452,9.170968085862535,3.127796100172957,-0.43555555555555553,-0.5811111111111111,-0.4777777777777778,-0.07976545351363375,-0.013535972820988847,-0.04369724882889948
1592167805.439523,0.0743734736051099,9.211457824535037,3.15,-0.43555555555555553,-0.5811111111111111,-0.4777777777777778,-0.09165212286201342,-0.05402962943204126,0.0052888796261619
1592167805.449523,0.10099472570295966,9.119779957671247,3.2602200423287533,-0.43104362399823815,-0.5740209329496123,-0.468753914663143,-0.1298568689062095,-0.08729046549428211,0.011342338791736085
1592167805.459523,-0.03022297091785406,9.095111485458926,3.3262221286352682,-0.42777777777777776,-0.5688888888888889,-0.4622222222222222,-0.16830321231971773,-0.098247507789977,-0.024871125598473626
1592167805.469523,-0.11953990199912581,9.021150245002186,3.333179967333042,-0.42777777777777776,-0.5688888888888889,-0.4622222222222222,-0.16486601487566044,-0.11148614817448038,-0.0687178975790752
1592167805.479523,-0.02431953363823787,8.995706770302615,3.2628796890921588,-0.42777777777777776,-0.5688888888888889,-0.4622222222222222,-0.1392422914158427,-0.12902641905547999,-0.08648688785295641
1592167805.489523,0.21416196942138346,9.145459309549965,3.268378324839273,-0.42777777777777776,-0.5688888888888889,-0.4622222222222222,-0.12238532442174674,-0.13684619400776932,-0.042409781550468206
1592167805.499523,0.2582066707008863,9.18601822518065,3.4192553305093796,-0.4372306663977187,-0.5720398517622025,-0.4517190126445101,-0.12490841464575211,-0.11894365578578014,-0.021355751001886886
1592167805.509523,0.010544563783681918,9.012492933860939,3.491661955907292,-0.4477777777777778,-0.5755555555555556,-0.44,-0.14083905951449813,-0.07756779094490296,-0.07496722733831825
1592167805.519523,0.05459859722288043,9.024146012037345,3.4006276953698875,-0.4477777777777778,-0.5755555555555556,-0.44,-0.10408911938127419,-0.06998037979334053,-0.06978290225250662
1592167805.529523,0.06026817935231266,9.074865910323844,3.341350567257117,-0.4477777777777778,-0.5755555555555556,-0.44,-0.02443813954144418,-0.08148840679038187,-0.03991771196357706
1592167805.539523,-0.005650327375685722,9.120557423464874,3.294349672624314,-0.4477777777777778,-0.5755555555555556,-0.44,0.03148391283948938,-0.08837756187135859,-0.035028195974760555
1592167805.5495229,-0.09128451138917776,9.172793116172969,3.265698279043242,-0.45600862528468283,-0.5755555555555556,-0.42797029979760026,0.04427926191592024,-0.09504239653356991,-0.04082998391610305
1592167805.5595229,-0.04086623813896541,9.128292011019283,3.2631435567799203,-0.4622222222222222,-0.5755555555555556,-0.41888888888888887,0.029204014199893637,-0.10749274246236962,-0.021662690645114037
1592167805.5695229,-0.04468397669174611,9.19575137862517,3.1195646446830834,-0.4622222222222222,-0.5755555555555556,-0.41888888888888887,0.026481755347695937,-0.10917576878922233,-0.01866055879106728
1592167805.5795228,-0.16079494956619877,9.256052996637747,3.130794949566199,-0.4622222222222222,-0.5755555555555556,-0.41888888888888887,0.025950210550651092,-0.10006889339658731,-0.04162500082633369
1592167805.5895228,-0.28405656866393747,9.062902865649423,3.2294194268701153,-0.4622222222222222,-0.5755555555555556,-0.41888888888888887,0.006814140187645333,-0.0981272723965634,-0.07120400977491008
1592167805.5995228,-0.27593584121855524,8.960515644060532,3.2647097029441823,-0.4504660065426278,-0.5673262045798395,-0.4300572937845036,0.016277873890015778,-0.11356598241394616,-0.07104483675110469
1592167805.6095228,-0.11384062673836454,9.197444372334507,3.2215362506953458,-0.44,-0.56,-0.44,0.11277922071282916,-0.1390398138177062,-0.034653649031447534
1592167805.6195228,-0.06,9.316332051634166,3.127335896731667,-0.44,-0.56,-0.44,0.14280827947105396,-0.15320697368409147,-0.02951279981805881
1592167805.6295228,0.06867409644828665,9.185591084262056,3.099301114467243,-0.44,-0.56,-0.44,0.06687482348078105,-0.15707963267948966,-0.03872841254343995
1592167805.6395228,0.14705051561799434,9.096474742191003,3.119400687490659,-0.44,-0.56,-0.44,0.024003412646045726,-0.1545159928566296,-0.043246117610867385
1592167805.6495228,0.08818117096653896,9.156970200359359,3.1154541139776923,-0.4565657524494016,-0.56,-0.4234342475505984,-0.002627875221351262,-0.11899962759323951,-0.05604555946330233
1592167805.6595228,0.041567834857344686,9.24081119265335,3.0545944036733252,-0.4666666666666667,-0.56,-0.41333333333333333,-0.008319912487180203,-0.10538600053655833,-0.03546649147229784
1592167805.6695228,0.06726747855356349,9.202020523129427,3.1279794768705735,-0.4666666666666667,-0.56,-0.41333333333333333,-0.06540856565582831,-0.08282547250160265,0.011677277104283137
1592167805.6795228,0.0719182558763801,9.05424523237086,3.248356947783665,-0.4666666666666667,-0.56,-0.41333333333333333,-0.11304335848949962,-0.05944254983525673,0.0035263261065217703
1592167805.6895227,0.12138122753718156,9.067245487579674,3.2351696749468837,-0.4666666666666667,-0.56,-0.41333333333333333,-0.13372104700165918,-0.04175204042875129,-0.009253552985711979
1592167805.6995227,0.12708412208163128,9.168809073096211,3.2552362923848426,-0.4666666666666667,-0.5563426802312924,-0.41019848781729823,-0.14058726096940716,-0.02708260659591123,-0.011168127770235875
1592167805.7095227,0.0726861330076607,9.039946486066393,3.432340623959143,-0.4666666666666667,-0.5522222222222222,-0.4066666666666667,-0.15611938186254085,-0.013171185235715453,-0.0021381349098103623
1592167805.7195227,0.0005515564891081168,8.994852847466428,3.381103112978216,-0.4666666666666667,-0.5522222222222222,-0.4066666666666667,-0.1616795758024406,0.0006175907965662239,-0.011878807648140055
1592167805.7295227,-0.03403103162383039,9.113875873504679,3.2587080421651073,-0.4666666666666667,-0.5522222222222222,-0.4066666666666667,-0.13494454043606846,0.011119703931362843,-0.008391244541227031
1592167805.7395227,-0.08430019696443056,9.152853280809486,3.3171602363573167,-0.4666666666666667,-0.5522222222222222,-0.4066666666666667,-0.11453723216212788,0.016518821311433462,0.0006224893076185699
1592167805.7495227,-0.18555143009974515,9.071682137125956,3.4744300053491077,-0.46191484080285566,-0.5522222222222222,-0.40407476165004247,-0.12556381829414642,0.016242158352007423,-0.011148914595843391
1592167805.7595227,-0.27785831845893505,8.98,3.575659611952062,-0.45444444444444443,-0.5522222222222222,-0.4,-0.1326496404514806,0.008061310031754795,-0.028080010794990597
1592167805.7695227,-0.29878313398574363,9.052129515524948,3.4302846441947565,-0.45444444444444443,-0.5522222222222222,-0.4,-0.08785738528457301,0.000396083464264208,-0.05180000473994328
1592167805.7795227,-0.19160362613316662,9.156828816697525,3.3115675571693077,-0.45444444444444443,-0.5522222222222222,-0.4,-0.02641973426921647,-0.01985901151980972,-0.06872233929727672
1592167805.7895226,-0.09161427064352164,9.130288865445477,3.310144432722739,-0.45444444444444443,-0.5522222222222222,-0.4,0.0021659063989965593,-0.04079447678916088,-0.07058333197241559
1592167805.7995226,-0.004406353897303289,9.05,3.2477539711858148,-0.4514783072692197,-0.5586488527685425,-0.39011287608258427,0.008971649996860396,-0.058914211081610955,-0.07114433018575722
1592167805.8095226,0.047635665119257244,9.063744197214664,3.2052377141027697,-0.4477777777777778,-0.5666666666666667,-0.37777777777777777,0.014331319803398692,-0.0703684513169012,-0.06711202370960548
1592167805.8195226,0.19,9.340912715486333,2.898630926770502,-0.4477777777777778,-0.5666666666666667,-0.37777777777777777,0.056673419782408085,-0.07901056036988163,-0.029103964775550967
1592167805.8295226,0.17952219394967486,9.34353487620663,2.8999365887152146,-0.4477777777777778,-0.5666666666666667,-0.37777777777777777,0.04208023262251999,-0.0756529191701063,-0.019857270500319588
1592167805.8395226,0.08374444082872329,9.13670137758976,3.215022236685107,-0.4477777777777778,-0.5666666666666667,-0.37777777777777777,-0.0774214160190857,-0.06198933745148045,-0.00724357076069726
1592167805.8495226,0.00030121553513193233,9.044661132522977,3.4048870441743255,-0.4610107059327338,-0.5594988305827321,-0.37116131370029976,-0.13034195693915568,-0.04807048384486887,-0.02115209175669647
1592167805.8595226,-0.042817653525993406,9.089566514842154,3.421083712894613,-0.47444444444444445,-0.5522222222222222,-0.36444444444444446,-0.13139945098965516,-0.03789536201501627,-0.037632034401902235
1592167805.8695226,-0.17939265225066198,9.06530367387467,3.4183404126213595,-0.47444444444444445,-0.5522222222222222,-0.36444444444444446,-0.10471975511965977,-0.028675135968925822,-0.05807903692057531
1592167805.8795226,-0.19,9.06,3.36,-0.47444444444444445,-0.5522222222222222,-0.36444444444444446,-0.10471975511965977,-0.032724923474893676,-0.053450708342326333
1592167805.8895226,-0.1865913825464596,9.039954829527876,3.4899548295278757,-0.47444444444444445,-0.5522222222222222,-0.36444444444444446,-0.12146882134395018,-0.05562251523902864,-0.0032922016840705795
1592167805.8995225,-0.26431360848665675,9.06949577324714,3.535322061992375,-0.47444444444444445,-0.5504637456949739,-0.37112665524798794,-0.10815725528616227,-0.0613767972721834,-0.0007608151444701786
1592167805.9095225,-0.32484835640953186,9.059870019779598,3.595021663370067,-0.47444444444444445,-0.5466666666666666,-0.38555555555555554,-0.10418615526387232,-0.07038457964903512,-0.025684148637601985
1592167805.9195225,-0.2946641104982286,8.969366563523028,3.5673512265123994,-0.47444444444444445,-0.5466666666666666,-0.38555555555555554,-0.1063926411542094,-0.08500733879228743,-0.045228655091971756
1592167805.9295225,-0.26119424973268385,8.934494000237615,3.5429352500891054,-0.47444444444444445,-0.5466666666666666,-0.38555555555555554,-0.08981906106213856,-0.10242770153131762,-0.05313052222717418
1592167805.9395225,-0.1923334314591306,9.008266509665392,3.535266804042783,-0.47444444444444445,-0.5466666666666666,-0.38555555555555554,-0.05369077460461493,-0.11620981795422772,-0.05049819730591488
1592167805.9495225,-0.15082292906956965,9.06,3.4991770709304304,-0.46832639715749086,-0.5466666666666666,-0.3746790270454159,-0.023844124771632686,-0.12159543984475504,-0.05409270094437392
1592167805.9595225,-0.13,9.06,3.52,-0.45444444444444443,-0.5466666666666666,-0.35,-0.01854412330243975,-0.11780972450961724,-0.06544984694978735
1592167805.9695225,-0.16027455815865185,8.990274558158651,3.520411837237978,-0.45444444444444443,-0.5466666666666666,-0.35,-0.04715951852813066,-0.10723008568819647,-0.07203975611842255
1592167805.9795225,-0.09936361485687249,8.974763662171753,3.4641272770286258,-0.45444444444444443,-0.5466666666666666,-0.35,-0.06056688888636533,-0.11955902792627929,-0.0510429322914987
1592167805.9895225,-0.026401802331276335,9.040183367616809,3.527013027720639,-0.45444444444444443,-0.5466666666666666,-0.35,-0.05233320782103949,-0.1309063613342723,-0.023226607128607073
1592167805.9995224,0.05500093533703311,9.072505144353682,3.6649953233148347,-0.45638852514670936,-0.5433339568913553,-0.3522218065168741,-0.04472385802346915,-0.12762822184651307,-0.013361809835318018
1592167806.0095224,0.033667402310788005,8.99,3.680895754900688,-0.4622222222222222,-0.5333333333333333,-0.35888888888888887,-0.04431239843381293,-0.10274512907381651,-0.029573367059930855
1592167806.0195224,0.01881734389199014,8.99,3.5422952096585747,-0.4622222222222222,-0.5333333333333333,-0.35888888888888887,-0.03567298464976207,-0.0827664846981989,-0.034973000674962645
1592167806.0295224,-0.07049224082953445,9.034270732456244,3.4036554314193257,-0.4622222222222222,-0.5333333333333333,-0.35888888888888887,-0.003324203554718755,-0.056855454614433754,-0.04520335051129389
1592167806.0395224,-0.15300206717197537,9.12959834626242,3.3310993798484074,-0.4622222222222222,-0.5333333333333333,-0.35888888888888887,0.036684661764704043,-0.031154397740277593,-0.0463499185832838
1592167806.0495224,-0.09383892276422764,9.156966463414633,3.3960670731707316,-0.46947352077687443,-0.5333333333333333,-0.3452393857271906,0.014640578695868968,-0.02667630004298688,-0.019236701078216845
1592167806.0595224,-0.1,9.12,3.47,-0.4811111111111111,-0.5333333333333333,-0.3233333333333333,-0.019634954084936207,-0.032724923474893676,-0.001090830782496456
1592167806.0695224,-0.06838723404255319,8.949392740926157,3.59252365456821,-0.4811111111111111,-0.5333333333333333,-0.3233333333333333,-0.04748942050936079,-0.017662338839612705,-0.010225248429346754
1592167806.0795224,-0.16469726110772975,8.967385270846014,3.505568837492392,-0.4811111111111111,-0.5333333333333333,-0.3233333333333333,-0.026911505805244942,-0.0022106884194121124,-0.019349731380030256
1592167806.0895224,-0.17829159231657396,9.08436737692873,3.4639242153878453,-0.4811111111111111,-0.5333333333333333,-0.3233333333333333,-0.005309129637357895,0.011861121663489016,-0.015022916498590689
1592167806.0995224,-0.3511401120896718,9.05676060848679,3.5039503602882305,-0.47917356107107906,-0.5255831331732053,-0.3132580731251668,-0.006137473371429621,0.03246885335045176,-0.001696595578925231
1592167806.1095223,-0.54,8.92,3.53,-0.47555555555555556,-0.5111111111111111,-0.29444444444444445,-0.019634954084936207,0.05235987755982988,-0.0272707695624114
1592167806.1195223,-0.3233462941048615,9.036925882097231,3.3431907648465233,-0.47555555555555556,-0.5111111111111111,-0.29444444444444445,-0.05527158724819667,0.06252541305372754,0.0018802585417711896
1592167806.1295223,-0.2926956972524624,9.163217399500448,3.317478203496866,-0.47555555555555556,-0.5111111111111111,-0.29444444444444445,-0.050804265161585725,0.0545415391248228,0.02937655261121765
1592167806.1395223,-0.19830712195121952,9.084921365853658,3.439827707317073,-0.47555555555555556,-0.5111111111111111,-0.29444444444444445,-0.05346786365180326,0.05247100395037455,0.00918994603836385
1592167806.1495223,-0.11753303964757711,8.906790434235369,3.516790434235368,-0.47448570030067827,-0.5123592755751346,-0.29337458918956716,-0.09880702665544204,0.04603045036372081,-0.0214665063364784
1592167806.1595223,0.0,8.89,3.5,-0.4688888888888889,-0.5188888888888888,-0.2877777777777778,-0.13635384781205698,0.04145156973486533,-0.019634954084936207
1592167806.1695223,-0.05327738216344524,9.064621905730755,3.4138374590256584,-0.4688888888888889,-0.5188888888888888,-0.2877777777777778,-0.09401920697238329,0.046004342565010056,0.021838008115257834
1592167806.1795223,-0.2004942798796689,9.127912210974726,3.340494279879669,-0.4688888888888889,-0.5188888888888888,-0.2877777777777778,-0.08088323061711117,0.05976191449846831,0.034900548954662526
1592167806.1895223,-0.29241763854601177,9.070384566272239,3.4716485060015323,-0.4688888888888889,-0.5188888888888888,-0.2877777777777778,-0.11921825383766713,0.07177907057188532,0.05074761257699179
1592167806.1995223,-0.39757590549643657,8.982996517947216,3.704006964105568,-0.4744687790397055,-0.515658426169995,-0.2877777777777778,-0.16358606609620385,0.0793423289987932,0.05377757774403897
1592167806.2095222,-0.53,8.88,3.91,-0.49,-0.5066666666666667,-0.2877777777777778,-0.17562375598192942,0.07853981633974483,0.042542400517361786
1592167806.2195222,-0.5746908887943866,8.78604959600255,3.848641292791835,-0.49,-0.5066666666666667,-0.2877777777777778,-0.1369192683393865,0.06175976913131414,0.007447216332245034
1592167806.2295222,-0.5,8.82,3.74,-0.49,-0.5066666666666667,-0.2877777777777778,-0.10581058590215622,0.044724062082354694,-0.002181661564992912
1592167806.2395222,-0.3367910499297898,8.975609447296332,3.603594530512649,-0.49,-0.5066666666666667,-0.2877777777777778,-0.017450580572140308,0.0124346573361187,0.0133952392921883
1592167806.2495222,-0.15766142175600795,9.098830710878003,3.541169289121996,-0.4844136598150288,-0.5078427382845554,-0.28248545549727877,0.007545147259710571,-0.0020205598190610563,0.012062913435856592
1592167806.2595222,-0.04,9.04,3.6,-0.4688888888888889,-0.5111111111111111,-0.2677777777777778,-0.038179077387375956,-0.007635815477475192,0.015271630954950384
1592167806.2695222,-0.10896525521433813,8.98299732732418,3.649018708730741,-0.4688888888888889,-0.5111111111111111,-0.2677777777777778,-0.0402536966800586,0.022140657903916183,-0.015485715499570927
1592167806.2795222,-0.2,8.99,3.6,-0.4688888888888889,-0.5111111111111111,-0.2677777777777778,-0.03490658503988659,0.030543261909900768,-0.02617993877991494
1592167806.2895222,-0.20283385335413417,9.002557722308893,3.5861521060842434,-0.4688888888888889,-0.5111111111111111,-0.2677777777777778,-0.06016161503620274,0.0209218280907456,0.013228237722372194
1592167806.2995222,-0.021556435643564357,9.088832673267326,3.6127237623762376,-0.4688888888888889,-0.5102896589658965,-0.2669563256325633,-0.08660008379496369,0.017877744497686966,0.033887900293301784
1592167806.3095222,-0.12741647148797858,9.032420534391282,3.655484919458917,-0.4688888888888889,-0.49,-0.24666666666666667,-0.09474403174934516,0.03370996124282652,-0.002304348091985608
1592167806.3195221,-0.27136220840852887,8.975758527727647,3.556811042042644,-0.4688888888888889,-0.49,-0.24666666666666667,-0.09196075588758026,0.04644305079556887,-0.020675111289875345
1592167806.3295221,-0.24051834263326605,8.997111243025051,3.459481657366734,-0.4688888888888889,-0.49,-0.24666666666666667,-0.0992090587971528,0.04877227070919789,-0.0015190301056884643
1592167806.3395221,-0.21382957960888402,9.054466216479955,3.4708521019555802,-0.4688888888888889,-0.49,-0.24666666666666667,-0.10775987270640616,0.05314888727195958,0.00742694431140562
1592167806.349522,-0.23323564356435644,9.198126732673266,3.3913623762376237,-0.46868074807480753,-0.4901324532453245,-0.24702618261826184,-0.13114637286068578,0.06110510034401831,0.006452102073894878
1592167806.359522,-0.4172435446940672,9.067948357552538,3.47,-0.45666666666666667,-0.49777777777777776,-0.2677777777777778,-0.2236834935780875,0.05796779778469599,0.0022935613018113124
1592167806.369522,-0.41687990634898775,9.030639719046963,3.4722933021163294,-0.45666666666666667,-0.49777777777777776,-0.2677777777777778,-0.2724865048071335,0.043653637742674535,0.008205918908744112
1592167806.379522,-0.4180563276865789,9.034168983059736,3.5524141186342897,-0.45666666666666667,-0.49777777777777776,-0.2677777777777778,-0.3008299276366169,0.03320366013970358,0.016974555855133397
1592167806.389522,-0.33758928571428576,8.775892857142857,3.8365178571428573,-0.45666666666666667,-0.49777777777777776,-0.2677777777777778,-0.27972991878643494,0.03964001147107657,0.015534599090016494
1592167806.399522,-0.334600573796621,8.70460057379662,3.9234504303474655,-0.45883915984840434,-0.4961164594623313,-0.26534969716289447,-0.20092915239079606,0.05730168525779821,0.014606005107371575
1592167806.409522,-0.37,8.74,3.95,-0.47555555555555556,-0.48333333333333334,-0.24666666666666667,-0.08508480103472357,0.07853981633974483,0.001090830782496456
1592167806.419522,-0.512119305179946,8.901789577699187,3.867017370501352,-0.47555555555555556,-0.48333333333333334,-0.24666666666666667,-0.03948735951110961,0.08287403627691702,0.009117071548360486
1592167806.429522,-0.49218508941570155,8.977013320006083,3.6877003976445537,-0.47555555555555556,-0.48333333333333334,-0.24666666666666667,-0.11004797556812772,0.0640582027677415,0.04014736552058701
1592167806.439522,-0.4114426673791892,8.835573326208108,3.7529840064127034,-0.47555555555555556,-0.48333333333333334,-0.24666666666666667,-0.14095656828473932,0.05719531248565264,0.05877978187956549
1592167806.449522,-0.41944766776089776,8.755523322391022,3.82502900984808,-0.47555555555555556,-0.48333333333333334,-0.24666666666666667,-0.09991569438250068,0.05981494273473171,0.07624398354009258
1592167806.459522,-0.27764990532295397,8.977649905322954,3.774700189354092,-0.4488888888888889,-0.4711111111111111,-0.22333333333333333,-0.035102810648772444,0.07154225047432994,0.09438956695409108
1592167806.469522,-0.2639444298476091,8.96394442984761,3.802111140304782,-0.4488888888888889,-0.4711111111111111,-0.22333333333333333,-0.02641022846297745,0.08270315860307619,0.08567464069588428
1592167806.479522,-0.2532362514164477,8.928087373725196,3.8738252525496057,-0.4488888888888889,-0.4711111111111111,-0.22333333333333333,-0.031200937377699522,0.09385981235988823,0.05276055280083896
1592167806.489522,-0.3692054152009381,8.853809401982732,4.043967807270014,-0.4488888888888889,-0.4711111111111111,-0.22333333333333333,-0.027392003990919105,0.11909090706601272,0.0192194127903696
1592167806.499522,-0.572046530780317,8.881364353853545,4.138294557683069,-0.4488888888888889,-0.4703531367480307,-0.22340913076964136,-0.020800198826515875,0.14286162552749412,0.015953184962489174
1592167806.509522,-0.63,8.92,4.09,-0.4488888888888889,-0.4488888888888889,-0.22555555555555556,-0.022907446432425576,0.14180800172453928,0.004363323129985824
1592167806.519522,-0.6145376301040832,8.977797487990392,3.908326160928743,-0.4488888888888889,-0.4488888888888889,-0.22555555555555556,-0.08392183590079251,0.1231725846629059,0.029899320219492907
1592167806.529522,-0.42,8.84,3.73,-0.4488888888888889,-0.4488888888888889,-0.22555555555555556,-0.13962634015954636,0.11344640137963141,0.04581489286485115
1592167806.539522,-0.3893408020782595,8.761977593765222,3.8365919792174057,-0.4488888888888889,-0.4488888888888889,-0.22555555555555556,-0.15117101021888496,0.11575965691627475,0.05446963178634357
1592167806.549522,-0.38082825945770415,8.787515221626887,3.9217174054229584,-0.4488888888888889,-0.4488888888888889,-0.22555555555555556,-0.08895652858252613,0.1315454209135598,0.053541057433562085
1592167806.559522,-0.6343411283398152,8.873973433001666,3.969315622001111,-0.4488888888888889,-0.4622222222222222,-0.19666666666666666,-0.03242630723967317,0.15077866483059793,0.04920214861048892
1592167806.569522,-0.9340108618654074,8.915907674144037,4.0260162927981105,-0.4488888888888889,-0.4622222222222222,-0.19666666666666666,-0.06372939945779046,0.1422336704261104,0.06806902567349302
1592167806.579522,-0.9423444341877913,8.755119411110321,4.074880588889678,-0.4488888888888889,-0.4622222222222222,-0.19666666666666666,-0.09346691734223164,0.1250749585716466,0.07023071642204241
1592167806.589522,-0.9084516796688425,8.685611367616621,4.18,-0.4488888888888889,-0.4622222222222222,-0.19666666666666666,-0.05270522336638842,0.11839386864859619,0.07351489157531858
1592167806.5995219,-0.9001044817704188,8.87759691928037,4.18,-0.4488888888888889,-0.4622222222222222,-0.19666666666666666,0.010121901498425512,0.11566225452403907,0.08170973394898998
1592167806.6095219,-0.8,8.88,4.1,-0.4488888888888889,-0.43666666666666665,-0.20444444444444446,0.031634092692397225,0.09381144729469522,0.08508480103472357
1592167806.6195219,-0.7807706739789292,8.757687978063213,4.096146630105354,-0.4488888888888889,-0.43666666666666665,-0.20444444444444446,0.029710773357751644,0.07677644563766042,0.08223059955014271
1592167806.6295218,-0.8027509992386753,8.74020079939094,4.037249000761324,-0.4488888888888889,-0.43666666666666665,-0.20444444444444446,0.07830032770106768,0.06844415564773401,0.07065283364888457
1592167806.6395218,-0.9361692395654659,8.858427672955974,3.8900400228702114,-0.4488888888888889,-0.43666666666666665,-0.20444444444444446,0.1482606805557047,0.06419623352907959,0.031722032738327466
1592167806.6495218,-0.8900516778818666,8.959886308659895,3.770134362492853,-0.4488888888888889,-0.43666666666666665,-0.20444444444444446,0.17341390850477933,0.04910429675963479,0.01964848332277163
1592167806.6595218,-0.86,9.02,3.75,-0.45444444444444443,-0.4211111111111111,-0.19111111111111112,0.13635384781205698,0.02945243112740431,0.01854412330243975
1592167806.6695218,-0.8412558369499533,9.038430203812558,3.7884302038125584,-0.45444444444444443,-0.4211111111111111,-0.19111111111111112,0.072617611346304,0.011850732167157083,-0.01571685027586218
1592167806.6795218,-0.96,8.89,3.64,-0.45444444444444443,-0.4211111111111111,-0.19111111111111112,0.028361600344907853,-0.002181661564992912,-0.05781403147231216
1592167806.6895218,-0.9794055865921788,8.870406703910614,3.5998435754189946,-0.45444444444444443,-0.4211111111111111,-0.19111111111111112,0.01090830782496456,-0.037207689528549505,-0.04354108961588424
1592167806.6995218,-0.8175128491620112,8.981175418994413,3.557240223463687,-0.45444444444444443,-0.4211111111111111,-0.19111111111111112,0.01090830782496456,-0.06973882295381534,-0.018445643830679176
1592167806.7095218,-0.61,9.02,3.6,-0.43555555555555553,-0.41555555555555557,-0.17777777777777778,-0.019634954084936207,-0.08944812416470939,-0.02181661564992912
1592167806.7195218,-0.510656024607552,8.978031926177344,3.668687950784896,-0.43555555555555553,-0.41555555555555557,-0.17777777777777778,-0.06849024271797169,-0.09057473553900548,-0.024177180173920242
1592167806.7295218,-0.53,8.92,3.63,-0.43555555555555553,-0.41555555555555557,-0.17777777777777778,-0.09381144729469522,-0.0916297857297023,-0.02945243112740431
1592167806.7395217,-0.5112510135526468,8.957497972894707,3.6862469593420597,-0.43555555555555553,-0.41555555555555557,-0.17777777777777778,-0.09790184160617156,-0.08958458857396413,-0.03252022686101157
1592167806.7495217,-0.6004650797568034,8.887627936194558,3.8256976196352053,-0.43555555555555553,-0.41555555555555557,-0.17777777777777778,-0.1050825169864613,-0.08747448228991503,-0.03469856534968804
1592167806.7595217,-0.64,8.87,3.94,-0.42777777777777776,-0.39444444444444443,-0.16444444444444445,-0.10035643198967394,-0.08617563181722002,-0.032724923474893676
1592167806.7695217,-0.64,8.85197917082319,4.00307290211883,-0.42777777777777776,-0.39444444444444443,-0.16444444444444445,-0.09740778071084798,-0.08617563181722002,-0.029776272196067717
1592167806.7795217,-0.6309387182656652,8.829674099077684,4.064080773984976,-0.42777777777777776,-0.39444444444444443,-0.16444444444444445,-0.10714176351651918,-0.08675447120957688,-0.024612666883089544
1592167806.7895217,-0.6486350666146614,8.726074969720608,4.201570012111757,-0.42777777777777776,-0.39444444444444443,-0.16444444444444445,-0.1175080906410354,-0.08069910728597655,-0.03122830892605932
1592167806.7995217,-0.7433475663580563,8.68302383347361,4.218790466610556,-0.42777777777777776,-0.39444444444444443,-0.16444444444444445,-0.09027041795002444,-0.0684891160796613,-0.038742149668407166
1592167806.8095217,-0.77,8.82,4.16,-0.42777777777777776,-0.3888888888888889,-0.17888888888888888,-0.042542400517361786,-0.06981317007977318,-0.044724062082354694
1592167806.8195217,-0.8251332175455453,8.829188869590924,3.9946003473633644,-0.42777777777777776,-0.3888888888888889,-0.17888888888888888,-0.041540050336749214,-0.0808390220665115,-0.04873346280480499
1592167806.8295217,-0.7609176680901778,8.760917668090178,3.98,-0.42777777777777776,-0.3888888888888889,-0.17888888888888888,-0.05006381364045061,-0.09473067454561213,-0.03724554984216075
1592167806.8395216,-0.7008962252931522,8.799402516471233,4.068655662060272,-0.42777777777777776,-0.3888888888888889,-0.17888888888888888,-0.03083655095124748,-0.10027496281152207,-0.027417414083084755
1592167806.8495216,-0.6586907832903394,8.8,4.177403963445117,-0.42777777777777776,-0.3888888888888889,-0.17888888888888888,-0.01432117044232344,-0.09044293164837669,-0.02456708765114851
1592167806.8595216,-0.5600921977367481,8.68,4.289354615842764,-0.4088888888888889,-0.4088888888888889,-0.15777777777777777,0.024581595564985532,-0.06397684207586998,-0.019584668020275562
1592167806.8695216,-0.5706255093275774,8.679921811334053,4.219139924674581,-0.4088888888888889,-0.4088888888888889,-0.15777777777777777,0.08783790964422186,-0.02263451650072151,-0.014044335206601893
1592167806.8795216,-0.6445289958813294,8.670683875514834,4.1175226306631725,-0.4088888888888889,-0.4088888888888889,-0.15777777777777777,0.1553539755250375,0.009611962725936712,0.0020789044067272174
1592167806.8895216,-0.817477360931436,8.856085956590483,4.026261319534282,-0.4088888888888889,-0.4088888888888889,-0.15777777777777777,0.21414402178136693,0.02620831888220499,0.015451789725841346
1592167806.8995216,-0.7875386121383511,8.929445943006307,3.9180926691320423,-0.4088888888888889,-0.4088888888888889,-0.15777777777777777,0.2366934320780944,0.02078622310983028,0.026552463305788594
1592167806.9095216,-0.7572723155654183,8.942386440831484,3.8723864408314843,-0.4011111111111111,-0.3888888888888889,-0.13666666666666666,0.21639346385023947,0.005466479544484131,0.024742014248139915
1592167806.9195216,-0.6005078088026502,8.970612399432088,3.8929574065309986,-0.4011111111111111,-0.3888888888888889,-0.13666666666666666,0.18175651711807075,-0.02010257099112896,0.02045857520675109
1592167806.9295216,-0.29447762600094207,8.987699010833726,3.6720708902496466,-0.4011111111111111,-0.3888888888888889,-0.13666666666666666,0.1328669915444275,-0.03490658503988659,0.01227523748686491
1592167806.9395216,-0.05944201843765162,8.889628012291768,3.760185993854116,-0.4011111111111111,-0.3888888888888889,-0.13666666666666666,0.07746927433939087,-0.03469355282739032,0.024109865516705794
1592167806.9495215,-0.008565016982047549,8.855710011321365,3.7771449943393174,-0.4011111111111111,-0.3888888888888889,-0.13666666666666666,0.07931921431635387,-0.015269183069278842,0.03428453539000228
1592167806.9595215,0.02,9.02,3.63,-0.41555555555555557,-0.4088888888888889,-0.1511111111111111,0.12762720155208535,0.02399827721492203,0.03490658503988659
1592167806.9695215,-0.00043688977767321487,9.089708740148218,3.5785437007410894,-0.41555555555555557,-0.4088888888888889,-0.1511111111111111,0.1345799293236975,0.05264582125065627,0.03715178964728536
1592167806.9795215,-0.0299860529986053,9.069874476987447,3.4800697350069734,-0.41555555555555557,-0.4088888888888889,-0.1511111111111111,0.0882857884355221,0.07198722473554366,0.0414439628256429
1592167806.9895215,-0.02,8.98,3.53,-0.41555555555555557,-0.4088888888888889,-0.1511111111111111,0.0370882466048795,0.06654067773228381,0.03599741582238304
1592167806.9995215,-0.03216883569602603,8.992168835696026,3.596928596328143,-0.41555555555555557,-0.4088888888888889,-0.1511111111111111,0.029787469294477717,0.05990360745010037,0.03267888068129132
1592167807.0095215,-0.04,9.027916830129461,3.6493056100431542,-0.4093518155267861,-0.40165119218865786,-0.14387341441088008,0.00986283916994736,0.044466439433840425,0.026482923555908464
1592167807.0195215,-0.0768754196281805,9.03,3.640781145092955,-0.4088888888888889,-0.4011111111111111,-0.14333333333333334,-0.026470091231934986,0.027543294160700917,0.019140591281533614
1592167807.0295215,-0.0270206043956044,8.950530906593405,3.6223402014652017,-0.4088888888888889,-0.4011111111111111,-0.14333333333333334,-0.06123778668723699,0.023290361001748337,0.02047050848788416
1592167807.0395215,-0.02900559915890364,8.921988801682193,3.701050392430133,-0.4088888888888889,-0.4011111111111111,-0.14333333333333334,-0.06839692238299425,0.02585452186563246,0.024655218778375176
1592167807.0495214,-0.03,8.934330684827847,3.7458267120696176,-0.4088888888888889,-0.4011111111111111,-0.14333333333333334,-0.06168778083226496,0.03477773245937377,0.027433960819089075
1592167807.0595214,-0.003006808624257392,8.922004539082838,3.822984113210066,-0.4018906540877704,-0.4011111111111111,-0.15033156813445178,-0.05203436130503045,0.04995707901556712,0.03032460061627305
1592167807.0695214,-0.025900141894288752,8.902733238737142,3.890433664420007,-0.4011111111111111,-0.4011111111111111,-0.1511111111111111,-0.05032729104235622,0.05315255824728784,0.025834483235014725
1592167807.0795214,-0.09820081488717863,8.882949796278206,3.882949796278205,-0.4011111111111111,-0.4011111111111111,-0.1511111111111111,-0.04924827164145851,0.044151264808541715,0.02043938623052617
1592167807.0895214,-0.17861392313966318,8.854269778822626,3.974344144317037,-0.4011111111111111,-0.4011111111111111,-0.1511111111111111,-0.05095853969905528,0.028508741867001065,0.015892645111506683
1592167807.0995214,-0.14755122890430067,8.8075512289043,4.0607479518261655,-0.4011111111111111,-0.4011111111111111,-0.1511111111111111,-0.0420081615392665,-5.923606127468742e-05,0.012956409645433651
1592167807.1095214,-0.01675935061440488,8.83853170687954,4.025291057493946,-0.4011111111111111,-0.40740225829919974,-0.1511111111111111,-0.009944474832016974,-0.0347312537310487,0.011116807277606047
1592167807.1195214,0.0430236878773804,8.866511843938689,3.935696702275894,-0.4011111111111111,-0.4088888888888889,-0.1511111111111111,0.031850181558507176,-0.04486364586339407,0.00640540091393936
1592167807.1295214,0.05892809915212487,8.932496694064874,3.7771504135660017,-0.4011111111111111,-0.4088888888888889,-0.1511111111111111,0.05972190347694088,-0.03802365655739649,0.0035063448356186153
1592167807.1395214,0.042679859822716965,8.87937950937951,3.8552607709750566,-0.4011111111111111,-0.4088888888888889,-0.1511111111111111,0.054620017777284396,-0.02386290716110573,-0.0033401773743975175
1592167807.1495214,0.002636645962732921,8.87,3.882454451345756,-0.4011111111111111,-0.4088888888888889,-0.1511111111111111,0.053450708342326333,-0.010268771578932604,-0.005721893020691296
1592167807.1595213,-0.07744910473387294,8.878207014961982,3.8653789551140543,-0.4229964843430627,-0.4088888888888889,-0.16205379772708692,0.06866989808232227,0.004784725750155537,-0.011021216971448127
1592167807.1695213,-0.07197754210854648,8.943078602620087,3.8059326263256392,-0.42777777777777776,-0.4088888888888889,-0.16444444444444445,0.07887563979025138,0.003596066918342184,-0.008067248238612282
1592167807.1795213,-0.053347495872317005,8.933347495872317,3.7084112272977436,-0.42777777777777776,-0.4088888888888889,-0.16444444444444445,0.06782335545195944,-0.00036052047413581267,-0.009452321888287782
1592167807.1895213,-0.03386278195488722,8.921931390977443,3.770686090225564,-0.42777777777777776,-0.4088888888888889,-0.16444444444444445,0.057528508565427516,-0.009892317876229607,-0.010697625751841418
1592167807.1995213,-0.03,8.901336543250872,3.821105761248547,-0.42777777777777776,-0.4088888888888889,-0.16444444444444445,0.06241859428389939,-0.014713628358093072,-0.012944175137938602
1592167807.2095213,-0.004765003331896042,8.923646662224138,3.814765003331896,-0.43432018432136027,-0.40234648234530634,-0.14668648382614907,0.07846909256904791,-0.015444891365388062,-0.014180800172453926
1592167807.2195213,-0.03652045323602843,8.940434415210293,3.81,-0.43555555555555553,-0.4011111111111111,-0.14333333333333334,0.0824288051010484,-0.014702521889513495,-0.014180800172453926
1592167807.2295213,-0.07,8.94218677970592,3.7474942376473703,-0.43555555555555553,-0.4011111111111111,-0.14333333333333334,0.0839939702522271,-0.011623929810291814,-0.014180800172453926
1592167807.2395213,-0.014915325500455497,8.908523043143118,3.753607717642662,-0.43555555555555553,-0.4011111111111111,-0.14333333333333334,0.08141876774131708,-0.0031827002922344676,-0.009888795987603876
1592167807.2495213,0.0,8.917477501464402,3.8124325043932052,-0.43555555555555553,-0.4011111111111111,-0.14333333333333334,0.08834747654413626,0.0065351678569020594,-0.009997646033204733
1592167807.2595212,-0.05805379435277439,8.915486551411806,3.8717701728822904,-0.4258799231634265,-0.41159304620258425,-0.14897745222874195,0.1009357197107768,0.017540239375524472,-0.008533550352937364
1592167807.2695212,-0.09673020352521944,8.90163489823739,3.8381744911869515,-0.4222222222222222,-0.41555555555555557,-0.1511111111111111,0.11001636168812233,0.02054744513507321,-0.007635815477475192
1592167807.2795212,-0.1,8.938884212391732,3.6511326229980288,-0.4222222222222222,-0.41555555555555557,-0.1511111111111111,0.12568621239684954,0.012242565701426178,-0.00933245931067649
1592167807.2895212,-0.1,8.994826843374621,3.614942281124874,-0.4222222222222222,-0.41555555555555557,-0.1511111111111111,0.14366343829704747,-0.00811197319043323,-0.010632452053054528
1592167807.2995212,-0.07200377562028049,9.032396979503776,3.62,-0.4222222222222222,-0.41555555555555557,-0.1511111111111111,0.148352986419518,-0.028839588979050312,-0.015183787893555171
1592167807.3095212,-0.015939937597503902,9.015939937597505,3.6676840873634946,-0.41313953891488997,-0.40117464031894606,-0.14581287918183394,0.1342345559010087,-0.05596532005177391,-0.022259499754679044
1592167807.3195212,0.03214487994098189,8.967855120059019,3.6819637800147547,-0.4088888888888889,-0.39444444444444443,-0.14333333333333334,0.11973766103074826,-0.0799238820409505,-0.03188781773625911
1592167807.3295212,0.03255727130138953,8.982328186095831,3.6353436278083375,-0.4088888888888889,-0.39444444444444443,-0.14333333333333334,0.12592848207983132,-0.08724147328031275,-0.03787513304249718
1592167807.3395212,0.007977905627538192,8.99,3.62,-0.4088888888888889,-0.39444444444444443,-0.14333333333333334,0.13832698370919114,-0.0859550555385606,-0.045675875752945294
1592167807.3495212,0.0,8.984441989545724,3.614441989545724,-0.4088888888888889,-0.39444444444444443,-0.14333333333333334,0.14423314128172385,-0.08205337658824287,-0.04799655442984406
1592167807.3595212,-0.06493888637392486,9.025457220461748,3.5645427795382525,-0.4002303707056989,-0.4038245058095669,-0.1483841356068608,0.1461713248545251,-0.07396366022322394,-0.049413301154598396
1592167807.3695211,-0.13123036085802425,9.057807590214507,3.5321924097854938,-0.39555555555555555,-0.4088888888888889,-0.1511111111111111,0.13935791706004405,-0.06409059306778858,-0.05017821599483697
1592167807.3795211,-0.11099685854608204,9.04549842927304,3.4502413610017255,-0.39555555555555555,-0.4088888888888889,-0.1511111111111111,0.12953529872279526,-0.062177354602297986,-0.04622352605895788
1592167807.3895211,-0.10697167961830079,9.067886718473202,3.3642265630535935,-0.39555555555555555,-0.4088888888888889,-0.1511111111111111,0.12121292485624695,-0.059135385508959734,-0.04016110844234731
1592167807.399521,-0.12040127149668732,9.10600317874172,3.34,-0.39555555555555555,-0.4088888888888889,-0.1511111111111111,0.11209293901669998,-0.055544826047174256,-0.035909871962238056
1592167807.409521,-0.11814849771904987,9.124074248859525,3.357777253421425,-0.4113575585968224,-0.41283938964920563,-0.1550616118714278,0.08835780816785828,-0.0521579099916376,-0.03123015755601266
1592167807.419521,-0.0787126653127941,9.096534498984596,3.3778218336718013,-0.4222222222222222,-0.41555555555555557,-0.15777777777777777,0.049908034245970095,-0.046149668610472434,-0.021773363877112813
1592167807.429521,-0.055058917197452234,9.09,3.365058917197452,-0.4222222222222222,-0.41555555555555557,-0.15777777777777777,0.03276348469045327,-0.04064951382114281,-0.016782770302087892
