time,acc_x,acc_y,acc_z,mag_x,mag_y,mag_z,gyr_x,gyr_y,gyr_z
1592167984.1893525,-0.015128149592087213,8.725384448776262,4.278462204894954,-0.37333333333333335,-0.03888888888888889,-0.30666666666666664,-0.022935404336388195,0.0071602948461335116,0.015271630954950384
1592167984.1993525,-0.006090638676796575,8.694362554707187,4.363456167939221,-0.37333333333333335,-0.03888888888888889,-0.30666666666666664,-0.020963725315678843,0.00649554896561151,0.01569807612207552
1592167984.2093525,0.0,8.663898093932977,4.3908471408994645,-0.37706227592984787,-0.030753014132857165,-0.31107359882618385,-0.01863653203946449,0.011148706436430391,0.01469842499499398
1592167984.2193525,-0.004643093661305582,8.673215468306529,4.37,-0.38555555555555554,-0.012222222222222223,-0.3211111111111111,-0.008765217499797385,0.01620673196916045,0.009895341926611298
1592167984.2293525,-0.037813175724376535,8.709271058574792,4.323644707126039,-0.38555555555555554,-0.012222222222222223,-0.3211111111111111,0.00707920925579772,0.020061096714396404,0.008726646259971648
1592167984.2393525,-0.08380754610727863,8.715397484630907,4.274602515369093,-0.38555555555555554,-0.012222222222222223,-0.3211111111111111,0.015773687499102337,0.02432689837068889,0.008726646259971648
1592167984.2493525,-0.09615447088443109,8.706154470884432,4.295382116462276,-0.38555555555555554,-0.012222222222222223,-0.3211111111111111,0.017201426044296624,0.026851287408986506,0.009565610566821436
1592167984.2593524,-0.07618235818235819,8.70345441045441,4.323454410454411,-0.38555555555555554,-0.014525162525162526,-0.3138184668184668,0.020805029657868845,0.024295850150390694,0.013169214180393657
1592167984.2693524,-0.05,8.71,4.33,-0.38555555555555554,-0.01888888888888889,-0.3,0.025089107997418484,0.020725784867432664,0.017453292519943295
1592167984.2793524,-0.028685312475310108,8.71245687498354,4.24851281240947,-0.38555555555555554,-0.01888888888888889,-0.3,0.03095467555810945,0.02576852513170626,0.019634954084936207
1592167984.2893524,-0.0056198070062016625,8.713140578981395,4.197520771975193,-0.38555555555555554,-0.01888888888888889,-0.3,0.03115628775730617,0.024133498127236377,0.019157149149845152
1592167984.2993524,-0.007192555531761637,8.744385111063524,4.216403722234119,-0.38555555555555554,-0.01888888888888889,-0.3,0.03211243410567292,0.02408432557925469,0.017759537204553675
1592167984.3093524,-0.02,8.766904313913312,4.219287058260067,-0.3831477997103532,-0.01888888888888889,-0.2955284534303384,0.035919645942778425,0.02449150394176188,0.014336339931663163
1592167984.3193524,-0.02,8.76,4.24,-0.37777777777777777,-0.01888888888888889,-0.28555555555555556,0.038179077387375956,0.020725784867432664,0.009817477042468103
1592167984.3293524,-0.07,8.75504708577246,4.262056502926954,-0.37777777777777777,-0.01888888888888889,-0.28555555555555556,0.029350538814557226,0.01767762218964478,0.005127931929933709
1592167984.3393524,-0.05328225865386958,8.707461693990401,4.249256047355728,-0.37777777777777777,-0.01888888888888889,-0.28555555555555556,0.02399827721492203,0.010810441030685871,0.003907417458131504
1592167984.3493524,-0.03,8.704665637442107,4.2826671812789465,-0.37777777777777777,-0.01888888888888889,-0.28555555555555556,0.02719782296827842,0.006036042600796997,0.0036724355666589163
1592167984.3593524,-0.026842197905359813,8.736315604189281,4.266842197905359,-0.37391824188432865,-0.022748424782338003,-0.29397636114126274,0.03513616288579939,0.0032724923474893677,0.004363323129985824
1592167984.3693523,-0.02,8.75,4.26,-0.3655555555555556,-0.03111111111111111,-0.31222222222222223,0.04036073895236887,0.0032724923474893677,0.004363323129985824
1592167984.3793523,-0.016528127623845507,8.749792191435768,4.123887489504618,-0.3655555555555556,-0.03111111111111111,-0.31222222222222223,0.04761783190376322,0.002181661564992912,0.0014922217064503366
1592167984.3893523,-0.03399268747546133,8.77,4.081978062426384,-0.3655555555555556,-0.03111111111111111,-0.31222222222222223,0.046909712010779876,0.00043952300374440045,-0.002181661564992912
1592167984.3993523,-0.043268384899021094,8.776536769798042,4.113073539596084,-0.3655555555555556,-0.03111111111111111,-0.31222222222222223,0.038641874500199944,-0.002894712536372668,-0.002181661564992912
1592167984.4093523,-0.044133080345459305,8.778266160690919,4.165423318503009,-0.36794578208147954,-0.028720884585187123,-0.3139605687865306,0.025375019284691505,-0.005003304785746471,-0.002394988783579794
1592167984.4193523,-0.02412538037276531,8.725874619627236,4.282376141118296,-0.37777777777777777,-0.01888888888888889,-0.3211111111111111,0.007689859109814546,-0.005385769527415639,-0.0028224831574774575
1592167984.4293523,-0.06652653147742528,8.71594149650251,4.279707482512541,-0.37777777777777777,-0.01888888888888889,-0.3211111111111111,0.0008854281091866945,0.001360050871753866,-0.002181661564992912
1592167984.4393523,-0.1006536734410444,8.713869265311791,4.25,-0.37777777777777777,-0.01888888888888889,-0.3211111111111111,0.005980303901965664,0.007811198807302986,-0.0009154474526686612
1592167984.4493523,-0.06063231045837458,8.729367689541625,4.240632310458374,-0.37777777777777777,-0.01888888888888889,-0.3211111111111111,0.017108420663898578,0.008114383023655582,0.0034751624088339853
1592167984.4593523,-0.035158739887227265,8.752420630056386,4.22,-0.37966049004385605,-0.01888888888888889,-0.3229938233771894,0.029945899012033282,0.004099273352131586,0.008198546704263171
1592167984.4693522,-0.02,8.76,4.22,-0.38555555555555554,-0.01888888888888889,-0.3288888888888889,0.03490658503988659,0.0032724923474893677,0.006544984694978735
1592167984.4793522,-0.06178250641573995,8.741163120188196,4.24821749358426,-0.38555555555555554,-0.01888888888888889,-0.3288888888888889,0.03233604090123637,0.0032724923474893677,0.005902348660316179
1592167984.4893522,-0.09,8.709257545410594,4.24148490917881,-0.38555555555555554,-0.01888888888888889,-0.3288888888888889,0.030086005495146166,0.0005382456468275097,0.007488176502170804
1592167984.4993522,-0.08718495975653706,8.698445120730389,4.2771849597565375,-0.38555555555555554,-0.01888888888888889,-0.3288888888888889,0.04230849194249017,-0.003135030109371547,0.01308996938995747
1592167984.5093522,-0.11001951491497072,8.727504878728743,4.254990242542514,-0.38180311619118423,-0.01993123315676982,-0.32346869869590805,0.05706501663615694,0.0010233190920269234,0.010634003569092856
1592167984.5193522,-0.24,8.76,4.19,-0.3655555555555556,-0.024444444444444446,-0.3,0.06326818538479445,0.00545415391248228,0.0
1592167984.5293522,-0.3428609242307268,8.814896878791222,4.063067166648285,-0.3655555555555556,-0.024444444444444446,-0.3,0.062222349717843774,-0.007011658634021831,-0.021906605881020697
1592167984.5393522,-0.2528311085316309,8.836757980266976,3.9867579802669764,-0.3655555555555556,-0.024444444444444446,-0.3,0.0471547850691898,-0.02223002975380038,-0.004303558518338891
1592167984.5493522,-0.18530459009267125,8.834086229721986,4.015913770278014,-0.3655555555555556,-0.024444444444444446,-0.3,0.02533549276445038,-0.03321359773245181,0.0006021565249383215
1592167984.5593522,-0.21172685812892889,8.79,4.068795143596696,-0.3684872700877878,-0.02265284111919142,-0.301791603325253,0.008989505150613896,-0.0455520339742089,-0.010776878379643435
1592167984.5693521,-0.2957956586328463,8.79,4.142113922085985,-0.38555555555555554,-0.012222222222222223,-0.31222222222222223,-0.007006170951617001,-0.059480063196458044,-0.015673246110786253
1592167984.5793521,-0.33,8.779251792983136,4.181938844737353,-0.38555555555555554,-0.012222222222222223,-0.31222222222222223,-0.02126374691790109,-0.06662229445685129,-0.014473912049219911
1592167984.5893521,-0.34091204305065875,8.733631935424011,4.190008118389311,-0.38555555555555554,-0.012222222222222223,-0.31222222222222223,-0.028063134954521694,-0.0710034893257317,-0.01556921076644001
1592167984.5993521,-0.37,8.700446995699687,4.261642403440249,-0.38555555555555554,-0.012222222222222223,-0.31222222222222223,-0.014213679594785061,-0.07486024747938869,-0.016818297917199965
1592167984.609352,-0.3747906840581596,8.74179650652181,4.22880232898546,-0.38508979460545667,-0.013353355958176568,-0.31135723760061007,0.0025082756674838814,-0.07790624530073573,-0.018478800481941556
1592167984.619352,-0.4649986198647468,8.77299972397295,4.168003864378709,-0.37777777777777777,-0.03111111111111111,-0.29777777777777775,0.00501806247852662,-0.08999308790775215,-0.01876216901941758
1592167984.629352,-0.5,8.78520520067835,4.046576596947428,-0.37777777777777777,-0.03111111111111111,-0.29777777777777775,-0.005065425972806889,-0.10684135624473456,-0.022668314619281354
1592167984.639352,-0.49342672618482286,8.802191091271727,3.99533763890208,-0.37777777777777777,-0.03111111111111111,-0.29777777777777775,-0.02114268135036226,-0.12456315744606078,-0.025567129958710026
1592167984.649352,-0.4647704302627779,8.806513620175185,4.074404658773703,-0.37777777777777777,-0.03111111111111111,-0.29777777777777775,-0.041791975298139314,-0.13403211807266324,-0.027460922084030524
1592167984.659352,-0.4405469246318221,8.790364616421215,4.187447685051497,-0.37777777777777777,-0.03111111111111111,-0.29777777777777775,-0.058527014179547115,-0.13843607567303373,-0.028341713604104615
1592167984.669352,-0.2994346719262436,8.705282664036877,4.262076003944682,-0.3655555555555556,-0.01888888888888889,-0.29777777777777775,-0.057917152920043985,-0.14870277877327498,-0.03330117272939505
1592167984.679352,-0.2722452280078356,8.731226140039178,4.210812035898137,-0.3655555555555556,-0.01888888888888889,-0.29777777777777775,-0.05006705074220864,-0.15320614231443788,-0.037110832482089864
1592167984.689352,-0.30041162512040975,8.758866386297958,4.147112045673472,-0.3655555555555556,-0.01888888888888889,-0.29777777777777775,-0.05932073780652184,-0.15469555630538656,-0.0485699434554483
1592167984.699352,-0.40149967411269777,8.69993778515139,4.327249511169046,-0.3655555555555556,-0.01888888888888889,-0.29777777777777775,-0.08696643081134482,-0.15349353536923008,-0.0670178717636384
1592167984.709352,-0.4677721158973751,8.641949398589798,4.426658173846063,-0.3655555555555556,-0.01888888888888889,-0.29777777777777775,-0.09781023374083438,-0.15168623488098182,-0.0760543742048797
1592167984.719352,-0.5064019839927855,8.619602975989178,4.512803967985571,-0.37777777777777777,-0.024444444444444446,-0.30666666666666664,-0.05506124233969632,-0.15027209112657083,-0.06998640448473102
1592167984.729352,-0.52,8.64,4.54,-0.37777777777777777,-0.024444444444444446,-0.30666666666666664,-0.028361600344907853,-0.14508049407202864,-0.061086523819801536
1592167984.739352,-0.6253879354639811,8.584612064536019,4.615781266056931,-0.37777777777777777,-0.024444444444444446,-0.30666666666666664,0.0007140956522657545,-0.1277512105494275,-0.04308722739133449
1592167984.749352,-0.69,8.511511160488839,4.830900111099888,-0.37777777777777777,-0.024444444444444446,-0.30666666666666664,0.027639168711033925,-0.0916297857297023,-0.03580104204329794
1592167984.759352,-0.6849254503145737,8.503681231865322,4.724478152202017,-0.37777777777777777,-0.02622993414857588,-0.3061028278127304,0.07458338070666883,-0.09273688073053642,-0.04923937260913755
1592167984.769352,-0.6108065514450317,8.788790172832453,4.311209827167548,-0.37777777777777777,-0.04555555555555556,-0.3,0.1765826150928397,-0.10759856573923773,-0.02570050922445978
1592167984.779352,-0.5763130866792462,8.856079012109777,4.198471110898798,-0.37777777777777777,-0.04555555555555556,-0.3,0.17400706383647105,-0.1195892062203427,-0.02333515986127077
1592167984.789352,-0.6743321103089123,8.756113149485145,4.141943425257427,-0.37777777777777777,-0.04555555555555556,-0.3,0.13000314435290505,-0.13028142304489143,-0.031112962455627346
1592167984.799352,-0.7219792151074628,8.689896075537314,4.16614549424776,-0.37777777777777777,-0.04555555555555556,-0.3,0.1195255791208439,-0.13591071365888124,-0.031827318768246946
1592167984.809352,-0.7251332089438106,8.73625730278653,4.102352185483131,-0.3774687751710356,-0.045092051645442284,-0.3,0.13082385324963086,-0.13861135002699376,-0.04296838273374243
1592167984.819352,-0.66,8.82,4.0,-0.37333333333333335,-0.03888888888888889,-0.3,0.12980886311707826,-0.13962634015954636,-0.06326818538479445
1592167984.829352,-0.6037083452007975,8.890367416690403,3.979265166619197,-0.37333333333333335,-0.03888888888888889,-0.3,0.11421535785547268,-0.14390826264441284,-0.06848062287780016
1592167984.839352,-0.5186551163013305,8.941344883698669,3.8751464535273286,-0.37333333333333335,-0.03888888888888889,-0.3,0.07735313194775936,-0.16047340385859282,-0.052653285667307155
1592167984.849352,-0.55,8.91,3.93,-0.37333333333333335,-0.03888888888888889,-0.3,0.04145156973486533,-0.17671458676442586,-0.04581489286485115
1592167984.8593519,-0.49726938696577067,8.830904080448656,3.921211564494295,-0.37333333333333335,-0.03888888888888889,-0.3,0.021319508177689146,-0.18917729153791588,-0.024724161709714202
1592167984.8693519,-0.4086513645969156,8.762926801852435,3.88842183355065,-0.37333333333333335,-0.057777777777777775,-0.3211111111111111,0.020517633892165592,-0.21730851464514236,-0.030862526465391105
1592167984.8793519,-0.38911370347064234,8.915861851977347,3.7391137034706423,-0.37333333333333335,-0.057777777777777775,-0.3211111111111111,0.021977977713499918,-0.2270808296926318,-0.04864131626173642
1592167984.8893518,-0.2661508562813597,8.97230171256272,3.6267360015076204,-0.37333333333333335,-0.057777777777777775,-0.3211111111111111,-0.03197592967855892,-0.2404437882635349,-0.07130542741250778
1592167984.8993518,-0.2293026746724891,8.899302674672489,3.698367903930131,-0.37333333333333335,-0.057777777777777775,-0.3211111111111111,-0.10979193962877333,-0.233844020697341,-0.10710371458768389
1592167984.9093518,-0.221126013724267,8.891126013724268,3.796487835308796,-0.37333333333333335,-0.057777777777777775,-0.3211111111111111,-0.1436854827781311,-0.22581660258301944,-0.12226661547029131
1592167984.9193518,-0.2450148519922155,8.933313530677045,3.933372938645908,-0.37777777777777777,-0.06333333333333334,-0.30666666666666664,-0.17037138844588764,-0.21289110754884327,-0.10452768934939333
1592167984.9293518,-0.27,8.9,4.0,-0.37777777777777777,-0.06333333333333334,-0.30666666666666664,-0.20398535632683729,-0.2083486794568231,-0.08726646259971647
1592167984.9393518,-0.23,8.763137623297322,4.112874589008924,-0.37777777777777777,-0.06333333333333334,-0.30666666666666664,-0.2197751617915879,-0.20340313585751985,-0.0501141700353198
1592167984.9493518,-0.21359517839922856,8.677476181292189,4.400095274831243,-0.37777777777777777,-0.06333333333333334,-0.30666666666666664,-0.19507948562258234,-0.19634954084936207,-0.020292040253300947
1592167984.9593518,-0.10843432979749278,8.661297589199615,4.4648096432015425,-0.37777777777777777,-0.06333333333333334,-0.30666666666666664,-0.1659601102737258,-0.19634954084936207,-0.00352633929486839
1592167984.9693518,0.04,8.61,4.53,-0.38555555555555554,-0.057777777777777775,-0.3288888888888889,-0.148352986419518,-0.17671458676442586,-0.006544984694978735
1592167984.9793518,0.026945067987718348,8.606181334984647,4.60847253399386,-0.38555555555555554,-0.057777777777777775,-0.3288888888888889,-0.13049873470955886,-0.12623431447117178,-0.026687597133861034
1592167984.9893517,-0.011496688096629652,8.554013247613481,4.585509935710111,-0.38555555555555554,-0.057777777777777775,-0.3288888888888889,-0.08963306386633954,-0.06018063273893522,-0.01702274056877676
1592167984.9993517,-0.02,8.52,4.56,-0.38555555555555554,-0.057777777777777775,-0.3288888888888889,-0.03490658503988659,-0.00545415391248228,-0.002181661564992912
1592167985.0093517,-0.027928498834220123,8.615141986010642,4.433144018652478,-0.38555555555555554,-0.057777777777777775,-0.3288888888888889,0.03860694495262731,0.03605936890681968,0.001277798669948918
1592167985.0193517,-0.1830393805084314,8.77,4.370159967395181,-0.3977777777777778,-0.07111111111111111,-0.3211111111111111,0.11249516848422197,0.07412414400210136,-0.012016588343346893
1592167985.0293517,-0.37,8.767529332803022,4.38,-0.3977777777777778,-0.07111111111111111,-0.3211111111111111,0.12126188884589108,0.06901744498003275,-0.010484725552582707
1592167985.0393517,-0.35692327698309495,8.725734483981558,4.389510344012295,-0.3977777777777778,-0.07111111111111111,-0.3211111111111111,0.12209678362201606,0.04423591562957516,0.01958154090251393
1592167985.0493517,-0.2572998152140437,8.621800123190637,4.45279950723745,-0.3977777777777778,-0.07111111111111111,-0.3211111111111111,0.11452639776337964,0.014693376417108675,0.026092591689231517
1592167985.0593517,-0.23307957345241762,8.637946951031722,4.3882121958731135,-0.3977777777777778,-0.07111111111111111,-0.3211111111111111,0.12421379903017855,-0.00027806190430783306,0.015524517579996334
1592167985.0693517,-0.091423825782043,8.68,4.317152348435914,-0.3888888888888889,-0.06333333333333334,-0.3477777777777778,0.1590283212956879,-0.019169008187346827,-0.0038124722065557364
1592167985.0793517,-0.11155507759198871,8.680388769397997,4.27455722842804,-0.3888888888888889,-0.06333333333333334,-0.3477777777777778,0.1552254549690629,-0.012369030624689976,-0.026191720226651123
1592167985.0893517,-0.1509806418746816,8.690713194090677,4.139910850738665,-0.3888888888888889,-0.06333333333333334,-0.3477777777777778,0.13625660105355628,0.005600024050233334,-0.05367437588687795
1592167985.0993516,-0.25781456953642384,8.76841059602649,4.130198675496689,-0.3888888888888889,-0.06333333333333334,-0.3477777777777778,0.12566226133460828,0.02149153362865534,-0.07804135724045837
1592167985.1093516,-0.3487731049519731,8.794210846805084,4.194562258146889,-0.3888888888888889,-0.06333333333333334,-0.3477777777777778,0.11224057150444686,0.032380590436045575,-0.0794201475719212
1592167985.1193516,-0.39789635525006783,8.786318621687618,4.27,-0.39555555555555555,-0.07777777777777778,-0.3566666666666667,0.09295008855706506,0.03381659282677163,-0.06751761106172861
1592167985.1293516,-0.3600095160728792,8.720038064291517,4.269952419635604,-0.39555555555555555,-0.07777777777777778,-0.3566666666666667,0.09711092874776985,0.014167305619661293,-0.045792055929355924
1592167985.1393516,-0.3697444586282929,8.758977834513171,4.221277706858535,-0.39555555555555555,-0.07777777777777778,-0.3566666666666667,0.12472078376149782,0.00036237811279730275,-0.022429870917739937
1592167985.1493516,-0.4086944576030317,8.76,4.2877153008053055,-0.39555555555555555,-0.07777777777777778,-0.3566666666666667,0.15077100326632706,-0.01477318691288687,0.003508847629305513
1592167985.1593516,-0.3468908249387422,8.76,4.305777293765314,-0.39555555555555555,-0.07777777777777778,-0.3566666666666667,0.16281221127440876,-0.02301629192161287,0.033620931226266346
1592167985.1693516,-0.03,8.75,3.95,-0.4011111111111111,-0.07111111111111111,-0.3711111111111111,0.18762289458939044,-0.001090830782496456,0.05563236990731925
1592167985.1793516,-0.42351531134377707,8.898661339840983,3.7838490907659605,-0.4011111111111111,-0.07111111111111111,-0.3711111111111111,0.21147059542258315,0.051374111050527506,0.02319949677417716
1592167985.1893516,-0.61,9.08,3.56,-0.4011111111111111,-0.07111111111111111,-0.3711111111111111,0.2083486794568231,0.08290313946973066,0.031634092692397225
1592167985.1993515,-0.7603554640456859,8.913817645002137,3.7103554640456857,-0.4011111111111111,-0.07111111111111111,-0.3711111111111111,0.13756439410523882,0.08635603143810061,0.047172106550062064
1592167985.2093515,-0.6620607717875581,8.783787982367222,3.818969614106221,-0.4011111111111111,-0.07111111111111111,-0.3711111111111111,0.054011076660191615,0.07692176310767093,0.04656691064458546
1592167985.2193515,-0.71,8.85,3.82,-0.41333333333333333,-0.08888888888888889,-0.3477777777777778,0.030543261909900768,0.05781403147231216,0.0032724923474893677
1592167985.2293515,-0.6567168037602821,8.965446925186056,3.8288805327066195,-0.41333333333333333,-0.08888888888888889,-0.3477777777777778,0.01794995593614928,0.03940843043375229,-0.02578898297655252
1592167985.2393515,-0.476215716559019,8.906827670130113,3.8665861649349433,-0.41333333333333333,-0.08888888888888889,-0.3477777777777778,-0.0514833736342519,0.01014945903082265,-0.02945243112740431
1592167985.2493515,-0.3597317667565081,8.75955294459418,4.030715288649312,-0.41333333333333333,-0.08888888888888889,-0.3477777777777778,-0.11877376322459476,-0.017619097531314184,-0.02074529133935865
1592167985.2593515,-0.33942399251141847,8.725706654185698,4.084869353302884,-0.41333333333333333,-0.08888888888888889,-0.3477777777777778,-0.10917441360736402,-0.030172093184615945,-0.022222114357394154
1592167985.2693515,-0.3991214579659024,8.919121457965902,4.249560728982951,-0.4122222222222222,-0.08888888888888889,-0.38555555555555554,-0.062201313119660755,-0.05255154569873202,-0.023854526110745424
1592167985.2793515,-0.3202163433274544,8.840216343327453,4.210108171663727,-0.4122222222222222,-0.08888888888888889,-0.38555555555555554,-0.06435311631826152,-0.06976597128753818,-0.010943706919140811
1592167985.2893515,-0.25079417604235604,8.711474898364376,4.1506807223220195,-0.4122222222222222,-0.08888888888888889,-0.38555555555555554,-0.09347729850625913,-0.07951926419276259,-0.016300582332180895
1592167985.2993515,-0.32929600509987256,8.621893327666807,4.202864003399915,-0.4122222222222222,-0.08888888888888889,-0.38555555555555554,-0.07458955322982033,-0.08443612063846001,-0.0288566928796155
1592167985.3093514,-0.34,8.726442273036723,4.260943494453566,-0.4122222222222222,-0.08888888888888889,-0.38555555555555554,-0.021187305319840456,-0.09143574182533927,-0.02895552671224684
1592167985.3193514,-0.34,8.846854983563222,4.28,-0.4122222222222222,-0.10169805281609261,-0.38555555555555554,0.031352651178615895,-0.10114707820735964,-0.004258813060439022
1592167985.3293514,-0.3121548055258426,8.822154805525843,4.215027879560299,-0.4122222222222222,-0.10222222222222223,-0.38555555555555554,0.005387967725583729,-0.11663446041067593,-0.010359851245458615
1592167985.3393514,-0.21079589843750002,8.7388330078125,4.065703125,-0.4122222222222222,-0.10222222222222223,-0.38555555555555554,-0.03214328909282037,-0.13453384352309683,-0.03550260049184632
1592167985.3493514,-0.22587301950204625,8.738624339834015,4.0931216991700765,-0.4122222222222222,-0.10222222222222223,-0.38555555555555554,-0.032234337674521295,-0.14105769549688418,-0.07486908932902805
1592167985.3593514,-0.055517241379310356,8.835172413793103,4.123793103448276,-0.4122222222222222,-0.10222222222222223,-0.38555555555555554,0.011622990061772587,-0.15391998489570682,-0.0893728944555717
1592167985.3693514,0.03,8.89,4.16,-0.4,-0.10666666666666667,-0.41333333333333333,0.02181661564992912,-0.15489797111449674,-0.07090400086226964
1592167985.3793514,0.0739588932806324,8.743470355731224,4.255244268774703,-0.4,-0.10666666666666667,-0.41333333333333333,-0.002159241327566109,-0.14610682355608182,-0.06770721993193694
1592167985.3893514,0.006947956560516236,8.643859975866954,4.29,-0.4,-0.10666666666666667,-0.41333333333333333,0.019290267352709348,-0.12377306822784226,-0.03130900669166425
1592167985.3993514,0.05094820266062836,8.64,4.323965468440419,-0.4,-0.10666666666666667,-0.41333333333333333,0.0922127148316987,-0.10457402284416067,0.00035259800555079157
1592167985.4093513,0.18436402383677336,8.646909112435377,4.171090413986345,-0.4,-0.10666666666666667,-0.41333333333333333,0.16049113179901742,-0.07883724519945784,0.008468822922177289
1592167985.4193513,-0.04849598728043608,9.018081087219866,3.6921263628104177,-0.40663209166161923,-0.1276682902617942,-0.42770286526684165,0.22450747760329198,-0.015548839731559204,-0.024908073694327
1592167985.4293513,-0.12788485297751423,9.130336875051478,3.592643933778107,-0.4066666666666667,-0.12777777777777777,-0.42777777777777776,0.2240031479016192,-0.001819758394587201,-0.0350010140945282
1592167985.4393513,-0.2893836726843074,9.199183359437253,3.54,-0.4066666666666667,-0.12777777777777777,-0.42777777777777776,0.15850661786601156,-0.006566835480581461,0.0027144730394428607
1592167985.4493513,-0.1058671379227247,9.030916539481082,3.67150935818138,-0.4066666666666667,-0.12777777777777777,-0.42777777777777776,0.0905527119102432,-0.020615028171386753,0.039334574658544785
1592167985.4593513,-0.14131087878717632,8.846779016667053,3.8029588075755116,-0.4066666666666667,-0.12777777777777777,-0.42777777777777776,0.008060703157724801,-0.026711054701831435,0.0481763155748119
1592167985.4693513,-0.04638750067171796,8.896030146703207,3.8622389703906714,-0.40948259802604475,-0.12120727127256226,-0.44561200972050563,-0.015760098519598833,-0.020650870485142886,0.037351971022658616
1592167985.4793513,-0.03644918472699156,8.934673777090486,3.9604705159984537,-0.41,-0.12,-0.4488888888888889,-0.051545518909571916,-0.00886898785663243,0.022539958037003326
1592167985.4893513,0.1144576556647646,8.673989593021794,4.0314858852215885,-0.41,-0.12,-0.4488888888888889,-0.10102665360264945,0.0009433337668596341,0.022443073508125598
1592167985.4993513,-0.0254897538033306,8.569030090704036,4.118389883380525,-0.41,-0.12,-0.4488888888888889,-0.10419179867480319,0.025934466517155145,0.006755539064955254
1592167985.5093513,-0.15984599671566468,8.728430528297352,4.13,-0.41,-0.12,-0.4488888888888889,-0.027740774454577274,0.04622770636460753,0.00036920997827076963
1592167985.5193512,-0.14150255885363358,8.92370843690598,4.104929668080128,-0.42207090055401214,-0.1125717535052233,-0.44517476564150055,0.052871813585491624,0.05509462653838979,0.022610327031689446
1592167985.5293512,0.019390882722195746,8.800609117277803,4.194352136456123,-0.42444444444444446,-0.1111111111111111,-0.4444444444444444,0.011807077964471571,0.058205425278335395,0.03241688030444369
1592167985.5393512,-0.009622723435050051,8.70584899288385,4.2354717163189,-0.42444444444444446,-0.1111111111111111,-0.4444444444444444,-0.041842668948958786,0.060592564696679514,0.020314134722423022
1592167985.5493512,-0.08443924229032798,8.72888517306452,4.2866622076774235,-0.42444444444444446,-0.1111111111111111,-0.4444444444444444,-0.0212136790836012,0.05599646656842388,0.028239261990661367
1592167985.5593512,0.006829366913123844,8.75256816081331,4.3,-0.42444444444444446,-0.1111111111111111,-0.4444444444444444,0.012678387442680045,0.06002543380263192,0.05082772406472916
1592167985.5693512,0.0006604062468102412,8.706069204858629,4.33081759722364,-0.4227323557097978,-0.12651990972293106,-0.46070928742358774,0.023068671600645935,0.07167238130832537,0.0604965154175918
1592167985.5793512,-0.06928261376896148,8.673572462077013,4.34,-0.4222222222222222,-0.13111111111111112,-0.46555555555555556,0.030776447673440264,0.08492829163797237,0.04476397859733613
1592167985.5893512,-0.1263970953046773,8.73186279373957,4.27813720626043,-0.4222222222222222,-0.13111111111111112,-0.46555555555555556,0.07405755029258408,0.08895350859227527,0.03807747774974774
1592167985.5993512,-0.14,8.757483456141173,4.245033087717651,-0.4222222222222222,-0.13111111111111112,-0.46555555555555556,0.12454259811301865,0.07720334768732685,0.04770038621861104
1592167985.6093512,-0.10946319228436724,8.729463192284367,4.215570553827494,-0.4222222222222222,-0.13111111111111112,-0.46555555555555556,0.1540999235222472,0.059095256687999795,0.059929774139734174
1592167985.6193511,-0.00030764897346019504,8.778994116174262,4.131005883825739,-0.4222222222222222,-0.13571071885606187,-0.480120980081233,0.19030415610653195,0.037383862020053414,0.06770767412180799
1592167985.6293511,-0.03345085851123452,8.924256891017475,3.936775869975034,-0.4222222222222222,-0.13777777777777778,-0.4866666666666667,0.21515743767265208,0.03341459174717159,0.06249059260556645
1592167985.6393511,-0.008645944980350123,8.875562700964629,3.8172918899607002,-0.4222222222222222,-0.13777777777777778,-0.4866666666666667,0.2037308681164156,0.023891493494163175,0.06559755143945015
1592167985.6493511,0.13193723252496434,8.84350784593438,3.8,-0.4222222222222222,-0.13777777777777778,-0.4866666666666667,0.1746271474588911,0.01641957085259323,0.059344618002502625
1592167985.659351,0.10391936563304874,8.861030237887606,3.8350503964793448,-0.4222222222222222,-0.13777777777777778,-0.4866666666666667,0.16525536614511324,0.02368312226699276,0.040991048848227414
1592167985.669351,0.16590542364121852,8.885619167934767,3.9046670877716845,-0.42135449067029074,-0.14211643553743528,-0.47538615649155713,0.16958787158754732,0.04004917144758048,0.03637143463442395
1592167985.679351,0.12001162837323068,8.898748546453346,3.954994185813385,-0.4211111111111111,-0.14333333333333334,-0.4722222222222222,0.16028577151252188,0.049836300752574864,0.02945369958615135
1592167985.689351,0.03,8.848213679628127,3.9862697065840282,-0.4211111111111111,-0.14333333333333334,-0.4722222222222222,0.14766906752561015,0.06530274482773743,0.020383825420478733
1592167985.699351,0.03692742069423684,8.764580634446105,4.035419365553895,-0.4211111111111111,-0.14333333333333334,-0.4722222222222222,0.16497760263998631,0.07174499679190734,0.033572079219612735
1592167985.709351,2.855792334659213e-05,8.74,4.025738763934297,-0.4211111111111111,-0.14333333333333334,-0.4722222222222222,0.1910378691078633,0.07993741776751775,0.042384342415442956
1592167985.719351,-0.043101566053674704,8.798957047241537,3.927941386704789,-0.4211111111111111,-0.1389661446487751,-0.49114670652197456,0.22579899485720922,0.08937227849980127,0.01899919729188853
1592167985.729351,-0.05719350616546878,8.916322073985626,3.83245195067625,-0.4211111111111111,-0.13666666666666666,-0.5011111111111111,0.2461265573529766,0.09476854491345085,-0.024364058333129008
1592167985.739351,-0.14228405315614617,9.004856035437431,3.734572951273533,-0.4211111111111111,-0.13666666666666666,-0.5011111111111111,0.2512962154932101,0.09823705831197059,-0.04497321363151294
1592167985.749351,-0.1395967281719612,8.96939509225794,3.774072665018071,-0.4211111111111111,-0.13666666666666666,-0.5011111111111111,0.23435265770724267,0.092654631313638,-0.04688372858116069
1592167985.759351,-0.1645625814605632,8.923289031952288,3.81,-0.4211111111111111,-0.13666666666666666,-0.5011111111111111,0.21547229691077013,0.08580235649435777,-0.03973861341426512
1592167985.769351,-0.1284225972120323,8.886140865737344,3.756316947909024,-0.42508763348822043,-0.13998043531425777,-0.5011111111111111,0.21376441819868186,0.08290313946973066,-0.027749358563095832
1592167985.779351,-0.08736320319704888,9.046716876729173,3.5506463264678763,-0.42777777777777776,-0.14222222222222222,-0.5011111111111111,0.22539496433389672,0.08209993859921894,-0.030136254267031086
1592167985.789351,-0.1511062843903852,9.132914856646394,3.436532001158413,-0.42777777777777776,-0.14222222222222222,-0.5011111111111111,0.22298438734048318,0.0818123086872342,-0.03605775427574442
1592167985.799351,-0.16180130253630517,9.094907163949678,3.42,-0.42777777777777776,-0.14222222222222222,-0.5011111111111111,0.21070657896305184,0.0813651391087455,-0.020095802622309006
1592167985.809351,-0.12072157886850611,9.03,3.3790102104159088,-0.42777777777777776,-0.14222222222222222,-0.5011111111111111,0.17673478430765124,0.07880520972275004,0.024803517071187903
1592167985.819351,-0.2036652785519887,9.067023313768567,3.409237302029708,-0.42777777777777776,-0.14222222222222222,-0.5167431769245062,0.1523164896824105,0.06937175149149273,0.03361584432384347
1592167985.829351,-0.2690602485120601,9.08645783300268,3.42677108349866,-0.42777777777777776,-0.14222222222222222,-0.5222222222222223,0.14025192293784136,0.0640751366726431,0.030225212086888244
1592167985.839351,-0.28077377695085914,9.1,3.3646204990697166,-0.42777777777777776,-0.14222222222222222,-0.5222222222222223,0.0903741722846754,0.05286389582140419,0.03331173599581583
1592167985.849351,-0.14662063212531282,9.03538789507832,3.3752284734451754,-0.42777777777777776,-0.14222222222222222,-0.5222222222222223,0.031048689946020863,0.04203929791529464,0.0370882466048795
1592167985.859351,0.01482853493170877,9.026207133732928,3.4681385477056104,-0.42777777777777776,-0.14222222222222222,-0.5222222222222223,-0.017626569226535004,0.03703557545950083,0.03480124274912924
1592167985.869351,0.052438311688311694,9.024417027417028,3.5236042568542567,-0.419960758377425,-0.14790732724066058,-0.5357243466410133,-0.06207708631825034,0.04227642197266865,0.014585572374068594
1592167985.879351,0.03645813435211716,9.063488936644381,3.52,-0.41555555555555557,-0.1511111111111111,-0.5433333333333333,-0.07308566242726255,0.05075197874763288,0.009749235002111353
1592167985.889351,0.012765090330757185,8.984799582515345,3.4795129345692204,-0.41555555555555557,-0.1511111111111111,-0.5433333333333333,-0.06351667935321335,0.07106339265176491,0.04100771239452594
1592167985.899351,0.04773894484092576,8.9869852597879,3.395845616843416,-0.41555555555555557,-0.1511111111111111,-0.5433333333333333,-0.06730265137232151,0.08724640619434675,0.08175213947112504
1592167985.9093509,-0.048423307954241115,9.02506064200176,3.4439690859700804,-0.41555555555555557,-0.1511111111111111,-0.5433333333333333,-0.07253363201979113,0.09110421538712365,0.0890151640492555
1592167985.9193509,-0.10181468277754992,9.00534025302079,3.6228450642016594,-0.42261395224924897,-0.14731043596835314,-0.5259588183950111,-0.08587870504208737,0.08838203728014066,0.07536629958396635
1592167985.9293509,-0.09034216280687804,8.977210515853296,3.8351053573203457,-0.43,-0.14333333333333334,-0.5077777777777778,-0.13484106685584216,0.08796402074969029,0.05555772156284566
1592167985.9393508,-0.17031348730131518,8.896091939947588,3.940313487301315,-0.43,-0.14333333333333334,-0.5077777777777778,-0.15563089099613098,0.08689145361894444,0.026383966961588803
1592167985.9493508,-0.1502325581395349,8.857348837209301,3.928186046511628,-0.43,-0.14333333333333334,-0.5077777777777778,-0.14095055799318157,0.08415125283016846,0.024170780687502866
1592167985.9593508,-0.009117952714990909,8.906617086689183,3.773088897549147,-0.43,-0.14333333333333334,-0.5077777777777778,-0.06277125608509522,0.07910126780316148,0.06827295140151717
1592167985.9693508,0.002724189790923301,8.936965586387897,3.7445516204181533,-0.41464372425859847,-0.1535708504942677,-0.5448887774861647,-0.008888448590659539,0.07837431475099946,0.08253829612287934
1592167985.9793508,0.08802596478748,8.975139605192958,3.67197403521252,-0.4033333333333333,-0.16111111111111112,-0.5722222222222222,-0.007912063571779825,0.07945391817988769,0.06207783545034695
1592167985.9893508,0.011474576271186449,8.975368644067796,3.7138940677966104,-0.4033333333333333,-0.16111111111111112,-0.5722222222222222,-0.04028786282805802,0.08890648354099946,0.027804860651044726
1592167985.9993508,-0.03398692047179727,8.938797384094359,3.8796209272451243,-0.4033333333333333,-0.16111111111111112,-0.5722222222222222,-0.06881217391923357,0.0973463097320631,0.0037073979052895433
1592167986.0093508,0.04443966618410969,8.890640381503875,4.004119475432172,-0.4033333333333333,-0.16111111111111112,-0.5722222222222222,-0.0726188336699232,0.10141233537932201,0.019303143852876483
1592167986.0193508,0.01679177524947563,8.809776584249665,4.077238606750143,-0.41546420475010065,-0.15281104119437558,-0.5811607590556297,-0.03503721017140781,0.10613617805588428,0.06417964928021798
1592167986.0293508,-0.03992079528004526,8.795873272448071,4.0344435464317465,-0.42444444444444446,-0.14666666666666667,-0.5877777777777777,0.0020779828290181414,0.10561142751391898,0.0867903867712609
1592167986.0393507,-0.03896449311871867,8.883448861075017,3.686893479356156,-0.42444444444444446,-0.14666666666666667,-0.5877777777777777,0.0871544319555912,0.09599310885968812,0.102425137276508
1592167986.0493507,0.015043618816705887,8.993913570562647,3.518608238845706,-0.42444444444444446,-0.14666666666666667,-0.5877777777777777,0.11358870282093833,0.08779760376657705,0.08560642605199237
1592167986.0593507,0.03,9.013703242141911,3.558149269083932,-0.42444444444444446,-0.14666666666666667,-0.5877777777777777,0.11053745455908408,0.08233751631578173,0.06443965301642328
1592167986.0693507,0.1562892548508071,8.99722126202511,3.5940766345997064,-0.41615272569161366,-0.14985578926390927,-0.5922425494139174,0.09015601696013346,0.07742902938346782,0.054864608590553525
1592167986.0793507,0.23626725565985643,9.014577581446714,3.5737327443401434,-0.41,-0.15222222222222223,-0.5955555555555555,0.07179877122527266,0.07467582988490508,0.05572452733952354
1592167986.0893507,0.19,8.99317105263158,3.6042161654135336,-0.41,-0.15222222222222223,-0.5955555555555555,0.049661301633432166,0.08898431603876822,0.05121204471764658
1592167986.0993507,0.15392136905889037,8.944537729596668,3.6673113520166636,-0.41,-0.15222222222222223,-0.5955555555555555,0.04005818368089345,0.10991424028617615,0.05074044001227828
1592167986.1093507,0.04632269525020691,8.951669795514645,3.800675427441006,-0.41,-0.15222222222222223,-0.5955555555555555,0.02676116911025622,0.13166511849091403,0.0441776227779999
1592167986.1193507,-0.07458693918539741,8.934923944826771,3.8759021768024335,-0.41364250950894776,-0.1572306727970254,-0.5982874376872663,0.034779707536815696,0.14209494206033138,0.0425056389046132
1592167986.1293507,-0.10489112227805696,8.967068676716918,3.660536013400335,-0.41888888888888887,-0.16444444444444445,-0.6022222222222222,0.07407051634981798,0.12973760281470412,0.07072676369995447
1592167986.1393507,-0.12696303361517838,9.103140853784286,3.3629330789853578,-0.41888888888888887,-0.16444444444444445,-0.6022222222222222,0.09734090014152601,0.12065394935820424,0.06844271408328557
1592167986.1493506,-0.13867420389640872,9.132671543697677,3.285996009701901,-0.41888888888888887,-0.16444444444444445,-0.6022222222222222,0.09904830559867768,0.11453795761879411,0.05221453018305252
1592167986.1593506,0.080961413128975,9.017807717374204,3.365935905791402,-0.41888888888888887,-0.16444444444444445,-0.6022222222222222,0.05279207179079855,0.09261574260862054,0.043971681302850486
1592167986.1693506,0.12393058439632157,9.101352714328092,3.392248590922575,-0.41888888888888887,-0.1613731500708659,-0.6088766933649757,-0.006594817961221529,0.07888282453596146,0.01229231353743485
1592167986.1793506,0.11766369511923336,9.188224203253846,3.4247040338756407,-0.41888888888888887,-0.15777777777777777,-0.6166666666666667,-0.03125010178066262,0.07013259119970233,-0.023424004766869184
1592167986.1893506,0.1405819994874304,9.126018499103003,3.434563500384427,-0.41888888888888887,-0.15777777777777777,-0.6166666666666667,-0.04599526205623479,0.06177478337621416,-0.016277321989506134
1592167986.1993506,0.11530909692202301,9.038400066142254,3.510981740013701,-0.41888888888888887,-0.15777777777777777,-0.6166666666666667,-0.07272071223775324,0.053141313657200435,0.02097962404817517
1592167986.2093506,0.07966538116941296,8.976208172646178,3.58,-0.41888888888888887,-0.15777777777777777,-0.6166666666666667,-0.08628917238248163,0.0416421496133078,0.056305539680850045
1592167986.2193506,0.005708919216983729,8.983880617590295,3.576529845602426,-0.4196600343105719,-0.15700663235609472,-0.6216791119076065,-0.07987485848021954,0.018096377416737627,0.07526732399225547
1592167986.2293506,-0.04,9.01,3.57,-0.4211111111111111,-0.15555555555555556,-0.6311111111111111,-0.074176493209759,-0.0032724923474893677,0.07526732399225547
1592167986.2393506,-0.10737410071942446,9.013830935251798,3.56113309352518,-0.4211111111111111,-0.15555555555555556,-0.6311111111111111,-0.08319742834990056,-0.01106329996852071,0.06419617632026356
1592167986.2493505,-0.06053288866813311,9.083510962889378,3.5295401972610514,-0.4211111111111111,-0.15555555555555556,-0.6311111111111111,-0.1099653098014014,-0.028911001955222185,0.018303634319170294
1592167986.2593505,-0.019616722718311483,9.03853937144845,3.611691986547605,-0.4211111111111111,-0.15555555555555556,-0.6311111111111111,-0.13815770975604497,-0.0522589285902796,-0.012905402288987702
1592167986.2693505,0.18311290322580645,8.88976129032258,3.6988612903225806,-0.41600143369175624,-0.1577910394265233,-0.639094982078853,-0.1603391054337686,-0.08008140655204063,-0.02659762140534181
1592167986.2793505,0.20452368003625648,8.870977566281441,3.7975062315884887,-0.4033333333333333,-0.16333333333333333,-0.6588888888888889,-0.12152779391772933,-0.07799304142678717,-0.07384842826198441
1592167986.2893505,0.12935248041775457,9.016125326370757,3.732261096605744,-0.4033333333333333,-0.16333333333333333,-0.6588888888888889,-0.07065849273315425,-0.08673842075356805,-0.0637267330505436
1592167986.2993505,0.21995903201219513,9.038367473323172,3.696653010670732,-0.4033333333333333,-0.16333333333333333,-0.6588888888888889,-0.07125569401851659,-0.09508035911242488,-0.05108202791366133
1592167986.3093505,0.202140510691469,8.95188496342127,3.786773211874484,-0.4033333333333333,-0.16333333333333333,-0.6588888888888889,-0.08741283296892709,-0.1048974968491683,-0.06421264579808028
1592167986.3193505,0.05704855047153336,8.908524275235767,3.9213657003143556,-0.40522761671905927,-0.15986048045950246,-0.6569946055031629,-0.06661268856633615,-0.11746376769840285,-0.06486594957843708
1592167986.3293505,0.12390767110702802,8.937969223702343,3.9858615066605423,-0.41,-0.1511111111111111,-0.6522222222222223,-0.02294941109849543,-0.13829720018083708,-0.03299680440396239
1592167986.3393505,0.14481844685926318,8.927227670288895,3.983069175722237,-0.41,-0.1511111111111111,-0.6522222222222223,0.007117432335938975,-0.14865540067832833,-0.004546911136051355
1592167986.3493505,0.1543998300403654,8.909111016689092,3.89,-0.41,-0.1511111111111111,-0.6522222222222223,0.04362831312410447,-0.15063162102057734,0.00846969088904579
1592167986.3593504,0.2347554395809217,8.921433420314308,3.902377719790461,-0.41,-0.1511111111111111,-0.6522222222222223,0.0776798258880378,-0.14422420613999773,0.006441977601330529
1592167986.3693504,0.2722204651775713,8.862220465177572,3.9233326744415895,-0.40456736435981344,-0.1511111111111111,-0.6490120284348393,0.10932615591363737,-0.13429307821360287,-0.01248507831362551
1592167986.3793504,0.2014470308345384,8.825658907496384,3.9256589074963846,-0.38555555555555554,-0.1511111111111111,-0.6377777777777778,0.15500648427602465,-0.1209314179102424,-0.0705530695523155
1592167986.3893504,0.16224179179293216,8.91155095809884,3.841036250541138,-0.38555555555555554,-0.1511111111111111,-0.6377777777777778,0.2107368306237887,-0.12083767530753878,-0.08884637648134859
1592167986.3993504,0.13107623961020348,8.993692079870067,3.66,-0.38555555555555554,-0.1511111111111111,-0.6377777777777778,0.24726638903784992,-0.12866748748605683,-0.08003339055961184
1592167986.4093504,0.1235073019933909,8.980130476495043,3.683181110755783,-0.38555555555555554,-0.1511111111111111,-0.6377777777777778,0.22445664889594655,-0.13886828195282525,-0.09661595567808318
1592167986.4193504,0.056761013181377,8.966477973637245,3.6869732928394754,-0.3918072993310164,-0.15258210964651367,-0.639616525947031,0.1883681254254865,-0.15376854680107505,-0.12655180818195896
1592167986.4293504,0.03,9.02,3.6,-0.40444444444444444,-0.15555555555555556,-0.6433333333333333,0.1832595714594046,-0.16471544815696484,-0.12217304763960307
1592167986.4393504,0.2130595118335363,9.100771165351828,3.5315423307036586,-0.40444444444444444,-0.15555555555555556,-0.6433333333333333,0.19173550048388002,-0.1944191451984503,-0.08424633352347814
1592167986.4493504,0.49,9.07,3.47,-0.40444444444444444,-0.15555555555555556,-0.6433333333333333,0.17562375598192942,-0.20180369476184434,-0.074176493209759
1592167986.4593503,0.38078669629218165,9.097255242327455,3.406468546035273,-0.40444444444444444,-0.15555555555555556,-0.6433333333333333,0.15678022606351905,-0.1740199272206905,-0.03822293178420039
1592167986.4693503,0.41527175931657795,9.053923486442987,3.4795171474557387,-0.3956986229760775,-0.15810642015049592,-0.6531723824852461,0.14883364344005842,-0.16224625672495016,-0.018133694337724295
1592167986.4793503,0.59,8.98,3.54,-0.37777777777777777,-0.16333333333333333,-0.6733333333333333,0.1341721862470641,-0.15271630954950383,-0.02399827721492203
1592167986.4893503,0.5581534044742972,9.057765559828828,3.370876983912031,-0.37777777777777777,-0.16333333333333333,-0.6733333333333333,0.15247256993746777,-0.11362668005995191,-0.017199448793081003
1592167986.4993503,0.71,9.17,3.12,-0.37777777777777777,-0.16333333333333333,-0.6733333333333333,0.16471544815696484,-0.09490227807719166,0.008726646259971648
1592167986.5093503,0.6799574709384746,9.149971647292316,3.232531896796144,-0.37777777777777777,-0.16333333333333333,-0.6733333333333333,0.08370231915273911,-0.049619656200907684,-0.0005508277923521937
1592167986.5193503,0.576398860247124,9.081839316148274,3.3136011397528757,-0.37747553022771385,-0.16665805638403636,-0.667590629882119,0.04392996213824771,-0.01202449798307668,-0.00873509938517687
1592167986.5293503,0.501000400516221,9.04375016688176,3.3629998664945933,-0.37666666666666665,-0.17555555555555555,-0.6522222222222223,0.044369545718838534,0.026588872895519505,0.0007090327270323189
1592167986.5393503,0.3922283663432141,9.013085737072975,3.3683998404891664,-0.37666666666666665,-0.17555555555555555,-0.6522222222222223,0.04329662960126894,0.057072301340080026,-0.004550372406793004
1592167986.5493503,0.33,9.02,3.32,-0.37666666666666665,-0.17555555555555555,-0.6522222222222223,0.042542400517361786,0.06763150851478027,-0.019634954084936207
1592167986.5593503,0.19166063556812948,9.120746101717218,3.41128758470952,-0.37666666666666665,-0.17555555555555555,-0.6522222222222223,0.04925015935634353,0.07229805949239078,-0.013899892765210614
1592167986.5693502,0.2743933931965655,9.040808809071246,3.538786786393131,-0.37533394507439205,-0.17848754305855963,-0.6500898676745829,0.029717113277027554,0.07190660426155834,0.007374136204752047
1592167986.5793502,0.32,8.98,3.63,-0.3711111111111111,-0.18777777777777777,-0.6433333333333333,0.009817477042468103,0.07853981633974483,0.006544984694978735
1592167986.5893502,0.27,8.940178707586734,3.557873141441098,-0.3711111111111111,-0.18777777777777777,-0.6433333333333333,0.03924162891207228,0.08410022540469675,-0.010416020009951147
1592167986.5993502,0.2644869118740853,9.058591616881403,3.381408383118597,-0.3711111111111111,-0.18777777777777777,-0.6433333333333333,0.0736102316677332,0.08546230872940742,-0.011097061672306492
1592167986.6093502,0.24521330971144645,9.15281996456717,3.291966725721384,-0.3711111111111111,-0.18777777777777777,-0.6433333333333333,0.07602215570300978,0.08019933099343464,-0.007160205526062326
1592167986.6193502,0.24147034930950448,9.141470349309506,3.3256986190089357,-0.3719076631464934,-0.1860253632999368,-0.6430147125191804,0.05717645815955327,0.0763501795700058,-0.00046123267448367616
1592167986.6293502,0.3542547820599308,9.219483167584272,3.2778726089700343,-0.37666666666666665,-0.17555555555555555,-0.6411111111111111,0.026229764771960293,0.06361300308867762,0.021541278974496036
1592167986.6393502,0.42720959352725874,9.189354652282796,3.267984010787902,-0.37666666666666665,-0.17555555555555555,-0.6411111111111111,0.003464244050249532,0.06850242898830301,0.05629745937497506
1592167986.6493502,0.31545105842303356,9.034758948049769,3.3826205259751156,-0.37666666666666665,-0.17555555555555555,-0.6411111111111111,-0.016986761194943013,0.07957805774474265,0.08113541985223939
1592167986.6593502,0.2207556342879638,9.013409506938293,3.407574648164551,-0.37666666666666665,-0.17555555555555555,-0.6411111111111111,-0.017023873847569922,0.0746806951439262,0.06877219480513927
1592167986.6693501,0.3224726157875938,8.990684307655673,3.47410584593404,-0.37583029064306595,-0.17593572647537403,-0.6422516238705666,0.0011943421688102643,0.06782658267066903,0.051883134245762866
1592167986.6793501,0.2223763392857143,8.997623660714286,3.5181183035714283,-0.36444444444444446,-0.1811111111111111,-0.6577777777777778,0.025229844647481646,0.04915190980103729,0.0253588938248752
1592167986.6893501,0.24370820133755722,8.972375169708855,3.4702084276160305,-0.36444444444444446,-0.1811111111111111,-0.6577777777777778,0.06214087838817015,0.025584553717884078,0.004454266833781225
1592167986.69935,0.3165281927253758,8.951945748565468,3.3780542514345333,-0.36444444444444446,-0.1811111111111111,-0.6577777777777778,0.1218248529226218,0.011347599094702307,-0.013605096858639584
1592167986.70935,0.3759245949567548,9.159497299711697,3.20210054005766,-0.36444444444444446,-0.1811111111111111,-0.6577777777777778,0.14952607134434182,-0.0010497037113327752,-0.011178568271604513
1592167986.71935,0.4154658643536152,9.313813654258555,3.1823726914828923,-0.3638429941640261,-0.18222809020331665,-0.6553719766561044,0.11567209001042236,-0.01569915785478936,0.006635098776520948
1592167986.72935,0.6,9.24,3.33,-0.3566666666666667,-0.19555555555555557,-0.6266666666666667,0.025089107997418484,-0.03381575425739013,0.020725784867432664
1592167986.73935,0.5346126150886354,8.991795794970455,3.3108978974852277,-0.3566666666666667,-0.19555555555555557,-0.6266666666666667,-0.039269908169872414,-0.035619065280261146,0.017898798784280173
1592167986.74935,0.4947992429687126,9.016342532700877,3.3305708878347944,-0.3566666666666667,-0.19555555555555557,-0.6266666666666667,-0.03465748823046787,-0.019803300879551754,-0.026429035589333662
1592167986.75935,0.5463141882924638,9.051057435122608,3.3607854707311597,-0.3566666666666667,-0.19555555555555557,-0.6266666666666667,-0.015845053772316774,-0.016563491580900154,-0.044638380517124814
1592167986.76935,0.5277152688172043,9.102284731182795,3.3205711827956987,-0.3566666666666667,-0.194730513739546,-0.6284436798088411,-0.009661241923942805,-0.017951743540727913,-0.04914969158993859
1592167986.77935,0.4941046551138294,9.14410465511383,3.3361569826707442,-0.3566666666666667,-0.1811111111111111,-0.6577777777777778,-0.03292470525938759,-0.02841868085476326,-0.0504020902023218
1592167986.78935,0.5199730967788846,9.145040354831673,3.3566756344070385,-0.3566666666666667,-0.1811111111111111,-0.6577777777777778,-0.06925161391456743,-0.038901406765416764,-0.049999834664957346
1592167986.79935,0.588130243515469,9.039178586023702,3.3508781461092814,-0.3566666666666667,-0.1811111111111111,-0.6577777777777778,-0.09353026316813665,-0.048589865261468974,-0.04580870434914959
1592167986.80935,0.6640553681472966,8.938640107042572,3.408916947779055,-0.3566666666666667,-0.1811111111111111,-0.6577777777777778,-0.05595925116681223,-0.050782702721168096,-0.05741563144659214
1592167986.81935,0.6324378568870965,9.144153930233873,3.456343214669355,-0.3566666666666667,-0.1811111111111111,-0.6577777777777778,0.006121587020586086,-0.0481960011300265,-0.06690020394744467
1592167986.82935,0.6074772107884597,9.262238041537449,3.473428249224697,-0.33,-0.17333333333333334,-0.6411111111111111,0.0005926221928025562,-0.029551201492871403,-0.049560119556244515
1592167986.83935,0.45192345191937056,9.219521574496065,3.532114822120944,-0.33,-0.17333333333333334,-0.6411111111111111,-0.08329039515668045,-0.01700234753147368,-0.03966866503165977
1592167986.84935,0.43280341677541817,8.9847906038676,3.600805552260055,-0.33,-0.17333333333333334,-0.6411111111111111,-0.14926807296157904,-0.008987933168247877,-0.023474538672181116
1592167986.85935,0.4921510686366635,8.830087570226123,3.694302137273327,-0.33,-0.17333333333333334,-0.6411111111111111,-0.11303084887288996,0.0038020851637590647,-0.022010063258557058
1592167986.86935,0.4418365755643081,9.022959793670152,3.593673151128616,-0.33,-0.17333333333333334,-0.6411111111111111,-0.03344818199179653,0.021182207815951884,-0.03024275293591155
1592167986.87935,0.36,9.18,3.53,-0.33,-0.2,-0.6411111111111111,0.007635815477475192,0.02399827721492203,-0.042542400517361786
1592167986.88935,0.27,9.065603516101902,3.4212561382565996,-0.33,-0.2,-0.6411111111111111,-0.022027507430934297,0.019223883801725166,-0.028424755419376706
1592167986.89935,0.2630680407541867,8.98960206113128,3.4590628879259864,-0.33,-0.2,-0.6411111111111111,-0.038237892060319086,0.012900929526748869,-0.01233380993712306
1592167986.90935,0.23249985896688544,8.942499858966885,3.562499294834427,-0.33,-0.2,-0.6411111111111111,-0.01554475402738387,0.011044715517918571,-0.0073631847034824425
1592167986.91935,0.24827413076590382,8.958274130765904,3.641370653829519,-0.33,-0.2,-0.6411111111111111,0.030914311347170712,0.005022244080476312,0.0012403459214350727
1592167986.92935,0.34853763052842873,8.977802160626085,3.751462369471571,-0.3377777777777778,-0.17888888888888888,-0.6411111111111111,0.07933835003554919,-0.006890766662275871,0.009817477042468103
1592167986.93935,0.3851313592210175,8.865131359221017,3.6856567961050875,-0.3377777777777778,-0.17888888888888888,-0.6411111111111111,0.10270714320600326,-0.0019447765398314522,0.008091446492512814
1592167986.9493499,0.33338560742842405,8.858481815836987,3.485078411142636,-0.3377777777777778,-0.17888888888888888,-0.6411111111111111,0.1771239367013498,0.00867144352602122,-0.005528404684600106
1592167986.9593499,0.21,9.07,3.3,-0.3377777777777778,-0.17888888888888888,-0.6411111111111111,0.2530727415391778,0.016362461737446838,-0.014180800172453926
1592167986.9693499,0.2872443863091345,9.369321996947898,3.08757793764988,-0.3377777777777778,-0.17888888888888888,-0.6411111111111111,0.2446466861030726,0.014255947878420546,-0.008914515524888193
1592167986.9793499,0.24184244410628586,9.251775722814,3.16366264778181,-0.31777777777777777,-0.17888888888888888,-0.6355555555555555,0.13216966966484567,0.013786119387168132,0.012692862550022556
1592167986.9893498,0.2841965083427909,9.063089851012966,3.302129283075363,-0.31777777777777777,-0.17888888888888888,-0.6355555555555555,0.05066785580397484,0.02642814341284335,2.5102304486976368e-05
1592167986.9993498,0.01,8.98,3.46,-0.31777777777777777,-0.17888888888888888,-0.6355555555555555,0.031634092692397225,0.04908738521234052,-0.053450708342326333
1592167987.0093498,-0.02538319023049186,9.063590852042951,3.4610259577265574,-0.31777777777777777,-0.17888888888888888,-0.6355555555555555,0.07132401754382614,0.05353430748212083,-0.059883104749476834
1592167987.0193498,0.04981791740542264,9.12208060242644,3.4777373149789828,-0.31777777777777777,-0.17888888888888888,-0.6355555555555555,0.09593352246995158,0.03712797086470387,-0.022513115787582645
1592167987.0293498,0.18,9.1,3.46,-0.33,-0.20222222222222222,-0.6222222222222222,0.09272061651219875,0.014180800172453926,0.001090830782496456
1592167987.0393498,0.07456123223776981,9.082426872039628,3.3809209241783273,-0.33,-0.20222222222222222,-0.6222222222222222,0.08601135838882586,0.0026792148181003627,-0.0075353582332687175
1592167987.0493498,0.15791576954927244,9.046596474624392,3.262743877913167,-0.33,-0.20222222222222222,-0.6222222222222222,0.09882237780654313,-0.016063151088337377,-0.008810087781793747
1592167987.0593498,0.2685559242631271,9.145294944368535,3.1624067928947883,-0.33,-0.20222222222222222,-0.6222222222222222,0.10741465863626883,-0.02695572110920395,0.005139105459274831
1592167987.0693498,0.24399433925434316,9.235354089400742,3.203342767909428,-0.33,-0.20222222222222222,-0.6222222222222222,0.09759072987162432,-0.021597214510306956,-0.0002194011396221638
1592167987.0793498,0.26252918287937743,9.140726329442282,3.2791569390402073,-0.3111111111111111,-0.20222222222222222,-0.6133333333333333,0.047511269140095305,-0.014811812531719063,-0.002432085752414277
1592167987.0893497,0.2888432611673114,9.042891847081721,3.2647946752529013,-0.3111111111111111,-0.20222222222222222,-0.6133333333333333,0.019111936149142316,-0.00893421261426411,0.01803940077203747
1592167987.0993497,0.26425853738241406,9.093189701454214,3.1895691043626435,-0.3111111111111111,-0.20222222222222222,-0.6133333333333333,0.028848719779560165,0.0068459237257745996,0.007938587794523472
1592167987.1093497,0.18146691448328237,9.138166356895898,3.3303667286208207,-0.3111111111111111,-0.20222222222222222,-0.6133333333333333,0.035597376953969466,0.02771081231766633,-0.02015500461387385
1592167987.1193497,0.2149965025880848,9.096254371764894,3.338749125647021,-0.3111111111111111,-0.20222222222222222,-0.6133333333333333,0.02645360024668309,0.03776896669568135,-0.03204191433334615
1592167987.1293497,0.19,9.1,3.32,-0.31777777777777777,-0.21444444444444444,-0.6355555555555555,0.032724923474893676,0.044724062082354694,-0.0272707695624114
1592167987.1393497,0.13100097815454842,9.158999021845451,3.2357156830779266,-0.31777777777777777,-0.21444444444444444,-0.6355555555555555,0.04835471112954212,0.047482259903763244,-0.023593172467200003
1592167987.1493497,0.11063159897270047,9.2287368020546,3.10031579948635,-0.31777777777777777,-0.21444444444444444,-0.6355555555555555,0.042358641236870845,0.052325429179749146,-0.01686767005857071
1592167987.1593497,0.1321910448953507,9.188052404537466,3.1121910448953507,-0.31777777777777777,-0.21444444444444444,-0.6355555555555555,0.0024492497280661656,0.05121593435027387,0.001648511266621851
1592167987.1693497,0.20757988496564947,9.121040102252756,3.1875798849656496,-0.31777777777777777,-0.21444444444444444,-0.6355555555555555,-0.02587664460045505,0.049388457296820884,0.02083702032787816
1592167987.1793497,0.23232244284842513,9.10092897713937,3.340464488569685,-0.3111111111111111,-0.20222222222222222,-0.6222222222222222,-0.02293425251206867,0.05380538324327745,0.03193809975035533
1592167987.1893497,0.27940151894128884,9.122094683705487,3.3461098731183774,-0.3111111111111111,-0.20222222222222222,-0.6222222222222222,-0.0013519674071297428,0.0614455866786723,0.03791794076274267
1592167987.1993496,0.2603269816726545,9.188855564145708,3.2221253808722543,-0.3111111111111111,-0.20222222222222222,-0.6222222222222222,-0.009674804372930617,0.0728894875066485,0.0295951037969418
1592167987.2093496,0.15257207836819786,9.111870602449597,3.2492985240814005,-0.3111111111111111,-0.20222222222222222,-0.6222222222222222,-0.03964656019552653,0.0773469600205566,0.019864511542492674
1592167987.2193496,0.17435054897142177,9.045065202742874,3.3230516469142652,-0.3111111111111111,-0.20222222222222222,-0.6222222222222222,-0.04036073895236887,0.08187604028870075,0.015207899353483826
1592167987.2293496,0.18918291079378993,9.10081708920621,3.379066183764331,-0.3233333333333333,-0.20222222222222222,-0.6055555555555555,0.0012436261067558041,0.08952452182683907,0.017300497195683946
1592167987.2393496,0.12145332072250802,9.168546679277492,3.3016609379685806,-0.3233333333333333,-0.20222222222222222,-0.6055555555555555,0.013909029832862201,0.09585722368989226,0.004635093469577549
1592167987.2493496,0.07124723825814269,9.140748342954886,3.1244900577293135,-0.3233333333333333,-0.20222222222222222,-0.6055555555555555,-0.001773503799466121,0.0896113872709201,0.00010884207080714362
1592167987.2593496,0.060494642151507405,9.120989284303015,3.2055482206364334,-0.3233333333333333,-0.20222222222222222,-0.6055555555555555,-0.023956009138530927,0.07389501875503938,0.0020737473879560014
1592167987.2693496,0.06,9.14375360445461,3.2575072089092174,-0.3233333333333333,-0.20222222222222222,-0.6055555555555555,-0.039772100326873366,0.06531231354696292,0.002181661564992912
1592167987.2793496,0.0877335878983698,9.122266412101629,3.3254671757967396,-0.31203446418955305,-0.20735807183303145,-0.6137729149328504,-0.06380166555893355,0.052175546542303025,0.011257456981576803
1592167987.2893496,0.11796897939853185,9.064062041202936,3.3859379587970637,-0.3111111111111111,-0.20777777777777778,-0.6144444444444445,-0.08070455879125124,0.03906527730416233,0.02318592729120119
1592167987.2993495,0.17575065972469867,9.013541116896084,3.324957563654518,-0.3111111111111111,-0.20777777777777778,-0.6144444444444445,-0.07167655272520308,0.01993471665571995,0.02906615519593759
1592167987.3093495,0.14145898761096962,9.038905759291772,3.3103647469027426,-0.3111111111111111,-0.20777777777777778,-0.6144444444444445,-0.03621957963268105,0.003829520356553682,0.04101390487060051
1592167987.3193495,0.08039181028133746,9.136863308292826,3.3398040948593315,-0.3111111111111111,-0.20777777777777778,-0.6144444444444445,-0.0023953609228836575,-0.0032297524759112187,0.033323763705614594
1592167987.3293495,-0.021336356619065994,9.17,3.3861494918306962,-0.30408204325514243,-0.20275701502351445,-0.6224776648512658,0.014641593029050753,-0.007425802835508648,-0.005932243166087044
1592167987.3393495,0.031927907874713245,9.099225248143185,3.4961621277852224,-0.30333333333333334,-0.20222222222222222,-0.6233333333333333,-0.013679598275910428,-0.010530938400561272,-0.05034919796567323
1592167987.3493495,0.003544128553770086,9.05354412855377,3.4370882571075403,-0.30333333333333334,-0.20222222222222222,-0.6233333333333333,-0.031371807891641706,-0.017867565510813765,-0.06955088527901766
1592167987.3593495,0.07364869081047352,9.03158782729738,3.4852365181078553,-0.30333333333333334,-0.20222222222222222,-0.6233333333333333,-0.014648815193902293,-0.023565264491604024,-0.04579829491644827
1592167987.3693495,0.08,9.037829567332048,3.5056591346640995,-0.30333333333333334,-0.20222222222222222,-0.6233333333333333,0.016802596318042734,-0.02399827721492203,-0.018865105427515207
1592167987.3793495,0.08,9.09743471864656,3.452565281353439,-0.30333333333333334,-0.18839534551101303,-0.6148244861264354,0.04701715367671075,-0.012512158049578464,-0.008866560653276406
1592167987.3893495,0.04412157678184312,9.1,3.22575985488652,-0.30333333333333334,-0.18777777777777777,-0.6144444444444445,0.05093185106537915,0.001698912358369364,-0.0008991885652114302
1592167987.3993495,0.09157341448232935,9.1,3.165617723678447,-0.30333333333333334,-0.18777777777777777,-0.6144444444444445,0.05220667791192965,0.015461697097240266,0.024378409499501794
1592167987.4093494,0.10862694612219362,9.177642515099741,3.220388622855355,-0.30333333333333334,-0.18777777777777777,-0.6144444444444445,0.05235987755982988,0.032510153942386856,0.05282900015637863
1592167987.4193494,0.13880581887557383,9.182798545281106,3.309216001907828,-0.30333333333333334,-0.18777777777777777,-0.6144444444444445,0.030364285798684512,0.05297439255797029,0.06693543972177607
1592167987.4293494,0.1585741983135348,9.085683818551118,3.4171677848218134,-0.3204817299604029,-0.20016273089732806,-0.6468358602955759,-0.008112982608096373,0.07963699189413431,0.06622750113445315
1592167987.4393494,0.18508572581187388,9.086723817207917,3.43,-0.3233333333333333,-0.20222222222222222,-0.6522222222222223,-0.007617113006585889,0.10114599408096926,0.06909841787203508
1592167987.4493494,0.19,9.081497729225482,3.3704841045783724,-0.3233333333333333,-0.20222222222222222,-0.6522222222222223,0.01942372361452177,0.11584920153801713,0.0642484468705945
1592167987.4593494,0.14755228688505176,9.12244771311495,3.3939581704919584,-0.3233333333333333,-0.20222222222222222,-0.6522222222222223,0.02214614633042747,0.13262677158557373,0.03826441844411785
1592167987.4693494,-0.0021644848605975875,9.044701309083642,3.4213246727290896,-0.3233333333333333,-0.20222222222222222,-0.6522222222222223,0.013287358855426102,0.13526301702956053,0.019858788593657924
1592167987.4793494,-0.07667010496935867,9.043340209938718,3.354984527637886,-0.3131460469631697,-0.21240950859238583,-0.6151775445125363,0.02345567477848577,0.11435111383433344,0.013271586990052748
1592167987.4893494,-0.06331693476420383,9.116732260943186,3.2899508042926113,-0.3111111111111111,-0.21444444444444444,-0.6077777777777778,0.046198179996078184,0.07923662715261703,0.02218916994275895
1592167987.4993494,0.07421987959089921,9.188721197321017,3.112225150511376,-0.3111111111111111,-0.21444444444444444,-0.6077777777777778,0.0346220285150104,0.04197328746760941,0.04138460439825761
1592167987.5093493,0.19390659407138533,9.157315184513006,3.105610889292196,-0.3111111111111111,-0.21444444444444444,-0.6077777777777778,0.0036969462853609497,0.011785222269618274,0.043792823868786815
1592167987.5193493,0.2948957258341933,9.173153379772963,3.1640245528035775,-0.3111111111111111,-0.21444444444444444,-0.6077777777777778,-0.01708656305344224,-0.018462484543541612,0.03353066354978722
1592167987.5293493,0.4963026418633735,9.228972956073159,3.1506162263561044,-0.303493095721953,-0.20247327740433885,-0.623013808556094,-0.03677455388837481,-0.04647999781780554,0.005969506232454264
1592167987.5393493,0.4695674400314589,9.144788832088086,3.186519071962249,-0.30333333333333334,-0.20222222222222222,-0.6233333333333333,-0.05501450413496066,-0.04624178818327053,-0.002513071656442681
1592167987.5493493,0.4319514809590973,9.099024259520451,3.1648787023977434,-0.30333333333333334,-0.20222222222222222,-0.6233333333333333,-0.07146264776935632,-0.035970952790706126,-0.012557785514547705
1592167987.5593493,0.3693259769748636,9.142471816117595,3.184269609210055,-0.30333333333333334,-0.20222222222222222,-0.6233333333333333,-0.06405262060311998,-0.01968401387673155,-0.012428118469820296
1592167987.5693493,0.1438696722072616,9.110438295106324,3.2521164917819667,-0.30333333333333334,-0.20222222222222222,-0.6233333333333333,-0.06540203637040781,0.012110485597679164,-0.00793840478521152
1592167987.5793493,0.029006098566012856,9.115496950716993,3.2954969507169936,-0.30333333333333334,-0.18994591261774382,-0.6101126922208181,-0.07226698496509555,0.03632266930607121,0.003653063495714878
1592167987.5893493,-0.023132641237259676,9.137253056494904,3.3517591694847115,-0.30333333333333334,-0.18777777777777777,-0.6077777777777778,-0.07967272021813959,0.04303394119323072,0.0045131456566427025
1592167987.5993493,0.014791382601581679,9.14,3.3062503408781017,-0.30333333333333334,-0.18777777777777777,-0.6077777777777778,-0.09635661996309981,0.03874724940662009,0.005340519508633453
1592167987.6093493,0.03734689507494647,9.041700927908638,3.444557458957887,-0.30333333333333334,-0.18777777777777777,-0.6077777777777778,-0.12088180297886636,0.03628682467452718,0.007977157529613983
1592167987.6193492,0.05689674908424908,8.983793498168499,3.570690247252747,-0.30333333333333334,-0.18777777777777777,-0.6077777777777778,-0.13368308549442687,0.03415426641986127,0.00756052118239216
1592167987.6293492,0.06,8.998887914840326,3.6422154038822794,-0.32703443957420164,-0.19469060043136438,-0.6216034230849509,-0.10096584916196158,0.03284623314738671,0.007514505804982161
1592167987.6393492,0.0751432245995557,8.994952258466816,3.6146658092677035,-0.33,-0.19555555555555557,-0.6233333333333333,-0.0849702295799191,0.031073053920948383,0.007635815477475192
1592167987.6493492,0.09837755745314919,8.98162244254685,3.5046019829216575,-0.33,-0.19555555555555557,-0.6233333333333333,-0.05389481756800431,0.02488318235139044,0.014032763763894606
1592167987.6593492,0.08913563124617581,9.001728737507648,3.5008643687538243,-0.33,-0.19555555555555557,-0.6233333333333333,-0.034179112371600456,0.023405717821468826,0.015271630954950384
1592167987.6693492,0.0930477221125894,9.026523861056294,3.529571583168884,-0.33,-0.19555555555555557,-0.6233333333333333,-0.01147442786821574,0.023619089278519183,0.012425059570575945
1592167987.6793492,0.11440380930914008,9.00119238138172,3.6264228558548406,-0.30599365115143323,-0.2003568253252689,-0.6337360845010456,-0.0026169550500739804,0.027926306859826784,0.009337095967002657
1592167987.6893492,0.09886764220486302,8.961823522939817,3.6952205963252283,-0.2966666666666667,-0.20222222222222222,-0.6377777777777778,0.009666688199346907,0.04097834432223649,0.010263434685949271
1592167987.6993492,0.03928593210002033,8.93551026631429,3.652041065257166,-0.2966666666666667,-0.20222222222222222,-0.6377777777777778,0.03314781721390989,0.05924986326921579,0.010118015448237228
1592167987.7093492,-0.06187607696726019,8.95232983917289,3.607670160827111,-0.2966666666666667,-0.20222222222222222,-0.6377777777777778,0.06959043007794809,0.0716664389486857,0.006569733584070413
1592167987.7193491,-0.09609713282621417,9.020971328262142,3.5329315389116442,-0.2966666666666667,-0.20222222222222222,-0.6377777777777778,0.10889478387817897,0.0721812111582178,0.008779623998384289
1592167987.7293491,-0.03717272987682613,9.094904038957319,3.455095961042681,-0.3013205385276425,-0.19213883319010788,-0.6168353544033864,0.1497103536263827,0.06481209684177382,0.018523187850584332
1592167987.7393491,-0.0017651088445729945,9.101765108844573,3.415295326533719,-0.30333333333333334,-0.18777777777777777,-0.6077777777777778,0.16105786879705208,0.05678763094458943,0.026308052031352912
1592167987.749349,0.016617199854032354,9.138773466326075,3.2438280014596765,-0.30333333333333334,-0.18777777777777777,-0.6077777777777778,0.1547965529989283,0.0586534620939316,0.02787498799973387
1592167987.759349,0.022211005940992852,9.193366982177022,3.0866330178229786,-0.30333333333333334,-0.18777777777777777,-0.6077777777777778,0.1502934646504392,0.06873335085562385,0.027511952896483154
1592167987.769349,0.03343679721214823,9.226873594424296,3.073281601393926,-0.30333333333333334,-0.18777777777777777,-0.6077777777777778,0.143206011975924,0.08262981847600871,0.03020222396584617
1592167987.779349,0.04,9.232198418229752,3.054396836459501,-0.30333333333333334,-0.20338094131827655,-0.6147125171291106,0.11494674407280783,0.09686749892936415,0.03418715435654259
1592167987.789349,0.029797501428921368,9.23,3.065303747856618,-0.30333333333333334,-0.20777777777777778,-0.6166666666666667,0.08573384846773179,0.10816896080694444,0.03546304501487202
1592167987.799349,0.04803942224407144,9.187940866633893,3.0449507221949106,-0.30333333333333334,-0.20777777777777778,-0.6166666666666667,0.03759603437344803,0.1297180563127016,0.03676207244506427
1592167987.809349,0.03266102767168865,9.183669486164156,3.064173715410389,-0.30333333333333334,-0.20777777777777778,-0.6166666666666667,0.00828662323339045,0.1419730103595072,0.03783380141931802
1592167987.819349,-0.02463385919472569,9.19557923239934,3.135792323993407,-0.30333333333333334,-0.20777777777777778,-0.6166666666666667,-0.0060859984439024075,0.1475148934495896,0.03635327785420524
1592167987.829349,-0.0468216685900482,9.186821668590047,3.232713325639807,-0.31285101712940966,-0.20777777777777778,-0.6305771275993935,-0.024564870910684142,0.14081861946366525,0.036344117996278125
1592167987.839349,-0.010557799266114328,9.13583669889917,3.3262449516512427,-0.31777777777777777,-0.20777777777777778,-0.6377777777777778,-0.04929814506812645,0.12109852985119993,0.03548242366163139
1592167987.849349,0.020656359327389684,9.09934364067261,3.3224581875634804,-0.31777777777777777,-0.20777777777777778,-0.6377777777777778,-0.06840083905220644,0.09910416169829973,0.033404412199311624
1592167987.859349,0.009543042667118938,9.083181014222372,3.357732900443389,-0.31777777777777777,-0.20777777777777778,-0.6377777777777778,-0.07120114937310257,0.07972841038307656,0.024542727924088483
1592167987.869349,-0.011445027009850652,9.06855497299015,3.4028900540197013,-0.31777777777777777,-0.20777777777777778,-0.6377777777777778,-0.05857704108780956,0.05981921727558327,0.014483490983008433
1592167987.879349,-0.026442802563859683,9.085771210255439,3.4522140128192986,-0.30847150740775825,-0.20419844302007795,-0.6091430997161792,-0.04104180642397017,0.03151736680682744,0.00419507115270392
1592167987.889349,-0.015843235884538176,9.085843235884537,3.4983135282309235,-0.30333333333333334,-0.20222222222222222,-0.5933333333333334,-0.0352252841184987,0.0032854547567047546,-0.0019976960330409382
1592167987.899349,-0.016871861065477587,9.052512555738089,3.441281389345224,-0.30333333333333334,-0.20222222222222222,-0.5933333333333334,-0.03190817000658185,-0.021604209571488068,-0.006270907380794107
1592167987.909349,-0.006821416234887738,9.04,3.4429464594127808,-0.30333333333333334,-0.20222222222222222,-0.5933333333333334,-0.022636679247519893,-0.041671695241992934,-0.011229716687648317
1592167987.919349,0.0053550704614534405,9.050710140922908,3.46,-0.30333333333333334,-0.20222222222222222,-0.5933333333333334,-0.006861171898857923,-0.05442217770181407,-0.01308996938995747
1592167987.929349,0.03231596811831379,9.065578992029579,3.46,-0.30333333333333334,-0.19850289420250325,-0.6181288534647931,0.013618243957472497,-0.06242998753377169,-0.014915690262307435
1592167987.939349,0.018418075182414333,9.082632769927034,3.4284180751824143,-0.30333333333333334,-0.19555555555555557,-0.6377777777777778,0.030773754947922033,-0.06091396259113978,-0.019118504598367735
1592167987.949349,0.0,9.09,3.3318972252829813,-0.30333333333333334,-0.19555555555555557,-0.6377777777777778,0.03883731285104005,-0.05464501671182311,-0.021435759124596915
1592167987.959349,-0.013172601966411065,9.10317260196641,3.283413699016794,-0.30333333333333334,-0.19555555555555557,-0.6377777777777778,0.03892383098131542,-0.04517533770456262,-0.02109816166440239
1592167987.969349,-0.03586710886583626,9.131156145154447,3.269421927422776,-0.30333333333333334,-0.19555555555555557,-0.6377777777777778,0.04048685482471951,-0.03741295921951412,-0.016110229992745567
1592167987.979349,-0.026161726168192494,9.185757410747712,3.2302021577102407,-0.29936028769469875,-0.1909203356438152,-0.6410886491433065,0.041242224372496014,-0.029265137750359944,-0.00679843402799794
1592167987.989349,-0.007834928689501404,9.207834928689502,3.2078349286895014,-0.2966666666666667,-0.18777777777777777,-0.6433333333333333,0.04036073895236887,-0.02617993877991494,-0.0032724923474893677
1592167987.9993489,0.0,9.176315254702732,3.194078813675683,-0.2966666666666667,-0.18777777777777777,-0.6433333333333333,0.024213208173714067,-0.02617993877991494,-0.0006888874229045994
1592167988.0093489,-0.030744960958779738,9.135404031232977,3.2453409297258036,-0.2966666666666667,-0.18777777777777777,-0.6433333333333333,-0.00032505053823800485,-0.022826183797866075,0.00042007978608668225
1592167988.0193489,-0.054868241531204925,9.11026351693759,3.3238141737808444,-0.2966666666666667,-0.18777777777777777,-0.6433333333333333,-0.011912902891291257,-0.024443084270638873,0.0021241710875464065
1592167988.0293489,-0.05004209183673469,9.090042091836734,3.3899158163265306,-0.29390058106575967,-0.19773568594104307,-0.6372479450113379,-0.011469793491133494,-0.03162031817103662,0.007078921318426459
1592167988.0393488,0.01699267567502235,9.086332519519447,3.3846699219222125,-0.2911111111111111,-0.20777777777777778,-0.6311111111111111,-0.002800420421674529,-0.03490658503988659,0.011199018486982577
1592167988.0493488,0.06823140833560337,9.09,3.309228638881322,-0.2911111111111111,-0.20777777777777778,-0.6311111111111111,0.001988738142073864,-0.03225493418378811,0.00934748775136253
1592167988.0593488,0.07415578568212518,9.095844214317875,3.27,-0.2911111111111111,-0.20777777777777778,-0.6311111111111111,0.005822511898467126,-0.02863074724666745,0.0018982714877752377
1592167988.0693488,0.035176926212800656,9.124873624133715,3.27,-0.2911111111111111,-0.20777777777777778,-0.6311111111111111,0.007635815477475192,-0.025642794669773292,-0.005437611350269125
1592167988.0793488,0.009875196344423819,9.15,3.2946879908610596,-0.2971459533215923,-0.20777777777777778,-0.634402843225919,0.0033269482151976016,-0.024536885622706728,-0.008188037852186948
1592167988.0893488,0.02,9.138734183103834,3.32,-0.30333333333333334,-0.20777777777777778,-0.6377777777777778,-0.0072353807126501295,-0.026932472976464585,-0.008864725463505927
1592167988.0993488,0.014335175314196293,9.107340701256785,3.2690165778277667,-0.30333333333333334,-0.20777777777777778,-0.6377777777777778,-0.014470884665349213,-0.027125727315963754,-0.011053350071412203
1592167988.1093488,0.01,9.101467746518898,3.270137112816141,-0.30333333333333334,-0.20777777777777778,-0.6377777777777778,-0.01698793028288083,-0.02430353314361296,-0.013250075698329002
1592167988.1193488,0.019314130011677692,9.11,3.3372565200467106,-0.30333333333333334,-0.20777777777777778,-0.6377777777777778,-0.016437278547052084,-0.018843390540860733,-0.01367279318600832
1592167988.1293488,0.034461240071424176,9.105538759928576,3.3978449602856964,-0.30333333333333334,-0.2023251510238149,-0.633812231047623,-0.013325047755743913,-0.010287633774040987,-0.011143386190751
