time,acc_x,acc_y,acc_z,mag_x,mag_y,mag_z,gyr_x,gyr_y,gyr_z
1592167989.7393472,-0.02,9.16,3.241748949268928,-0.2957749758282523,-0.18913807165361063,-0.6059144484566257,0.031115604219772153,-0.02293666569064375,-0.013990019402496797
1592167989.7493472,-0.01539721966267377,9.164602780337326,3.24,-0.2911111111111111,-0.18777777777777777,-0.6022222222222222,0.03204951825300823,-0.031200793256939814,-0.01719331285866885
1592167989.7593472,0.03769144867249225,9.146154275663754,3.2320514252212513,-0.2911111111111111,-0.18777777777777777,-0.6022222222222222,0.03381575425739013,-0.04835996166420377,-0.021592839871996068
1592167989.7693472,0.06643897455392146,9.115341538169117,3.3286338473235286,-0.2911111111111111,-0.18777777777777777,-0.6022222222222222,0.03022932636217144,-0.055752081646356796,-0.02540304354514781
1592167989.7793472,0.07665771215430106,9.090026863537096,3.3966039850801075,-0.2911111111111111,-0.18777777777777777,-0.6022222222222222,0.03308364980686051,-0.04800827585912083,-0.026906182515806183
1592167989.7893472,0.04857097319180135,9.08,3.4592862835102482,-0.29547625372336095,-0.18777777777777777,-0.6118255359691718,0.06661905370320431,-0.005921106402939864,-0.035841707038983754
1592167989.7993472,0.018634827496564785,9.084273034500686,3.4614539309986263,-0.2966666666666667,-0.18777777777777777,-0.6144444444444445,0.07526732399225547,0.004363323129985824,-0.038179077387375956
1592167989.8093472,-0.03814378564796392,9.09,3.393712428704072,-0.2966666666666667,-0.18777777777777777,-0.6144444444444445,0.09675739939680217,0.017410868911317753,-0.03894658008039548
1592167989.8193471,-0.07978846991625925,9.09,3.3923413524371946,-0.2966666666666667,-0.18777777777777777,-0.6144444444444445,0.1423665383437971,0.027781573424644358,-0.04089461716727868
1592167989.8293471,-0.1389705194197473,9.059393425362657,3.381636055217595,-0.2966666666666667,-0.18777777777777777,-0.6144444444444445,0.17359446362076203,0.01810098924860038,-0.0401161059844178
1592167989.8393471,-0.07929945576509305,9.08186178964688,3.2444146310593593,-0.30131797662743115,-0.21180954590839415,-0.6144444444444445,0.2052290221525211,-0.006596274865298625,-0.03318135766891131
1592167989.849347,0.009112689226414616,9.108185448204402,3.0917746215471706,-0.30333333333333334,-0.2222222222222222,-0.6144444444444445,0.2200530905782301,-0.031145784025249718,-0.010006702509147973
1592167989.859347,0.06763688058489034,9.161967506092607,2.9790568643379367,-0.30333333333333334,-0.2222222222222222,-0.6144444444444445,0.2219110468079088,-0.03915816669004073,0.0021042134655695245
1592167989.869347,0.1610875361030882,9.34657826038658,2.7667373916907354,-0.30333333333333334,-0.2222222222222222,-0.6144444444444445,0.21235610722931145,-0.03200734658239775,0.004369109307486845
1592167989.879347,0.15563609776477963,9.387181951117611,2.7184541466471694,-0.30333333333333334,-0.2222222222222222,-0.6144444444444445,0.19455435286011888,-0.018960448315939023,-0.004085773120986307
1592167989.889347,0.11439840901557839,9.376597613523368,2.6565976135233678,-0.2981328030051928,-0.2066206312378006,-0.6092439141163039,0.1245902664650522,0.014837034136733367,-0.019526304880381953
1592167989.899347,0.11,9.375162201966326,2.6293511921346973,-0.2966666666666667,-0.20222222222222222,-0.6077777777777778,0.08476323542650922,0.023576716252168454,-0.02185200262949902
1592167989.909347,0.1737521735641101,9.387969021695515,2.562185869826917,-0.2966666666666667,-0.20222222222222222,-0.6077777777777778,0.020656303898675163,0.031617196648335656,-0.022907446432425576
1592167989.919347,0.21564610684501692,9.364353893154984,2.6371967632730575,-0.2966666666666667,-0.20222222222222222,-0.6077777777777778,-0.019305299996591974,0.03216541221893893,-0.020669401408606573
1592167989.929347,0.24,9.277414831172264,2.788274729630259,-0.2966666666666667,-0.20222222222222222,-0.6077777777777778,-0.06537432900421619,0.02915155346748692,-0.015440949271301869
1592167989.939347,0.24733509943945328,9.20799470168164,2.979366889349612,-0.29259161142252593,-0.20222222222222222,-0.6020727004359807,-0.08094022201811327,0.02246995820567452,-0.011489698937711845
1592167989.949347,0.24567433520277746,9.191348670405555,3.0516283239861126,-0.2911111111111111,-0.20222222222222222,-0.6,-0.08653087700280583,0.022141355362104154,-0.0066615963409500855
1592167989.959347,0.24,9.231350911899407,3.0726641554429417,-0.2911111111111111,-0.20222222222222222,-0.6,-0.11912776120507723,0.03680174130843887,0.011712633311020387
1592167989.969347,0.2511150121065375,9.23517998385795,3.0996400322841,-0.2911111111111111,-0.20222222222222222,-0.6,-0.14286339591381902,0.04347233596047065,0.01878738120817322
1592167989.979347,0.27597098821396193,9.102522212148685,3.2753907524932004,-0.2911111111111111,-0.20222222222222222,-0.6,-0.15777843687795928,0.05667573026591741,0.022256112657854255
1592167989.989347,0.30319438223814704,9.068657303730244,3.398657303730245,-0.2954063670811384,-0.19277265908816232,-0.606013358358038,-0.11198701650237697,0.07338864383533837,0.02265998718747445
1592167989.999347,0.35383818270481143,9.095941157347204,3.394058842652796,-0.2966666666666667,-0.19,-0.6077777777777778,-0.0886187860181828,0.08200961394621062,0.02464635694672056
1592167990.009347,0.4834620180816793,9.021281305206276,3.37,-0.2966666666666667,-0.19,-0.6077777777777778,-0.048597741279575946,0.08976977358228537,0.02419404410272951
1592167990.019347,0.4295094357674185,8.987317324021143,3.340730703915425,-0.2966666666666667,-0.19,-0.6077777777777778,0.0022362957265023367,0.07508059204673351,0.023705642661202012
1592167990.029347,0.3775140870837907,9.096808086351993,3.2512993047932675,-0.2966666666666667,-0.19,-0.6077777777777778,0.04750049184732459,0.06429429673392764,0.02093223646723006
1592167990.039347,0.31386044128478563,9.272279117430429,3.172697665481795,-0.30051162989293456,-0.19833075365691372,-0.6199534946609594,0.06524182513181681,0.058108301127154136,0.006590641204817109
1592167990.049347,0.22771268003003348,9.248497190052557,3.1861436599849835,-0.30333333333333334,-0.20444444444444446,-0.6288888888888889,0.022586806563501732,0.059575031597689766,-0.01073715428861509
1592167990.059347,0.2646424078196071,9.057786702796864,3.2323212039098035,-0.30333333333333334,-0.20444444444444446,-0.6288888888888889,-0.012626263378913663,0.06672763808414689,-0.010335655973648192
1592167990.069347,0.37564772098173094,8.942176139509135,3.262607953496955,-0.30333333333333334,-0.20444444444444446,-0.6288888888888889,0.0012792451785873724,0.07737739915809257,0.016432186135359222
1592167990.079347,0.40006958728205916,8.969826031794852,3.195260952307722,-0.30333333333333334,-0.20444444444444446,-0.6288888888888889,0.033203919410469046,0.08942155638244025,0.05608859345809251
1592167990.089347,0.3697309911194659,9.215111168730148,3.03271342451546,-0.2999103303731553,-0.20444444444444446,-0.6180493795149917,0.05067961491093747,0.10492516533701585,0.09917502272578915
1592167990.0993469,0.35345349798240067,9.393453497982401,2.923813991929603,-0.2966666666666667,-0.20444444444444446,-0.6077777777777778,0.01838054376290889,0.13235072316885788,0.10205992369952663
1592167990.1093469,0.30251846417216927,9.3696507703595,2.8421692345316703,-0.2966666666666667,-0.20444444444444446,-0.6077777777777778,-0.03037476870319381,0.16213672312005517,0.07640430633390376
1592167990.1193469,0.23070423654717434,9.318920197122646,2.8346478817264127,-0.2966666666666667,-0.20444444444444446,-0.6077777777777778,-0.04939978194625155,0.17843021101474438,0.05687684127057906
1592167990.1293468,0.10512425318209369,9.19462724045372,2.915372759546281,-0.2966666666666667,-0.20444444444444446,-0.6077777777777778,-0.06561249398480846,0.20582491129435831,0.033392324142407746
1592167990.1393468,0.05901142181961402,9.230988578180385,2.93,-0.3058729377270141,-0.2122343661108923,-0.617692223535075,-0.07338532941063838,0.2144980822522415,0.05069355728022669
1592167990.1493468,0.041222502704652,9.271222502704651,2.9412225027046524,-0.3111111111111111,-0.21666666666666667,-0.6233333333333333,-0.07580874006401021,0.21448560243823903,0.055977753761279544
1592167990.1593468,0.07917272931823297,9.200900022500562,2.930450011250281,-0.3111111111111111,-0.21666666666666667,-0.6233333333333333,-0.11420154786747679,0.20916878654178103,0.054492450512395145
1592167990.1693468,0.07563776668179756,9.12255106672719,2.8969133000453926,-0.3111111111111111,-0.21666666666666667,-0.6233333333333333,-0.16285662892977842,0.1963272587861699,0.09135992518659719
1592167990.1793468,0.13144425575609178,9.191444255756092,2.9520907547095296,-0.3111111111111111,-0.21666666666666667,-0.6233333333333333,-0.17131445527606784,0.18361218193903547,0.12021945203419059
1592167990.1893468,0.21281724883515546,9.281944148369218,3.0867055455735906,-0.3111111111111111,-0.21311731684786472,-0.6233333333333333,-0.16642090728972928,0.18128998358309997,0.10852050495422952
1592167990.1993468,0.26204470066113056,9.215287671859631,3.206533525495848,-0.3111111111111111,-0.2088888888888889,-0.6233333333333333,-0.1861783105258867,0.19265534444602186,0.06791731102094392
1592167990.2093468,0.24729364071505325,9.097293640715053,3.1654894011917554,-0.3111111111111111,-0.2088888888888889,-0.6233333333333333,-0.19446727967424113,0.2032881495465428,0.04413362607905169
1592167990.2193468,0.18727885110165132,9.080907049632783,3.1145464751836087,-0.3111111111111111,-0.2088888888888889,-0.6233333333333333,-0.1717600503937606,0.20904251049717507,0.04412795013020408
1592167990.2293468,0.1115073457394711,9.107633692458375,3.1452673849167483,-0.3111111111111111,-0.2088888888888889,-0.6233333333333333,-0.14143320893462766,0.20620238174971522,0.04956826957590727
1592167990.2393467,-0.013771801584333457,9.148220514738382,3.1991102573691905,-0.304531480788918,-0.20686438725129103,-0.6258639603803307,-0.13528623329685197,0.18779379005213626,0.058128415334659504
1592167990.2493467,-0.024654263850066443,9.116535306786417,3.3228699078953396,-0.2966666666666667,-0.20444444444444446,-0.6288888888888889,-0.1554811004692419,0.14837488001264149,0.07864768477344447
1592167990.2593467,0.06404345257033771,9.03045111585837,3.411010863142584,-0.2966666666666667,-0.20444444444444446,-0.6288888888888889,-0.15134388368363894,0.108569097189387,0.08317288470277333
1592167990.2693467,0.14026730335037502,9.059029662886356,3.4315049438143927,-0.2966666666666667,-0.20444444444444446,-0.6288888888888889,-0.12641973768044748,0.07376069058516949,0.08511395930700891
1592167990.2793467,0.20642044876619808,9.104797078747685,3.528449661289338,-0.2966666666666667,-0.20444444444444446,-0.6288888888888889,-0.09471722939856526,0.04742103728388223,0.08097913472300505
1592167990.2893467,0.25183347296513503,9.046749371656892,3.68100083779081,-0.2966666666666667,-0.19129614114985,-0.6328333798772673,-0.06260442149690815,0.02413451682673347,0.06255900829297101
1592167990.2993467,0.2362836269875376,9.004917920068758,3.7147537602062743,-0.2966666666666667,-0.18222222222222223,-0.6355555555555555,-0.04164207838549126,0.01505102718776395,0.05269364271545407
1592167990.3093467,0.10728257667506791,9.030869693299728,3.555217177833786,-0.2966666666666667,-0.18222222222222223,-0.6355555555555555,0.05298839689681673,-0.00042685614234379016,0.030685511585442186
1592167990.3193467,0.08360037626401191,9.106399623735987,3.4336003762640117,-0.2966666666666667,-0.18222222222222223,-0.6355555555555555,0.11427519164061338,-0.007024857890194703,0.009774038770342353
1592167990.3293467,-0.0356366944450684,9.155107257575416,3.3434048383836115,-0.2966666666666667,-0.18222222222222223,-0.6355555555555555,0.15691732752656043,-0.03549805304812311,-0.03515004276928044
1592167990.3393466,-0.0479536794474875,9.10107406525363,3.2821481305072635,-0.2966666666666667,-0.18905658754729962,-0.6492242862057103,0.1525991472053967,-0.07030708339847319,-0.04265956286146893
1592167990.3493466,0.01892149250071519,9.083568597000285,3.231078507499285,-0.2966666666666667,-0.19666666666666666,-0.6644444444444444,0.1566497020707032,-0.09622407842461166,-0.03997146540654521
1592167990.3593466,0.15117403712722227,9.150880527845416,3.1091194721545836,-0.2966666666666667,-0.19666666666666666,-0.6644444444444444,0.17734004439555956,-0.15107893521573224,-0.03206744894780577
1592167990.3693466,0.35815776239852487,9.191210517493234,3.16968413994588,-0.2966666666666667,-0.19666666666666666,-0.6644444444444444,0.17264981257031378,-0.17825035446395246,-0.02775016146644107
1592167990.3793466,0.495810853364123,9.200726356670515,3.2396368216647424,-0.2966666666666667,-0.19666666666666666,-0.6644444444444444,0.1666990266681403,-0.18516391674905305,-0.027865018723863755
1592167990.3893466,0.6219871607820251,9.196655967318355,3.2206623869273416,-0.2940728852575949,-0.19666666666666666,-0.653550562526343,0.16093366802074063,-0.16456393503981623,-0.05229112370835068
1592167990.3993466,0.5780489895897122,9.17170728720147,3.2023172075933863,-0.2911111111111111,-0.19666666666666666,-0.6411111111111111,0.1600727708118902,-0.14683651119451896,-0.06310853531926067
1592167990.4093466,0.3488821611551001,9.21022356776898,2.963267349790405,-0.2911111111111111,-0.19666666666666666,-0.6411111111111111,0.15597660816677433,-0.10952484693403342,-0.06701902760732825
1592167990.4193466,0.20639175995989784,9.28996133005514,2.7718427899649107,-0.2911111111111111,-0.19666666666666666,-0.6411111111111111,0.148951819788717,-0.09619412606162812,-0.05870806328948964
1592167990.4293466,0.17,9.34,2.74,-0.2911111111111111,-0.19666666666666666,-0.6411111111111111,0.14398966328953217,-0.09272061651219875,-0.056723200689815706
1592167990.4393466,0.2807721685994028,9.291793625442677,2.8382063745573225,-0.29381771327608425,-0.19666666666666666,-0.6449003541420735,0.05661064082989003,-0.08888873347456729,-0.028221468621581803
1592167990.4493465,0.48124979086498243,9.218579554960684,2.9256248954324913,-0.2966666666666667,-0.19666666666666666,-0.6488888888888888,0.011255431825016135,-0.0878986589909776,-0.007505689603638822
1592167990.4593465,0.7221296003502713,9.204787039964973,2.9991481598598915,-0.2966666666666667,-0.19666666666666666,-0.6488888888888888,-0.03186639605404633,-0.060343153062524385,0.023615474176828178
1592167990.4693465,0.77,9.2,2.98,-0.2966666666666667,-0.19666666666666666,-0.6488888888888888,-0.0370882466048795,-0.04363323129985824,0.0272707695624114
1592167990.4793465,0.7594315168693426,9.2275509737588,3.0026385206180857,-0.2966666666666667,-0.19666666666666666,-0.6488888888888888,-0.034144913468319445,0.011876685695948715,0.045876904754676255
1592167990.4893465,0.6918916736544614,9.31594583682723,2.950270815863847,-0.28945926547063233,-0.20477499301220534,-0.6434833379918631,-0.03673463029046918,0.05035546456324039,0.04926419336954568
1592167990.4993465,0.6790130122353856,9.30929500873956,2.9804229947562635,-0.2788888888888889,-0.21666666666666667,-0.6355555555555555,-0.04653777746303224,0.07021306368727762,0.04461639841879581
1592167990.5093465,0.5904553071966389,9.228728491514621,2.986546368635967,-0.2788888888888889,-0.21666666666666667,-0.6355555555555555,-0.11030231021967739,0.10627635239153146,0.041778636164635015
1592167990.5193465,0.5831487591450294,9.191574379572515,3.004013771338402,-0.2788888888888889,-0.21666666666666667,-0.6355555555555555,-0.13047883758204146,0.12900110691291145,0.053716804705206164
1592167990.5293465,0.6071626584527899,9.190743987679186,3.1124653477076176,-0.2788888888888889,-0.21666666666666667,-0.6355555555555555,-0.13155928403271794,0.153832598650227,0.058635934537905984
1592167990.5393465,0.5398471202100436,9.157528664960617,3.1625095549868725,-0.2819561227617328,-0.2135994327938228,-0.6389016288713852,-0.13827426684261307,0.17810001327754035,0.05399820830833589
1592167990.5493464,0.4015751993923281,9.18,3.2206682016710975,-0.2911111111111111,-0.20444444444444446,-0.6488888888888888,-0.14625723865381116,0.20279558744094356,0.06015449633176602
1592167990.5593464,0.33813852185276605,9.156743623251536,3.238138521852766,-0.2911111111111111,-0.20444444444444446,-0.6488888888888888,-0.14609524493789097,0.21821705243241768,0.052765461126508054
1592167990.5693464,0.29,9.13,3.19,-0.2911111111111111,-0.20444444444444446,-0.6488888888888888,-0.14726215563702155,0.22580197197676635,0.038179077387375956
1592167990.5793464,0.0964828299366625,9.10082726528502,3.298896979619975,-0.2911111111111111,-0.20444444444444446,-0.6488888888888888,-0.14779622044728943,0.22055837956652827,0.04068424226039261
1592167990.5893464,0.01977912057899768,9.054435340707359,3.3655646592926396,-0.3051454701321559,-0.19642481071813314,-0.6520967423794134,-0.1289644114297954,0.19562827870968602,0.04245224274990227
1592167990.5993464,-0.14,9.08,3.34,-0.33,-0.18222222222222223,-0.6577777777777778,-0.11780972450961724,0.17889624832941878,0.04036073895236887
1592167990.6093464,-0.1689589553207508,9.098333549676784,3.433958306290402,-0.33,-0.18222222222222223,-0.6577777777777778,-0.10931034056251805,0.13564946207896333,0.05799581300331881
1592167990.6193464,-0.043359967561894766,9.041093354958736,3.471173257644421,-0.33,-0.18222222222222223,-0.6577777777777778,-0.10362020830624846,0.10203487936384817,0.05646723557894894
1592167990.6293464,-0.06,9.03,3.51,-0.33,-0.18222222222222223,-0.6577777777777778,-0.09817477042468103,0.09053895494720585,0.04799655442984406
1592167990.6393464,-0.09347299509001636,9.018842334969994,3.515578832515003,-0.3244211674849973,-0.1946196278111172,-0.6683155725283385,-0.07626674636875548,0.06437103732485033,0.03095698016412419
1592167990.6493464,-0.150206134605403,9.006643762821621,3.5132875256432436,-0.32,-0.20444444444444446,-0.6766666666666666,-0.05524377542727473,0.03557884027928367,0.02038216198197041
1592167990.6593463,-0.05366561270546208,9.039992517679998,3.529085467403635,-0.32,-0.20444444444444446,-0.6766666666666666,-0.040064723638048486,0.011306531753550857,0.03173222033417184
1592167990.6693463,0.2486055374443271,9.063516001652967,3.6300596905275726,-0.32,-0.20444444444444446,-0.6766666666666666,-0.01837898858138319,-0.0036625398574159553,0.02818995439736135
1592167990.6793463,0.25345023733866856,8.996429327998117,3.6844031226707465,-0.32,-0.20444444444444446,-0.6766666666666666,0.004896178839987231,-0.0028698550703127506,-0.012662212750287213
1592167990.6893463,0.10510371344733381,9.043319504873688,3.546846436642045,-0.32,-0.20204702425789142,-0.6755601650421037,0.036694467325137876,0.0016339834973264733,-0.0556414206129921
1592167990.6993463,-0.02,9.06,3.33,-0.32,-0.19,-0.67,0.07308566242726255,0.004363323129985824,-0.044724062082354694
1592167990.7093463,0.005800729865059834,9.175966788310843,3.2980664233783132,-0.32,-0.19,-0.67,0.08749549725607701,-0.000650875636210791,0.015886278258290348
1592167990.7193463,0.09,9.19,3.27,-0.32,-0.19,-0.67,0.08290313946973066,-0.002181661564992912,0.032724923474893676
1592167990.7293463,0.0017006494126635546,9.172319501480278,3.282319501480279,-0.32,-0.19,-0.67,0.06049047871216583,0.013961534955238818,-0.005532911249085023
1592167990.7393463,-0.20721201735125583,9.10006051518235,3.227151502168907,-0.3234814973491137,-0.19031649975901033,-0.6741144968671344,0.040843326276002095,0.0313167685982227,-0.022768587932452667
1592167990.7493463,-0.12326723986664327,9.066707975083348,3.2066336199333216,-0.3322222222222222,-0.19111111111111112,-0.6844444444444444,0.0320067150517278,0.0319877896448811,-0.0018009283170137462
1592167990.7593462,-0.133589462129528,9.141471388345344,3.130234333985587,-0.3322222222222222,-0.19111111111111112,-0.6844444444444444,0.04379373486986905,0.01947445051492539,0.007475311907464378
1592167990.7693462,-0.27211840621776573,9.236059203108884,2.9916355218653297,-0.3322222222222222,-0.19111111111111112,-0.6844444444444444,0.048941267739520206,0.00033643129442169004,-0.005884028168121971
1592167990.7793462,-0.2187159287852529,9.211697455490782,2.97,-0.3322222222222222,-0.19111111111111112,-0.6844444444444444,0.018874148166168885,-0.025689692237127616,-0.009817477042468103
1592167990.7893462,-0.2597518280522934,9.242286410686589,2.979641986641765,-0.3340434863656667,-0.19046831200166012,-0.683051713040634,-0.025536890390739815,-0.05182200692898733,-0.009396766009137825
1592167990.7993462,-0.038335972396190306,9.182665611041523,3.0541679861980953,-0.3511111111111111,-0.18444444444444444,-0.67,-0.05674083423636706,-0.08297540091853686,-0.009598965433448653
1592167990.8093462,0.044785727256219356,9.236614309061196,2.9785999636825857,-0.3511111111111111,-0.18444444444444444,-0.67,-0.0770329169066884,-0.09425712901988442,-0.020156995945707842
1592167990.8193462,0.059310018007771775,9.310344990996114,2.908448725239314,-0.3511111111111111,-0.18444444444444444,-0.67,-0.10178595689059125,-0.09046368958755675,-0.029922710392107255
1592167990.8293462,0.010338269256894446,9.311052846080695,3.02721776932482,-0.3511111111111111,-0.18444444444444444,-0.67,-0.14578573299254224,-0.08467060839281654,-0.04893563806911591
1592167990.8393462,0.04231960710238006,9.194744994333206,3.1748507744616545,-0.35200940267808417,-0.18502833396297694,-0.6694161104814675,-0.20567249694774414,-0.08775150522570753,-0.05663501112145369
1592167990.8493462,-0.14,9.07,3.29,-0.37333333333333335,-0.1988888888888889,-0.6555555555555556,-0.2716168648416175,-0.09926560120717749,-0.0545415391248228
1592167990.8593462,-0.24255749574105623,9.109923339011925,3.362634156729131,-0.37333333333333335,-0.1988888888888889,-0.6555555555555556,-0.2506789997986271,-0.13003766812575776,-0.07604572560046365
1592167990.8693461,-0.23629309729459633,9.078086230280535,3.39798272539082,-0.37333333333333335,-0.1988888888888889,-0.6555555555555556,-0.22902556420780149,-0.1575705026382917,-0.09731714959247204
1592167990.8793461,-0.27,8.95,3.58,-0.37333333333333335,-0.1988888888888889,-0.6555555555555556,-0.23343778745424157,-0.17889624832941878,-0.1090830782496456
1592167990.8893461,-0.09076152367749457,8.863096190806264,3.6161589842150037,-0.37333333333333335,-0.1958093967813871,-0.6528182292377762,-0.23594990486137518,-0.21657508808992443,-0.07131934759677512
1592167990.899346,-0.04,8.99,3.65,-0.37333333333333335,-0.17888888888888888,-0.6377777777777778,-0.20180369476184434,-0.23780111058422737,-0.04363323129985824
1592167990.909346,-0.032514342728860064,9.074994262908456,3.632491394362684,-0.37333333333333335,-0.17888888888888888,-0.6377777777777778,-0.11098420937394161,-0.25061931100796947,-0.06545735678505722
1592167990.919346,-0.05676280623608018,9.030878173719376,3.6285320712694875,-0.37333333333333335,-0.17888888888888888,-0.6377777777777778,-0.08909500110405046,-0.25509427691959535,-0.09201577948186943
1592167990.929346,-0.02,8.94656432748538,3.6679751461988306,-0.37333333333333335,-0.17888888888888888,-0.6377777777777778,-0.07609023142466508,-0.26239503881853893,-0.11782328015530616
1592167990.939346,-0.02,8.930427439212066,3.6114960372422282,-0.37333333333333335,-0.17888888888888888,-0.6377777777777778,-0.033843956715294006,-0.270316215326546,-0.14862785546422255
1592167990.949346,0.07561686400979262,9.057808432004897,3.6217803253219087,-0.37777777777777777,-0.17888888888888888,-0.6533333333333333,0.030109995560401868,-0.29138639777665293,-0.1298832525329793
1592167990.959346,0.11533411696866197,9.066002350905986,3.551336467874648,-0.37777777777777777,-0.17888888888888888,-0.6533333333333333,0.03665217073594254,-0.30208723373664415,-0.0911579044634823
1592167990.969346,0.09124034691695379,9.01824806938339,3.4970077224664373,-0.37777777777777777,-0.17888888888888888,-0.6533333333333333,0.03048745678516001,-0.30447708917631,-0.07526732399225547
1592167990.979346,0.04714663404624734,9.019986780838135,3.5185865361849893,-0.37777777777777777,-0.17888888888888888,-0.6533333333333333,0.027734766501087135,-0.2992003303325052,-0.07651233975868778
1592167990.989346,0.030595848788572327,9.077914529239997,3.4523833951542895,-0.37777777777777777,-0.17888888888888888,-0.6533333333333333,0.043080756629613505,-0.2946868038241151,-0.08373398217211193
1592167990.999346,0.017244228600363662,9.119707689828987,3.3850730775427533,-0.39111111111111113,-0.17888888888888888,-0.6377777777777778,0.0630632356373431,-0.2896554303693813,-0.09817477042468103
1592167991.009346,0.0865900944565928,9.173778714578777,3.361704952771704,-0.39111111111111113,-0.17888888888888888,-0.6377777777777778,0.038455406103147564,-0.2841488897417519,-0.0968174964958479
1592167991.019346,0.16119702865228155,9.124406791651928,3.342796604174036,-0.39111111111111113,-0.17888888888888888,-0.6377777777777778,-0.0068928003537485644,-0.29434982465223736,-0.0916297857297023
1592167991.029346,0.2138271484375,8.9961728515625,3.41,-0.39111111111111113,-0.17888888888888888,-0.6377777777777778,-0.02921001955234094,-0.29235611465152167,-0.09297649302973357
1592167991.039346,0.17286718750000002,9.0371328125,3.41,-0.39111111111111113,-0.17888888888888888,-0.6377777777777778,-0.013125080505769077,-0.28520725285304527,-0.10191257027782906
1592167991.049346,0.07,9.095486875529213,3.3745131244707873,-0.38555555555555554,-0.17888888888888888,-0.6555555555555556,0.002249088023182786,-0.2691294750894897,-0.10003777270096838
1592167991.059346,0.07165089042194771,9.116698219156104,3.35,-0.38555555555555554,-0.17888888888888888,-0.6555555555555556,-0.029380152431243384,-0.262530050163488,-0.08309354920683254
1592167991.069346,0.09176937851231831,9.096076873829228,3.3643847959595004,-0.38555555555555554,-0.17888888888888888,-0.6555555555555556,-0.0724815708775695,-0.26042325923060655,-0.07882511412579125
1592167991.079346,0.17741680032076987,9.06258319967923,3.4716549719326384,-0.38555555555555554,-0.17888888888888888,-0.6555555555555556,-0.1066845845433445,-0.25783342624330075,-0.08176168171727671
1592167991.089346,0.23627826784282277,9.003721732157178,3.5641515637530072,-0.38555555555555554,-0.17888888888888888,-0.6555555555555556,-0.12227793185036595,-0.25232989189964616,-0.09001698323275867
1592167991.099346,0.3431367329459966,8.994117960232401,3.6113726534108004,-0.40444444444444444,-0.16444444444444445,-0.62,-0.11620535662255345,-0.2298014912616049,-0.10963931332076929
1592167991.109346,0.29100890064950685,9.021123887418812,3.5975222516237673,-0.40444444444444444,-0.16444444444444445,-0.62,-0.09816222731392729,-0.2114734884835549,-0.11925580347911002
1592167991.119346,0.20573179354230497,9.034756068819231,3.42,-0.40444444444444444,-0.16444444444444445,-0.62,-0.08957782582150163,-0.1910018219931969,-0.11020385995982548
1592167991.129346,0.10262708933717579,9.073502785782901,3.4243784822286263,-0.40444444444444444,-0.16444444444444445,-0.62,-0.09197180990588563,-0.17485956667063354,-0.08330992189986045
1592167991.139346,0.12680172910662824,9.105735638808838,3.464669548511047,-0.40444444444444444,-0.16444444444444445,-0.62,-0.10515703051402649,-0.1678274490129584,-0.05693948068357869
1592167991.1493459,0.10816991026686866,9.12359468593404,3.540065493532222,-0.40444444444444444,-0.16333333333333333,-0.6,-0.12744900243882307,-0.16103654793024913,-0.04254954475346204
1592167991.1593459,0.08857725723611577,9.048618057888927,3.6385772572361157,-0.40444444444444444,-0.16333333333333333,-0.6,-0.15987763222464701,-0.14508494473283182,-0.054226694143535835
1592167991.1693459,0.0730816772843967,8.9,3.623081677284397,-0.40444444444444444,-0.16333333333333333,-0.6,-0.18174854212146563,-0.1298071776554242,-0.0643590161672909
1592167991.1793458,0.11060414525854548,8.906041452585455,3.6569792737072726,-0.40444444444444444,-0.16333333333333333,-0.6,-0.17480342805357588,-0.11592806943297597,-0.06442491819180296
1592167991.1893458,0.11873625840975628,8.987362584097562,3.6163187079512187,-0.40444444444444444,-0.16333333333333333,-0.6,-0.14907822593252934,-0.10528315821047396,-0.06531199412701147
1592167991.1993458,0.09884259151790896,9.065651709649714,3.5956517096497134,-0.4066666666666667,-0.17,-0.5911111111111111,-0.13624352144145097,-0.08911598025760835,-0.051521554137370904
1592167991.2093458,0.19843008901673875,9.03652902670502,3.571156991098326,-0.4066666666666667,-0.17,-0.5911111111111111,-0.1584317993288566,-0.07920698009858353,-0.025630063605744324
1592167991.2193458,0.10452672277624538,9.004526722776244,3.5875257561826626,-0.4066666666666667,-0.17,-0.5911111111111111,-0.18648605639783894,-0.06606427345461809,-0.01428405324531913
1592167991.2293458,0.01465768945831699,8.92788381923563,3.6963485422931104,-0.4066666666666667,-0.17,-0.5911111111111111,-0.20013576519957244,-0.04397383366864663,-0.030543261909900768
1592167991.2393458,-0.2503763019131041,8.891327406632676,3.8060177801019743,-0.4066666666666667,-0.17,-0.5911111111111111,-0.19016655015833636,-0.031013854115039728,-0.030543261909900768
1592167991.2493458,-0.17,8.98,3.83,-0.4211111111111111,-0.16333333333333333,-0.5866666666666667,-0.17016960206944715,-0.05017821599483697,0.02399827721492203
1592167991.2593458,-0.1379252709808184,8.988018682254795,3.83,-0.4211111111111111,-0.16333333333333333,-0.5866666666666667,-0.1544249562799871,-0.06942167195973259,0.03711881537280541
1592167991.2693458,-0.007784409778369639,8.959366974222393,3.690949538666413,-0.4211111111111111,-0.16333333333333333,-0.5866666666666667,-0.1440587156899651,-0.08371776065049538,0.010997878801183532
1592167991.2793458,0.060489093456073645,8.940244546728037,3.72,-0.4211111111111111,-0.16333333333333333,-0.5866666666666667,-0.14625135258413552,-0.07473380579485275,-0.020115120462598644
1592167991.2893457,0.0772763658194917,8.948638182909745,3.72,-0.4211111111111111,-0.16333333333333333,-0.5866666666666667,-0.14899816360136078,-0.05642173234668431,-0.03659598656595024
1592167991.2993457,-0.018632725655847043,8.913190306803024,3.754530902623388,-0.41555555555555557,-0.15444444444444444,-0.5877777777777777,-0.15509683310685937,-0.03302030628793963,-0.04358060562626959
1592167991.3093457,0.009341707425522455,8.978463983992887,3.6426331702979104,-0.41555555555555557,-0.15444444444444444,-0.5877777777777777,-0.15916554947059872,-0.016745440832982277,-0.0201854865347684
1592167991.3193457,0.06943172400729289,9.019621149338194,3.6020836786399264,-0.41555555555555557,-0.15444444444444444,-0.5877777777777777,-0.16827722387916025,-0.017494618716329874,0.025027118702838618
1592167991.3293457,0.04009815620308711,8.99833134454752,3.711963124061742,-0.41555555555555557,-0.15444444444444444,-0.5877777777777777,-0.18351654379817356,-0.019570711000243973,0.021720251022890765
1592167991.3393457,0.048170637822856924,8.861099157011433,3.873412756457139,-0.41555555555555557,-0.15444444444444444,-0.5877777777777777,-0.20465025125892977,-0.014287284135054912,0.013795110725107178
1592167991.3493457,0.11,8.81,4.13,-0.43666666666666665,-0.16111111111111112,-0.5577777777777778,-0.21707532571679475,0.0,0.042542400517361786
1592167991.3593457,0.1264237818506929,8.801788109074653,4.146423781850693,-0.43666666666666665,-0.16111111111111112,-0.5577777777777778,-0.1866188621436326,0.01970712348851666,0.04612551387891027
1592167991.3693457,0.046678317492997536,8.804650355509803,3.9840209714873955,-0.43666666666666665,-0.16111111111111112,-0.5577777777777778,-0.1351981746069961,0.05424404219455539,0.02116059209083086
1592167991.3793457,0.0,8.875942512511227,3.8956781727191068,-0.43666666666666665,-0.16111111111111112,-0.5577777777777778,-0.1020378203329753,0.08101612679440219,0.030099398903190095
1592167991.3893456,0.0,8.960518963905336,3.8341680262506643,-0.43666666666666665,-0.16111111111111112,-0.5577777777777778,-0.0793925284267459,0.08520969936962985,0.07035769562537567
1592167991.3993456,-0.14,9.02,3.75,-0.41888888888888887,-0.14666666666666667,-0.5722222222222222,-0.07090400086226964,0.0916297857297023,0.07526732399225547
1592167991.4093456,-0.2125186277244292,8.983740686137786,3.704675857672232,-0.41888888888888887,-0.14666666666666667,-0.5722222222222222,-0.09166920811164933,0.09855152147949553,0.02879281252935808
1592167991.4193456,-0.15603122540015746,8.930537260561533,3.6975216478614534,-0.41888888888888887,-0.14666666666666667,-0.5722222222222222,-0.1262887083884409,0.09867954084843661,0.004783011042563999
1592167991.4293456,0.0824271844660194,8.939708737864077,3.8259223300970873,-0.41888888888888887,-0.14666666666666667,-0.5722222222222222,-0.15930365660496787,0.08867501108585268,0.06781154854684279
1592167991.4393456,0.1243476973823318,8.879891529580918,3.9416300164925784,-0.41888888888888887,-0.14666666666666667,-0.5722222222222222,-0.17252907085104818,0.09023066966283896,0.08667355660540739
1592167991.4493456,0.04,8.71,4.22,-0.42444444444444446,-0.14555555555555555,-0.5577777777777778,-0.18216874067690814,0.10362892433716332,0.04799655442984406
1592167991.4593456,-0.10110590943975442,8.702160782808901,4.172964696853415,-0.42444444444444446,-0.14555555555555555,-0.5577777777777778,-0.16164571806236927,0.12329682100942971,0.030038909642122566
1592167991.4693456,-0.1274066979603006,8.824667943671459,3.9074066979603006,-0.42444444444444446,-0.14555555555555555,-0.5577777777777778,-0.10501850686805603,0.13813946985999984,0.03651903164501912
1592167991.4793456,-0.03911865619803398,8.983586418843538,3.819118656198034,-0.42444444444444446,-0.14555555555555555,-0.5577777777777778,-0.07805245903748438,0.12465644594471398,0.09141420044296858
1592167991.4893456,-0.18280638673898472,8.885395209945761,3.932245109391188,-0.42444444444444446,-0.14555555555555555,-0.5577777777777778,-0.08110133085684847,0.11409615334916766,0.09291679188176101
1592167991.4993455,-0.3127827484759334,8.785613417852051,4.071178914803919,-0.43057649988710617,-0.12715938922757036,-0.5577777777777778,-0.12504405894176185,0.11427480549121218,0.04547544535557289
1592167991.5093455,-0.21948871166500034,8.816549559394545,4.162236508637727,-0.4311111111111111,-0.12555555555555556,-0.5577777777777778,-0.14566252073613914,0.10556662065542104,0.05440911968899741
1592167991.5193455,-0.08942596201253727,8.79862230883009,4.171262883572418,-0.4311111111111111,-0.12555555555555556,-0.5577777777777778,-0.13281836057560803,0.09492732520947353,0.10238781076097567
1592167991.5293455,-0.040188998192191204,8.680453595661259,4.27958420397718,-0.4311111111111111,-0.12555555555555556,-0.5577777777777778,-0.11026049835141095,0.09707569304034944,0.08949760377572019
1592167991.5393455,-0.03181002038576133,8.729139877685432,4.304569938842715,-0.4311111111111111,-0.12555555555555556,-0.5577777777777778,-0.09141275710255907,0.10691120970053757,0.06443325492526542
1592167991.5493455,-0.0564194173711701,8.74,4.380451779656453,-0.42034764477470843,-0.1069641137017692,-0.5548422869587588,-0.0046516699239805,0.12733518360823842,0.022400651537622954
1592167991.5593455,-0.09426587800031974,8.80853175600064,4.081607097997122,-0.41888888888888887,-0.10444444444444445,-0.5544444444444444,0.006544984694978735,0.12980886311707826,0.017453292519943295
1592167991.5693455,-0.1,8.93704643658043,3.864184214844391,-0.41888888888888887,-0.10444444444444445,-0.5544444444444444,0.024632680962134456,0.11810505965009514,0.03234904238701271
1592167991.5793455,-0.16643872996785608,8.902035011446939,3.86,-0.41888888888888887,-0.10444444444444445,-0.5544444444444444,0.00852375672909685,0.11470372114680694,0.014088903298031832
1592167991.5893455,-0.14592403376277213,8.948151932474456,3.851974677920924,-0.41888888888888887,-0.10444444444444445,-0.5544444444444444,-0.026505831139412444,0.11103552481680606,0.03672649397087969
1592167991.5993454,-0.07,8.76,4.0,-0.44,-0.10777777777777778,-0.5544444444444444,-0.056723200689815706,0.10362892433716332,0.039269908169872414
1592167991.6093454,-0.046185403365198066,8.807629193269603,3.992061801121733,-0.44,-0.10777777777777778,-0.5544444444444444,-0.05932097019801356,0.10362892433716332,0.05225875571086164
1592167991.6193454,-0.06572181844092917,8.811426060519691,3.9214084841575225,-0.44,-0.10777777777777778,-0.5544444444444444,-0.05718987790359002,0.10269365262592497,0.07527307584332463
1592167991.6293454,-0.15514736542835483,8.827029473085672,3.9696031557998483,-0.44,-0.10777777777777778,-0.5544444444444444,-0.0613672690527019,0.10160927988208962,0.0664652385962407
1592167991.6393454,-0.155964511940827,8.801929023881653,3.9729822559704138,-0.44,-0.10777777777777778,-0.5544444444444444,-0.04992908066445212,0.10297829701440114,0.05593832783502186
1592167991.6493454,-0.2911948398300617,8.839833472881198,3.920166527118802,-0.4326172632768595,-0.09762651478345961,-0.5350647605462007,-0.032040088631601564,0.09728693761178675,0.0532658756634551
1592167991.6593454,-0.26923719182688965,8.94306514831737,3.8507767237980377,-0.4311111111111111,-0.09555555555555556,-0.5311111111111111,-0.050678990735861046,0.07661233704327111,0.0700627984706838
1592167991.6693454,-0.17495844875346261,8.91747922437673,3.77196675900277,-0.4311111111111111,-0.09555555555555556,-0.5311111111111111,-0.09814153181358004,0.059170771143616616,0.06566438707598471
1592167991.6793454,-0.21045014942231216,8.842733134103584,3.8524919406075724,-0.4311111111111111,-0.09555555555555556,-0.5311111111111111,-0.1434161794826156,0.043882266296488136,0.03592551858206555
1592167991.6893454,-0.24068217449243554,8.836894058164145,3.8906821744924356,-0.4311111111111111,-0.09555555555555556,-0.5311111111111111,-0.17234337548364556,0.029419168356032428,0.0162547852725367
1592167991.6993454,-0.1672931854199683,8.831729318541997,4.0736843106180665,-0.4311111111111111,-0.08820383870399719,-0.5311111111111111,-0.21645201359803573,0.004150066576374473,0.012524051220451861
1592167991.7093453,-0.024412613519023546,8.743054886282401,4.196945113717599,-0.4311111111111111,-0.08666666666666667,-0.5311111111111111,-0.2615572729840982,-0.01369945870667284,0.024681819064834486
1592167991.7193453,0.008870923216468825,8.646169499546476,4.236088654020586,-0.4311111111111111,-0.08666666666666667,-0.5311111111111111,-0.2558042279348323,-0.013393467878363532,0.006193132939249016
1592167991.7293453,-0.0415262136900713,8.636368377295746,4.2763683772957455,-0.4311111111111111,-0.08666666666666667,-0.5311111111111111,-0.20321611629880063,-0.005419719352976371,-0.037524518458156686
1592167991.7393453,-0.38892064545567673,8.786352096901314,4.226080806404779,-0.4311111111111111,-0.08666666666666667,-0.5311111111111111,-0.17282285439294082,-0.009404755942076095,-0.029938818487136108
1592167991.7493453,-0.25769272121277276,8.888076819696806,4.21,-0.42557998542570097,-0.08666666666666667,-0.5329548196729145,-0.1956722136289973,-0.02810384597954589,0.04531729881018641
1592167991.7593453,-0.07840921165084425,8.78485806019449,4.3580396368928,-0.42444444444444446,-0.08666666666666667,-0.5333333333333333,-0.25832386229513693,-0.03522267475800309,0.04205278270927569
1592167991.7693453,-0.15573090529214845,8.605470215342244,4.381866853439066,-0.42444444444444446,-0.08666666666666667,-0.5333333333333333,-0.2607669587691763,-0.02623834053243826,-0.014165053713236994
1592167991.7793453,-0.31353616373945514,8.593565205365786,4.348579726178952,-0.42444444444444446,-0.08666666666666667,-0.5333333333333333,-0.19769018711738118,-0.021427712074037007,-0.03132106906168499
1592167991.7893453,-0.22809565935362114,8.696240268931351,4.34,-0.42444444444444446,-0.08666666666666667,-0.5333333333333333,-0.1663804511931639,-0.03262372762558565,-0.011728553901682523
1592167991.7993453,-0.09272555324380556,8.779899754113863,4.34,-0.43524157787445095,-0.07088624088434946,-0.516722358825631,-0.18997064633405225,-0.04986996912722779,-0.00570772513088367
1592167991.8093452,-0.13929187275945004,8.643717157507828,4.386194581839634,-0.4388888888888889,-0.06555555555555556,-0.5111111111111111,-0.2208690527214374,-0.06100927912060992,-0.030311527812325906
1592167991.8193452,-0.1677448736057669,8.630979494423068,4.376765379182699,-0.4388888888888889,-0.06555555555555556,-0.5111111111111111,-0.22604796810569133,-0.06918202795979483,-0.05398493967630919
1592167991.8293452,-0.18553337610798223,8.671066752215964,4.385533376107982,-0.4388888888888889,-0.06555555555555556,-0.5111111111111111,-0.22664918621750046,-0.07344564358447193,-0.03687729199572202
1592167991.8393452,-0.07108786369492895,8.654965866041039,4.4713609353666275,-0.4388888888888889,-0.06555555555555556,-0.5111111111111111,-0.21119070049630664,-0.06598409202908621,-0.016206559843723378
1592167991.8493452,-0.13294811156708633,8.561795228489949,4.56692286290603,-0.4275926441152149,-0.06990026508389172,-0.5111111111111111,-0.1668273442003256,-0.04402488939954849,-0.04005292087595598
1592167991.8593452,-0.30412660369378264,8.60706330184689,4.5380854363456935,-0.42444444444444446,-0.07111111111111111,-0.5111111111111111,-0.0994702953805178,-0.021895663587642805,-0.07286266727223367
1592167991.8693452,-0.33,8.627906950520952,4.443023544269542,-0.42444444444444446,-0.07111111111111111,-0.5111111111111111,-0.07455706134392572,-0.015094065292867945,-0.08607413058117788
1592167991.8793452,-0.33772699313934235,8.637726993139342,4.396819020581972,-0.42444444444444446,-0.07111111111111111,-0.5111111111111111,-0.07848995863754982,-0.017552336961467338,-0.05969923067559892
1592167991.8893452,-0.4096929618308645,8.64,4.434350066619641,-0.42444444444444446,-0.07111111111111111,-0.5111111111111111,-0.06275235126564778,-0.026837566366635122,-0.03260879988289385
1592167991.8993452,-0.3495191220485534,8.717292983039574,4.421353508480213,-0.4399030410523593,-0.05822894727118205,-0.4896408380445627,-0.04898733495300812,-0.0493399413782115,-0.01169898782946382
1592167991.9093451,-0.2993303767775986,8.72759822606656,4.414133924644481,-0.4444444444444444,-0.05444444444444444,-0.48333333333333334,-0.05791726139022764,-0.059952833830486565,-0.015941705867523342
1592167991.9193451,-0.2911859838274933,8.688814016172508,4.35644204851752,-0.4444444444444444,-0.05444444444444444,-0.48333333333333334,-0.09048309029796747,-0.07148322906753056,-0.04620888565421645
1592167991.9293451,-0.19132012280212113,8.643773374267374,4.438679877197879,-0.4444444444444444,-0.05444444444444444,-0.48333333333333334,-0.11872367204214708,-0.06834360820784731,-0.05138016964521264
1592167991.9393451,-0.1254884156521031,8.605488415652104,4.522895272608819,-0.4444444444444444,-0.05444444444444444,-0.48333333333333334,-0.1379000168317277,-0.0545085819017839,-0.05619426391008693
1592167991.949345,-0.312774439530273,8.55503888973616,4.556992222052767,-0.4444444444444444,-0.053667530883025776,-0.4693488892277973,-0.13058856507092978,-0.03165106154092774,-0.08364041930225587
1592167991.959345,-0.5936685363583771,8.548069522348266,4.527721910606937,-0.4444444444444444,-0.05333333333333334,-0.4633333333333333,-0.09178552070773005,-0.02332861132191222,-0.10437442734773279
1592167991.969345,-0.6031769011139261,8.573014436803797,4.492382675835445,-0.4444444444444444,-0.05333333333333334,-0.4633333333333333,-0.08098138751933907,-0.034455680241829684,-0.08681753179873249
1592167991.979345,-0.43912486094188696,8.607554696191132,4.520437569529056,-0.4444444444444444,-0.05333333333333334,-0.4633333333333333,-0.08321761216763529,-0.07189515038716127,-0.06491636441633356
1592167991.989345,-0.45923282765281076,8.524441471168162,4.5926514023580545,-0.4444444444444444,-0.05333333333333334,-0.4633333333333333,-0.08508480103472357,-0.08752779055688491,-0.08339790021034103
1592167991.999345,-0.3774306034711533,8.513108646037896,4.639865187622738,-0.4267864998908999,-0.04744735181548514,-0.44935412722844387,-0.07063842892875702,-0.09668601596679059,-0.06310555369496733
1592167992.009345,-0.198470463159841,8.665032818711287,4.609490154386614,-0.4177777777777778,-0.044444444444444446,-0.44222222222222224,-0.06695063426723286,-0.1029480500896159,-0.03253026912360277
1592167992.019345,-0.11983514099783081,8.682948662328272,4.475732465654374,-0.4177777777777778,-0.044444444444444446,-0.44222222222222224,-0.10464987254024605,-0.10252011022723308,-0.04781877188582764
1592167992.029345,-0.23816351303106031,8.572309175294537,4.49419992859693,-0.4177777777777778,-0.044444444444444446,-0.44222222222222224,-0.13173863273272496,-0.09335330615491341,-0.08539417482037696
1592167992.039345,-0.37704074283155864,8.541005820404509,4.535502910202254,-0.4177777777777778,-0.044444444444444446,-0.44222222222222224,-0.13395275027528392,-0.09425031923825553,-0.09577367288790797
1592167992.049345,-0.33934018966208096,8.56887371443836,4.5777474288767195,-0.4037972485641779,-0.0388522327590045,-0.45130956621106216,-0.1409120037808158,-0.11395892575322925,-0.06498820712952022
1592167992.059345,-0.18584648628335212,8.449633596392333,4.665183201803833,-0.39555555555555555,-0.035555555555555556,-0.45666666666666667,-0.1430111540532229,-0.12879417732437837,-0.035355871224635224
1592167992.069345,-0.12274712384389803,8.379560342882924,4.703626438078051,-0.39555555555555555,-0.035555555555555556,-0.45666666666666667,-0.10018841501284367,-0.11900838341051882,-0.03946174477669268
1592167992.079345,-0.143427067560747,8.396741654048597,4.776854135121494,-0.39555555555555555,-0.035555555555555556,-0.45666666666666667,-0.03258995587645371,-0.09667329521825971,-0.05311368260845964
1592167992.089345,-0.18694280682949238,8.463885613658984,4.81,-0.39555555555555555,-0.035555555555555556,-0.45666666666666667,0.0030293709626147657,-0.08012808132640245,-0.061928637500217404
1592167992.099345,-0.28102048935746965,8.498163251773756,4.76265300709502,-0.4093650951528413,-0.03029477856611336,-0.43102037884313593,-0.0004675144063832522,-0.07179447349427773,-0.06674103588277218
1592167992.109345,-0.33,8.517087780240875,4.73,-0.41888888888888887,-0.02666666666666667,-0.41333333333333333,-0.02311416007477904,-0.07902975160423743,-0.041038142450158396
1592167992.119345,-0.21128313338707383,8.516809237043008,4.65085542225805,-0.41888888888888887,-0.02666666666666667,-0.41333333333333333,-0.026574653071784183,-0.09225591815049605,-0.0031810423582317587
1592167992.129345,-0.10537762884215392,8.554622371157846,4.571752253293274,-0.41888888888888887,-0.02666666666666667,-0.41333333333333333,-0.009095743867702882,-0.09291175769530224,0.010512840700281825
1592167992.139345,-0.05854901960784314,8.596088235294117,4.55,-0.41888888888888887,-0.02666666666666667,-0.41333333333333333,0.005849847431623151,-0.0770843058544726,0.00973833833863993
1592167992.149345,-0.04,8.541110912183331,4.595926058544445,-0.42590537005540136,-0.021563771272839396,-0.4184362287271606,0.012160746784439945,-0.04728948203739425,-0.0006666459360937516
1592167992.159345,-0.0526028832357831,8.439588467056868,4.699315857796807,-0.4311111111111111,-0.017777777777777778,-0.4222222222222222,0.028899724319028326,-0.014569096082869097,-0.024820331704726122
1592167992.169345,-0.20583082539839162,8.467064236025458,4.689276234644038,-0.4311111111111111,-0.017777777777777778,-0.4222222222222222,0.056161666900059526,0.011251906874293517,-0.04182296562168797
1592167992.179345,-0.35975631095442734,8.548829417668099,4.632097475618229,-0.4311111111111111,-0.017777777777777778,-0.4222222222222222,0.051322211479787,0.02115680071018589,-0.026030886736605297
1592167992.189345,-0.42367188073731366,8.575180289344202,4.630360578688404,-0.4311111111111111,-0.017777777777777778,-0.4222222222222222,0.03794307918768186,0.020686451834150313,-0.0036087857766529258
1592167992.1993449,-0.4848519009011919,8.59,4.652970380180238,-0.4225193535536247,-0.01621564004005297,-0.41284939579587343,0.023911811284489964,0.013619229675621713,0.03599741582238304
1592167992.2093449,-0.5438690358148575,8.581792329353904,4.592546305477334,-0.41888888888888887,-0.015555555555555555,-0.4088888888888889,0.027522915748917937,0.017818705473140656,0.019881692194347114
1592167992.2193449,-0.65,8.623414213147901,4.436555456921636,-0.41888888888888887,-0.015555555555555555,-0.4088888888888889,0.02945243112740431,0.029821555525199817,-0.020752252724856753
1592167992.2293448,-0.6634569983136593,8.65,4.408971332209107,-0.41888888888888887,-0.015555555555555555,-0.4088888888888889,0.023091397660502548,0.029432196492315845,-0.03703674026101795
1592167992.2393448,-0.6998519714708652,8.599259857354326,4.4958141569102406,-0.41888888888888887,-0.015555555555555555,-0.4088888888888889,-0.023262689400214757,0.011853811938819986,-0.057179805339116645
1592167992.2493448,-0.616027397260274,8.589831401475237,4.55,-0.4119341997424189,-0.008600866409085587,-0.39245053272450536,-0.06490615573785814,-0.017060179635208013,-0.01650959170600274
1592167992.2593448,-0.5127441778482825,8.614093022231035,4.520465111155176,-0.4066666666666667,-0.0033333333333333335,-0.38,-0.08756073479441731,-0.0477428756471695,0.01948274681533147
1592167992.2693448,-0.496816120906801,8.553946263643997,4.438340890008396,-0.4066666666666667,-0.0033333333333333335,-0.38,-0.08586257895285622,-0.06257357072027277,0.007836396452594187
1592167992.2793448,-0.5155636937424931,8.56563693742493,4.440073243682438,-0.4066666666666667,-0.0033333333333333335,-0.38,-0.06870636000459138,-0.060594608230831834,-0.012614033093673132
1592167992.2893448,-0.5289298550724638,8.61,4.529114202898551,-0.4066666666666667,-0.0033333333333333335,-0.38,-0.06048274107711886,-0.05428796049074681,-0.027681301356032674
1592167992.2993448,-0.5580932621339411,8.600953368933029,4.6080932621339405,-0.40968221035565683,-0.0058462864074918085,-0.373466322007188,-0.07095486746554172,-0.049295378048185394,-0.05170933414497009
1592167992.3093448,-0.5740544831235763,8.548381381865035,4.588381381865035,-0.41333333333333333,-0.008888888888888889,-0.3655555555555556,-0.10041413210169933,-0.05274272119133717,-0.06804406808044938
1592167992.3193448,-0.5810640524065144,8.486807842780458,4.532339868983714,-0.41333333333333333,-0.008888888888888889,-0.3655555555555556,-0.1250280299885239,-0.06517150695074164,-0.059554512477220246
1592167992.3293447,-0.5478420020322802,8.465269749745966,4.53107899898386,-0.41333333333333333,-0.008888888888888889,-0.3655555555555556,-0.12951461179060905,-0.08521616369435449,-0.034023831060479
1592167992.3393447,-0.48320542588292803,8.496794574117072,4.54106847529431,-0.41333333333333333,-0.008888888888888889,-0.3655555555555556,-0.11168909249592252,-0.1034167479965213,-0.019518401510799248
1592167992.3493447,-0.42676931303472576,8.567169099144438,4.590399786109713,-0.40713848347592685,0.0009196233853380302,-0.3655555555555556,-0.10004762861012978,-0.1112647398146385,-0.02680756449309515
1592167992.3593447,-0.3711230070448647,8.56957220986281,4.70042779013719,-0.4,0.012222222222222223,-0.3655555555555556,-0.1324396784024873,-0.10433475899393162,-0.03444575251381803
1592167992.3693447,-0.3392311534968211,8.513077883742053,4.713846730245232,-0.4,0.012222222222222223,-0.3655555555555556,-0.17092414289885652,-0.08986800980105998,-0.04312947752023941
1592167992.3793447,-0.40711920844829225,8.479717438873562,4.715423841689659,-0.4,0.012222222222222223,-0.3655555555555556,-0.1837279302569887,-0.07452156145748051,-0.06475971045434435
1592167992.3893447,-0.48414100392639925,8.465858996073601,4.746564015705597,-0.4,0.012222222222222223,-0.3655555555555556,-0.17836762916239868,-0.06492122778276727,-0.08396037780377083
1592167992.3993447,-0.4481828397673189,8.44479375991539,4.781404680063458,-0.4050687466948705,0.014756595569657442,-0.36302118220812035,-0.1741182393301748,-0.06440401077386665,-0.08582418356008836
1592167992.4093447,-0.29249640338671257,8.42,4.810937949576661,-0.41333333333333333,0.01888888888888889,-0.35888888888888887,-0.16628322315956698,-0.07398917831323872,-0.06681299309825926
1592167992.4193447,-0.17409218409891614,8.445504342167268,4.763890447232009,-0.41333333333333333,0.01888888888888889,-0.35888888888888887,-0.153675103861368,-0.07633614869631321,-0.0561227701024707
1592167992.4293447,-0.1776417217444863,8.489056688697795,4.767170066093383,-0.41333333333333333,0.01888888888888889,-0.35888888888888887,-0.14882122733532205,-0.06799165606685317,-0.05085225551182552
1592167992.4393446,-0.27687496308546455,8.47875002460969,4.896406197704408,-0.41333333333333333,0.01888888888888889,-0.35888888888888887,-0.15820454588381241,-0.055308533209954186,-0.04757044899099398
1592167992.4493446,-0.3984007339449541,8.381599266055046,5.0685677064220185,-0.4061628542303772,0.01978519877675841,-0.3508220998980632,-0.1732494276809308,-0.044916728818360396,-0.05042552434618608
1592167992.4593446,-0.49815030392337445,8.293759440044207,5.193819487935163,-0.39555555555555555,0.021111111111111112,-0.3388888888888889,-0.1740260676323072,-0.041423681115854365,-0.05575047459215097
1592167992.4693446,-0.7005585525769773,8.174720723711511,5.321303289346281,-0.39555555555555555,0.021111111111111112,-0.3388888888888889,-0.10971267413907551,-0.0678418164164932,-0.05297637635794923
1592167992.4793446,-0.6681742154832155,8.190684669193793,5.249771776935402,-0.39555555555555555,0.021111111111111112,-0.3388888888888889,-0.07447067521100986,-0.08658640384504979,-0.048975356477477854
1592167992.4893446,-0.4152460210842688,8.29548190987955,5.176937771807191,-0.39555555555555555,0.021111111111111112,-0.3388888888888889,0.015631399708438874,-0.12713435437393747,-0.04009679262559481
1592167992.4993446,-0.21705503512880564,8.389086651053864,5.061370023419204,-0.3923744470465782,0.021111111111111112,-0.3426001821493625,0.06371141522264721,-0.13005794040347968,-0.044054108047905764
1592167992.5093446,-0.1740524169123289,8.408379033235068,5.026758066470137,-0.3888888888888889,0.021111111111111112,-0.3466666666666667,0.07827458627305617,-0.1224980987377754,-0.046110033447281644
1592167992.5193446,-0.24948142077902125,8.365432149350816,4.940864298701631,-0.3888888888888889,0.021111111111111112,-0.3466666666666667,0.0763392987021717,-0.08375968005855255,-0.032800347765214566
1592167992.5293446,-0.40079608971767,8.39777204290845,4.858487976595391,-0.3888888888888889,0.021111111111111112,-0.3466666666666667,0.08776127110179743,-0.05112722813791365,-0.024351267077583217
1592167992.5393445,-0.5383322899020402,8.441905060027988,4.834047469986006,-0.3888888888888889,0.021111111111111112,-0.3466666666666667,0.09973300255336393,-0.03685454593178629,-0.017193700985860212
1592167992.5493445,-0.5680750271275771,8.432981243218105,4.8370187567818945,-0.3888888888888889,0.021442360357567303,-0.3466666666666667,0.10297851796267962,-0.04141064878472362,-0.010373122671251758
1592167992.5593445,-0.45029114482886823,8.453456328275669,4.767203801380208,-0.3888888888888889,0.022222222222222223,-0.3466666666666667,0.10585083590291382,-0.06895534827521407,-0.005566412888146866
1592167992.5693445,-0.25994983450558545,8.479417666528756,4.624076334298717,-0.3888888888888889,0.022222222222222223,-0.3466666666666667,0.11588762606162195,-0.09529435885596445,-0.011040825486739703
1592167992.5793445,-0.14949112087072752,8.51563609891159,4.529491120870727,-0.3888888888888889,0.022222222222222223,-0.3466666666666667,0.12499726727413077,-0.11526305538447974,-0.028611395803359044
1592167992.5893445,-0.13,8.54,4.51,-0.3888888888888889,0.022222222222222223,-0.3466666666666667,0.1287180323345818,-0.12217304763960307,-0.038179077387375956
1592167992.5993445,-0.02080154227140215,8.593600514090467,4.552404626814206,-0.38968900313121496,0.022222222222222223,-0.34146592409154713,0.09873959105303991,-0.11252903802949146,-0.04878206475038287
1592167992.6093445,-0.04,8.6,4.61,-0.39111111111111113,0.022222222222222223,-0.3322222222222222,0.06872233929727672,-0.09926560120717749,-0.05017821599483697
1592167992.6193445,-0.1673932512394051,8.498451943067327,4.705702862625939,-0.39111111111111113,0.022222222222222223,-0.3322222222222222,0.0007686231293266253,-0.07038187443783146,-0.05934255527148599
1592167992.6293445,-0.22,8.44,4.77,-0.39111111111111113,0.022222222222222223,-0.3322222222222222,-0.019634954084936207,-0.05890486225480862,-0.06763150851478027
1592167992.6393445,-0.5255243441454085,8.342419475316326,5.0537902623418365,-0.39111111111111113,0.022222222222222223,-0.3322222222222222,-0.004358829338763423,-0.04348370163149095,-0.06906102794671433
1592167992.6493444,-0.56,8.366354659469756,5.043645340530243,-0.3838204300506253,0.025057487079077807,-0.32898191952867295,0.028189706610234736,-0.04799655442984406,-0.06583672041670227
1592167992.6593444,-0.56,8.36,5.05,-0.3711111111111111,0.03,-0.3233333333333333,0.04690572364734761,-0.04799655442984406,-0.05890486225480862
1592167992.6693444,-0.569948006932409,8.365958405545927,4.956166377816291,-0.3711111111111111,0.03,-0.3233333333333333,0.08962318643586914,-0.04103338642622024,-0.038422198424861304
1592167992.6793444,-0.6,8.407013570692566,4.877013570692566,-0.3711111111111111,0.03,-0.3233333333333333,0.1303123197990136,-0.023119691257248675,-0.016574706562269937
1592167992.6893444,-0.608992568597561,8.427002477134145,4.9089925685975615,-0.3711111111111111,0.03,-0.3233333333333333,0.15358735289499348,-0.007858305048661206,-0.0016402993750134877
1592167992.6993444,-0.6406634730538923,8.412891017964071,4.9317772455089814,-0.3711111111111111,0.027432867598137057,-0.3223459747172322,0.15875206569476147,0.005526527595536536,0.012337753384494646
1592167992.7093444,-0.635390243902439,8.405204502814259,4.885390243902439,-0.3711111111111111,0.015555555555555555,-0.31777777777777777,0.17702280274161905,0.008617153864355211,0.0244565080070439
1592167992.7193444,-0.5290614188794537,8.46320393584041,4.767459450959248,-0.3711111111111111,0.015555555555555555,-0.31777777777777777,0.21076512670108766,-3.0019043639263263e-05,0.02171423233211292
1592167992.7293444,-0.4648197579495685,8.492409878974785,4.692409878974784,-0.3711111111111111,0.015555555555555555,-0.31777777777777777,0.2376168789982132,-0.011210507557125316,0.011808716025998447
1592167992.7393444,-0.40035401065235676,8.537666893596572,4.618728925553642,-0.3711111111111111,0.015555555555555555,-0.31777777777777777,0.254518110891645,-0.014485320671624276,0.002004392280007504
1592167992.7493443,-0.34271138508468113,8.64,4.487755076101808,-0.3718172991713712,0.017674119736335744,-0.3170715897175177,0.2601170245539386,-0.012396670883030645,-0.0032216093253831495
1592167992.7593443,-0.37,8.64,4.44,-0.37333333333333335,0.022222222222222223,-0.31555555555555553,0.25416357232167425,-0.01090830782496456,-0.00545415391248228
1592167992.7693443,-0.4291176841097478,8.60617646317805,4.413235242246353,-0.37333333333333335,0.022222222222222223,-0.31555555555555553,0.21636947786748742,-0.009560812592649898,-0.010394978925328148
1592167992.7793443,-0.48926546082617667,8.6,4.395084680708151,-0.37333333333333335,0.022222222222222223,-0.31555555555555553,0.1965097924377133,-0.014556726743037434,-0.009897602836643706
1592167992.7893443,-0.53,8.6,4.43,-0.37333333333333335,0.022222222222222223,-0.31555555555555553,0.18762289458939044,-0.019634954084936207,-0.00545415391248228
1592167992.7993443,-0.5434149114219851,8.594703634698583,4.436237092241135,-0.3745876359196219,0.022222222222222223,-0.31346505124507457,0.1774975653757924,-0.036958932847419315,0.00010261739037663633
1592167992.8093443,-0.43176491994177585,8.655073462518196,4.357794304949054,-0.38666666666666666,0.022222222222222223,-0.29333333333333333,0.17223096163152143,-0.06330023945527719,0.004379350165227197
1592167992.8193443,-0.283700032324103,8.693024997306324,4.235800021549402,-0.38666666666666666,0.022222222222222223,-0.29333333333333333,0.1629373975075083,-0.08117962448271114,0.014638946750427335
1592167992.8293443,-0.2,8.7,4.18,-0.38666666666666666,0.022222222222222223,-0.29333333333333333,0.1538071403320003,-0.08726646259971647,0.020725784867432664
1592167992.8393443,-0.11085474983469253,8.71,4.174572625082654,-0.38666666666666666,0.022222222222222223,-0.29333333333333333,0.12282571884131452,-0.08863700961151784,0.02767632683900717
1592167992.8493443,-0.061825674570727726,8.716815372035978,4.194543581357318,-0.3836376124284546,0.023484328154810576,-0.3016632324884165,0.09307025319800301,-0.07383135185277223,0.03421180699709555
1592167992.8593442,0.0,8.74,4.21,-0.37333333333333335,0.027777777777777776,-0.33,0.07199483164476608,-0.05781403147231216,0.039269908169872414
1592167992.8693442,0.10817416912074043,8.74182583087926,4.194550553919506,-0.37333333333333335,0.027777777777777776,-0.33,0.037195478743223355,-0.03362270581432317,0.04531850443557041
1592167992.8793442,0.13,8.72,4.18,-0.37333333333333335,0.027777777777777776,-0.33,0.014180800172453926,-0.01854412330243975,0.04690572364734761
1592167992.8893442,0.07004089758293121,8.580081795165862,4.5473875316469385,-0.37333333333333335,0.027777777777777776,-0.33,-0.025886040221655075,0.009804093339750783,0.032738307177611
1592167992.8993442,0.031219245821072113,8.522195188544732,4.632195188544732,-0.3704064152736907,0.02631431874795646,-0.32195097533598277,-0.03881753257309037,0.020113869932531652,0.020512867194448343
1592167992.9093442,0.0,8.53,4.64,-0.36,0.021111111111111112,-0.29333333333333333,-0.02945243112740431,0.02181661564992912,0.011999138607461015
1592167992.9193442,-0.028415008895358244,8.615245026686075,4.492679928837134,-0.36,0.021111111111111112,-0.29333333333333333,0.011267742713239848,0.01888991471982501,0.0070238587616059745
1592167992.9293442,-0.05,8.68,4.32,-0.36,0.021111111111111112,-0.29333333333333333,0.02617993877991494,0.014180800172453926,0.00545415391248228
