time,acc_x,acc_y,acc_z,mag_x,mag_y,mag_z,gyr_x,gyr_y,gyr_z
1592167813.4395154,0.09722296446157958,9.042777035538421,3.531942588846051,-0.37558596616236806,-0.5670056367777481,-0.4966970772734791,-0.04263342453120067,0.02757369714735096,-0.03572434378086639
1592167813.4495153,0.05880704871197753,9.057798237822006,3.6123859025760447,-0.38,-0.5722222222222222,-0.5011111111111111,-0.04060091394831814,0.024958977198719114,-0.04607515446224989
1592167813.4595153,-0.018685203297471004,9.021841553723627,3.5918415537236275,-0.38,-0.5722222222222222,-0.5011111111111111,-0.0361982981713184,0.021500812746291748,-0.04799655442984406
1592167813.4695153,-0.07722148028396711,9.01,3.60233288817038,-0.38,-0.5722222222222222,-0.5011111111111111,-0.02353793083001244,0.015041457762495589,-0.04556041424201389
1592167813.4795153,-0.08445000804735421,9.015549991952646,3.598900016094708,-0.38,-0.5722222222222222,-0.5011111111111111,-0.008132160162284286,0.004614226499582373,-0.03806454981134569
1592167813.4895153,0.004468416212774995,9.050167291504563,3.5417323335927,-0.3598884723302917,-0.5635072268986819,-0.48837381025362914,0.0024071271904052794,-0.005472402584764972,-0.02811788604721279
1592167813.4995153,0.4972478853197713,9.053805633877046,3.518097183061477,-0.3466666666666667,-0.5577777777777778,-0.48,-0.010859758108459868,-0.0005696902495005741,-0.02067277972993435
1592167813.5095153,0.7373276797556368,9.039827579277361,3.4538792653028416,-0.3466666666666667,-0.5577777777777778,-0.48,-0.016954897586644,0.009967942507904693,-0.001880730634119726
1592167813.5195153,1.07491221556251,9.037881239060095,3.4136437171802894,-0.3466666666666667,-0.5577777777777778,-0.48,-0.006739306828486101,0.05723106507179007,0.006674532783983646
1592167813.5295153,1.115072673523434,9.054927326476566,3.4259709305906263,-0.3466666666666667,-0.5577777777777778,-0.48,0.001286800074394107,0.08326336824695219,-0.00019596929189765171
1592167813.5395153,0.8964734048920634,9.09,3.363530585371693,-0.3466666666666667,-0.5739213208659759,-0.5012415040634186,0.013667442435381854,0.1550257664609478,-0.0042350925132812
1592167813.5495152,0.7906501987507097,9.082407722884724,3.3210193072118113,-0.3466666666666667,-0.5788888888888889,-0.5077777777777778,0.009625760899831729,0.17740092436068144,0.0023733777076292858
1592167813.5595152,0.5153633733179762,9.107430120515774,3.2450838553810715,-0.3466666666666667,-0.5788888888888889,-0.5077777777777778,-0.024766090684771494,0.21104831480377903,0.030232440868047192
1592167813.5695152,0.42556348853892667,9.151418371878522,3.2788730229221468,-0.3466666666666667,-0.5788888888888889,-0.5077777777777778,-0.06389906589405775,0.2159844949342983,0.04736988475918363
1592167813.5795152,0.3849309549968763,9.121242810056227,3.4143785949718866,-0.3466666666666667,-0.5788888888888889,-0.5077777777777778,-0.15602959730918248,0.20307528493982463,0.06976798023090224
1592167813.5895152,0.34102553385515616,8.981025533855156,3.4949817615320313,-0.3559951364085417,-0.5602319494051389,-0.48834346581553817,-0.1900243139174655,0.16690904677132926,0.06545382596624452
1592167813.5995152,0.2923408430232558,9.00741569767442,3.462584302325581,-0.36,-0.5522222222222222,-0.48,-0.1792312665624733,0.13768369420568913,0.05269489579288439
1592167813.6095152,0.30630157184587564,9.01666073167339,3.4251884824036725,-0.36,-0.5522222222222222,-0.48,-0.17853393288325867,0.0665367932882677,0.015148269510219598
1592167813.6195152,0.3964491177181533,8.96009789702683,3.4964817500604304,-0.36,-0.5522222222222222,-0.48,-0.18543767338805145,0.03277831802008477,0.0025547641894145905
1592167813.6295152,0.5499751963621331,8.9,3.649950392724266,-0.36,-0.5522222222222222,-0.48,-0.1614754236955192,-0.00871582363129041,-0.017435705748336285
1592167813.6395152,0.556227375093836,8.920658937359246,3.745090499624656,-0.3554091250312787,-0.5705857220971076,-0.4891817499374427,-0.10596699078288951,-0.02421391396148276,-0.041399434774620894
1592167813.6495152,0.6248342541436465,8.908618784530386,3.819889502762431,-0.35333333333333333,-0.5788888888888889,-0.49333333333333335,-0.10204993171277617,-0.038543692096442456,-0.02832242686376848
1592167813.6595151,0.8578131921560154,8.828080060504565,3.9449332829128627,-0.35333333333333333,-0.5788888888888889,-0.49333333333333335,-0.12194905931891432,-0.05585635822800798,0.01165587842119113
1592167813.6695151,0.8854662118258609,8.835434129304744,3.941832764782326,-0.35333333333333333,-0.5788888888888889,-0.49333333333333335,-0.101464761072978,-0.04978536806683265,0.0025885081336433115
1592167813.6795151,0.8404913192832606,8.943403212329404,3.870982638566521,-0.35333333333333333,-0.5788888888888889,-0.49333333333333335,-0.037731382042737224,-0.03825946931710818,-0.020698987557521923
1592167813.689515,0.7923216351716159,8.99339298110297,3.8189286540686465,-0.35702378197711787,-0.5672024681835712,-0.5013293053948665,-0.010304459577685186,-0.025848861330696,-0.01758967791897351
1592167813.699515,0.7528152355756137,8.969689141345368,3.8065630471151226,-0.36,-0.5577777777777778,-0.5077777777777778,-0.013566611047282209,-0.011795682093774362,-0.010431666167639821
1592167813.709515,0.5986154590931095,8.970230756817815,3.658384702275294,-0.36,-0.5577777777777778,-0.5077777777777778,0.002813769575311577,0.01800988553821888,-0.015042269568861488
1592167813.719515,0.47921986100510183,8.999449644478368,3.5681191499618365,-0.36,-0.5577777777777778,-0.5077777777777778,0.02399332546630105,0.02803636248415629,-0.028151479684398056
1592167813.729515,0.27186656200941917,9.082666797488226,3.4863999215070645,-0.36,-0.5577777777777778,-0.5077777777777778,0.04415677013969926,0.02540903650752822,-0.03396109846879419
1592167813.739515,0.34391739210964994,9.104782367105019,3.4439118355250975,-0.35014447119837006,-0.5612561997077649,-0.5077777777777778,0.011144496227398042,0.009580076381339498,0.00398469433087518
1592167813.749515,0.444166930978115,9.007914948642252,3.4837511894015174,-0.3411111111111111,-0.5644444444444444,-0.5077777777777778,-0.013817305239247384,0.005908695570428872,0.022725698965822303
1592167813.759515,0.4960994102780118,8.98646407509929,3.480364664821278,-0.3411111111111111,-0.5644444444444444,-0.5077777777777778,-0.01169298655730074,0.008700127085815397,0.0229207060195037
1592167813.769515,0.59,9.06938136256852,3.46938136256852,-0.3411111111111111,-0.5644444444444444,-0.5077777777777778,-0.0028549954446349095,0.021169975945661446,0.013992446071012684
1592167813.779515,0.59,9.054239735560195,3.596096555323591,-0.3411111111111111,-0.5644444444444444,-0.5077777777777778,-0.020244172069969285,0.03316827748917138,0.00432663948519519
1592167813.789515,0.604707650273224,8.960779599271403,3.7443178506375228,-0.3503714835053633,-0.5644444444444444,-0.5077777777777778,-0.05212601456693401,0.04947334856297793,-0.006459943606652965
1592167813.799515,0.62,8.918272301185079,3.792093891704454,-0.36,-0.5644444444444444,-0.5077777777777778,-0.059647448541791784,0.06120636016267152,-0.01298139758018417
1592167813.809515,0.5890762929453478,8.92855422423279,3.7572288788360435,-0.36,-0.5644444444444444,-0.5077777777777778,-0.015499426403844375,0.07812363618853072,-0.020208843907296183
1592167813.819515,0.5771249704701157,8.94,3.681000078746358,-0.36,-0.5644444444444444,-0.5077777777777778,-0.002440732802098929,0.0764672464428967,-0.01154919990057729
1592167813.829515,0.5709144949941107,8.94,3.628310144287397,-0.36,-0.5644444444444444,-0.5077777777777778,-0.0019127481681374195,0.07343915455804505,0.01997326902064421
1592167813.839515,0.4887206131623554,8.962516029184169,3.67002137224556,-0.36291874452387385,-0.5598578459069283,-0.5077777777777778,0.004912235546736196,0.082633345962025,0.035181041248261775
1592167813.849515,0.354391722557701,9.011928777716781,3.725964388858391,-0.36777777777777776,-0.5522222222222222,-0.5077777777777778,0.011788741596855152,0.10050856040607911,0.03731806648021893
1592167813.859515,0.2914073523950984,9.001407352395098,3.686617155588563,-0.36777777777777776,-0.5522222222222222,-0.5077777777777778,0.004147830379786005,0.11745691589039911,0.03261717709979377
1592167813.869515,0.26096690983837817,8.983655636612793,3.66,-0.36777777777777776,-0.5522222222222222,-0.5077777777777778,-0.0009227502504145588,0.12534006648553228,0.024545385282206136
1592167813.879515,0.15108451194064457,8.955676056882295,3.6686478862354126,-0.36777777777777776,-0.5522222222222222,-0.5077777777777778,-0.00011830190088400576,0.13402469351547913,-0.0058367118677549665
1592167813.889515,0.09546124395001084,8.954538756049988,3.7117712923499244,-0.36777777777777776,-0.554743753361105,-0.5213940459277453,0.013870879095551625,0.1322924081414184,-0.01834286766287492
1592167813.899515,0.09844197926197011,8.95155802073803,3.739869624885636,-0.36777777777777776,-0.5577777777777778,-0.5377777777777778,0.026024206800635847,0.12374529607873878,-0.019068206115484997
1592167813.909515,0.155095188127717,8.89993654124819,3.6497461649927545,-0.36777777777777776,-0.5577777777777778,-0.5377777777777778,0.03489966276389713,0.08389705838837468,0.0017158523476234668
1592167813.919515,0.2387232767711629,8.895286405905475,3.6892960885821107,-0.36777777777777776,-0.5577777777777778,-0.5377777777777778,0.03439241168643635,0.05545921842921375,0.03205718047288664
1592167813.929515,0.34607556536127965,8.923037782680641,3.733122586872587,-0.36777777777777776,-0.5577777777777778,-0.5377777777777778,0.04453987533481375,0.04112019904900767,0.05302261893154519
1592167813.9395149,0.41743550520919465,8.985644947908055,3.6694840416735572,-0.36407350752439227,-0.5577777777777778,-0.5354982268526175,0.0678284966435195,0.038486961534560646,0.061366266805737764
1592167813.9495149,0.3869750846928233,9.100293601787559,3.5639501693856466,-0.35333333333333333,-0.5577777777777778,-0.5288888888888889,0.0899110477876698,0.055728450867618906,0.049619211411576915
1592167813.9595149,0.25751323685139427,9.097860924814684,3.471078362160254,-0.35333333333333333,-0.5577777777777778,-0.5288888888888889,0.06549162426708381,0.07713594446082422,0.02809033656578016
1592167813.9695148,0.12204556659833407,9.037467628512857,3.457954433401666,-0.35333333333333333,-0.5577777777777778,-0.5288888888888889,0.02402312993898026,0.09850411147754831,0.013313106091268408
1592167813.9795148,0.09,9.01,3.49,-0.35333333333333333,-0.5577777777777778,-0.5288888888888889,0.006544984694978735,0.10799224746714915,0.009817477042468103
1592167813.9895148,0.04316289835902947,8.959565990162444,3.525612367213657,-0.3557312721310572,-0.5557794954463412,-0.5244926677597285,0.010076241059363368,0.10686250514142553,0.032363041614011746
1592167813.9995148,0.12029772329246935,9.030297723292469,3.500893169877408,-0.36,-0.5522222222222222,-0.5166666666666667,0.016362461737446838,0.09700816097136317,0.05901311749883921
1592167814.0095148,0.24808756934223933,9.031974980187933,3.59,-0.36,-0.5522222222222222,-0.5166666666666667,0.006681786211939048,0.08078646711557085,0.07083218855614241
1592167814.0195148,0.3643301549463647,8.999587604290822,3.5922681764004767,-0.36,-0.5522222222222222,-0.5166666666666667,-0.004475786613520917,0.0709714789523907,0.07179239737440292
1592167814.0295148,0.5213498522939651,8.98,3.686099957798276,-0.36,-0.5522222222222222,-0.5166666666666667,-0.0003408558476927191,0.08479030894790743,0.051563538864149557
1592167814.0395148,0.3437221331779105,8.976548885327118,3.653097770654233,-0.36,-0.5564402512668577,-0.5258696391276896,0.024982456758156486,0.1175193343246222,0.02146972097080942
1592167814.0495148,0.18,8.97,3.64,-0.36,-0.5644444444444444,-0.5433333333333333,0.039269908169872414,0.14180800172453928,0.002181661564992912
1592167814.0595148,0.05009290838527578,9.038604610137599,3.545767376220158,-0.36,-0.5644444444444444,-0.5433333333333333,0.04270474867157197,0.15178275955488704,0.01993938092803442
1592167814.0695148,-0.03,9.01,3.5,-0.36,-0.5644444444444444,-0.5433333333333333,0.0370882466048795,0.15053464798451094,0.02617993877991494
1592167814.0795147,-0.023579205894392143,8.917527220630372,3.688524764633647,-0.36,-0.5644444444444444,-0.5433333333333333,0.005764123101679595,0.1242458940340293,0.06949132364996416
1592167814.0895147,-0.003276337984971631,8.880085493022543,3.7935328170525993,-0.3644824413433522,-0.5644444444444444,-0.5384773552113684,0.018994774755904782,0.10210609378533744,0.09313396459739255
1592167814.0995147,0.01,8.9,3.84,-0.37333333333333335,-0.5644444444444444,-0.5288888888888889,0.039269908169872414,0.08617563181722002,0.10471975511965977
1592167814.1095147,0.17068470545092596,9.027807842418209,3.740138041229012,-0.37333333333333335,-0.5644444444444444,-0.5288888888888889,0.08731103645362576,0.059069299773557266,0.11011427721604676
1592167814.1195147,0.19,9.032907705510624,3.645484617585104,-0.37333333333333335,-0.5644444444444444,-0.5288888888888889,0.12238197720850762,0.05837622647523819,0.07896524970632479
1592167814.1295147,0.26861287137599854,9.026204290458667,3.6100522394758103,-0.37333333333333335,-0.5644444444444444,-0.5288888888888889,0.14139395404362903,0.06885085778620095,0.05073217905032647
1592167814.1395147,0.39202152796009454,9.062021527960095,3.570637962719874,-0.3768793209066247,-0.5644444444444444,-0.5327303754266212,0.1464614302844723,0.07925920907422399,0.03354913218899838
1592167814.1495147,0.37,9.039384332733952,3.5997263701039794,-0.38666666666666666,-0.5644444444444444,-0.5433333333333333,0.1471875346586239,0.08746047714355037,0.008771418847010241
1592167814.1595147,0.41340882514378446,8.942107486337493,3.536322459012481,-0.38666666666666666,-0.5644444444444444,-0.5433333333333333,0.13936713671107445,0.1190718216863586,0.02258961828113571
1592167814.1695147,0.464289640792342,8.961420718415315,3.4567965121789404,-0.38666666666666666,-0.5644444444444444,-0.5433333333333333,0.15384363576051144,0.1303527794043225,0.05095309768518015
1592167814.1795146,0.457272470621449,9.067574902071497,3.372727529378551,-0.38666666666666666,-0.5644444444444444,-0.5433333333333333,0.16562452513561626,0.14119645204651654,0.08749770163385756
1592167814.1895146,0.49423958106044075,9.20884791621209,3.3328802094697796,-0.38743472252527456,-0.5637403932407206,-0.5432693286784493,0.1548175214517248,0.14621154968591107,0.11160153352121334
1592167814.1995146,0.3844223620593309,9.127689448237323,3.38,-0.4,-0.5522222222222222,-0.5422222222222223,0.09911790082692401,0.17278691747449146,0.0907693177150442
1592167814.2095146,0.356099071925754,9.041702784222737,3.298080510440835,-0.4,-0.5522222222222222,-0.5422222222222223,0.06811106911029634,0.18756885923624356,0.08681054088937097
1592167814.2195146,0.31327210453468457,9.107746264104911,3.177345579093063,-0.4,-0.5522222222222222,-0.5422222222222223,0.07546582668725686,0.19329922207387248,0.10905940737264724
1592167814.2295146,0.258804469273743,9.192934823091248,3.213478584729981,-0.4,-0.5522222222222222,-0.5422222222222223,0.09111991882764156,0.1964799530211242,0.11993207088122301
1592167814.2395146,0.25940793857283373,9.188767966494272,3.2868480502585906,-0.40124800372285857,-0.552638223463175,-0.5411822191198401,0.08073193038740785,0.19416787928436915,0.11126996605597357
1592167814.2495146,0.1294403414865506,9.117876549901755,3.382123450098245,-0.4066666666666667,-0.5544444444444444,-0.5366666666666666,0.03747789765747936,0.18652578149667565,0.08823519483538156
1592167814.2595146,0.07002244400935963,9.063295926651067,3.4300224440093596,-0.4066666666666667,-0.5544444444444444,-0.5366666666666666,0.0014307745142462212,0.16578914110805681,0.0679836935546761
1592167814.2695146,0.0999756282239364,9.00339832473617,3.4699512564478727,-0.4066666666666667,-0.5544444444444444,-0.5366666666666666,-0.02217402263126527,0.14219199418942974,0.049834101755277964
1592167814.2795146,0.08734276542622756,8.95,3.5535429794316964,-0.4066666666666667,-0.5544444444444444,-0.5366666666666666,-0.023708417887983547,0.11861769927777238,0.02787850146667705
1592167814.2895145,-0.00906860185861961,8.960882322230344,3.644607914795865,-0.4066666666666667,-0.5530337730442146,-0.5324346524659774,-0.010026029946587453,0.0942231997514901,0.007052983576667593
1592167814.2995145,-0.05,9.01,3.53,-0.4066666666666667,-0.5466666666666666,-0.5133333333333333,0.008726646259971648,0.06654067773228381,-0.015271630954950384
1592167814.3095145,0.045206444565811035,9.077603222282907,3.3998820316766794,-0.4066666666666667,-0.5466666666666666,-0.5133333333333333,0.0398442773437691,0.016578870411254505,0.011221229107600423
1592167814.3195145,0.10894721973727575,9.095789349781063,3.3913159753284052,-0.4066666666666667,-0.5466666666666666,-0.5133333333333333,0.04707793305521571,-0.017223662856185977,0.019319142677545528
1592167814.3295145,0.08076701345805097,9.024656103846521,3.5167194807673954,-0.4066666666666667,-0.5466666666666666,-0.5133333333333333,0.02602124408881242,-0.031351270058286945,-0.010192609552665176
1592167814.3395145,0.2093431702361523,9.01,3.5982886453718814,-0.40837702206086446,-0.5466666666666666,-0.5133333333333333,0.010735761597536399,-0.04292989378236944,-0.02824656952662241
1592167814.3495145,0.1157998210639811,8.992249776329977,3.652899910531991,-0.4211111111111111,-0.5466666666666666,-0.5133333333333333,0.04388424925262881,-0.041942394789759356,-0.06028497302275297
1592167814.3595145,0.05157476667978972,8.963202102776686,3.575957944466316,-0.4211111111111111,-0.5466666666666666,-0.5133333333333333,0.07056044006835677,-0.035954470723143936,-0.09263472631372054
1592167814.3695145,-0.0121836965751486,8.996724455137278,3.4251530804792907,-0.4211111111111111,-0.5466666666666666,-0.5133333333333333,0.09321593643374416,-0.04530508719628844,-0.08477537724497211
1592167814.3795145,0.03490125600743104,9.074703768022294,3.3605924639554137,-0.4211111111111111,-0.5466666666666666,-0.5133333333333333,0.10204653465675904,-0.0699296939447101,-0.044939488055716334
1592167814.3895144,0.051350662438127984,9.117298675123743,3.286207949257536,-0.42276192075771196,-0.5477171818963217,-0.515284290188407,0.08644472647333663,-0.097052804456093,-0.009347119111771923
1592167814.3995144,-0.059568985710939354,9.141849144998828,3.3840215507144533,-0.43333333333333335,-0.5544444444444444,-0.5277777777777778,0.017422961853772685,-0.12041831511452468,-0.007037506675129103
1592167814.4095144,-0.26969800279862616,9.191094262816435,3.4372453886274013,-0.43333333333333335,-0.5544444444444444,-0.5277777777777778,-0.04848642223653138,-0.1272032193140953,-0.05545538916950015
1592167814.4195144,-0.11,9.08,3.59,-0.43333333333333335,-0.5544444444444444,-0.5277777777777778,-0.0818123086872342,-0.1287180323345818,-0.08726646259971647
1592167814.4295144,-0.5019476104779045,8.949970894709947,3.737848652491724,-0.43333333333333335,-0.5544444444444444,-0.5277777777777778,-0.0721787089392361,-0.13419123561485813,-0.17998707911191522
1592167814.4395144,-0.39078217969801166,8.926043653759905,3.554956794737629,-0.43333333333333335,-0.5518695370508795,-0.5252028703842129,-0.005838105473897983,-0.17065821728704555,-0.16423625886539844
1592167814.4495144,-0.21,9.0,3.67,-0.43333333333333335,-0.54,-0.5133333333333333,0.08290313946973066,-0.2181661564992912,-0.0916297857297023
1592167814.4595144,-0.255195,9.107745,3.37882,-0.43333333333333335,-0.54,-0.5133333333333333,0.1684799051873601,-0.2515543050899427,-0.11695451317614002
1592167814.4695144,-0.17,9.1,3.1,-0.43333333333333335,-0.54,-0.5133333333333333,0.17016960206944715,-0.2650718801466388,-0.14398966328953217
1592167814.4795144,-0.14174296624676294,9.187614449370145,3.023485932493526,-0.43333333333333335,-0.54,-0.5133333333333333,0.12435150130122824,-0.3027305111219647,-0.11358659154471722
1592167814.4895144,-0.15786911947877744,9.256617802050398,3.1335287917984096,-0.4367155312829357,-0.54,-0.5108906348141761,0.0773530401075663,-0.321105172434111,-0.0902179871084546
1592167814.4995143,0.0,9.24,3.2,-0.4533333333333333,-0.54,-0.4988888888888889,0.044724062082354694,-0.3337942194439155,-0.10471975511965977
1592167814.5095143,-0.2243720665623667,9.19,3.1069534916797044,-0.4533333333333333,-0.54,-0.4988888888888889,0.006183908483752724,-0.33549896252997313,-0.16243992332594856
1592167814.5195143,-0.003017789729534058,9.17767259657651,3.174378652324559,-0.4533333333333333,-0.54,-0.4988888888888889,-0.019813524951254276,-0.35937602620817083,-0.15301537555733363
1592167814.5295143,0.1867963533128074,9.104161701787357,3.3151197568875204,-0.4533333333333333,-0.54,-0.4988888888888889,-0.04594552736417447,-0.370882466048795,-0.15033378926351462
1592167814.5395143,0.40172504301671086,9.009654116480505,3.3327583189944296,-0.45501897271881814,-0.5419921192737548,-0.49383197073243446,-0.06067292496876369,-0.36862582159849355,-0.15670376386747428
1592167814.5495143,0.33233019406392694,9.108284579528158,3.347055032343988,-0.46555555555555556,-0.5544444444444444,-0.4622222222222222,-0.044522877894800944,-0.34809508156607916,-0.1320435252359296
1592167814.5595143,0.29,9.2,3.34,-0.46555555555555556,-0.5544444444444444,-0.4622222222222222,-0.028361600344907853,-0.3327033886614191,-0.1112647398146385
1592167814.5695143,0.13374946466809423,9.15282869379015,3.3195396145610276,-0.46555555555555556,-0.5544444444444444,-0.4622222222222222,-0.055596631768192496,-0.30818118565524655,-0.10944910219743403
1592167814.5795143,-0.08901282233646948,9.072860742516918,3.369519009977444,-0.46555555555555556,-0.5544444444444444,-0.4622222222222222,-0.10071820982798499,-0.2902162046501067,-0.1205602867682106
1592167814.5895143,-0.32762987607594163,9.058136865881204,3.381013979610524,-0.463898045839014,-0.5524855693248953,-0.4611674433116958,-0.11102417903069561,-0.26839967650272734,-0.13768523937849633
1592167814.5995142,-0.44,9.11,3.26,-0.4533333333333333,-0.54,-0.45444444444444443,-0.10253809355466686,-0.2617993877991494,-0.1461713248545251
1592167814.6095142,0.07046965553576356,9.102046965553576,3.163859103339271,-0.4533333333333333,-0.54,-0.45444444444444443,-0.11461407936946498,-0.28322065631332644,-0.110148293296363
1592167814.6195142,0.1720016706443914,9.1075553699284,3.1717801909307877,-0.4533333333333333,-0.54,-0.45444444444444443,-0.12869387264565205,-0.28402762935604875,-0.10607725367554789
1592167814.6295142,0.23175057644110275,9.104124711779448,3.28443649122807,-0.4533333333333333,-0.54,-0.45444444444444443,-0.1387395685489936,-0.26012258131089566,-0.10375186288008886
1592167814.6395142,0.20412018669778298,9.118626604434072,3.350300466744457,-0.4546304291455983,-0.54,-0.4540629456761312,-0.1686106177725957,-0.23912601812390136,-0.08885822273396496
1592167814.6495142,0.26,9.1,3.49,-0.4722222222222222,-0.54,-0.4488888888888889,-0.22143864884678055,-0.2127120025868089,-0.05126904677733343
1592167814.6595142,0.10900729489901465,9.049149109913442,3.4795745549567205,-0.4722222222222222,-0.54,-0.4488888888888889,-0.26005087554699496,-0.1738832012301753,-0.04487875826551128
1592167814.6695142,0.045485199731775075,8.992742599865888,3.4595990995306067,-0.4722222222222222,-0.54,-0.4488888888888889,-0.29210560117661477,-0.12438004941579967,-0.05308941440320559
1592167814.6795142,0.05350919486282374,9.006215599266117,3.542706404403294,-0.4722222222222222,-0.54,-0.4488888888888889,-0.30158969444063055,-0.0926805894407755,-0.03777627007384967
1592167814.6895142,-0.12575386662231833,8.977713620488942,3.705879261599867,-0.4722222222222222,-0.54,-0.4483808045530979,-0.28234702601292977,-0.06125099200330582,-0.042399883194439915
1592167814.6995142,0.0,8.91,3.88,-0.4722222222222222,-0.54,-0.43333333333333335,-0.27707101875409984,-0.03381575425739013,-0.038179077387375956
1592167814.7095141,0.08542852007805278,8.833047653281298,4.04,-0.4722222222222222,-0.54,-0.43333333333333335,-0.2648224465698463,-0.018325917935631958,0.011978385151318726
1592167814.7195141,0.04712916476494751,8.858580556823368,4.042145139205842,-0.4722222222222222,-0.54,-0.43333333333333335,-0.19757778345110502,0.006706792090830561,0.023062283663533013
1592167814.7295141,0.0,8.89,4.05,-0.4722222222222222,-0.54,-0.43333333333333335,-0.1341721862470641,0.0272707695624114,0.019634954084936207
1592167814.739514,-0.1833318059453577,8.867382152471503,4.1209519445558165,-0.4722751080308787,-0.5394182561047789,-0.43269870362945567,-0.0789037598249411,0.05054165964348706,-0.00036344364865008793
1592167814.749514,-0.3064314441511017,8.781322016333982,4.134801253423475,-0.47444444444444445,-0.5155555555555555,-0.4066666666666667,-0.041898328849540215,0.06396974711038729,-0.014637302452350356
1592167814.759514,-0.25,8.87,4.03,-0.47444444444444445,-0.5155555555555555,-0.4066666666666667,-0.011999138607461015,0.05781403147231216,-0.011999138607461015
1592167814.769514,-0.4170488726637016,8.887726816978173,3.933180450934519,-0.47444444444444445,-0.5155555555555555,-0.4066666666666667,0.06460807568805987,0.053227757864889855,-0.0264779352293791
1592167814.779514,-0.55,8.87,3.88,-0.47444444444444445,-0.5155555555555555,-0.4066666666666667,0.1090830782496456,0.05999569303730508,-0.04581489286485115
1592167814.789514,-0.25410666666666665,8.92548,3.778286666666667,-0.47444444444444445,-0.5155555555555555,-0.4066666666666667,0.11513500743093592,0.03477932144859533,-0.014546592094851069
1592167814.799514,-0.33,8.93,3.67,-0.4811111111111111,-0.52,-0.43555555555555553,0.15707963267948966,0.025089107997418484,-0.0272707695624114
1592167814.809514,-0.4384500220167327,9.02859092910612,3.5812681638044914,-0.4811111111111111,-0.52,-0.43555555555555553,0.17536245613794965,0.019711806980224376,-0.030497150172727867
1592167814.819514,-0.2790667877802744,9.095618874599609,3.393752450160157,-0.4811111111111111,-0.52,-0.43555555555555553,0.1476382646203062,-0.0008518774600602193,0.004363323129985824
1592167814.829514,-0.22,9.18,3.36,-0.4811111111111111,-0.52,-0.43555555555555553,0.13199052468207118,-0.00545415391248228,0.004363323129985824
1592167814.839514,-0.2468931506849315,9.117249315068493,3.4317150684931508,-0.4811111111111111,-0.52,-0.43555555555555553,0.0860309846668835,-0.002520566251938386,-0.013238202833277538
1592167814.849514,-0.22,9.03,3.5,-0.4666666666666667,-0.5133333333333333,-0.39222222222222225,0.006544984694978735,0.006544984694978735,-0.032724923474893676
1592167814.859514,-0.19608568507643662,8.839673807089703,3.76,-0.4666666666666667,-0.5133333333333333,-0.39222222222222225,-0.0663749822455058,-0.0025019007058185282,-0.029096609859820294
1592167814.869514,-0.07753543790689105,8.831232281046555,3.76,-0.4666666666666667,-0.5133333333333333,-0.39222222222222225,-0.09297131598327736,-0.0119655333550043,-0.017905623505762178
1592167814.879514,-0.002366661601580307,8.878519981765688,3.7585800030390515,-0.4666666666666667,-0.5133333333333333,-0.39222222222222225,-0.06323619475403593,-0.010340349813078204,0.002181661564992912
1592167814.889514,-0.042200083573924935,9.02192030086613,3.734679949855645,-0.4666666666666667,-0.5133333333333333,-0.39222222222222225,-0.007618245493742529,-0.0007810147839652781,0.002181661564992912
1592167814.899514,-0.17106085376930064,8.985226158038147,3.7205304268846504,-0.4811111111111111,-0.5311111111111111,-0.37333333333333335,0.009163969336623723,0.01493298793818627,-0.006371402902886656
1592167814.909514,-0.1904042918247505,8.899942244025036,3.7297689761001425,-0.4811111111111111,-0.5311111111111111,-0.37333333333333335,-0.04150827153069312,0.02839310134258996,-0.00332919414331716
1592167814.919514,-0.26286426051301615,8.889618098598264,3.6896180985982645,-0.4811111111111111,-0.5311111111111111,-0.37333333333333335,-0.05058167359926228,0.03408653763056968,-0.01344407072411534
1592167814.929514,-0.4085894583472799,8.870313453700604,3.67141054165272,-0.4811111111111111,-0.5311111111111111,-0.37333333333333335,-0.015220342213124368,0.0477059182261633,-0.03136055273599181
1592167814.939514,-0.33426489987989527,8.886830022248912,3.7457351001201045,-0.4811111111111111,-0.5311111111111111,-0.37333333333333335,-0.01251782500406834,0.03239165404151248,-0.016947127621026323
1592167814.949514,-0.19885220494998357,8.979426102474992,3.747991358662471,-0.4622222222222222,-0.5133333333333333,-0.35888888888888887,-0.0021456471921898774,0.0036481073992558643,0.008131922428008028
1592167814.959514,-0.16141147217278956,8.961270324955512,3.676753614002584,-0.4622222222222222,-0.5133333333333333,-0.35888888888888887,0.03584344809291144,0.016485635921024117,-0.011860567650936576
1592167814.969514,-0.25655935613682096,9.050764587525151,3.448088531187123,-0.4622222222222222,-0.5133333333333333,-0.35888888888888887,0.024338475949905833,0.025089107997418484,-0.00234846868666239
1592167814.979514,-0.17,9.07,3.4,-0.4622222222222222,-0.5133333333333333,-0.35888888888888887,0.00545415391248228,0.025089107997418484,-0.006544984694978735
1592167814.9895139,-0.30546208082545145,9.086932760103181,3.4169327601031814,-0.4622222222222222,-0.5133333333333333,-0.35888888888888887,-0.001934156468788987,0.03340095717634866,-0.011162678683273277
1592167814.9995139,-0.46,8.98,3.54,-0.47444444444444445,-0.5255555555555556,-0.3655555555555556,-0.04145156973486533,0.025089107997418484,0.011999138607461015
1592167815.0095139,-0.26844681338835397,8.98,3.567364740944521,-0.47444444444444445,-0.5255555555555556,-0.3655555555555556,-0.04841664014957438,0.007178926931023788,0.017969198962925915
1592167815.0195138,-0.23034750278844962,9.048783740240427,3.5994787458173256,-0.47444444444444445,-0.5255555555555556,-0.3655555555555556,-0.0394404882022623,0.009741663694739264,0.004609716510104554
1592167815.0295138,-0.31903926883680767,9.000533739535108,3.6989325209297865,-0.47444444444444445,-0.5255555555555556,-0.3655555555555556,-0.050061772091890985,0.00657991786586253,-0.00858691357643647
1592167815.0395138,-0.41534655740215976,8.88876234969748,3.73178218580072,-0.47444444444444445,-0.5255555555555556,-0.3655555555555556,-0.04411114333870874,-0.0029889866217942063,0.0008073250568012939
1592167815.0495138,-0.2789030906551704,9.011620620559839,3.5694268018701805,-0.4828678122533244,-0.5002854521289156,-0.35186758286612557,-0.005329101479586935,-0.009588964916679484,0.009474708853785175
1592167815.0595138,-0.38279764408918804,9.13279764408919,3.541200392651802,-0.48333333333333334,-0.4988888888888889,-0.3511111111111111,0.0028796647707889198,0.00043611815466237415,-0.011715072871505899
1592167815.0695138,-0.592003124781382,9.066544318261316,3.5675458806520064,-0.48333333333333334,-0.4988888888888889,-0.3511111111111111,-0.05281691080538439,-0.016937905945212967,0.001933977883133712
1592167815.0795138,-0.36942269728922916,8.948964321825798,3.6717827049930185,-0.48333333333333334,-0.4988888888888889,-0.3511111111111111,-0.08304760141143495,-0.03772163645617306,0.02043131990609286
1592167815.0895138,-0.24256939642398498,8.955347229082289,3.703020843623432,-0.48333333333333334,-0.4988888888888889,-0.3511111111111111,-0.05578764869400081,-0.02671398573813409,0.005912447236393909
1592167815.0995138,-0.2234560153906053,9.049078395895839,3.7304608020520806,-0.47555555555555556,-0.4922222222222222,-0.3377777777777778,-0.02300797784503501,-0.001905200180316967,-0.03865660159727077
1592167815.1095138,-0.36754712227744313,9.010654100726015,3.7496729496369925,-0.47555555555555556,-0.4922222222222222,-0.3377777777777778,-0.02719941824173234,0.009621260910600685,-0.058565943481583074
1592167815.1195138,-0.5192891574444973,8.879371987236064,3.6287025595763462,-0.47555555555555556,-0.4922222222222222,-0.3377777777777778,-0.01912830914074052,0.002692824173506086,-0.04160213385875801
1592167815.1295137,-0.4929023432853574,8.934920899250624,3.6107255858213394,-0.47555555555555556,-0.4922222222222222,-0.3377777777777778,0.0027011912965399336,-0.008946836558282161,-0.028220559181523337
1592167815.1395137,-0.5503319630807415,8.924917009229814,3.662790467695649,-0.47555555555555556,-0.4922222222222222,-0.3377777777777778,0.00765392125483145,-0.021334570479427793,-0.005881881750914825
1592167815.1495137,-0.329805537140512,9.040097231429744,3.5783792657132936,-0.4642643628570326,-0.4922222222222222,-0.29774536730119644,0.0036879633008883557,-0.04524383983375166,0.020237826027012965
1592167815.1595137,-0.21923076923076923,9.07723076923077,3.588153846153846,-0.4633333333333333,-0.4922222222222222,-0.29444444444444445,0.012183740739883491,-0.02809308815229334,0.012905367257534994
1592167815.1695137,-0.2643763890548453,9.098125463018281,3.5809372684908594,-0.4633333333333333,-0.4922222222222222,-0.29444444444444445,-0.015579159470689672,-0.005419535122204944,-0.0028297211480461295
1592167815.1795137,-0.22550393221608464,8.993209437318603,3.5977984271135663,-0.4633333333333333,-0.4922222222222222,-0.29444444444444445,-0.03504693465161262,0.010318058175358878,-0.03348593139323207
1592167815.1895137,-0.22741744014659604,8.853903517507868,3.585165119706808,-0.4633333333333333,-0.4922222222222222,-0.29444444444444445,-0.010387378875414004,0.016044724627076998,-0.020905902526415568
1592167815.1995137,-0.1,9.04,3.52,-0.4633333333333333,-0.4866666666666667,-0.29444444444444445,0.03599741582238304,0.022907446432425576,0.042542400517361786
1592167815.2095137,-0.11169360871686453,9.11600845665962,3.5316936087168647,-0.4633333333333333,-0.4866666666666667,-0.29444444444444445,0.03153290390099439,0.033112045109885344,0.03616452634394943
1592167815.2195137,-0.30636661923981534,9.127643950172768,3.5315287900345536,-0.4633333333333333,-0.4866666666666667,-0.29444444444444445,-0.026158273567358607,0.06623457741920719,-0.0025563367102105564
1592167815.2295136,-0.5067602930032837,8.906917403384693,3.6411735286688556,-0.4633333333333333,-0.4866666666666667,-0.29444444444444445,-0.07642125157929641,0.09717949410426333,-0.04813988612296219
1592167815.2395136,-0.6241724152090006,8.777814322082614,3.658013262708385,-0.4633333333333333,-0.4866666666666667,-0.29444444444444445,-0.08574942666361712,0.09227271030274797,-0.03903148769458176
1592167815.2495136,-0.4900495724377246,8.999922543066056,3.6500030982773577,-0.46888716762369015,-0.4655620963633109,-0.2855583095798736,-0.09926188354123144,0.0687290986899059,-0.007644602687893121
1592167815.2595136,-0.6388558630217274,9.02480931050362,3.6748093105036213,-0.4688888888888889,-0.46555555555555556,-0.28555555555555556,-0.1443702005236153,0.05970141943398916,-0.022069287258735283
1592167815.2695136,-0.7156521214170147,8.74695684721451,3.725652121417015,-0.4688888888888889,-0.46555555555555556,-0.28555555555555556,-0.22053745103144723,0.03191868702178052,-0.0001897383334457485
1592167815.2795136,-0.555880338628365,8.820295348616,3.8120598306858176,-0.4688888888888889,-0.46555555555555556,-0.28555555555555556,-0.20401715882230337,0.0016038211171927816,0.028041085145903616
1592167815.2895136,-0.4837512183459919,9.069057322029535,3.756720120639241,-0.4688888888888889,-0.46555555555555556,-0.28555555555555556,-0.13584394956777182,0.008879828374747066,0.006000100907455171
1592167815.2995136,-0.5390870911376108,9.075095490634867,3.856539345820177,-0.45307147066136677,-0.46555555555555556,-0.27588935552762534,-0.1330107311853416,0.025167858081498653,-0.03628345752905895
1592167815.3095136,-0.6174825223877107,8.861128855011808,4.013176833687951,-0.4488888888888889,-0.46555555555555556,-0.2733333333333333,-0.19874697618554252,0.018508161007241827,-0.05457750142002072
1592167815.3195136,-0.5970928586849618,8.803546429342482,3.965958932041164,-0.4488888888888889,-0.46555555555555556,-0.2733333333333333,-0.19995493192343095,0.006491027992085563,-0.045056960808934204
1592167815.3295135,-0.4583708748035621,8.725958617077005,4.0322682032477735,-0.4488888888888889,-0.46555555555555556,-0.2733333333333333,-0.15077521359971835,-0.0064055594928157525,-0.015620193960357843
1592167815.3395135,-0.4635179463262014,8.803850249713363,4.009778464408559,-0.4488888888888889,-0.46555555555555556,-0.2733333333333333,-0.08075482244740018,-0.006532901802850576,0.005538734157379398
1592167815.3495135,-0.4721719783146877,8.95176428190906,3.8569236313496913,-0.4488888888888889,-0.4638159951810417,-0.2637657512735072,0.0025269494511135776,0.009916130724216866,-0.001426410544702831
1592167815.3595135,-0.42935548280745744,8.996257806877017,3.706195351860881,-0.4488888888888889,-0.4633333333333333,-0.2611111111111111,-0.008261755966189176,0.03368876798951994,-0.01609486363088192
1592167815.3695135,-0.4928114031946136,8.846287037700261,3.720450779552563,-0.4488888888888889,-0.4633333333333333,-0.2611111111111111,-0.0565407574638914,0.04965156582047361,-0.02913411262529912
1592167815.3795135,-0.6374532995400357,8.63475171313245,3.833555805876279,-0.4488888888888889,-0.4633333333333333,-0.2611111111111111,-0.03960361862891268,0.058442439292849174,-0.035109842254122524
1592167815.3895135,-0.7481822097781607,8.58348481585182,3.86,-0.4488888888888889,-0.4633333333333333,-0.2611111111111111,0.03265914001180969,0.04933524790360344,-0.012544436528239448
1592167815.3995135,-0.6351416354890433,9.173623730625334,3.7911740602173523,-0.46609537383455074,-0.4633333333333333,-0.2611111111111111,0.09203168098325702,0.0173561224876525,0.022523236124747773
1592167815.4095135,-0.6001455700879332,9.230582280351733,3.7898544299120664,-0.4688888888888889,-0.4633333333333333,-0.2611111111111111,0.05998223196136649,0.01308996938995747,0.010593141316462294
1592167815.4195135,-0.5746847433705181,8.929640637298808,3.8306305132589635,-0.4688888888888889,-0.4633333333333333,-0.2611111111111111,-0.016352483994762985,0.026455052088574856,-0.02800773096639911
1592167815.4295135,-0.5389142910465171,8.733428591424438,3.855542854476741,-0.4688888888888889,-0.4633333333333333,-0.2611111111111111,0.03945689609946193,0.049193348432102456,-0.04084070347876895
1592167815.4395134,-0.6109796719041484,8.830813316152854,3.7914787391580282,-0.4688888888888889,-0.4633333333333333,-0.2611111111111111,0.12549595186413032,0.06745205649805865,-0.033708888630410945
1592167815.4495134,-0.5356754632964442,8.844181127627529,3.7573132080413854,-0.4493870007785272,-0.4543949679494176,-0.25461048174099055,0.1642107844493925,0.07367182950218665,0.02030098160219093
1592167815.4595134,-0.46652914985390287,8.726116599415612,3.846059783869023,-0.44222222222222224,-0.45111111111111113,-0.25222222222222224,0.18581364642776269,0.07223223823290507,0.07231604516167486
1592167815.4695134,-0.4929226179942867,9.103302070430011,3.532543165558561,-0.44222222222222224,-0.45111111111111113,-0.25222222222222224,0.2557318018580342,0.08097308293190102,0.05936668046939689
1592167815.4795134,-0.5307083953497728,9.328187779073977,3.444645802325114,-0.44222222222222224,-0.45111111111111113,-0.25222222222222224,0.25324466619446645,0.09295243834831159,0.04170076833552494
1592167815.4895134,-0.43556676114516735,9.361763232483028,3.3907052929932107,-0.44222222222222224,-0.45111111111111113,-0.25222222222222224,0.12206864540532814,0.11896924601833775,0.006591697264905692
1592167815.4995134,-0.5683324262215772,8.976801523947751,3.481066158684083,-0.43781483497285384,-0.445822246411869,-0.22930380852550664,-0.01506766090297415,0.14580035927002047,-0.027954253944211457
1592167815.5095134,-0.6728166747143087,8.969225012071464,3.462464992757122,-0.43666666666666665,-0.4444444444444444,-0.22333333333333333,-0.04124413104670831,0.1384356965169422,-0.010770132414402073
1592167815.5195134,-0.7904705760410459,9.180941152082092,3.2477385918996657,-0.43666666666666665,-0.4444444444444444,-0.22333333333333333,-0.06655065579105972,0.10969052437739167,0.032878919124217115
1592167815.5295134,-0.8499412226637794,9.156094043737953,3.3757413797206293,-0.43666666666666665,-0.4444444444444444,-0.22333333333333333,-0.15913306198915733,0.09426316747833283,0.05495478963186284
1592167815.5395133,-0.6791015124839949,8.892102072663253,3.674597871318822,-0.43666666666666665,-0.4444444444444444,-0.22333333333333333,-0.22931404379629175,0.08432128059305381,0.057443161227478924
1592167815.5495133,-0.6951369732409585,8.947924108561622,3.953661730121401,-0.43666666666666665,-0.4336611651376795,-0.20805702098208295,-0.21866674750225468,0.095718962484935,0.06554525044287292
1592167815.5595133,-0.72,9.077487103905675,3.9189167280766397,-0.43666666666666665,-0.4311111111111111,-0.20444444444444446,-0.1956188369574761,0.10463374267033985,0.040194341036394826
1592167815.5695133,-0.9122976306151431,8.926934748486433,3.9138433365722403,-0.43666666666666665,-0.4311111111111111,-0.20444444444444446,-0.23192486003066698,0.11076119164865464,0.008223668825393531
1592167815.5795133,-0.7980916286076373,8.602137442911456,4.273816742784725,-0.43666666666666665,-0.4311111111111111,-0.20444444444444446,-0.27209906729196576,0.0916600684713507,0.028468333315472296
1592167815.5895133,-0.7305477691897128,8.458675153695614,4.402420384683812,-0.43666666666666665,-0.4311111111111111,-0.20444444444444446,-0.17952294718548248,0.0840537226016113,0.03278467582427787
1592167815.5995133,-0.6252008935309565,8.6241826908564,4.42,-0.43666666666666665,-0.426249618471673,-0.21983917113599852,-0.022035756497501002,0.08688043883471494,0.060270648120284084
1592167815.6095133,-0.47684367063991395,8.805612574069414,4.329474936511931,-0.43666666666666665,-0.42444444444444446,-0.22555555555555556,0.05586147207353942,0.09987783806357328,0.08324744159229858
1592167815.6195133,-0.5820198802395209,8.967070419161676,3.971111856287425,-0.43666666666666665,-0.42444444444444446,-0.22555555555555556,0.08339893839017742,0.1329821225229647,0.06932839704172673
1592167815.6295133,-0.9587723389572378,8.965167408324012,3.8824162958379937,-0.43666666666666665,-0.42444444444444446,-0.22555555555555556,0.09161761145283032,0.16816629755432055,0.019253891431459585
1592167815.6395133,-1.2396845653744282,8.79916927522273,3.8962846135323863,-0.43666666666666665,-0.42444444444444446,-0.22555555555555556,0.06461327193359395,0.17465795179525964,-0.007976486685011407
1592167815.6495132,-1.182520166453265,8.777491357234316,3.832508642765685,-0.4316673068715322,-0.41527895148669797,-0.19305971688718168,0.03654429775949762,0.1390853244058972,0.023993249057665963
1592167815.6595132,-1.0510116999311767,8.902220153030242,3.763536294077163,-0.43,-0.4122222222222222,-0.18222222222222223,0.049957497309321516,0.10836726609007775,0.04925241637035798
1592167815.6695132,-0.9310719951650677,9.106784014504797,3.6593759915388686,-0.43,-0.4122222222222222,-0.18222222222222223,0.0429909456521452,0.06093118529709958,0.06405707433854821
1592167815.6795132,-0.8626073902077745,9.096111533688298,3.6670082869610474,-0.43,-0.4122222222222222,-0.18222222222222223,0.0017903791353052444,0.039852726842485316,0.06104460070233499
1592167815.6895132,-0.5459898250624777,8.9533305069618,3.7370008479114603,-0.43,-0.4122222222222222,-0.18222222222222223,-0.06817738636998931,0.011271609776489507,0.04156000536356985
1592167815.6995132,-0.39704645706241204,8.959325199436885,3.742953542937588,-0.41982178424318267,-0.4161369205902289,-0.19396631732624225,-0.04913325027011231,0.0180747231018066,0.013186511241472645
1592167815.7095132,-0.427616684012489,9.004164598510929,3.7123833159875113,-0.41555555555555557,-0.4177777777777778,-0.1988888888888889,-0.04495723141941862,0.02591995933555565,0.00018225633200465163
1592167815.7195132,-0.7042152644996813,8.87334554918207,3.8094768429997874,-0.41555555555555557,-0.4177777777777778,-0.1988888888888889,-0.11117713963707665,0.034598709812661915,-0.012782094162732797
1592167815.7295132,-0.7956725580949184,8.668216743806806,4.023274419050817,-0.41555555555555557,-0.4177777777777778,-0.1988888888888889,-0.17386300300683957,0.021931482624339582,-0.004022070640533648
1592167815.7395132,-0.768312575030012,8.630843712484994,4.08,-0.41555555555555557,-0.4177777777777778,-0.1988888888888889,-0.17499248513668667,0.011867572694881253,0.0014194386450207108
1592167815.7495131,-0.6503910509494266,8.795428338660148,4.0403910509494265,-0.41555555555555557,-0.41264328438233305,-0.18495240681553898,-0.062075770686600196,-0.015164988351660639,0.01086565078364866
1592167815.7595131,-0.4048488882660688,8.910840573617339,3.9473706091180865,-0.41555555555555557,-0.41,-0.17777777777777778,-0.018360738587090128,-0.024687103631830586,0.015466760648596223
1592167815.7695131,-0.3020067264573991,8.897012331838566,3.9050056053811657,-0.41555555555555557,-0.41,-0.17777777777777778,-0.020723339058503296,-0.02061878072677298,0.017016715626051775
1592167815.7795131,-0.23314114707739617,8.840144139691953,3.890144139691953,-0.41555555555555557,-0.41,-0.17777777777777778,-0.01695341451454428,0.015070493774178722,0.01707920012491369
1592167815.789513,-0.28419845003215,8.873111442011574,3.8794564959897118,-0.41555555555555557,-0.41,-0.17777777777777778,0.005809876455381731,0.03626420772955763,0.01244080159036357
1592167815.799513,-0.5089487362744461,8.927017087908517,3.7810512637255536,-0.40617900793392964,-0.41,-0.1821054151416051,0.04047541403560448,0.07253092702770438,-0.0017416012486703538
1592167815.809513,-0.5342881483536078,8.90927962911598,3.7707203708840193,-0.4011111111111111,-0.41,-0.18444444444444444,0.02718661346091278,0.07238215718432907,0.0021067985101415484
1592167815.819513,-0.5673018853164359,8.835396229367127,3.798465409789043,-0.4011111111111111,-0.41,-0.18444444444444444,-0.024414026848992493,0.03705325946408129,0.03376978741224387
1592167815.829513,-0.42763310102877733,8.895325463423884,3.7412425923292085,-0.4011111111111111,-0.41,-0.18444444444444444,-0.008791186951981105,0.00453113927227004,0.03788861841568434
1592167815.839513,-0.2143529249175732,9.06061894138319,3.694915598902292,-0.4011111111111111,-0.41,-0.18444444444444444,0.023547998049645216,-0.01586921782495713,0.03216416353106941
1592167815.849513,-0.020271470252441956,9.132793352784473,3.701260941266016,-0.40524518302394746,-0.3958260391559897,-0.1690893201967666,0.008471616305367947,-0.02334970130758207,0.02481401328784054
1592167815.859513,0.06114244396240058,9.05728729814413,3.749713183899735,-0.4088888888888889,-0.38333333333333336,-0.15555555555555556,-0.0340178037768764,-0.017967684042226813,0.020523209519658858
1592167815.869513,0.13967872695899866,8.8759357453918,3.8503212730410015,-0.4088888888888889,-0.38333333333333336,-0.15555555555555556,-0.08154419454513666,0.01121146741933315,0.025462358496329177
1592167815.879513,0.14867528271405492,8.907179321486268,3.811880452342488,-0.4088888888888889,-0.38333333333333336,-0.15555555555555556,-0.059785985665548894,0.025564562189853937,0.02821709610554645
1592167815.889513,0.0808138219537703,8.96108509593836,3.8862021642157387,-0.4088888888888889,-0.38333333333333336,-0.15555555555555556,-0.035082107915033134,0.04634551255545531,0.02505951659613035
1592167815.899513,0.02334376863446631,8.770725104353012,4.195268634466309,-0.4124430530709601,-0.39754999006161795,-0.16325624461670973,-0.0816541154574768,0.04399797987546044,0.027924585043047245
1592167815.909513,-0.006495462444487354,8.638700907511103,4.338700907511102,-0.41555555555555557,-0.41,-0.17,-0.10896938246737266,0.042160114772964975,0.029169013112164452
1592167815.919513,-0.19381779698386103,8.614787900167563,4.278303201340506,-0.41555555555555557,-0.41,-0.17,-0.050125497477436144,0.06657367490649638,0.027363315572885124
1592167815.929513,-0.3594246660157645,8.652767127854641,4.24,-0.41555555555555557,-0.41,-0.17,0.025988673877394956,0.09362615698508296,0.03944922388657694
1592167815.939513,-0.7464180352343983,8.66470827112571,4.234902757041904,-0.41555555555555557,-0.41,-0.17,0.08631970790444732,0.11810673622342209,0.048038984674673324
1592167815.949513,-1.2259619096641359,8.711270750225196,4.185439454381676,-0.41555555555555557,-0.3951464847938918,-0.18175903287150233,0.17212063244467787,0.13551175620683292,0.0386338124690768
1592167815.959513,-1.3889055267077246,8.790714889506098,4.125428088395122,-0.41555555555555557,-0.38333333333333336,-0.19111111111111112,0.22723072626697496,0.13096709418340244,0.024091671614727608
1592167815.969513,-1.5968009011546043,9.074722613348353,3.831196845958885,-0.41555555555555557,-0.38333333333333336,-0.19111111111111112,0.2662671554422439,0.0766893053192552,-0.006021533370457766
1592167815.979513,-1.5964731124119456,9.007238069252903,3.754617521579522,-0.41555555555555557,-0.38333333333333336,-0.19111111111111112,0.15675521902034362,0.01587887163486823,-0.017159723862584266
1592167815.989513,-1.5540698038942493,8.850787209585844,3.8220571946079627,-0.41555555555555557,-0.38333333333333336,-0.19111111111111112,0.08240166659824825,-0.014987685905049794,-0.01749622814236905
1592167815.999513,-1.454979433681073,8.500095976154993,3.994979433681073,-0.418884318595794,-0.39054565325385,-0.17335770822983937,0.014664147129610186,-0.08832887650877323,-0.005994334616517932
1592167816.009513,-1.4495806224033863,8.463315826605001,3.967011836638708,-0.4222222222222222,-0.3977777777777778,-0.15555555555555556,0.0710155038285137,-0.11066571065051066,-0.009934709072161813
1592167816.019513,-0.7801479630513519,9.174940337479294,3.0400811410281605,-0.4222222222222222,-0.3977777777777778,-0.15555555555555556,0.28142653207838786,-0.154890161308799,0.009807063968204445
1592167816.029513,-0.26268248436530284,9.340311739151192,2.9391058385448994,-0.4222222222222222,-0.3977777777777778,-0.15555555555555556,0.22492678688436002,-0.18005509004436093,0.059274443868566076
1592167816.0395129,0.04520562114348896,9.28808592217427,3.184007026429361,-0.4222222222222222,-0.3977777777777778,-0.15555555555555556,0.11153407234279172,-0.17665605143923893,0.0852740827609013
1592167816.0495129,0.26888608927832724,9.149782257154676,3.52309879282464,-0.4163465500022982,-0.39232179643070547,-0.15639493730125897,-0.008890162167573129,-0.1442591814814393,0.0844800054938885
1592167816.0595129,0.29911522876588376,9.099659703371493,3.6604764152799087,-0.4066666666666667,-0.38333333333333336,-0.15777777777777777,-0.07790928104381578,-0.11196951631807842,0.07074067020574572
1592167816.0695128,0.1286571475734566,9.036219049191152,3.7437809508088478,-0.4066666666666667,-0.38333333333333336,-0.15777777777777777,-0.16462298503269746,-0.036590968458462464,0.033877396340235066
1592167816.0795128,-0.05840672461553158,8.929503295443691,3.8345266978699013,-0.4066666666666667,-0.38333333333333336,-0.15777777777777777,-0.20504346947959795,-0.0008250260899614979,0.007511092538641658
1592167816.0895128,-0.18,8.85,3.9,-0.4066666666666667,-0.38333333333333336,-0.15777777777777777,-0.2203478180642841,0.01090830782496456,-0.002181661564992912
1592167816.0995128,-0.23908805284782084,8.762725368565214,3.9981865785869655,-0.40909154381159535,-0.38333333333333336,-0.15777777777777777,-0.2050716174484387,0.020923598457330314,-0.0036692619425084203
1592167816.1095128,-0.21177711169694124,8.751370481383843,4.031370481383843,-0.41333333333333333,-0.38333333333333336,-0.15777777777777777,-0.16436717489315888,0.0164068182237092,-0.0033168488337517277
1592167816.1195128,-0.11120454238204677,8.818554549141544,3.9912045423820466,-0.41333333333333333,-0.38333333333333336,-0.15777777777777777,-0.06948443140458849,0.0076883735538415205,0.004869319963959305
1592167816.1295128,-0.05985775248933144,8.880568990042676,3.941280227596017,-0.41333333333333333,-0.38333333333333336,-0.15777777777777777,-0.03687101145616043,0.005469670708819356,0.006529467898641659
1592167816.1395128,-0.046925039352982686,8.90770015741193,4.045374803235087,-0.41333333333333333,-0.38333333333333336,-0.15777777777777777,-0.026177155897280334,0.004867853830612882,0.0037770230481164267
1592167816.1495128,-0.06494321362872911,8.87559825641846,4.077065504278973,-0.41626782905436027,-0.3815400303927058,-0.1587559430181201,-0.03775798686736322,0.0012508826956764726,-0.0019206229581602001
1592167816.1595128,-0.23918834694744795,8.835405826526276,4.0308116530525515,-0.43333333333333335,-0.3711111111111111,-0.16444444444444445,-0.044812599695797796,0.0005896841979697778,-0.013620628512298515
1592167816.1695127,-0.2608854531091299,8.815442726554565,3.9498699921002145,-0.43333333333333335,-0.3711111111111111,-0.16444444444444445,-0.03548611274462424,-0.004570680693470423,-0.011695193093186809
1592167816.1795127,-0.2242429933545218,8.818585668881827,3.89,-0.43333333333333335,-0.3711111111111111,-0.16444444444444445,-0.019932639630751838,-0.011068024236126095,-0.00404389030766275
