time,acc_x,acc_y,acc_z,mag_x,mag_y,mag_z,gyr_x,gyr_y,gyr_z
1592167817.7895112,-0.04867940632557258,8.91,3.8144338280620227,-0.4066666666666667,-0.38333333333333336,-0.1511111111111111,-0.005186579933732497,-0.002932891157177808,0.01827654932368997
1592167817.7995112,-0.03498675943714627,8.895039721688562,3.8698940754971702,-0.4066666666666667,-0.38333333333333336,-0.1511111111111111,-0.006544984694978735,-0.0016405791378062123,0.018547011945147438
1592167817.8095112,-0.06988027628549501,8.88,3.919960092095165,-0.409986697365055,-0.39052673317984143,-0.15443114180949943,-0.0011125971680259325,0.001629716258085841,0.017996531272638575
1592167817.8195112,-0.13423849858827436,8.886847699717656,3.9094569008470352,-0.41333333333333333,-0.3977777777777778,-0.15777777777777777,0.015567845591951165,0.002525524183358345,0.014062314317653615
1592167817.8295112,-0.265339031204129,8.89,3.838938159950755,-0.41333333333333333,-0.3977777777777778,-0.15777777777777777,0.022946056026152364,-0.004479151911166197,0.014219409766180718
1592167817.8395112,-0.2878428082269439,8.909294315063834,3.752117054808499,-0.41333333333333333,-0.3977777777777778,-0.15777777777777777,0.024699838308215857,-0.016054548597001117,0.011763825488481247
1592167817.8495111,-0.3176654722712308,8.943832736135615,3.72,-0.41333333333333333,-0.3977777777777778,-0.15777777777777777,0.027688856218202978,-0.023325533088217155,0.002538182024271524
1592167817.8595111,-0.3517545804038375,8.974561354899041,3.733684064697122,-0.41333333333333333,-0.3947368745117507,-0.16081868104380487,0.027557862109642048,-0.02966290521355011,-0.009932253612870355
1592167817.8695111,-0.24381785764556846,8.961532398066907,3.762311734622062,-0.41333333333333333,-0.39111111111111113,-0.16444444444444445,0.008553755236498975,-0.046574272413478744,-0.007885120443530663
1592167817.879511,-0.1229692417739628,8.962187410586552,3.66031330472103,-0.41333333333333333,-0.39111111111111113,-0.16444444444444445,-0.007073311964526911,-0.0585298599128431,-0.0019430520848159332
1592167817.889511,-0.09251223810456237,8.976256119052282,3.6463050714705307,-0.41333333333333333,-0.39111111111111113,-0.16444444444444445,-0.014320491445559993,-0.05426215657861066,-0.0038205776789728037
1592167817.899511,-0.11437787769784173,8.98,3.703963129496403,-0.41333333333333333,-0.39111111111111113,-0.16444444444444445,-0.024727171913326858,-0.04599586090689696,-0.004408565140497278
1592167817.909511,-0.20619960111063315,8.913960345704117,3.841759414962262,-0.4065600354568326,-0.383773371744902,-0.16444444444444445,-0.04711509353825889,-0.038680874051351,-0.002164214074083638
1592167817.919511,-0.2955754743303572,8.846538783482142,3.9482693917410714,-0.4,-0.37666666666666665,-0.16444444444444445,-0.061505933646330585,-0.035808635746254855,-0.0009020507063682676
1592167817.929511,-0.38937002018485073,8.834842505046213,3.862519919260597,-0.4,-0.37666666666666665,-0.16444444444444445,-0.05868586751655061,-0.038075997181168525,-0.0010564707137606438
1592167817.939511,-0.3992609897968914,8.882956040812434,3.758521979593783,-0.4,-0.37666666666666665,-0.16444444444444445,-0.031596334365511916,-0.04789451333156724,-0.001010217274683473
1592167817.949511,-0.409972151270044,8.939972151270045,3.759972151270044,-0.4,-0.37666666666666665,-0.16444444444444445,-0.019631916259747265,-0.05824368056989506,0.00043572474796079347
1592167817.959511,-0.4338092868353558,8.95452321708839,3.8116674960762547,-0.4082542842195256,-0.3811377372855764,-0.16031730233468167,-0.0299981179423055,-0.0698393102654273,7.78777096564669e-05
1592167817.969511,-0.38016804722460246,8.89154860516043,3.8713805579358276,-0.4266666666666667,-0.39111111111111113,-0.1511111111111111,-0.06009129522099431,-0.09390704947838444,-0.002181661564992912
1592167817.979511,-0.2627189509577316,8.87,3.825449344348582,-0.4266666666666667,-0.39111111111111113,-0.1511111111111111,-0.07090400086226964,-0.11721591734154521,-0.002181661564992912
1592167817.989511,-0.0819701846082546,8.926857797574604,3.797057339272381,-0.4266666666666667,-0.39111111111111113,-0.1511111111111111,-0.06284111020575685,-0.12824742391027863,-0.0009412168486063297
1592167817.999511,0.0,8.967823774059388,3.8165286778218395,-0.4266666666666667,-0.39111111111111113,-0.1511111111111111,-0.057340413193694637,-0.12791090829104781,-4.747788491376392e-05
1592167818.009511,-0.017693222354340073,8.87576694411415,4.02192627824019,-0.4266666666666667,-0.39111111111111113,-0.14767076231998943,-0.08344920339295421,-0.10100626102894948,-0.0001258152032130276
1592167818.019511,-0.05402985074626866,8.804567164179105,4.108417910447761,-0.4266666666666667,-0.39111111111111113,-0.14333333333333334,-0.09850039155378446,-0.08638728555113724,0.001090830782496456
1592167818.029511,-0.18014317264488616,8.755161069225498,4.099785241032671,-0.4266666666666667,-0.39111111111111113,-0.14333333333333334,-0.06534833181642274,-0.05996836203986076,0.00328030120390203
1592167818.039511,-0.277866487518563,8.831563538646488,4.05052117954883,-0.4266666666666667,-0.39111111111111113,-0.14333333333333334,-0.010691545608797735,-0.046047622973810334,0.006601836564485835
1592167818.049511,-0.34892222106686077,8.852431111573255,4.044862223146511,-0.4266666666666667,-0.39111111111111113,-0.14333333333333334,0.019695070578096562,-0.042837651897921034,0.007222996653216499
1592167818.059511,-0.36798054105363076,8.856827242524917,3.993557190317987,-0.42960475663133474,-0.38924141749723146,-0.14680562147339557,0.031592157574512926,-0.05110130630579624,0.006807208611131776
1592167818.069511,-0.29641672000393876,8.904402786667323,3.8876111466692924,-0.4388888888888889,-0.38333333333333336,-0.15777777777777777,0.03734883007968,-0.06924350624687771,0.007635815477475192
1592167818.079511,-0.2705500199282583,8.899724990035871,3.869633320047828,-0.4388888888888889,-0.38333333333333336,-0.15777777777777777,0.039199910658520506,-0.07301566491591065,0.007705812988827097
1592167818.089511,-0.2900781574574159,8.874435760282509,3.90097216452015,-0.4388888888888889,-0.38333333333333336,-0.15777777777777777,0.027763161604448125,-0.06157891586183825,0.01236843263898856
1592167818.099511,-0.21466245544694215,8.854662455446944,4.0153375445530575,-0.4388888888888889,-0.38333333333333336,-0.15777777777777777,0.01974870659798547,-0.05237993341746057,0.009121488739276661
1592167818.109511,-0.16548379539242483,8.807741897696213,4.066774306911363,-0.4348744847932665,-0.38333333333333336,-0.15451607445008458,0.01713664917605112,-0.040043967826659144,0.011295401544266698
1592167818.119511,-0.20269729317575297,8.8210789172703,4.0847302706824244,-0.4211111111111111,-0.38333333333333336,-0.14333333333333334,0.04624043331402748,-0.007902804940823543,0.015787623441943323
1592167818.1295109,-0.26452145142206057,8.849680967614706,3.9541474210088086,-0.4211111111111111,-0.38333333333333336,-0.14333333333333334,0.07541252748503924,0.02080138629091827,0.014743616081026697
1592167818.1395109,-0.38557245337159257,8.890791965566715,3.8287977044476325,-0.4211111111111111,-0.38333333333333336,-0.14333333333333334,0.09411537747828318,0.046553903331845156,0.016100161537810673
1592167818.1495109,-0.52,8.908727648657962,3.84,-0.4211111111111111,-0.38333333333333336,-0.14333333333333334,0.1064749121651649,0.06192940434230296,0.022024803651435935
1592167818.1595109,-0.6474818917767363,8.898683425649766,3.7890072432893054,-0.4250063911376225,-0.38333333333333336,-0.15006154428821664,0.11423745122701487,0.06544984694978735,0.02314680640387239
1592167818.1695108,-0.92,8.96,3.68,-0.43333333333333335,-0.38333333333333336,-0.16444444444444445,0.1112647398146385,0.06544984694978735,0.011999138607461015
1592167818.1795108,-1.0181276209905927,9.03,3.599212852771166,-0.43333333333333335,-0.38333333333333336,-0.16444444444444445,0.09870164057991267,0.02571810058564819,-0.0052499090464861176
1592167818.1895108,-1.0398157243479917,9.029861793260993,3.550138206739006,-0.43333333333333335,-0.38333333333333336,-0.16444444444444445,0.08592939021396773,0.01189360649178146,-0.007711195560103445
1592167818.1995108,-0.9589923130677848,8.97791893780573,3.5863088749126484,-0.43333333333333335,-0.38333333333333336,-0.16444444444444445,0.018616997811738603,-0.01434926530378287,-0.021933702727631045
1592167818.2095108,-0.8896671926026493,8.966524786262063,3.5971904010567646,-0.43333333333333335,-0.387391642918007,-0.16662968806696102,-0.016902813829462477,-0.02181661564992912,-0.01622737371444293
1592167818.2195108,-0.9401545944723049,9.060077297236154,3.5903864861807624,-0.43333333333333335,-0.3977777777777778,-0.17222222222222222,-0.029730681202574497,-0.021833479290848525,-0.013081537569497767
1592167818.2295108,-0.9753544583640383,9.012420781134857,3.6438386145910098,-0.43333333333333335,-0.3977777777777778,-0.17222222222222222,-0.09559825544748306,-0.02525446090232602,-0.016186417565474308
1592167818.2395108,-0.9840518362617353,8.876142549719772,3.7098056140184927,-0.43333333333333335,-0.3977777777777778,-0.17222222222222222,-0.16095149252127525,-0.03292471263965909,-0.03030106430267256
1592167818.2495108,-0.9658562184203527,8.856849747362823,3.8117124368407054,-0.43333333333333335,-0.3977777777777778,-0.17222222222222222,-0.17758866315617292,-0.04783971305680894,-0.03985453390437942
1592167818.2595108,-0.9904791805659119,8.97322436325105,3.84,-0.4323481112288459,-0.3977777777777778,-0.17338657561843465,-0.15484570062332967,-0.06476301012727753,-0.03652500102561236
1592167818.2695107,-1.0837436188315372,8.935606920022689,3.8575042541123086,-0.4211111111111111,-0.3977777777777778,-0.18666666666666668,-0.157560699573075,-0.09374617069370067,-0.04158769155684447
1592167818.2795107,-1.058253138075314,8.82762029288703,3.8593671548117157,-0.4211111111111111,-0.3977777777777778,-0.18666666666666668,-0.18905888887785463,-0.12303738270000167,-0.03720976697970782
1592167818.2895107,-1.043418013856813,8.840379412735071,3.83,-0.4211111111111111,-0.3977777777777778,-0.18666666666666668,-0.19761995743207816,-0.1520120021125703,-0.024854458815568373
1592167818.2995107,-0.9671798250639777,8.910885565868378,3.83,-0.4211111111111111,-0.3977777777777778,-0.18666666666666668,-0.1864176309455011,-0.1747082930907865,-0.013951934449668203
1592167818.3095107,-0.8130237446477229,8.935691708836124,3.823922927209031,-0.41683465248042906,-0.3977777777777778,-0.18509112927641538,-0.19777343806463013,-0.19418189151318285,-0.02141671513184614
1592167818.3195107,-0.51,8.84,3.8,-0.4,-0.3977777777777778,-0.17888888888888888,-0.23343778745424157,-0.19853120241435498,-0.032724923474893676
1592167818.3295107,-0.5614680252791002,8.950559592416269,3.87629360505582,-0.4,-0.3977777777777778,-0.17888888888888888,-0.24120321861644334,-0.17139004853667017,-0.07265083642587654
1592167818.3395107,-0.43,8.99,3.85,-0.4,-0.3977777777777778,-0.17888888888888888,-0.2247111411942699,-0.15489797111449674,-0.06763150851478027
1592167818.3495107,-0.41696998105116184,8.669293308068216,4.165353345965892,-0.4,-0.3977777777777778,-0.17888888888888888,-0.2633235265507975,-0.14799676658165958,-0.020318172942045437
1592167818.3595107,-0.3266750503018108,8.599992814027019,4.2166642713423395,-0.4055535594519498,-0.40110991344894764,-0.1812954313180671,-0.2796177276713553,-0.1341733620491435,-0.004726410812116003
1592167818.3695107,-0.21,8.7,4.25,-0.43333333333333335,-0.4177777777777778,-0.19333333333333333,-0.2596177262341565,-0.11780972450961724,-0.011999138607461015
1592167818.3795106,-0.5958589865651116,8.723383317465355,4.312828202686978,-0.43333333333333335,-0.4177777777777778,-0.19333333333333333,-0.21244194898067992,-0.07711837832231212,-0.057527620597229524
1592167818.3895106,-0.66,8.64,4.3,-0.43333333333333335,-0.4177777777777778,-0.19333333333333333,-0.19634954084936207,-0.06872233929727672,-0.06872233929727672
1592167818.3995106,-0.900146626408541,8.657756596214947,4.379853373591459,-0.43333333333333335,-0.4177777777777778,-0.19333333333333333,-0.15441333682392103,-0.08076946128472678,-0.06675340620292163
1592167818.4095106,-0.8887049399198932,8.732941700044504,4.310234386589526,-0.43418302592757424,-0.4165882081458406,-0.1977517348233859,-0.10025351426564669,-0.09787977197986705,-0.05170531436220369
1592167818.4195106,-0.66,8.86,4.09,-0.4388888888888889,-0.41,-0.2222222222222222,-0.039269908169872414,-0.13853550937704992,-0.03599741582238304
1592167818.4295106,-0.5394075761891199,8.87,3.96470378809456,-0.4388888888888889,-0.41,-0.2222222222222222,-0.04595485847792852,-0.14347655960474356,-0.03454416575541432
1592167818.4395106,-0.25138543008444253,8.866138543008443,3.8631687419493344,-0.4388888888888889,-0.41,-0.2222222222222222,-0.08752609500150431,-0.16466158575250495,-0.038125214982916066
1592167818.4495106,-0.11793961928626277,8.850173584448127,3.978611324414986,-0.4388888888888889,-0.41,-0.2222222222222222,-0.1340017701136227,-0.17349889979475028,-0.04303224495111347
1592167818.4595106,0.05687631807468056,8.80312368192532,4.166876318074681,-0.43411087678672344,-0.41209038029469736,-0.22401397676053425,-0.15908429304568522,-0.16279265761131392,-0.019566345822099623
1592167818.4695106,0.13,8.73,4.24,-0.4211111111111111,-0.4177777777777778,-0.2288888888888889,-0.17344209441693648,-0.15162547876700738,0.004363323129985824
1592167818.4795105,0.16602604920405212,8.64691145901855,4.324557295092751,-0.4211111111111111,-0.4177777777777778,-0.2288888888888889,-0.15183285285998296,-0.10476691299298281,0.0
1592167818.4895105,0.09,8.64,4.29,-0.4211111111111111,-0.4177777777777778,-0.2288888888888889,-0.12544553998709243,-0.08290313946973066,0.0
1592167818.4995105,0.06580637155363026,8.67986169396688,4.356221289652994,-0.4211111111111111,-0.4177777777777778,-0.2288888888888889,-0.09754139354214987,-0.03767636294391058,-0.012753210272659087
1592167818.5095105,-0.0022570872105604853,8.642042847868428,4.424085695736854,-0.4301904349707855,-0.41868571016374523,-0.2300238043713482,-0.09894928152560527,-0.015647201561951433,-0.04657689281419081
1592167818.5195105,-0.05,8.65,4.44,-0.46555555555555556,-0.4222222222222222,-0.23444444444444446,-0.08072147790473774,-0.004363323129985824,-0.06654067773228381
1592167818.5295105,-0.053875280643777904,8.73795842688126,4.315501122575111,-0.46555555555555556,-0.4222222222222222,-0.23444444444444446,-0.0373562969227902,-0.008771995497618382,-0.025775840749064045
1592167818.5395105,-0.02266390646686584,8.717773177444776,4.237117551577313,-0.46555555555555556,-0.4222222222222222,-0.23444444444444446,-0.04983995041872678,-0.01798678829655769,0.014085443255383264
1592167818.5495105,0.015648470616330675,8.66630758821071,4.295868176481124,-0.46555555555555556,-0.4222222222222222,-0.23444444444444446,-0.05655776015580696,-0.01643436031357031,0.02535041329959186
1592167818.5595105,0.068498064759747,8.616230214921803,4.326230214921804,-0.46555555555555556,-0.42328721622594934,-0.23577568694910336,-0.04544194606187359,-0.002645159096571931,0.017035070352665004
1592167818.5695105,-0.1706240625426117,8.745312031271306,4.43140789055043,-0.46555555555555556,-0.4444444444444444,-0.26222222222222225,-0.011437113593371264,0.010396929765300524,0.015100626211128272
1592167818.5795105,-0.1771165090079384,8.737116509007938,4.35025146171032,-0.46555555555555556,-0.4444444444444444,-0.26222222222222225,-0.0015626408927752623,0.012997619262865861,0.03197606298334004
1592167818.5895104,-0.1273163950143816,8.664552732502397,4.277316395014382,-0.46555555555555556,-0.4444444444444444,-0.26222222222222225,-0.013435861058740922,0.020583783381820528,0.022747979103987275
1592167818.5995104,-0.22197196242721795,8.695775699417743,4.373943924854436,-0.46555555555555556,-0.4444444444444444,-0.26222222222222225,-0.005530614531125141,0.0357670159669009,0.0038719391715643816
1592167818.6095104,-0.2194292759737366,8.754362280519326,4.385771710389494,-0.46602536551227836,-0.44303501457427596,-0.26284863549785265,0.01605497183981689,0.03942365311868739,0.020326806354603585
1592167818.6195104,-0.07525176009268336,8.67762588004634,4.325251760092684,-0.4722222222222222,-0.42444444444444446,-0.27111111111111114,0.010186304418708327,0.04171054604754428,0.025308810124541024
1592167818.6295104,-0.0979376475216365,8.692762588512982,4.2891342938631,-0.4722222222222222,-0.42444444444444446,-0.27111111111111114,0.009122431809177494,0.039231716218793664,0.020689684891202327
1592167818.6395104,-0.19935110639733886,8.777003808513715,4.204332063828762,-0.4722222222222222,-0.42444444444444446,-0.27111111111111114,0.02425432769363655,0.020836114278881226,0.06395724462131043
1592167818.6495104,0.010964155168124318,8.706506803437124,4.210964155168124,-0.4722222222222222,-0.42444444444444446,-0.27111111111111114,0.0034828383747879782,0.00624268012756,0.07986742209659825
1592167818.6595104,-0.02917038256176679,8.602157005339405,4.170829617438233,-0.4722222222222222,-0.42444444444444446,-0.27111111111111114,-0.005273159464618152,0.009745079263322451,0.05184822901049864
1592167818.6695104,-0.22,8.87,4.22,-0.4711111111111111,-0.45111111111111113,-0.28555555555555556,0.016362461737446838,0.017453292519943295,0.028361600344907853
1592167818.6795104,-0.10046954279915526,8.846137516798771,4.139133594799923,-0.4711111111111111,-0.45111111111111113,-0.28555555555555556,-0.010600992781553692,0.025037888823516673,0.041270477643961315
1592167818.6895103,-0.01602930946528776,8.691985345267355,4.142021982098965,-0.4711111111111111,-0.45111111111111113,-0.28555555555555556,-0.0772324179840968,0.03665311322939171,0.015488198528101953
1592167818.6995103,-0.06955064950661516,8.670449350493385,4.201942114849583,-0.4711111111111111,-0.45111111111111113,-0.28555555555555556,-0.07583641797247544,0.040409755487400285,0.01607002188434627
1592167818.7095103,-0.010784611997357932,8.729215388002643,4.269103300574447,-0.4711111111111111,-0.45111111111111113,-0.28555555555555556,-0.04836335968085866,0.0468201357554442,0.038964237127360246
1592167818.7195103,0.04753123693622555,8.84415625435459,4.225843745645409,-0.48444444444444446,-0.45111111111111113,-0.30666666666666664,-0.0852279887253425,0.04359061953488636,0.0535359318722701
1592167818.7295103,0.03981470357192366,8.838282888960768,4.202760962986923,-0.48444444444444446,-0.45111111111111113,-0.30666666666666664,-0.1576112368959121,0.039269908169872414,0.05487303252351453
1592167818.7395103,0.18808919880194683,8.741519561961812,4.203430363159865,-0.48444444444444446,-0.45111111111111113,-0.30666666666666664,-0.21875971179263107,0.04125901012649877,0.023142683621013353
1592167818.7495103,-0.018358890066397043,8.73027207647555,4.415892899625841,-0.48444444444444446,-0.45111111111111113,-0.30666666666666664,-0.21289101991011242,0.051149387332974534,0.036730211958272536
1592167818.7595103,-0.20666390213560024,8.578747667426912,4.6033340244661,-0.48467597392125694,-0.45087958163429864,-0.30750017278319164,-0.18898603726534027,0.042542400517361786,0.0816761527405075
1592167818.7695103,0.047221145332280376,8.34524206092804,4.63869480939048,-0.49,-0.44555555555555554,-0.32666666666666666,-0.10778333276275975,0.047548730894444856,0.09386658010185134
1592167818.7795103,-0.13,8.43,4.5,-0.49,-0.44555555555555554,-0.32666666666666666,0.017453292519943295,0.0643590161672909,0.061086523819801536
1592167818.7895103,-0.1399774941939809,8.782485933871238,4.368740153709867,-0.49,-0.44555555555555554,-0.32666666666666666,0.11699865955521717,0.08603697640447135,0.038452705708974716
1592167818.7995102,-0.2675534862244113,8.838883715561028,4.434148837925196,-0.49,-0.44555555555555554,-0.32666666666666666,0.06573143223162427,0.1012615680137525,0.03249863946887404
1592167818.8095102,-0.17071725411728492,8.596793135293213,4.466427581960905,-0.49,-0.44555555555555554,-0.32666666666666666,0.008514129858102348,0.10830369753664751,0.03073810708815029
1592167818.8195102,-0.23,8.54,4.43,-0.4777777777777778,-0.44555555555555554,-0.35,0.0370882466048795,0.11671889372712078,-0.011999138607461015
1592167818.8295102,-0.2609466733844237,8.861136008061308,4.397538649200499,-0.4777777777777778,-0.44555555555555554,-0.35,0.1119218532002812,0.11087232883653272,-0.001252267143163442
1592167818.8395102,-0.2959810567588634,8.879111415546685,4.28986016959161,-0.4777777777777778,-0.44555555555555554,-0.35,0.07925326094770777,0.08913716125486812,0.048944696290747935
1592167818.8495102,-0.20085273782086943,8.568191210363189,4.448139553365652,-0.4777777777777778,-0.44555555555555554,-0.35,0.0019843532235034474,0.07784923714453171,0.06426036199654617
1592167818.8595102,-0.30085194309783037,8.551524676150363,4.523138957323373,-0.4777777777777778,-0.44555555555555554,-0.35,0.00016631636781526274,0.07148610814962306,0.06335134356870208
1592167818.8695102,-0.11403577651295156,8.641228017191311,4.540175862469509,-0.4711111111111111,-0.4533333333333333,-0.35,0.04191098827954829,0.08026205936005477,0.08636713857115952
1592167818.8795102,-0.029740552067290607,8.650991351735577,4.4620691861153885,-0.4711111111111111,-0.4533333333333333,-0.35,0.01878870407947479,0.10219480687173549,0.06165552369367096
1592167818.8895102,-0.2962956316410862,8.657221723730816,4.391852184179457,-0.4711111111111111,-0.4533333333333333,-0.35,-0.009029709187642327,0.11950668114745505,0.03920968709857426
1592167818.8995101,-0.2579731288202053,8.632702494906393,4.407297505093608,-0.4711111111111111,-0.4533333333333333,-0.35,-0.010525156290744356,0.12463484971289827,0.05962719745812591
1592167818.9095101,-0.23378733710068045,8.664950217199094,4.375049782800907,-0.4711111111111111,-0.4533333333333333,-0.35,0.007063247780392707,0.11496122747377288,0.055230096440341644
1592167818.9195101,-0.428317997791682,8.682870813397129,4.3641589988958405,-0.49,-0.46555555555555556,-0.35555555555555557,0.04491838011648362,0.09186746398632281,0.07828045797187853
1592167818.92951,-0.13937349463542809,8.799910499233633,4.218836490037224,-0.49,-0.46555555555555556,-0.35555555555555557,0.06636494338846473,0.07413744113335476,0.11591119049855508
1592167818.93951,-0.08235450432117977,8.763918268655287,4.083136386488233,-0.49,-0.46555555555555556,-0.35555555555555557,0.043910907288230196,0.0717598007131995,0.149059045452492
1592167818.94951,-0.16,8.6,4.04,-0.49,-0.46555555555555556,-0.35555555555555557,0.025089107997418484,0.0839939702522271,0.16035212502697901
1592167818.95951,-0.09186202299616732,8.582965505749042,4.159241459756707,-0.49,-0.46555555555555556,-0.35555555555555557,0.0018619196309133806,0.10071754587611079,0.12225953610591064
1592167818.96951,-0.07720521274925421,8.788970683892963,4.27,-0.49777777777777776,-0.4666666666666667,-0.38333333333333336,0.006849848691342952,0.1283328662807483,0.07823495234338061
1592167818.97951,-0.1285134020132488,8.778162144322119,4.263567505127419,-0.49777777777777776,-0.4666666666666667,-0.38333333333333336,-0.0030071843208264114,0.14444074093765613,0.08403228652243433
1592167818.98951,0.0999104823090368,8.740347914403136,4.134870801643913,-0.49777777777777776,-0.4666666666666667,-0.38333333333333336,-0.06628478157914112,0.15395894662824644,0.061797838861682636
1592167818.99951,-0.17831519721804365,8.748946998261276,4.270842401390977,-0.49777777777777776,-0.4666666666666667,-0.38333333333333336,-0.08958596176998392,0.15787181531722466,0.05165958665894459
1592167819.00951,-0.11276261550784379,8.707976634692402,4.3036186922460775,-0.49777777777777776,-0.4666666666666667,-0.38333333333333336,-0.09494896982010392,0.1462519645419646,0.06685477613428462
1592167819.01951,-0.11970654320147069,8.692647239054946,4.280293456798529,-0.49,-0.4666666666666667,-0.39111111111111113,-0.10629186754378331,0.1211782503698572,0.06346069804144529
1592167819.02951,-0.2175398443291327,8.721230077835434,4.17917994810971,-0.49,-0.4666666666666667,-0.39111111111111113,-0.11153310116819003,0.08679185215316235,0.06536039316527018
1592167819.03951,-0.16090922090612264,8.75,4.159480445196501,-0.49,-0.4666666666666667,-0.39111111111111113,-0.11775304987233222,0.04982399951180558,0.06318317342886692
1592167819.04951,-0.22825341335042437,8.749897259608849,4.121130144302667,-0.49,-0.4666666666666667,-0.39111111111111113,-0.11371537509468851,0.02269450890800537,0.056151631545319367
1592167819.05951,-0.08977121326885354,8.741751247839344,4.210736273767213,-0.49,-0.4666666666666667,-0.39111111111111113,-0.13504158403729707,0.00581126016177359,0.010833437542276177
1592167819.06951,0.001592196061349412,8.68777092551411,4.382547513698159,-0.4777777777777778,-0.4811111111111111,-0.43333333333333335,-0.16440282119137672,-0.0035503829835676964,-0.03371154526886076
1592167819.07951,0.04967101492468878,8.620460579105435,4.459473623879502,-0.4777777777777778,-0.4811111111111111,-0.43333333333333335,-0.1549625671829804,-0.011941719879919993,-0.03056479393272865
1592167819.08951,0.07,8.57,4.41,-0.4777777777777778,-0.4811111111111111,-0.43333333333333335,-0.13744467859455345,-0.015271630954950384,-0.016362461737446838
1592167819.09951,0.19210344421317205,8.578721674586655,4.523381769626517,-0.4777777777777778,-0.4811111111111111,-0.43333333333333335,-0.11746554925506844,-0.017174405177758482,-0.01731384884885089
1592167819.10951,0.22760105548099452,8.54479788903801,4.601603694183481,-0.4777777777777778,-0.4811111111111111,-0.43333333333333335,-0.09821742500749561,-0.012653349239169099,-0.02129324714456265
1592167819.11951,0.14977652652104376,8.620148982319304,4.679404070722783,-0.49,-0.4666666666666667,-0.41888888888888887,-0.08166604563728397,0.0022385416399735565,-0.02372200256501604
1592167819.12951,0.12220844379203821,8.638527704138642,4.605889183445435,-0.49,-0.4666666666666667,-0.41888888888888887,-0.06362277768415908,0.009255368066188792,0.010359725790886523
1592167819.13951,0.22260443864229768,8.602689295039164,4.469412532637076,-0.49,-0.4666666666666667,-0.41888888888888887,-0.06624732115109025,0.012869951954062297,0.02529986903633425
1592167819.14951,0.2397973581507055,8.570607925547884,4.5285815070549384,-0.49,-0.4666666666666667,-0.41888888888888887,-0.055853417874351705,0.017364873333130314,0.03686719863784704
1592167819.15951,0.12460604360371914,8.602969701827508,4.47230302180186,-0.49,-0.4666666666666667,-0.41888888888888887,-0.03135642309817527,0.025545274789657957,0.03439091918164128
1592167819.16951,0.05824517268012799,8.609247931148627,4.501253448085623,-0.49,-0.4811111111111111,-0.4388888888888889,-0.0022363535552352588,0.03556288892279475,0.02377650023160216
1592167819.1795099,-0.006545956085181506,8.581480304534923,4.5475328257751295,-0.49,-0.4811111111111111,-0.4388888888888889,-0.004255672346375007,0.05979471441647174,-0.024687150755751796
1592167819.1895099,-0.04677851105708001,8.58,4.57758388329281,-0.49,-0.4811111111111111,-0.4388888888888889,0.033749852265690855,0.08315204641729856,-0.062375010058429395
1592167819.1995099,-0.031656691861990036,8.644201578483035,4.5341417296549755,-0.49,-0.4811111111111111,-0.4388888888888889,0.08511091501230114,0.08708574555169947,-0.0604474856573476
1592167819.2095098,-0.04505046948356808,8.687626173708919,4.552575704225352,-0.49,-0.4811111111111111,-0.4388888888888889,0.11982052766155364,0.08316208374879158,-0.03619029570194066
1592167819.2195098,0.0697735350548863,8.653933255748122,4.541573302299248,-0.49,-0.4811111111111111,-0.4716474625791142,0.1338289449314256,0.06774202233701852,0.006814115530631305
1592167819.2295098,0.006833928488614749,8.631708482122155,4.549145758938923,-0.49,-0.4811111111111111,-0.47444444444444445,0.14414866162693357,0.06354773511832297,0.021789247498311508
1592167819.2395098,0.05969729279900137,8.729495487998337,4.331109926403662,-0.49,-0.4811111111111111,-0.47444444444444445,0.18198162602157963,0.03830565494833347,0.05112595909972929
1592167819.2495098,0.5039179130927909,8.75959452753952,4.310270314973653,-0.49,-0.4811111111111111,-0.47444444444444445,0.1897013523914024,0.02311385395838743,0.10507341616657817
1592167819.2595098,0.27100894404493936,8.586937511204956,4.359446425370012,-0.49,-0.4811111111111111,-0.47444444444444445,0.1754211740535771,0.025604330576326745,0.10581058590215622
1592167819.2695098,0.25601979767214184,8.694079190688567,4.306965354073752,-0.47899395071129003,-0.48311221098178564,-0.47444444444444445,0.18610329006246334,0.027162226381916607,0.10482829830015455
1592167819.2795098,0.1408598039433614,8.718510014004046,4.214899859959544,-0.4777777777777778,-0.48333333333333334,-0.47444444444444445,0.21918504438869257,0.04119524741504471,0.11585933740176642
1592167819.2895098,-0.0021132316878132024,8.616673419341081,4.228179976543342,-0.4777777777777778,-0.48333333333333334,-0.47444444444444445,0.20934134826251743,0.07027420571489588,0.047108677023555756
1592167819.2995098,-0.17749302118276292,8.619305167843486,4.341662014121842,-0.4777777777777778,-0.48333333333333334,-0.47444444444444445,0.20225846134484013,0.07199483164476608,-0.026480071418445078
1592167819.3095098,-0.16600578603964053,8.6999807132012,4.2540231441585625,-0.4777777777777778,-0.48333333333333334,-0.47444444444444445,0.23931922706717607,0.05454574685158854,-0.04821072324591588
1592167819.3195097,-0.12,8.87,4.12,-0.49,-0.49,-0.4955555555555556,0.26616271092913524,0.00545415391248228,-0.05017821599483697
1592167819.3295097,-0.0376984158652887,8.801415346554407,4.010264554487051,-0.49,-0.49,-0.4955555555555556,0.23698515296686662,-0.022975261537933313,-0.04269679087630655
1592167819.3395097,0.0,8.842923801369862,3.850614297945205,-0.49,-0.49,-0.4955555555555556,0.18682957903048047,-0.06980511492951716,-0.04125859635264501
1592167819.3495097,0.21241807099318752,8.886942273216206,3.78458659017569,-0.49,-0.49,-0.4955555555555556,0.15001391219970783,-0.10733876590695011,-0.02130268533504911
1592167819.3595097,0.1835013501350135,8.820252025202521,3.84974797479748,-0.49,-0.49,-0.4955555555555556,0.09062241184775688,-0.11271001696300464,-0.01033589167177335
1592167819.3695097,0.07586990523507223,8.77176097157052,4.03943417057687,-0.4868623301745024,-0.4837246603490048,-0.5018308952065508,0.00024688966095696985,-0.10831240113318684,-0.034332616758987036
1592167819.3795097,0.19329738245273873,8.70472491517208,4.071758361609307,-0.4866666666666667,-0.48333333333333334,-0.5022222222222222,-0.04154767176817542,-0.10878340382115317,-0.043117823008419355
1592167819.3895097,0.07400486526062208,8.738098297158782,4.113199026947876,-0.4866666666666667,-0.48333333333333334,-0.5022222222222222,-0.0818878973014815,-0.09278654400499317,-0.05758461204154457
1592167819.3995097,0.3306822202036621,8.75,4.161526031457666,-0.4866666666666667,-0.48333333333333334,-0.5022222222222222,-0.10810348435862807,-0.09578982643916074,-0.031005054068384583
1592167819.4095097,0.3831612510791932,8.674773761871124,4.17,-0.4866666666666667,-0.48333333333333334,-0.5022222222222222,-0.1257834227029799,-0.08440207931999769,-0.01762919016083796
1592167819.4195096,0.5491683038637852,8.729559690280828,4.130195693208521,-0.4800326155347535,-0.48996738446524646,-0.4933768207130047,-0.12656305429156145,-0.05574444069960393,-0.025035740953473398
1592167819.4295096,0.4209158854826451,8.748440587788194,4.160734312980322,-0.48,-0.49,-0.49333333333333335,-0.1426288194149407,-0.04021043995552376,-0.020395477142524203
1592167819.4395096,0.4535661617909335,8.594018686613252,4.21494343439721,-0.48,-0.49,-0.49333333333333335,-0.1889278147417952,0.002809440240893926,-0.02698263599159892
1592167819.4495096,0.22370542049001985,8.534815060070002,4.4223134045974835,-0.48,-0.49,-0.49333333333333335,-0.2219939705624181,0.05177375336679424,-0.09744706834558113
1592167819.4595096,0.05057763529927123,8.698774441479829,4.567408307116404,-0.48,-0.49,-0.49333333333333335,-0.2049901752042187,0.06261675380443854,-0.1085023241286948
1592167819.4695096,0.1602729737309526,8.697671621326851,4.601095945903836,-0.4730746245918724,-0.49989339344018224,-0.5002587087414608,-0.17801473903763976,0.053674918240470576,-0.022639013205372052
1592167819.4795096,0.16093557036074096,8.56290380240494,4.7080317679558,-0.4722222222222222,-0.5011111111111111,-0.5011111111111111,-0.18186257599230188,0.05235987755982988,0.013649343657403553
1592167819.4895096,0.1236808493653708,8.49,4.647177297038397,-0.4722222222222222,-0.5011111111111111,-0.5011111111111111,-0.16630140657012107,0.04948890359168842,0.03410354828119079
1592167819.4995096,0.09778522941032142,8.584412775006134,4.535587224993866,-0.4722222222222222,-0.5011111111111111,-0.5011111111111111,-0.12182345898979426,0.048481571322707556,0.05005193228071055
1592167819.5095096,0.04935474325843804,8.678387154044938,4.441612845955063,-0.4722222222222222,-0.5011111111111111,-0.5011111111111111,-0.06696286817184313,0.055350888095908685,0.05549159672405743
1592167819.5195096,0.1592150519325728,8.712802656223396,4.43,-0.4722222222222222,-0.5011111111111111,-0.5281364814499498,-0.06671675598561373,0.06414133292583238,0.05209817475503889
1592167819.5295095,0.13516094570114728,8.606531654977008,4.527258581448279,-0.4722222222222222,-0.5011111111111111,-0.5366666666666666,-0.08858610994655655,0.08136374512564559,0.05501219392247292
1592167819.5395095,0.1427638021652217,8.640703472440592,4.519648263779704,-0.4722222222222222,-0.5011111111111111,-0.5366666666666666,-0.09851462294217818,0.09998367471181353,0.04735521786449149
1592167819.5495095,0.2093867015582253,8.578343285357441,4.480306649220887,-0.4722222222222222,-0.5011111111111111,-0.5366666666666666,-0.07849289777058213,0.10310023406639371,0.06415831472154741
1592167819.5595095,0.2665973297782657,8.543900445036956,4.524895994667398,-0.4722222222222222,-0.5011111111111111,-0.5366666666666666,-0.05959291092979947,0.1118531087931717,0.07556150848152206
1592167819.5695095,0.1260355609640672,8.621982219517966,4.478017780482034,-0.4581444673555007,-0.49531438851893167,-0.554056834443205,-0.033661143383881445,0.12431363204907758,0.04114234798784794
1592167819.5795095,0.08576504547433048,8.673647568211496,4.386939818102678,-0.4533333333333333,-0.49333333333333335,-0.56,0.00024442546295841763,0.12309697139141768,0.025782050811279433
1592167819.5895095,0.01705415788821414,8.704315280703929,4.272738877184286,-0.4533333333333333,-0.49333333333333335,-0.56,0.017361229592333917,0.12747781897498053,0.007406536879493535
1592167819.5995095,-0.20102373742307314,8.71,4.384015824948715,-0.4533333333333333,-0.49333333333333335,-0.56,0.01232552472515044,0.11318549494503705,-0.0012959010023767359
1592167819.6095095,-0.23137772596351666,8.67982204087231,4.448800233164175,-0.4533333333333333,-0.49333333333333335,-0.56,0.004324498471083364,0.09653601822767387,0.0067535082724172815
1592167819.6195095,-0.14356436970285752,8.606028608756825,4.567942782486349,-0.4759809274954496,-0.5056007801711463,-0.5703801473243033,-0.0006576192007573018,0.04518848097668813,0.025029105178589663
1592167819.6295094,-0.17921581230917566,8.6,4.5635947292302745,-0.48,-0.5077777777777778,-0.5722222222222222,0.01610583691572503,0.018391971427265893,0.030355526128436245
1592167819.6395094,0.0013986584059253737,8.628567568826572,4.3714526948339305,-0.48,-0.5077777777777778,-0.5722222222222222,0.04892892078809795,-0.0238390759831914,0.04160635012166759
1592167819.6495094,0.04743407053197848,8.689660251046027,4.349660251046025,-0.48,-0.5077777777777778,-0.5722222222222222,0.05749707112563722,-0.03768510643649771,0.018412467264423207
1592167819.6595094,0.14539305773741634,8.62024984398201,4.395642901719426,-0.48,-0.5077777777777778,-0.5722222222222222,0.04802380818048381,-0.04346571815208457,0.0027407038315610133
1592167819.6695094,0.11356685653884549,8.59225380233719,4.424835868224793,-0.4544493380573009,-0.5028324883695134,-0.5631558583070709,0.04173322943012852,-0.03205898438188569,-0.036412698925496825
1592167819.6795094,0.09163595291879681,8.662058415566916,4.383456188324812,-0.44555555555555554,-0.5011111111111111,-0.56,0.04822109273620029,-0.028540055125161706,-0.058818574526759516
1592167819.6895094,0.06338669548390338,8.740022869493101,4.3166590435023,-0.44555555555555554,-0.5011111111111111,-0.56,0.0516409726205173,-0.031269650873329904,-0.0698181594291842
1592167819.6995094,0.10305105883503693,8.687965960776642,4.291977307184428,-0.44555555555555554,-0.5011111111111111,-0.56,0.03194834606571827,-0.03621929508214745,-0.06151790532844663
1592167819.7095094,-0.012829026470098592,8.65351972771499,4.400855330090083,-0.44555555555555554,-0.5011111111111111,-0.56,0.013104315789142743,-0.04596919232275519,-0.06789345641101543
1592167819.7195094,-0.05767416346681295,8.658081459133298,4.481918540866703,-0.43417093313829463,-0.5064685804839397,-0.5626787346864144,0.00787471519766812,-0.060906862853018995,-0.08447176969261297
1592167819.7295094,-0.024063984061899135,8.67703199203095,4.455936015938101,-0.4266666666666667,-0.51,-0.5644444444444444,0.020880235205482985,-0.08955281784117249,-0.08210117024061334
1592167819.7395093,0.04347541960928185,8.673320416399156,4.356485829588187,-0.4266666666666667,-0.51,-0.5644444444444444,0.0367471806471128,-0.11602408064111305,-0.06833900277126231
1592167819.7495093,0.29419546057249824,8.67713984868575,4.2386015131425,-0.4266666666666667,-0.51,-0.5644444444444444,0.04799425722750981,-0.13915260598928347,-0.059374002020402994
1592167819.7595093,0.4087149187592319,8.700100443131461,4.215742983751847,-0.4266666666666667,-0.51,-0.5644444444444444,0.05299729655178793,-0.14194818234208312,-0.05186263918541569
1592167819.7695093,0.6197771123390856,8.756988855616955,4.167100299447411,-0.41734819251072763,-0.5146592370779696,-0.5706567605484039,0.06456988834214326,-0.11587540502771132,-0.02260329480622522
1592167819.7795093,0.5826589779280176,8.748768343607079,4.173694969178763,-0.41333333333333333,-0.5166666666666667,-0.5733333333333334,0.058372786711069546,-0.09369843818002419,-0.017179250839568266
1592167819.7895093,0.44116488130483933,8.758219841739786,4.173560316520429,-0.41333333333333333,-0.5166666666666667,-0.5733333333333334,0.028562949257712952,-0.048265019646917526,-0.02623989131417391
1592167819.7995093,0.5440248318675633,8.762478013450595,4.146239006725297,-0.41333333333333333,-0.5166666666666667,-0.5733333333333334,0.02140635492624835,-0.035577561656745506,-0.017144609416981288
1592167819.8095093,0.7569470177790042,8.708583987069815,4.191770016162731,-0.41333333333333333,-0.5166666666666667,-0.5733333333333334,0.016772721960587433,-0.014204902772429851,0.017955297430057367
1592167819.8195093,0.5989613526570049,8.664137815351584,4.275173107890499,-0.41463604103298146,-0.5238315590147313,-0.5726819794835093,0.0009401316023327257,0.026218071015400763,0.020123720051489574
1592167819.8295093,0.5522104342623064,8.694070144754102,4.252301797344257,-0.41555555555555557,-0.5288888888888889,-0.5722222222222222,-0.014325472756614447,0.06479303391977245,0.007539367088034845
1592167819.8395092,0.4363556132962996,8.71,4.179647881014247,-0.41555555555555557,-0.5288888888888889,-0.5722222222222222,-0.025692138722980994,0.08447505096355612,0.006827294946321896
1592167819.8495092,0.382323953720897,8.752323953720897,4.15,-0.41555555555555557,-0.5288888888888889,-0.5722222222222222,-0.03384099559245147,0.09317714189324641,0.013571736106066462
1592167819.8595092,0.42497340425531915,8.770017730496454,4.174955673758865,-0.41555555555555557,-0.5288888888888889,-0.5722222222222222,-0.051241969417484226,0.08728000127964107,0.021264430918718588
1592167819.8695092,0.5134856525469509,8.72850614890845,4.278734627728876,-0.41555555555555557,-0.5148916217370887,-0.5798040752627807,-0.08314533447679483,0.07619520089923901,0.027951979849920386
1592167819.8795092,0.5426356589147286,8.65640826873385,4.356227390180878,-0.41555555555555557,-0.5022222222222222,-0.5866666666666667,-0.11515734268447728,0.0819166000023566,0.02510883878676597
1592167819.8895092,0.37576440749612516,8.678078530834625,4.317931285519704,-0.41555555555555557,-0.5022222222222222,-0.5866666666666667,-0.12347883218415691,0.09316658600852304,0.014605353705832203
1592167819.8995092,0.21546390782976726,8.721733834940043,4.354536092170233,-0.41555555555555557,-0.5022222222222222,-0.5866666666666667,-0.12345301047453613,0.10412373523431642,0.016857272634599945
1592167819.9095092,0.2167945763232696,8.664487593147422,4.442115118690943,-0.41555555555555557,-0.5022222222222222,-0.5866666666666667,-0.13558460135220246,0.10755172932042653,0.028452461009878412
1592167819.9195092,0.2608474467332969,8.567118616833241,4.526610213066813,-0.40335215119995144,-0.5088323995815078,-0.5871751418481501,-0.1478537920774301,0.09333072734995844,0.047478885690405
1592167819.9295092,0.4380243788091889,8.563503047351148,4.534745428973277,-0.3888888888888889,-0.5166666666666667,-0.5877777777777777,-0.12226525429224447,0.06572089257319247,0.08416058659959576
1592167819.9395092,0.4944704001527118,8.597429907657066,4.428660430933689,-0.3888888888888889,-0.5166666666666667,-0.5877777777777777,-0.08507290598431433,0.05608943136286908,0.08894858410463466
1592167819.9495091,0.4338275574007037,8.591482672202112,4.407034655595777,-0.3888888888888889,-0.5166666666666667,-0.5877777777777777,-0.06282429239366388,0.05697898798542021,0.06119551577227384
1592167819.9595091,0.4684217033452259,8.591206330142358,4.434802712918153,-0.3888888888888889,-0.5166666666666667,-0.5877777777777777,-0.05432140007856887,0.058512557751060824,0.04803959579421753
1592167819.9695091,0.708073595017815,8.639121829994911,4.47087817000509,-0.3852628322205256,-0.5166666666666667,-0.575086579438506,-0.027097733798296716,0.06751716381674978,0.04788220973181358
1592167819.979509,0.7176796826384567,8.636696095208464,4.482232031736155,-0.38222222222222224,-0.5166666666666667,-0.5644444444444444,-0.02255667679530358,0.07954261531321513,0.047733816601748205
1592167819.989509,0.5497784863637462,8.681228591443825,4.458157112834264,-0.38222222222222224,-0.5166666666666667,-0.5644444444444444,-0.03967196377968305,0.1214414265879323,0.02410813236220874
1592167819.999509,0.3658315984270183,8.630554398951345,4.487871334207212,-0.38222222222222224,-0.5166666666666667,-0.5644444444444444,-0.04139594457043545,0.14283835696284458,0.02692246743654835
1592167820.009509,0.19644481510109432,8.595592530816484,4.555987551360808,-0.38222222222222224,-0.5166666666666667,-0.5644444444444444,-0.038746037807097476,0.14268338222230278,0.04628888349126361
1592167820.019509,0.11,8.592908418533826,4.591394387644115,-0.3777910714717328,-0.5166666666666667,-0.5726737244096392,-0.02932642913795345,0.12190799260718006,0.06651457562524127
1592167820.029509,0.13528830313014828,8.574219816427394,4.589162155801365,-0.37444444444444447,-0.5166666666666667,-0.5788888888888889,-0.020555575216033475,0.10757301313723229,0.07379499767132885
1592167820.039509,0.4885187880047815,8.519012525336521,4.402468686658698,-0.37444444444444447,-0.5166666666666667,-0.5788888888888889,0.005487914617797836,0.06743617264548597,0.08601405665324129
1592167820.049509,0.5252374073003949,8.613323702205527,4.3866618511027635,-0.37444444444444447,-0.5166666666666667,-0.5788888888888889,0.034644462069422496,0.06228094307880203,0.0780218739572246
1592167820.059509,0.4731302923237866,8.710622150287191,4.428749185796341,-0.37444444444444447,-0.5166666666666667,-0.5788888888888889,0.05222343489617633,0.06579059834555524,0.04854374613792224
1592167820.069509,0.4117786734425655,8.675401734863753,4.487114693770262,-0.3774981745962207,-0.513176689350351,-0.5788888888888889,0.038032460860577606,0.06763150851478027,0.021428569301297242
1592167820.079509,0.46306211332722846,8.531661045719519,4.564723159046747,-0.38222222222222224,-0.5077777777777778,-0.5788888888888889,-0.0012757016640005565,0.07020759215418935,0.0334250110842796
1592167820.089509,0.4907643825946654,8.523089043513338,4.528439721675995,-0.38222222222222224,-0.5077777777777778,-0.5788888888888889,-0.009477077117450678,0.07157448806309771,0.052780221141498274
1592167820.099509,0.5676361143289439,8.593818057164473,4.48,-0.38222222222222224,-0.5077777777777778,-0.5788888888888889,0.018616795496701435,0.06928208023994879,0.05613480864429598
1592167820.109509,0.5629780624376775,8.643880877502493,4.491642632507479,-0.38222222222222224,-0.5077777777777778,-0.5788888888888889,0.03878159886200639,0.07168570574724878,0.048923932122395986
1592167820.119509,0.3653245018368028,8.65,4.4913852090986675,-0.377258277981867,-0.510673411917985,-0.5817845230290961,0.03657822887288739,0.0775764899902464,0.029627132439410498
1592167820.129509,0.28979986498828575,8.649974983123537,4.459974983123535,-0.3688888888888889,-0.5155555555555555,-0.5866666666666667,0.02833158224808579,0.07960062902541921,0.02070668244218226
1592167820.139509,0.25223582905601427,8.62122852041955,4.388992691363535,-0.3688888888888889,-0.5155555555555555,-0.5866666666666667,0.015338636349478869,0.05944090541103651,0.018209096329797315
1592167820.149509,0.2995851811153408,8.600829637769317,4.321244456653978,-0.3688888888888889,-0.5155555555555555,-0.5866666666666667,0.014361799055872749,0.04931847129859756,0.023545780006374972
1592167820.159509,0.3124382017674935,8.646177902062075,4.361219100883747,-0.3688888888888889,-0.5155555555555555,-0.5866666666666667,0.023847317560673546,0.02496511290889879,0.011050279290636782
1592167820.169509,0.33860789212292686,8.69,4.39518947716943,-0.3663573093606504,-0.5155555555555555,-0.5900421060376513,0.03148223727991051,0.014967920129976955,0.005978900550830965
1592167820.179509,0.33448931546541105,8.661021369069179,4.415170228178196,-0.3622222222222222,-0.5155555555555555,-0.5955555555555555,0.02945243112740431,0.01090830782496456,0.0032724923474893677
1592167820.189509,0.3678249510124102,8.652281188765514,4.369893860222077,-0.3622222222222222,-0.5155555555555555,-0.5955555555555555,0.02993853125892502,0.006047306509757459,-0.003532909493800573
1592167820.199509,0.3314962988636645,8.67099943059441,4.32,-0.3622222222222222,-0.5155555555555555,-0.5955555555555555,0.03201597663504279,-0.007854478534090789,-0.01249004351584169
1592167820.209509,0.26689079446025954,8.66689079446026,4.357899369531427,-0.3622222222222222,-0.5155555555555555,-0.5955555555555555,0.026299063544282995,-0.02572165230436115,-0.013465803925612828
1592167820.219509,0.29431421850920597,8.660317949549842,4.435367831940952,-0.35963771054694893,-0.5177424500500176,-0.5939650868323104,0.008876260572016542,-0.04476962764752508,-0.01613259894460672
1592167820.2295089,0.36,8.57,4.46,-0.3477777777777778,-0.5277777777777778,-0.5866666666666667,-0.00545415391248228,-0.05999569303730508,-0.025089107997418484
1592167820.2395089,0.38,8.649172671668772,4.4254891909962115,-0.3477777777777778,-0.5277777777777778,-0.5866666666666667,-0.004798083337109625,-0.06586812975856722,-0.04890689017015343
1592167820.2495089,0.39626043405676126,8.639348914858097,4.439106844741236,-0.3477777777777778,-0.5277777777777778,-0.5866666666666667,0.007263403298809874,-0.06654067773228381,-0.05740610810790614
1592167820.2595088,0.3766364032539221,8.570707800697269,4.54,-0.3477777777777778,-0.5277777777777778,-0.5866666666666667,0.020185321315515203,-0.06789217333715195,-0.06371230595069245
1592167820.2695088,0.28439518234021927,8.548534939219927,4.548790364680438,-0.3498939766823278,-0.5238709490309162,-0.5871550202600243,0.04270957609033741,-0.07250213425940163,-0.07263408500361888
1592167820.2795088,0.35542398741268744,8.60813598111903,4.472812835244475,-0.3622222222222222,-0.5011111111111111,-0.59,0.09865926915662113,-0.09023578892192767,-0.06446618267871407
1592167820.2895088,0.4286600058771672,8.713325007346459,4.245359976491331,-0.3622222222222222,-0.5011111111111111,-0.59,0.12348040977489891,-0.10493628647245917,-0.03949188886833812
1592167820.2995088,0.42591295827159315,8.744817408345682,4.16,-0.3622222222222222,-0.5011111111111111,-0.59,0.11190210492554317,-0.11227589995827189,-0.026219774099346484
1592167820.3095088,0.4,8.75,4.16,-0.3622222222222222,-0.5011111111111111,-0.59,0.09381144729469522,-0.11453723216212788,-0.025089107997418484
1592167820.3195088,0.45619168517930814,8.74701364646144,4.200301491589971,-0.3607792940512712,-0.5068828237949151,-0.5863926795726224,0.03976599211506995,-0.1029774030637078,-0.03137410731707039
1592167820.3295088,0.37,8.7,4.31,-0.35555555555555557,-0.5277777777777778,-0.5733333333333334,0.02181661564992912,-0.09272061651219875,-0.05017821599483697
1592167820.3395088,0.1470598761991375,8.713865696599877,4.374537213600492,-0.35555555555555557,-0.5277777777777778,-0.5733333333333334,0.008813753995764041,-0.07090400086226964,-0.09219797009744439
1592167820.3495088,0.019239980801535876,8.660451403887688,4.478337173026158,-0.35555555555555557,-0.5277777777777778,-0.5733333333333334,0.008941697252969208,-0.08097019360582963,-0.10293453083256766
1592167820.3595088,-0.02,8.61,4.54,-0.35555555555555557,-0.5277777777777778,-0.5733333333333334,0.011999138607461015,-0.09381144729469522,-0.09926560120717749
1592167820.3695087,0.0057304155511581885,8.539550692585264,4.590449307414736,-0.35555555555555557,-0.5301123915208422,-0.5680273930081869,0.06630793499868864,-0.1382414383617709,-0.07879719196494799
1592167820.3795087,0.03,8.58,4.55,-0.35555555555555557,-0.54,-0.5455555555555556,0.10690141668465267,-0.16471544815696484,-0.07526732399225547
1592167820.3895087,0.15074142839460328,8.687667285555143,4.36777571481619,-0.35555555555555557,-0.54,-0.5455555555555556,0.13182482749971203,-0.18250407764081558,-0.06804772277027273
1592167820.3995087,0.2236438113128783,8.75,4.174575245251513,-0.35555555555555557,-0.54,-0.5455555555555556,0.11818932952362628,-0.181669658841126,-0.07119093876534648
1592167820.4095087,0.2615422153647422,8.737383113854104,4.209462664609423,-0.35555555555555557,-0.54,-0.5455555555555556,0.09193046971804554,-0.17373516540921977,-0.06320957118633778
1592167820.4195087,0.3354740647026929,8.708631483824327,4.2423166455810595,-0.35738024378978656,-0.5383273691186217,-0.5484446452597547,0.06310719271951583,-0.15865245570797334,-0.06574841086394109
1592167820.4295087,0.37,8.7,4.32,-0.3688888888888889,-0.5277777777777778,-0.5666666666666667,0.04145156973486533,-0.1341721862470641,-0.06763150851478027
1592167820.4395087,0.2770220588235294,8.66,4.330147058823529,-0.3688888888888889,-0.5277777777777778,-0.5666666666666667,0.0559732545268494,-0.09643425366143302,-0.04962477978901156
1592167820.4495087,0.1894445757504136,8.669444575750413,4.372592767667219,-0.3688888888888889,-0.5277777777777778,-0.5666666666666667,0.0691263411493618,-0.07148976487499287,-0.04353216638217008
1592167820.4595087,0.21,8.67877381220641,4.402245237558718,-0.3688888888888889,-0.5277777777777778,-0.5666666666666667,0.07008068275784705,-0.062288515687567735,-0.030141992892789956
1592167820.4695086,0.21,8.642422388240801,4.40951552235184,-0.3688888888888889,-0.5277777777777778,-0.5666666666666667,0.07801133320770039,-0.0591162555076264,-0.01824601721800996
1592167820.4795086,0.3359040125511077,8.68344228392127,4.362788580393648,-0.35555555555555557,-0.5333333333333333,-0.5455555555555556,0.10783067651997467,-0.05071528186835286,-0.00010696198958348117
1592167820.4895086,0.3031185890845955,8.693279647271149,4.297203527288511,-0.35555555555555557,-0.5333333333333333,-0.5455555555555556,0.12178015617416,-0.03247258179158298,-0.010480278913988407
1592167820.4995086,0.31191278398151717,8.70602907200616,4.233014536003081,-0.35555555555555557,-0.5333333333333333,-0.5455555555555556,0.12281486105340922,-0.010652086501390112,-0.017557618702308545
1592167820.5095086,0.25886523110873577,8.713319138665241,4.25558867644777,-0.35555555555555557,-0.5333333333333333,-0.5455555555555556,0.1106458193958333,0.015652273594774672,-0.016243322847956383
1592167820.5195086,0.2227093426202093,8.691625605572126,4.306206920331706,-0.35555555555555557,-0.5333333333333333,-0.5455555555555556,0.09092584132993634,0.04168264464175865,-0.019398519338499894
1592167820.5295086,0.07,8.64,4.37,-0.3422222222222222,-0.5333333333333333,-0.5377777777777778,0.0818123086872342,0.07853981633974483,-0.02399827721492203
1592167820.5395086,-0.15898704854164475,8.721012951458356,4.225220859218701,-0.3422222222222222,-0.5333333333333333,-0.5377777777777778,0.10215842195821091,0.07779750122554256,0.003255464268779763
1592167820.5495086,-0.13,8.75,4.16,-0.3422222222222222,-0.5333333333333333,-0.5377777777777778,0.10690141668465267,0.0643590161672909,0.02617993877991494
1592167820.5595086,-0.02077089944964448,8.782692724862411,4.1936536375687945,-0.3422222222222222,-0.5333333333333333,-0.5377777777777778,0.08616526820174336,0.03717233868986768,0.041556389050806816
1592167820.5695086,0.11908958908087702,8.750454479454044,4.211363438362132,-0.342828194827614,-0.5339393059387251,-0.5384342481002856,0.0763085787569036,0.0229570224502739,0.04695529966519593
1592167820.5795085,0.31,8.76,4.24,-0.35555555555555557,-0.5466666666666666,-0.5522222222222222,0.07526732399225547,0.02399827721492203,0.04799655442984406
1592167820.5895085,0.3646735221248368,8.737554412979193,4.18820736872952,-0.35555555555555557,-0.5466666666666666,-0.5522222222222222,0.08443254600866573,0.03374452783418373,0.05888112011373982
1592167820.5995085,0.41648109719737625,8.746202742993441,4.093240548598688,-0.35555555555555557,-0.5466666666666666,-0.5522222222222222,0.10209351333807731,0.051056500643470254,0.06288433263502294
1592167820.6095085,0.43,8.78,4.1,-0.35555555555555557,-0.5466666666666666,-0.5522222222222222,0.10799224746714915,0.06654067773228381,0.0643590161672909
1592167820.6195085,0.3395267425270557,8.76,4.139822528447645,-0.35550954441235266,-0.5466666666666666,-0.5520973348335285,0.10364183043265167,0.08953846683312786,0.06545629999753153
1592167820.6295085,0.24101887327940968,8.77898112672059,4.094182394399509,-0.3477777777777778,-0.5466666666666666,-0.5311111111111111,0.10857127887726102,0.10713536147287646,0.06688576435417191
1592167820.6395085,0.17133591310848248,8.834332043445759,4.019870278351875,-0.3477777777777778,-0.5466666666666666,-0.5311111111111111,0.10765834512877538,0.10985415713046132,0.06419206499810401
1592167820.6495085,0.10445017101625827,8.858874572459353,3.942250855081291,-0.3477777777777778,-0.5466666666666666,-0.5311111111111111,0.08301466047274837,0.1019298901009955,0.05344789731796063
1592167820.6595085,0.13429361825635816,8.815235460581214,4.0311172586438335,-0.3477777777777778,-0.5466666666666666,-0.5311111111111111,0.05239211213779104,0.09547337823344516,0.046507867033175096
1592167820.6695085,0.20277074338787504,8.79240975220404,4.084377244857236,-0.3477777777777778,-0.5466666666666666,-0.5311111111111111,0.03164295769603541,0.09298347970043448,0.04982773174385599
1592167820.6795084,0.29967186621697584,8.762697442383361,4.125723018549747,-0.3477777777777778,-0.5288888888888889,-0.5377777777777778,0.02484521932752643,0.08986431381823355,0.06255775041269217
1592167820.6895084,0.3906080614960087,8.775304030748003,4.017567754015965,-0.3477777777777778,-0.5288888888888889,-0.5377777777777778,0.0426510858352985,0.08334906103135432,0.06914428773733769
1592167820.6995084,0.42,8.79,3.9,-0.3477777777777778,-0.5288888888888889,-0.5377777777777778,0.061086523819801536,0.07853981633974483,0.07635815477475191
1592167820.7095084,0.5366389537049746,8.911148061726701,3.8621714151257867,-0.3477777777777778,-0.5288888888888889,-0.5377777777777778,0.05237801565084259,0.07333159611884756,0.07926854836899352
1592167820.7195084,0.5859846271495519,8.845353830467264,3.952638483107512,-0.3477777777777778,-0.5288888888888889,-0.5377777777777778,0.020081347905024853,0.06705168850160523,0.07657715939017537
1592167820.7295084,0.63,8.82,4.04,-0.3622222222222222,-0.5344444444444445,-0.5377777777777778,-0.01308996938995747,0.05563236990731925,0.056723200689815706
1592167820.7395084,0.5793156101564249,8.84113526149561,4.01113526149561,-0.3622222222222222,-0.5344444444444445,-0.5377777777777778,-0.025969590818225915,0.055954700895298234,0.037261266891138546
1592167820.7495084,0.36999643002855975,8.786086801305588,3.9756527947776417,-0.3622222222222222,-0.5344444444444445,-0.5377777777777778,-0.04555411821710777,0.05781403147231216,0.00839446803668083
1592167820.7595084,0.0,8.77,4.04,-0.3622222222222222,-0.5344444444444445,-0.5377777777777778,-0.053450708342326333,0.05781403147231216,-0.01090830782496456
1592167820.7695084,-0.11553502456508975,8.84109847665544,4.0488873095819296,-0.3622222222222222,-0.5344444444444445,-0.5377777777777778,-0.04084779221711793,0.044241660260549265,-0.018663948517400504
1592167820.7795084,-0.11,8.9,4.07,-0.37444444444444447,-0.5344444444444445,-0.5366666666666666,-0.04908738521234052,0.01854412330243975,-0.014180800172453926
1592167820.7895083,-0.04351959831551668,8.752508908325234,4.154494655004859,-0.37444444444444447,-0.5344444444444445,-0.5366666666666666,-0.09097217766808069,-0.008395898734083508,-0.001638189668822018
1592167820.7995083,0.05,8.71,4.18,-0.37444444444444447,-0.5344444444444445,-0.5366666666666666,-0.10581058590215622,-0.025089107997418484,0.007635815477475192
1592167820.8095083,0.09,8.65885435709933,4.369165143205363,-0.37444444444444447,-0.5344444444444445,-0.5366666666666666,-0.08510806677353366,-0.03188403320075717,0.007010964206575333
1592167820.8195083,0.09,8.650867039914687,4.433063680682511,-0.37444444444444447,-0.5344444444444445,-0.5366666666666666,-0.062454756991646286,-0.03362659549167158,0.002654558479289297
1592167820.8295083,0.13,8.69,4.4,-0.3477777777777778,-0.5288888888888889,-0.5288888888888889,-0.020725784867432664,-0.04036073895236887,-0.01090830782496456
1592167820.8395083,0.11625723748481022,8.732495175010127,4.2950289499392404,-0.3477777777777778,-0.5288888888888889,-0.5288888888888889,0.008041982234797788,-0.04268059650179157,-0.021950601036375528
1592167820.8495083,0.07885614468712122,8.751238206145876,4.192476412291751,-0.3477777777777778,-0.5288888888888889,-0.5288888888888889,0.018814257978239192,-0.03613248316028276,-0.03121859859939937
1592167820.8595083,0.0009201653252120948,8.760920165325212,4.200798346747879,-0.3477777777777778,-0.5288888888888889,-0.5288888888888889,0.021026908265950828,-0.037288995537224943,-0.035495543491519434
1592167820.8695083,0.008523493582771373,8.768523493582771,4.124765064172286,-0.3477777777777778,-0.5288888888888889,-0.5288888888888889,0.023515091619782068,-0.03894778443977911,-0.031348571235134036
1592167820.8795083,-0.03206084075957635,8.838676806793263,4.098676806793263,-0.3477777777777778,-0.5344444444444445,-0.5433333333333333,0.026260403645641948,-0.03303019119445761,-0.016523391468900847
1592167820.8895082,0.033710573800072176,8.82200216528329,4.082002165283291,-0.3477777777777778,-0.5344444444444445,-0.5433333333333333,0.01602060773112424,-0.018980928006971716,-0.002773961815929096
1592167820.8995082,0.13516001132823563,8.76120999716794,4.023629991503823,-0.3477777777777778,-0.5344444444444445,-0.5433333333333333,-0.012659089686222855,-0.0016264376556636134,0.001750781861258295
1592167820.9095082,0.09836815505653103,8.774079612358673,4.05,-0.3477777777777778,-0.5344444444444445,-0.5433333333333333,-0.016919272510964152,0.02840502215066137,0.006633988029808593
1592167820.9195082,0.08379930182879175,8.81050174542802,4.05,-0.3477777777777778,-0.5344444444444445,-0.5433333333333333,-0.012151626441016895,0.04827021410877494,0.007428595708133136
1592167820.9295082,-0.03,8.811412204295754,4.090149213105018,-0.3422222222222222,-0.5344444444444445,-0.5288888888888889,-0.01924169679328544,0.08484559133477097,0.0158677657127311
1592167820.9395082,-0.022402019827666077,8.706743722783287,4.213256277216715,-0.3422222222222222,-0.5344444444444445,-0.5288888888888889,-0.04225516424534706,0.09312625436502461,0.023973060659725806
1592167820.9495082,0.04400718673930683,8.678397125304278,4.246411498782891,-0.3422222222222222,-0.5344444444444445,-0.5288888888888889,-0.05624041291959107,0.07740331405166848,0.032637500221964724
1592167820.9595082,0.09040573219883564,8.662434393193013,4.323245857590686,-0.3422222222222222,-0.5344444444444445,-0.5288888888888889,-0.03698409742313823,0.06418198209851493,0.03136854158923329
1592167820.9695082,0.09791903269144649,8.70751419614868,4.383352261531572,-0.3422222222222222,-0.5344444444444445,-0.5288888888888889,-0.014855600893326881,0.06090368631632067,0.02645109791594187
1592167820.9795082,0.06,8.7,4.45,-0.3622222222222222,-0.5422222222222223,-0.5288888888888889,0.017453292519943295,0.05563236990731925,0.017453292519943295
1592167820.9895082,-0.07581545291195435,8.654728182362682,4.567706725857027,-0.3622222222222222,-0.5422222222222223,-0.5288888888888889,0.03918220511361843,0.05563236990731925,0.016465614674776242
1592167820.9995081,-0.5,8.62,4.58,-0.3622222222222222,-0.5422222222222223,-0.5288888888888889,0.07199483164476608,0.02945243112740431,0.020725784867432664
1592167821.0095081,0.10990304378923943,8.590004768338234,4.460019073352936,-0.3622222222222222,-0.5422222222222223,-0.5288888888888889,0.1145304702769626,-0.04362161472790764,0.03490433107816483
1592167821.0195081,0.2108988618488017,8.659853058203016,4.3513396872397525,-0.3622222222222222,-0.5422222222222223,-0.5288888888888889,0.1602559518457481,-0.0724190918413969,0.029826727297262122
1592167821.029508,0.42,8.77,4.18,-0.33555555555555555,-0.5488888888888889,-0.5288888888888889,0.21925698728178766,-0.10253809355466686,0.001090830782496456
1592167821.039508,0.39559016393442625,8.818819672131147,4.123043715846995,-0.33555555555555555,-0.5488888888888889,-0.5288888888888889,0.21570672053831833,-0.09366242669599352,-0.02553616979352359
1592167821.049508,0.021063236870310826,8.82,3.98,-0.33555555555555555,-0.5488888888888889,-0.5288888888888889,0.19755635278258055,-0.08692618367251972,-0.06576713230207619
1592167821.059508,-0.061451916480500975,8.820725958240251,3.977096167038998,-0.33555555555555555,-0.5488888888888889,-0.5288888888888889,0.18831777657425078,-0.1056086683253438,-0.07877738561832648
1592167821.069508,-0.07620784886277683,8.828103924431389,3.9475843022744463,-0.33555555555555555,-0.5488888888888889,-0.5288888888888889,0.1842937202574951,-0.12572894990912223,-0.0811918194083799
1592167821.079508,0.07,8.95,3.77,-0.35555555555555557,-0.5288888888888889,-0.5244444444444445,0.17344209441693648,-0.14726215563702155,-0.074176493209759
1592167821.089508,0.11172720881181157,8.975036325287087,3.6865455823763766,-0.35555555555555557,-0.5288888888888889,-0.5244444444444445,0.14704204658997927,-0.14362076972985502,-0.06871441434900923
1592167821.099508,0.12829410749932227,8.99,3.540852946250339,-0.35555555555555557,-0.5288888888888889,-0.5244444444444445,0.09709996189977799,-0.10280756857164061,-0.05943744102189434
1592167821.109508,0.11,8.99,3.55,-0.35555555555555557,-0.5288888888888889,-0.5244444444444445,0.062177354602297986,-0.05890486225480862,-0.053450708342326333
1592167821.119508,0.0021696805048532636,8.94956363018932,3.698266689305827,-0.35555555555555557,-0.5288888888888889,-0.5244444444444445,0.03056573480826954,-0.028763550358176845,-0.04830463070143799
1592167821.129508,-0.14436686952783875,8.869272188412026,3.894366869527839,-0.35555555555555557,-0.5344444444444445,-0.5077777777777778,-0.025268548069351967,0.014736543671267024,-0.028340944129778115
1592167821.139508,-0.19446739280934142,8.860442608575251,3.948008261411363,-0.35555555555555557,-0.5344444444444445,-0.5077777777777778,-0.0414274291819412,0.021695912885308484,-0.013746270219819648
1592167821.149508,0.047507730650297675,8.879800618452025,3.860897216965893,-0.35555555555555557,-0.5344444444444445,-0.5077777777777778,-0.04037161352886858,0.016416834619945392,0.005258411535487485
1592167821.159508,0.12563613173598143,8.851636450599006,3.9639996811369747,-0.35555555555555557,-0.5344444444444445,-0.5077777777777778,-0.048611361029025434,0.01945644501619305,0.014736103748720912
1592167821.169508,0.12284004707160315,8.82852014121481,4.020119670498778,-0.35555555555555557,-0.5344444444444445,-0.5077777777777778,-0.05767871197341354,0.025102162023800854,0.01449060124939829
1592167821.179508,0.10654840368344785,8.78,4.132157247697845,-0.3688888888888889,-0.5422222222222223,-0.5288888888888889,-0.0628916746337098,0.03704118276099392,0.002848917752519141
1592167821.189508,0.028846675712347353,8.77953867028494,4.178385345997286,-0.3688888888888889,-0.5422222222222223,-0.5288888888888889,-0.054214437899677996,0.03584644602616237,-0.00677143938930975
1592167821.199508,-0.01938251730561369,8.760246993077754,4.110864475772141,-0.3688888888888889,-0.5422222222222223,-0.5288888888888889,-0.04053586692634968,0.029533259423087765,-0.01624121929392166
1592167821.209508,-0.0004111176818450621,8.779588882318155,4.119794441159078,-0.3688888888888889,-0.5422222222222223,-0.5288888888888889,-0.02540302987322811,0.01876835321373234,-0.016362461737446838
1592167821.219508,-0.007102541933252638,8.787102541933251,4.191025419332526,-0.3688888888888889,-0.5422222222222223,-0.5288888888888889,-0.015791902347701847,0.016219821890010592,-0.014038160325017679
1592167821.229508,-0.01,8.798839715017724,4.2111602849822765,-0.3394231721631434,-0.5481153655673713,-0.5249601266587895,0.002464811267282728,0.01334310430498455,-0.004411599465111224
1592167821.239508,0.04510125499144324,8.781632915002852,4.200816457501427,-0.33555555555555555,-0.5488888888888889,-0.5244444444444445,0.020391628489679896,0.011086431219995712,0.0027381221623959096
1592167821.249508,0.05911906791702188,8.761761864165956,4.1088093208297805,-0.33555555555555555,-0.5488888888888889,-0.5244444444444445,0.029774503643179764,0.016876723819902545,0.004267228346645698
1592167821.259508,0.0508742986749433,8.76,4.109125701325057,-0.33555555555555555,-0.5488888888888889,-0.5244444444444445,0.04049785782714132,0.013471454153047076,0.001376944354813659
1592167821.269508,0.05,8.787999049168938,4.130999286876703,-0.33555555555555555,-0.5488888888888889,-0.5244444444444445,0.05137779276695055,0.010035746918546633,-0.0011998360710616725
1592167821.2795079,0.03134292916377453,8.818657070836226,4.121342929163775,-0.34695709884436005,-0.555107912500964,-0.5161524129616776,0.06886097957391082,0.007709060901003066,-0.0011640762060243295
1592167821.2895079,0.010256485994190916,8.839743514005809,4.110128242997096,-0.3477777777777778,-0.5555555555555556,-0.5155555555555555,0.07412053664621046,0.010866340402303162,-0.002167672424105779
1592167821.2995079,-0.008051161371856888,8.803897677256288,3.965590709025145,-0.3477777777777778,-0.5555555555555556,-0.5155555555555555,0.07319195508554739,0.005985617203906448,-0.002181661564992912
1592167821.3095078,0.025256039329146378,8.817628019664573,3.9676280196645735,-0.3477777777777778,-0.5555555555555556,-0.5155555555555555,0.07885441837263334,0.0016083166155684229,-0.0012202022407644478
1592167821.3195078,0.016335999407539065,8.840496000888692,3.9631679997037694,-0.3477777777777778,-0.5555555555555556,-0.5155555555555555,0.08261166961390252,-0.001144936086249474,-0.000345575159581146
1592167821.3295078,0.09784491297580303,8.893922456487902,3.898508560916938,-0.3604664874298382,-0.5438429004921151,-0.5341005927393362,0.08303573090062982,-0.015597012487354874,-0.000958239351597283
1592167821.3395078,0.10063090024330901,8.918738199513381,3.786939902676399,-0.3622222222222222,-0.5422222222222223,-0.5366666666666666,0.07063901656707634,-0.019497313003719013,-0.007222892233823614
1592167821.3495078,0.07310995193731351,8.928963349354229,3.6814031571034826,-0.3622222222222222,-0.5422222222222223,-0.5366666666666666,0.051235925039034354,-0.02061270382392246,-0.015457813389365223
1592167821.3595078,0.02646625995436129,8.956120244027383,3.678706748009128,-0.3622222222222222,-0.5422222222222223,-0.5366666666666666,0.02629317222722946,-0.01407747274677527,-0.01921173836058572
1592167821.3695078,-0.012044982211419916,8.953591003557715,3.718453978653704,-0.3622222222222222,-0.5422222222222223,-0.5366666666666666,0.004730506861626113,-0.008196177967049923,-0.016139388782859386
1592167821.3795078,-0.004146575506777019,8.932764383671184,3.791706848986446,-0.3622222222222222,-0.5422222222222223,-0.5242187215403,-0.03365586518263774,0.006766587637918421,-0.006660343833745804
1592167821.3895078,0.0,8.885375446407867,3.853549464310561,-0.3622222222222222,-0.5422222222222223,-0.5222222222222223,-0.06543866594691496,0.023329997274010396,0.007202083633017972
1592167821.3995078,0.042178631995477674,8.863128547201809,3.86,-0.3622222222222222,-0.5422222222222223,-0.5222222222222223,-0.08528584934920923,0.034291058026269874,0.016088206283052763
1592167821.4095078,0.05823710637096964,8.85176289362903,3.9588452764516355,-0.3622222222222222,-0.5422222222222223,-0.5222222222222223,-0.09913964040799456,0.04318564717290413,0.0201488792763887
1592167821.4195077,0.041343022206174404,8.843781007402058,4.04840891857736,-0.3622222222222222,-0.5422222222222223,-0.5222222222222223,-0.10619597076553722,0.04947277007572151,0.02140417172362792
1592167821.4295077,0.0032745089721291296,8.81327450897213,4.134542485046451,-0.3562832242160287,-0.5541002182346093,-0.5281612202284157,-0.1090830782496456,0.04944457873077644,0.020844849373577973
1592167821.4395077,0.0,8.793858168160352,4.14,-0.35555555555555557,-0.5555555555555556,-0.5288888888888889,-0.10497454326977915,0.04732658450668347,0.02307351914164206
1592167821.4495077,0.0,8.771044744425906,4.059402699833156,-0.35555555555555557,-0.5555555555555556,-0.5288888888888889,-0.09167859432682599,0.038976824953110056,0.027042841686487372
1592167821.4595077,0.017278683881930407,8.771919853764658,4.0711183914112485,-0.35555555555555557,-0.5555555555555556,-0.5288888888888889,-0.08551278954468983,0.03692253603674695,0.0272707695624114
1592167821.4695077,0.06587194109393303,8.777319104565992,4.130510150225918,-0.35555555555555557,-0.5555555555555556,-0.5288888888888889,-0.07137758400105773,0.03338873465083893,0.0272707695624114
1592167821.4795077,0.08173308800501096,8.77173308800501,4.201334559974945,-0.3445330062289035,-0.5500442808922296,-0.5178663395622368,-0.058948334919096956,0.034339433316494195,0.02456542893831443
1592167821.4895077,0.06940601082695538,8.775296994586522,4.204703005413478,-0.3422222222222222,-0.5488888888888889,-0.5155555555555555,-0.05203590672261655,0.03490658503988659,0.019375777415165534
1592167821.4995077,0.011331988169932833,8.763777329389978,4.1269979822549,-0.3422222222222222,-0.5488888888888889,-0.5155555555555555,-0.03628801056191982,0.025173681378244453,0.007308346140879543
1592167821.5095077,0.0,8.776626414736942,4.168192451579296,-0.3422222222222222,-0.5488888888888889,-0.5155555555555555,-0.02293379125882484,0.010211822934099394,0.0009200026630800722
1592167821.5195076,0.0,8.768080175276436,4.162120262914655,-0.3422222222222222,-0.5488888888888889,-0.5155555555555555,-0.01292427782917774,-0.00016569156077973247,0.0006501255865212438
1592167821.5295076,0.026605737496826605,8.773302868748413,4.1633028687484135,-0.34591746354122593,-0.5355860201404755,-0.51998984513836,-0.0032824618595913915,-0.01198418433930798,0.005444184400380256
