time,acc_x,acc_y,acc_z,mag_x,mag_y,mag_z,gyr_x,gyr_y,gyr_z
1592167822.239507,0.08072745573500481,8.84,4.059272544264995,-0.3477777777777778,-0.5422222222222223,-0.5288888888888889,-0.022828093321560893,-0.0010114776716317734,0.004016290515899302
1592167822.249507,0.07,8.83557013867267,4.038990970708692,-0.3477777777777778,-0.5422222222222223,-0.5288888888888889,-0.025447945944334607,-0.0016984386551887195,-0.00035883794691612156
1592167822.259507,0.043508187424682786,8.825584697904114,4.022076510479431,-0.3477777777777778,-0.5422222222222223,-0.5288888888888889,-0.028715673794475535,-0.004462273990646109,-0.0031449310530356697
1592167822.269507,0.006745012978700707,8.823254987021299,4.0467450129787,-0.3477777777777778,-0.5422222222222223,-0.5288888888888889,-0.030543261909900768,-0.009791838271809562,-0.004363323129985824
1592167822.279507,-0.001437854527177425,8.834313563581532,4.041437854527177,-0.34697896970712366,-0.5431807919070072,-0.5288888888888889,-0.030386416312001067,-0.014038131380157144,-0.0038927863362867173
1592167822.289507,0.015632525853520332,8.855727912357747,4.041455824715493,-0.3422222222222222,-0.5488888888888889,-0.5288888888888889,-0.03224850595081993,-0.029442026073899834,-0.003886905605912078
1592167822.299507,0.06661272518026165,8.858306362590131,3.9510895553937573,-0.3422222222222222,-0.5488888888888889,-0.5288888888888889,-0.04234000102510723,-0.03744008865894681,-0.008994940878058945
1592167822.309507,0.08602383506693409,8.87,3.8559046597322637,-0.3422222222222222,-0.5488888888888889,-0.5288888888888889,-0.05690756681418606,-0.04210866820683466,-0.011342040135491685
1592167822.319507,0.08291756441129076,8.867082435588708,3.8945878220564536,-0.3422222222222222,-0.5488888888888889,-0.5288888888888889,-0.07181498508929157,-0.03890551447906364,-0.011999138607461015
1592167822.3295069,0.09,8.85560839160839,3.9475664335664336,-0.3428321678321678,-0.5466930846930846,-0.5304747474747474,-0.08954195086837867,-0.030569197746687392,-0.012478188769284634
1592167822.3395069,0.08055984125015503,8.80111968250031,4.094720079374922,-0.3477777777777778,-0.5288888888888889,-0.5433333333333333,-0.11520057849633805,-0.0038221152095717324,-0.0137880577984508
1592167822.3495069,0.07,8.78,4.1,-0.3477777777777778,-0.5288888888888889,-0.5433333333333333,-0.12326387842209952,0.006544984694978735,-0.01090830782496456
1592167822.3595068,-0.019065248517079157,8.749239108202087,4.161521783595827,-0.3477777777777778,-0.5288888888888889,-0.5433333333333333,-0.11937245283864263,0.03770717984084701,-0.006461984275447403
1592167822.3695068,-0.20387519758586004,8.706297600229918,4.322767998275614,-0.3477777777777778,-0.5288888888888889,-0.5433333333333333,-0.10712412078498776,0.03986628725678944,0.001211607491493944
1592167822.3795068,-0.4032471264367816,8.677925598011806,4.513776794035414,-0.3533095164129647,-0.533037692865279,-0.5403369749059405,-0.09006919285579991,0.02465992589551362,0.016379659520053765
1592167822.3895068,-0.11,8.67,4.49,-0.37444444444444447,-0.5488888888888889,-0.5288888888888889,-0.06326818538479445,0.002181661564992912,0.04145156973486533
1592167822.3995068,0.17220916858363458,8.742697995399277,4.249511173184358,-0.37444444444444447,-0.5488888888888889,-0.5288888888888889,-0.0006696259946445526,0.012661326304788187,0.06203020178066972
1592167822.4095068,0.14,8.82,4.14,-0.37444444444444447,-0.5488888888888889,-0.5288888888888889,0.02181661564992912,0.031634092692397225,0.05781403147231216
1592167822.4195068,0.09242071184064007,8.73337216975296,4.281469253928321,-0.37444444444444447,-0.5488888888888889,-0.5288888888888889,0.0014586774395295848,0.04746843703157929,0.04208347509103084
1592167822.4295068,0.10364966584593739,8.65,4.38,-0.37099753781217026,-0.5476723336069097,-0.5305109625981944,-0.001664063701613483,0.04422242572462136,0.0318251703321029
1592167822.4395068,0.12,8.65,4.38,-0.35555555555555557,-0.5422222222222223,-0.5377777777777778,0.025089107997418484,0.0370882466048795,0.022907446432425576
1592167822.4495068,0.10243079810248658,8.802615336495855,4.127200125110775,-0.35555555555555557,-0.5422222222222223,-0.5377777777777778,0.07065897193865095,0.032724923474893676,0.007330396505844661
1592167822.4595068,0.06928929225465906,8.822148820424431,4.026429764084886,-0.35555555555555557,-0.5422222222222223,-0.5377777777777778,0.07612557620895895,0.02805149559051723,-0.00716701558446974
1592167822.4695067,0.05,8.79,4.02,-0.35555555555555557,-0.5422222222222223,-0.5377777777777778,0.06981317007977318,0.019634954084936207,-0.014180800172453926
1592167822.4795067,0.008336666933354669,8.881667333386671,3.948332666613329,-0.35425874069925595,-0.5409254073659227,-0.5422240001422336,0.059449186728000904,0.0010899580480517035,-0.021089540584005608
1592167822.4895067,0.05,8.89,3.94,-0.3477777777777778,-0.5344444444444445,-0.5644444444444444,0.04581489286485115,-0.009817477042468103,-0.022907446432425576
1592167822.4995067,-0.03665785235222001,8.83331570470444,3.94663140940888,-0.3477777777777778,-0.5344444444444445,-0.5644444444444444,0.002887729250502168,-0.010902538869649547,-0.012357941405530657
1592167822.5095067,-0.08578180059420991,8.816718717612106,3.9725005182063153,-0.3477777777777778,-0.5344444444444445,-0.5644444444444444,-0.014879631307346979,-0.006902917078456637,-0.0044314576582368285
1592167822.5195067,-0.15133444627919215,8.814634814640078,4.077682592679961,-0.3477777777777778,-0.5344444444444445,-0.5644444444444444,-0.01980807292258004,-0.007383025553447134,0.006132852598182229
1592167822.5295067,0.008494801212143216,8.82985664773449,4.070071676132756,-0.3477777777777778,-0.5344444444444445,-0.5644444444444444,-0.023959183948932254,-0.00655280334817669,0.01194440803507533
1592167822.5395067,0.1560481687330768,8.820265070542968,4.013156619638021,-0.37444444444444447,-0.5344444444444445,-0.5366666666666666,-0.025520185916737666,0.006029805385702228,0.023193950797843983
1592167822.5495067,0.11,8.846383064516129,3.9234032258064517,-0.37444444444444447,-0.5344444444444445,-0.5366666666666666,-0.03611353651858428,0.027735032421655353,0.016757008193857857
1592167822.5595067,0.08039144812735523,8.871843420749057,3.7451957240636773,-0.37444444444444447,-0.5344444444444445,-0.5366666666666666,-0.0531642215990959,0.04875819810240311,0.014302693360715664
1592167822.5695066,-0.016094946401225114,8.92087595712098,3.7021715160796327,-0.37444444444444447,-0.5344444444444445,-0.5366666666666666,-0.07256613965030022,0.07669258712185113,0.015130307395686677
1592167822.5795066,-0.08964041964041963,8.97892125892126,3.6864724464724468,-0.3734855634855635,-0.5347241180574515,-0.5369063869063868,-0.0949171679322626,0.10040310104971055,0.02513577705745509
1592167822.5895066,-0.08,8.95,3.86,-0.3477777777777778,-0.5422222222222223,-0.5433333333333333,-0.1538071403320003,0.1308996938995747,0.05563236990731925
1592167822.5995066,0.02526550315633123,8.793141477905682,4.124756776828815,-0.3477777777777778,-0.5422222222222223,-0.5433333333333333,-0.23315545954655495,0.15742474512905777,0.08221534493995754
1592167822.6095066,0.04,8.69,4.25,-0.3477777777777778,-0.5422222222222223,-0.5433333333333333,-0.26289021858164585,0.16144295580947549,0.08944812416470939
1592167822.6195066,0.03509595920274058,8.573013469324199,4.585671714419184,-0.3477777777777778,-0.5422222222222223,-0.5433333333333333,-0.24234660687120912,0.13896578199086357,0.07958877702135599
1592167822.6295066,0.059587745250700715,8.491374182497664,4.757114216754905,-0.3477777777777778,-0.5422222222222223,-0.5433333333333333,-0.19603819036286005,0.10957774843748821,0.06890221936558313
1592167822.6395066,0.09,8.53,4.64,-0.35555555555555557,-0.5344444444444445,-0.5288888888888889,-0.1090830782496456,0.07308566242726255,0.05235987755982988
1592167822.6495066,0.07599831885682264,8.70400588400112,4.42398066685346,-0.35555555555555557,-0.5344444444444445,-0.5288888888888889,-0.03577732413101972,0.05083207261938017,0.03839641831464781
1592167822.6595066,0.06,8.76,4.24,-0.35555555555555557,-0.5344444444444445,-0.5288888888888889,-0.017453292519943295,0.044724062082354694,0.030543261909900768
1592167822.6695065,0.04374336030461685,8.72126549262256,4.297486720609234,-0.35555555555555557,-0.5344444444444445,-0.5288888888888889,-0.03912993293000518,0.04431572481732956,0.02468077073239335
1592167822.6795065,0.06769938124702524,8.665368110423607,4.34539876249405,-0.35555555555555557,-0.5344444444444445,-0.5288888888888889,-0.052195915465059584,0.041702528310318676,0.02206757422538247
1592167822.6895065,0.08,8.64,4.43,-0.3477777777777778,-0.5288888888888889,-0.5522222222222222,-0.039269908169872414,0.032724923474893676,0.020725784867432664
1592167822.6995065,0.13921951509036415,8.689219515090363,4.376097575451821,-0.3477777777777778,-0.5288888888888889,-0.5522222222222222,-0.019081559057878103,0.028361600344907853,0.013755111690101539
1592167822.7095065,0.12,8.683586112163699,4.277735647972717,-0.3477777777777778,-0.5288888888888889,-0.5522222222222222,-0.001996119061206213,0.027126587898023545,0.0008024674537207492
1592167822.7195065,0.10674238365655916,8.73165720204293,4.250113575484838,-0.3477777777777778,-0.5288888888888889,-0.5522222222222222,0.011444431343587858,0.022907446432425576,-0.009985860579092615
1592167822.7295065,0.04682167220257867,8.739147290974678,4.160232508303868,-0.3477777777777778,-0.5288888888888889,-0.5522222222222222,0.01879780895693547,0.022907446432425576,-0.020607406020594722
1592167822.7395065,-0.06086535865358654,8.766519215192151,4.22,-0.3477777777777778,-0.5344444444444445,-0.5733333333333334,0.01764419527006159,0.010388074514151066,-0.030780307263544696
1592167822.7495065,-0.09472145737043958,8.78472145737044,4.205923886321172,-0.3477777777777778,-0.5344444444444445,-0.5733333333333334,0.003282119848986964,-0.008070823003359621,-0.030482493334988363
1592167822.7595065,-0.04845424107142858,8.75216517857143,4.159587053571428,-0.3477777777777778,-0.5344444444444445,-0.5733333333333334,-0.014349416314614373,-0.03417550927550141,-0.023593476729229984
1592167822.7695065,0.04777537112367267,8.718704104812723,4.242591790374558,-0.3477777777777778,-0.5344444444444445,-0.5733333333333334,-0.024139637451039298,-0.04993554662904414,-0.016746491339356944
1592167822.7795064,0.09209149981509854,8.711318083364151,4.257363833271699,-0.3477777777777778,-0.5344444444444445,-0.5733333333333334,-0.024945327406667328,-0.054769686362812306,-0.012718041561216802
1592167822.7895064,0.09,8.73,4.36,-0.3477777777777778,-0.5288888888888889,-0.56,-0.020725784867432664,-0.04799655442984406,-0.014180800172453926
1592167822.7995064,0.06,8.707448536506917,4.373196097351775,-0.3477777777777778,-0.5288888888888889,-0.56,-0.016432780383096673,-0.039362682000494836,-0.017917161673055397
1592167822.8095064,0.06709431219334908,8.685320734145012,4.296452843903325,-0.3477777777777778,-0.5288888888888889,-0.56,-0.0027456109700814847,-0.04326274924779829,-0.023874783197568715
1592167822.8195064,0.1020963048372042,8.712096304837205,4.281048152418602,-0.3477777777777778,-0.5288888888888889,-0.56,0.010960833965427382,-0.05820956468966277,-0.029504957267867133
1592167822.8295064,0.11744907483665513,8.727449074836656,4.288724537418328,-0.3477777777777778,-0.5288888888888889,-0.56,0.019334471021421974,-0.06909529286245575,-0.037878594323861724
1592167822.8395064,0.34315094438890936,8.675616351870364,4.3956163518703635,-0.3422222222222222,-0.5288888888888889,-0.56,0.016227994618838476,-0.07720989464127635,-0.04339414038388621
1592167822.8495064,0.39,8.66,4.38,-0.3422222222222222,-0.5288888888888889,-0.56,0.019634954084936207,-0.07635815477475191,-0.042542400517361786
1592167822.8595064,0.41518117707398383,8.684379792281062,4.2502195153224775,-0.3422222222222222,-0.5288888888888889,-0.56,0.04213647551454588,-0.05492351872053992,-0.026020685038544194
1592167822.8695064,0.2773673351067458,8.702632664893255,4.323261203192142,-0.3422222222222222,-0.5288888888888889,-0.56,0.060672895757077745,-0.029544598553351894,-0.02267815322159695
1592167822.8795063,0.3131280267376032,8.666871973262397,4.387630448127686,-0.3422222222222222,-0.5288888888888889,-0.56,0.06925484566862433,-0.01940229411243321,-0.01097549425130617
1592167822.8895063,0.4414971902907641,8.671642455755823,4.438357544244177,-0.3422222222222222,-0.5222222222222223,-0.56,0.09192472997280228,-0.013838317917077828,0.004900815519188032
1592167822.8995063,0.516811143959513,8.692226286516009,4.37803828230696,-0.3422222222222222,-0.5222222222222223,-0.56,0.11996252609299177,-0.004711173362977127,0.007802525598566247
1592167822.9095063,0.6409794207317073,8.77161728277439,4.07838271722561,-0.3422222222222222,-0.5222222222222223,-0.56,0.14758020202632555,0.00587657023445797,0.007036980972068886
1592167822.9195063,0.77,8.82,4.03,-0.3422222222222222,-0.5222222222222223,-0.56,0.16253378659197193,0.007635815477475192,0.0
1592167822.9295063,0.7203028369020646,8.828282860516323,4.046565721032645,-0.3422222222222222,-0.5222222222222223,-0.56,0.1598232268264732,0.02028509438313598,-0.0009035199218329136
1592167822.9395063,0.74,8.82,4.02,-0.3622222222222222,-0.5344444444444445,-0.5366666666666666,0.13853550937704992,0.04581489286485115,-0.002181661564992912
1592167822.9495063,0.5731998263751874,8.84943532475732,3.892446926051614,-0.3622222222222222,-0.5344444444444445,-0.5366666666666666,0.11927013437421118,0.07043176092403396,0.005310428713888812
1592167822.9595063,0.51,8.95,3.84,-0.3622222222222222,-0.5344444444444445,-0.5366666666666666,0.09272061651219875,0.10144726277217041,0.008726646259971648
1592167822.9695063,0.40824621978806996,8.89902567766004,3.9001948644679922,-0.3622222222222222,-0.5344444444444445,-0.5366666666666666,0.03360994366327226,0.11667638089510064,0.013026200141927258
1592167822.9795063,0.3333390879866651,8.857410604437035,3.9085178791125927,-0.3622222222222222,-0.5344444444444445,-0.5366666666666666,-0.021771959859472112,0.11486058077960083,0.010302499968677534
1592167822.9895062,0.23,8.85,4.0,-0.35555555555555557,-0.5344444444444445,-0.5433333333333333,-0.06326818538479445,0.10581058590215622,0.008726646259971648
1592167822.9995062,0.2396480433177455,8.858826811059151,4.060234637788169,-0.35555555555555557,-0.5344444444444445,-0.5433333333333333,-0.08668753206136472,0.08595807421345852,0.009804679536364486
1592167823.0095062,0.21,8.76,4.08,-0.35555555555555557,-0.5344444444444445,-0.5433333333333333,-0.12980886311707826,0.06763150851478027,0.008726646259971648
1592167823.0195062,0.3398021743004812,8.571978256995187,4.389802174300481,-0.35555555555555557,-0.5344444444444445,-0.5433333333333333,-0.14304016809407455,0.04123577537226133,-0.001587157816485665
1592167823.0295062,0.33149646527654014,8.655035347234598,4.38149646527654,-0.35555555555555557,-0.5344444444444445,-0.5433333333333333,-0.10317562656947112,0.03217565229848782,-0.022425440886164737
1592167823.0395062,0.43,8.77,4.32,-0.3477777777777778,-0.5422222222222223,-0.5511111111111111,-0.04036073895236887,0.02181661564992912,-0.028361600344907853
1592167823.0495062,0.49815128087708427,8.799280769334375,4.196883333782291,-0.3477777777777778,-0.5422222222222223,-0.5511111111111111,-0.03704349442208872,0.0020509017400297024,-0.02338923027289676
1592167823.0595062,0.83,8.77,4.07,-0.3477777777777778,-0.5422222222222223,-0.5511111111111111,-0.07963064712224129,-0.0032724923474893677,0.04581489286485115
1592167823.0695062,0.6687783191461126,8.690814453902592,4.220203613475648,-0.3477777777777778,-0.5422222222222223,-0.5511111111111111,-0.09846351062573921,0.027892671533921314,0.04318901560592259
1592167823.0795062,0.6210679280338218,8.722621381310786,4.228155345327696,-0.3477777777777778,-0.5422222222222223,-0.5511111111111111,-0.10973970266762281,0.052179854393362944,0.02584102784917856
1592167823.0895061,0.6,8.75,4.2,-0.33555555555555555,-0.5222222222222223,-0.56,-0.1308996938995747,0.06872233929727672,0.02399827721492203
1592167823.0995061,0.5752180510893521,8.708696751815586,4.299127795642591,-0.33555555555555555,-0.5222222222222223,-0.56,-0.14531724735130225,0.09124976656560102,0.02309718012418906
1592167823.1095061,0.19,8.67,4.14,-0.33555555555555555,-0.5222222222222223,-0.56,-0.15817046346198613,0.10581058590215622,-0.002181661564992912
1592167823.1195061,0.32857003336860097,8.759080735736958,4.130102140473671,-0.33555555555555555,-0.5222222222222223,-0.56,-0.15493139650634258,0.0863761841682951,0.06799812247395005
1592167823.129506,0.1645149035099325,8.73635927192999,4.279724611110061,-0.33555555555555555,-0.5222222222222223,-0.56,-0.14630195981469854,0.06898360921762364,0.049811114437720724
1592167823.139506,0.15,8.65,4.41,-0.3622222222222222,-0.5222222222222223,-0.5433333333333333,-0.17889624832941878,0.04036073895236887,0.02181661564992912
1592167823.149506,0.19781947780884496,8.586240696254874,4.378120348127437,-0.3622222222222222,-0.5222222222222223,-0.5433333333333333,-0.18498192680904477,0.013409877114025175,0.01312278925046341
1592167823.159506,0.5256159682565217,8.83630097321644,4.054384031743478,-0.3622222222222222,-0.5222222222222223,-0.5433333333333333,-0.16393845166297397,-0.025731604082049834,0.02704660221347885
1592167823.169506,0.54,8.87,4.2,-0.3622222222222222,-0.5222222222222223,-0.5433333333333333,-0.14726215563702155,-0.03599741582238304,0.03490658503988659
1592167823.179506,0.54,8.824716467239956,4.342319674388714,-0.3622222222222222,-0.5222222222222223,-0.5433333333333333,-0.17407749158050834,-0.021178414379929813,0.01514791644994895
1592167823.189506,0.51,8.49,4.6,-0.35555555555555557,-0.5344444444444445,-0.5644444444444444,-0.234528618236738,0.001090830782496456,-0.02945243112740431
1592167823.199506,0.4648267415892227,8.562277213457245,4.545792089907067,-0.35555555555555557,-0.5344444444444445,-0.5644444444444444,-0.21678912114148663,-0.0038368072995178283,-0.02649584827819574
1592167823.209506,0.48,8.64,4.5,-0.35555555555555557,-0.5344444444444445,-0.5644444444444444,-0.13962634015954636,-0.016362461737446838,-0.015271630954950384
1592167823.219506,0.454454802926599,8.657030131382268,4.610695853984738,-0.35555555555555557,-0.5344444444444445,-0.5644444444444444,-0.11176085284694216,-0.021935559199967675,-0.006911984761169131
1592167823.229506,0.4575438284415456,8.478948117402906,4.7054382844154565,-0.35555555555555557,-0.5344444444444445,-0.5644444444444444,-0.10854722474103472,-0.030313582686144765,-0.01697481030715658
1592167823.239506,0.4480886278697277,8.591672450613988,4.568447010144154,-0.3477777777777778,-0.5288888888888889,-0.5866666666666667,-0.088640193036563,-0.05243806444319889,-0.03604954041129571
1592167823.249506,0.2987987186332087,8.722301121195942,4.447148958889483,-0.3477777777777778,-0.5288888888888889,-0.5866666666666667,-0.025535806988435467,-0.05854494051237252,-0.04012079112407814
1592167823.259506,0.30059048115914533,8.79763807536342,4.287047594204274,-0.3477777777777778,-0.5288888888888889,-0.5866666666666667,0.01924848507000825,-0.0501996864956663,-0.052445759563147204
1592167823.269506,0.33021899927483683,8.68065699782451,4.140547498187092,-0.3477777777777778,-0.5288888888888889,-0.5866666666666667,-0.000453893185639207,-0.05134071412243436,-0.056806812592433455
1592167823.279506,0.3454267585206671,8.726280275562,4.178566896301668,-0.3477777777777778,-0.5288888888888889,-0.5866666666666667,-0.03197316783011811,-0.05631744169787839,-0.06261299476378483
1592167823.289506,0.47,8.75,4.29,-0.3422222222222222,-0.5288888888888889,-0.5955555555555555,-0.04036073895236887,-0.05563236990731925,-0.0272707695624114
1592167823.299506,0.6279431560168667,8.72939871878041,4.413607687317548,-0.3422222222222222,-0.5288888888888889,-0.5955555555555555,-0.054593329704059876,-0.05263603501222641,-0.004049174125441861
1592167823.309506,0.5689008659225012,8.510241385476002,4.478739942271834,-0.3422222222222222,-0.5288888888888889,-0.5955555555555555,-0.10017509589596818,-0.04173524870997571,-0.01919627008688711
1592167823.319506,0.40276098026734564,8.529079673244217,4.568343411839593,-0.3422222222222222,-0.5288888888888889,-0.5955555555555555,-0.11437660484130197,-0.021087196339290976,-0.06680829349554744
1592167823.329506,0.2109111745830248,8.537272647131422,4.562727352868578,-0.3422222222222222,-0.5288888888888889,-0.5955555555555555,-0.09153087281467746,-0.015965848450718783,-0.07953134955656496
1592167823.339506,0.17,8.64,4.52,-0.3688888888888889,-0.5222222222222223,-0.5955555555555555,-0.061086523819801536,-0.02945243112740431,-0.05890486225480862
1592167823.349506,0.04271303647872379,8.62408912955984,4.551821740880318,-0.3688888888888889,-0.5222222222222223,-0.5955555555555555,-0.055011900281447895,-0.040733874841489624,-0.056301452166942774
1592167823.359506,0.0006209689902481799,8.544967751921984,4.541241937980496,-0.3688888888888889,-0.5222222222222223,-0.5955555555555555,-0.06061236335712462,-0.06102582205008261,-0.06688639921628796
1592167823.369506,0.1860648986987317,8.558606489869874,4.484180530390381,-0.3688888888888889,-0.5222222222222223,-0.5955555555555555,-0.056012390843734994,-0.0966814588395504,-0.03718671065838108
1592167823.3795059,0.16020282111925951,8.61306290517432,4.5065314525871605,-0.3688888888888889,-0.5222222222222223,-0.5955555555555555,-0.037544041665806924,-0.10939506502242441,-0.025500654354300177
1592167823.3895059,0.2078270187523919,8.606086490623804,4.4776081132797545,-0.36323663732618955,-0.5118597610239402,-0.5757726750861079,-0.013564040356893169,-0.10436390967036778,-0.0327488023576946
1592167823.3995059,0.29203339183228194,8.636016695916142,4.442987478062895,-0.3622222222222222,-0.51,-0.5722222222222222,-0.022694744001706846,-0.09860928149575277,-0.029013366951515445
1592167823.4095058,0.23725914844102491,8.65792595758828,4.4041480848234436,-0.3622222222222222,-0.51,-0.5722222222222222,-0.02302056789777102,-0.08350913066741587,-0.030317018979209878
1592167823.4195058,0.29713146787556666,8.609651399093325,4.416782866968892,-0.3622222222222222,-0.51,-0.5722222222222222,-0.03297644378194109,-0.06716649436066617,-0.04793516642270029
1592167823.4295058,0.31,8.6,4.426209892211715,-0.3622222222222222,-0.51,-0.5722222222222222,-0.048454468200935116,-0.05961725706092391,-0.05872038251591012
1592167823.4395058,0.28706428782070187,8.607645237393099,4.498807136537894,-0.3571253972934893,-0.515096824928733,-0.5934589927586094,-0.0675647590640672,-0.054221302603449976,-0.0649361174423716
1592167823.4495058,0.2714539467358908,8.567269733679455,4.562730266320546,-0.35555555555555557,-0.5166666666666667,-0.6,-0.07836183923774535,-0.0571796275300642,-0.040279642432556786
1592167823.4595058,0.17054767951974142,8.518561533133225,4.5534246132532905,-0.35555555555555557,-0.5166666666666667,-0.6,-0.08415088264601499,-0.06233426699608587,-0.017012426622533505
1592167823.4695058,0.08420452109287535,8.551122174316953,4.5746733045901715,-0.35555555555555557,-0.5166666666666667,-0.6,-0.07701048098886244,-0.056988158682458004,-0.012192822718195122
1592167823.4795058,-0.024323431648924976,8.603533891530272,4.609022594353515,-0.35555555555555557,-0.5166666666666667,-0.6,-0.05152326951071366,-0.06117264928634568,-0.010416201642024895
1592167823.4895058,-0.06,8.628941766198404,4.602116467603193,-0.39132262034916904,-0.5037507821578618,-0.6,-0.025960679024883783,-0.05936660385715256,-0.016645244715841397
1592167823.4995058,-0.1994455583289005,8.605748598551497,4.612125700724252,-0.39555555555555555,-0.5022222222222222,-0.6,-0.016062024649309697,-0.059566216635276316,-0.03795527831444183
1592167823.5095057,-0.3242782903807403,8.59,4.508595556262594,-0.39555555555555555,-0.5022222222222222,-0.6,-0.008103921751064787,-0.07027844197493757,-0.07837811215836457
1592167823.5195057,-0.04253877350374835,8.598983163328008,4.472033673343984,-0.39555555555555555,-0.5022222222222222,-0.6,0.00510302892962438,-0.10041225378368053,-0.06330491730496207
1592167823.5295057,0.0330079778808214,8.61911465683592,4.498671985253881,-0.39555555555555555,-0.5022222222222222,-0.6,0.00915134170416355,-0.11353308097206562,-0.05639508120326887
1592167823.5395057,0.14505795574288727,8.547060063224446,4.613645943097998,-0.40794754712562936,-0.5022222222222222,-0.6,-0.003208122986246162,-0.12232707432543502,-0.05126904677733343
1592167823.5495057,0.15,8.54,4.652434746993335,-0.4088888888888889,-0.5022222222222222,-0.6,-0.019930884124824102,-0.11438926714218393,-0.059760443683608847
1592167823.5595057,0.08181689476168004,8.53147711184521,4.5421566776781495,-0.4088888888888889,-0.5022222222222222,-0.6,-0.028361600344907853,-0.0980877716506169,-0.04390555290624834
1592167823.5695057,-0.01836652064250631,8.586233240408868,4.560166600292049,-0.4088888888888889,-0.5022222222222222,-0.6,-0.011711914014724826,-0.08197232037111293,-0.018453256938970146
1592167823.5795057,-0.13592984929206658,8.586295735815419,4.617964924646033,-0.4088888888888889,-0.5022222222222222,-0.6,-0.0009087505266731294,-0.07629746135614415,-0.009352711083956326
1592167823.5895057,-0.3020831024930748,8.597440443213296,4.718481994459834,-0.3972619267466913,-0.5090046168051708,-0.6096891351184981,0.004084118796737424,-0.0828771529192335,-0.010489501325091959
1592167823.5995057,-0.2782649115590292,8.564227067050595,4.700189222542163,-0.39555555555555555,-0.51,-0.6111111111111112,-0.0027907498842692138,-0.09505026491062125,-0.03237052686772967
1592167823.6095057,-0.17676401306957779,8.458626681188418,4.671862668118842,-0.39555555555555555,-0.51,-0.6111111111111112,-0.012074041529153673,-0.11141454565802382,-0.0477933688576833
1592167823.6195056,-0.16757467589348285,8.424850648213035,4.685149351786966,-0.39555555555555555,-0.51,-0.6111111111111112,-0.0015222039050945858,-0.11427267034283592,-0.05791178198829797
1592167823.6295056,-0.042619230089017274,8.553446520859126,4.611145237674154,-0.39555555555555555,-0.51,-0.6111111111111112,0.03394185926030681,-0.10593551195298036,-0.061086523819801536
1592167823.6395056,0.12612060498919664,8.674448241995679,4.499715576507563,-0.39555555555555555,-0.5033017307230625,-0.5929300945022807,0.017903766422343717,-0.09190156136602493,-0.04135849236462048
1592167823.6495056,0.18543248438250842,8.654759730898606,4.49,-0.39555555555555555,-0.5022222222222222,-0.59,-0.006723207888659075,-0.0773231809499446,-0.028267246889430026
1592167823.6595056,0.31211043557924545,8.547889564420753,4.448944782210377,-0.39555555555555555,-0.5022222222222222,-0.59,-0.026880479811299148,-0.039279810772961624,-0.01764843739549942
1592167823.6695056,0.3350639201699195,8.54519176050976,4.485575281529275,-0.39555555555555555,-0.5022222222222222,-0.59,-0.014565845559069918,-0.016139338252741116,-0.014138964519071606
1592167823.6795056,0.23257699854961184,8.591595000426585,4.523680999914683,-0.39555555555555555,-0.5022222222222222,-0.59,-0.00011377362269447298,0.019012526282416262,-0.004704643998069242
1592167823.6895056,0.16306269847961105,8.637749206081557,4.540811904561167,-0.40943015859633347,-0.5022222222222222,-0.5946248676802594,-0.012530528900123062,0.04231704860543385,0.018584466536842845
1592167823.6995056,0.20899889517710987,8.587001420486574,4.584999210840793,-0.41555555555555557,-0.5022222222222222,-0.5966666666666667,-0.036106102914621144,0.07624843467552717,0.02574364090048258
1592167823.7095056,0.18117187119403713,8.490245530277196,4.572098212110878,-0.41555555555555557,-0.5022222222222222,-0.5966666666666667,-0.05048136035098989,0.113467099903029,0.022045495085804417
1592167823.7195055,0.014336457819437598,8.528998519980266,4.598332511100148,-0.41555555555555557,-0.5022222222222222,-0.5966666666666667,-0.052614422680757764,0.13689899412812453,0.03243378412939265
1592167823.7295055,-0.25231340026189436,8.491152335224793,4.734233958969882,-0.41555555555555557,-0.5022222222222222,-0.5966666666666667,-0.04166107019069179,0.14570994771430726,0.03243114669933701
1592167823.7395055,-0.42444642006667727,8.475556120019052,4.792221939990474,-0.41555555555555557,-0.5022222222222222,-0.6079016422359811,-0.029209777993187126,0.1296869823892292,0.028846352452601785
1592167823.7495055,-0.42613333333333336,8.483466666666667,4.7796,-0.41555555555555557,-0.5022222222222222,-0.6111111111111112,-0.01743874810951001,0.11301006906663283,0.03289945640009311
1592167823.7595055,-0.27950536630891276,8.525439598144438,4.689120803711125,-0.41555555555555557,-0.5022222222222222,-0.6111111111111112,0.02273964934464017,0.06998096716755858,0.053049151107442315
1592167823.7695055,-0.030312760429432817,8.509278886219912,4.6676802784450215,-0.41555555555555557,-0.5022222222222222,-0.6111111111111112,0.04252534208216318,0.045168543942451296,0.05865181988690955
1592167823.7795055,0.05161721814341748,8.518014348452848,4.651985651547152,-0.41555555555555557,-0.5022222222222222,-0.6111111111111112,0.05092405037778697,0.04114676318512823,0.05104461992721506
1592167823.7895055,0.05251926418992032,8.617465324458143,4.560030822703872,-0.41555555555555557,-0.5022222222222222,-0.5827923329434954,0.057542584614969944,0.05317253701414734,0.012557162381528205
1592167823.7995055,0.04,8.64,4.54,-0.41555555555555557,-0.5022222222222222,-0.5733333333333334,0.038518831070064874,0.06185776648000184,-0.010106816824175094
1592167823.8095055,-0.13825672930421534,8.59008811579482,4.518609192483494,-0.41555555555555557,-0.5022222222222222,-0.5733333333333334,-0.008375159418958507,0.07105571442742283,-0.0465638487484758
1592167823.8195055,-0.23780646718146717,8.551462355212355,4.540896074646074,-0.41555555555555557,-0.5022222222222222,-0.5733333333333334,-0.015431149163008504,0.06862459271654144,-0.05176558887821401
1592167823.8295054,-0.3832675709001233,8.548858199753392,4.6821652281134405,-0.41555555555555557,-0.5022222222222222,-0.5733333333333334,-0.004852919190193851,0.045948052232874764,-0.02498607761771537
1592167823.8395054,-0.3566886449265948,8.429266272573729,4.804600168896973,-0.4299111486437717,-0.5022222222222222,-0.5900815252695856,0.010178689847052726,0.014241350705365662,-0.032383197383651044
1592167823.8495054,-0.2287658838668168,8.376758082676531,4.792830545279074,-0.43555555555555553,-0.5022222222222222,-0.5966666666666667,0.0270816682473341,-0.003038517303503679,-0.030747321134614196
1592167823.8595054,0.052296635348911935,8.451377981209347,4.556325383441741,-0.43555555555555553,-0.5022222222222222,-0.5966666666666667,0.08211676256900541,-0.030743681152681775,0.02137714740647094
1592167823.8695054,0.07894182506377026,8.503690446803258,4.4510450094626846,-0.43555555555555553,-0.5022222222222222,-0.5966666666666667,0.08967610986268856,-0.036629402948159195,0.03548085767597746
1592167823.8795054,-0.13678067447978956,8.690198517101173,4.359547955034681,-0.43555555555555553,-0.5022222222222222,-0.5966666666666667,0.037790594480143894,-0.043161781593096436,0.025686834216672103
1592167823.8895054,-0.29927200848519914,8.665095940603607,4.433512036769196,-0.44768978312031055,-0.4943706632097337,-0.5923839981144002,-0.03199626548136608,-0.04822781209838604,0.023680630993425617
1592167823.8995054,-0.2644916250963215,8.59,4.470248205377784,-0.45444444444444443,-0.49,-0.59,-0.06160616929050775,-0.06081577375333447,0.0379354023275556
1592167823.9095054,-0.049355315547290377,8.583967765777365,4.45,-0.45444444444444443,-0.49,-0.59,-0.058799376007906745,-0.07763902204790717,0.044653737917753435
1592167823.9195054,0.0628413811007269,8.612841381100727,4.495977933541018,-0.45444444444444443,-0.49,-0.59,-0.055129234120387414,-0.0734600054208716,0.015219269944648308
1592167823.9295053,0.11804287363063591,8.602826518835261,4.552608177397688,-0.45444444444444443,-0.49,-0.59,-0.07778069487055667,-0.0748641626105877,-0.000972177419989651
1592167823.9395053,0.13755005765803544,8.598674913512946,4.604899884683929,-0.45444444444444443,-0.4934583173172124,-0.5810083749752478,-0.09543677258158295,-0.07160488165332958,-0.014281661137980909
1592167823.9495053,0.11958874034578744,8.564884541498412,4.613059160230525,-0.45444444444444443,-0.4955555555555556,-0.5755555555555556,-0.09291973471987913,-0.06380100620727938,-0.026449107594163294
1592167823.9595053,0.12335588445819576,8.550067653374587,4.5649661733127065,-0.45444444444444443,-0.4955555555555556,-0.5755555555555556,-0.07362000806097985,-0.050719941466908225,-0.048186969371673084
1592167823.9695053,0.12290186548495462,8.548705596454864,4.568496890858409,-0.45444444444444443,-0.4955555555555556,-0.5755555555555556,-0.06234131837440792,-0.03742755727355398,-0.07754465058263063
1592167823.9795053,0.06520725922870695,8.57718911115694,4.558645081460095,-0.45444444444444443,-0.4955555555555556,-0.5755555555555556,-0.06585904909319035,-0.030918270141375624,-0.08659585699802087
1592167823.9895053,-0.01100450480736906,8.609589188462314,4.557808108653264,-0.44837647638898226,-0.49042112104708757,-0.5694875875000934,-0.07171092080236417,-0.037765642766187726,-0.05298754715147949
1592167823.9995053,-0.12454576580689342,8.54,4.6889093814197675,-0.44,-0.48333333333333334,-0.5611111111111111,-0.0630499943291675,-0.05640591110612814,-0.01765161407170281
1592167824.0095053,-0.20632605378600039,8.567210089643334,4.739115964142667,-0.44,-0.48333333333333334,-0.5611111111111111,-0.04594139012133748,-0.0785097524358595,-0.019427055427791523
1592167824.0195053,-0.20382735002361832,8.466009683514407,4.746172649976382,-0.44,-0.48333333333333334,-0.5611111111111111,-0.021884116279360877,-0.09591671978859455,-0.029376042056310735
1592167824.0295053,-0.14234928560046742,8.423534285866044,4.7202910713337225,-0.44,-0.48333333333333334,-0.5611111111111111,0.010107754952932185,-0.10794462103154007,-0.04097078608196494
1592167824.0395052,-0.08236967939170652,8.569478717566826,4.635260641216587,-0.4444668286692274,-0.4871129575919103,-0.55904949787916,0.05925125682248858,-0.11544840977585227,-0.05625016816737545
1592167824.0495052,-0.11,8.668778608342562,4.568778608342561,-0.45444444444444443,-0.4955555555555556,-0.5544444444444444,0.08369833558071581,-0.10956187706002293,-0.09490648093665727
1592167824.0595052,-0.10472518873135703,8.60725188731357,4.465053397164426,-0.45444444444444443,-0.4955555555555556,-0.5544444444444444,0.045646678764254434,-0.11426161210297103,-0.1214419439665618
1592167824.0695052,-0.15664406127504027,8.565149460115913,4.4108967606954765,-0.45444444444444443,-0.4955555555555556,-0.5544444444444444,0.021751401371851872,-0.12676462074285927,-0.12931235843438796
1592167824.0795052,-0.14353665762870121,8.577819216749564,4.479096083747823,-0.45444444444444443,-0.4955555555555556,-0.5544444444444444,0.02176731466629543,-0.13971632375859808,-0.12748791696939996
1592167824.0895052,-0.06875107480653483,8.58137467755804,4.54,-0.45444444444444443,-0.4920415353014235,-0.5496525986433553,0.022580103403112364,-0.15337099560813025,-0.11903679189672041
1592167824.0995052,-0.09816487659150722,8.570458780852123,4.57137634255637,-0.45444444444444443,-0.48333333333333334,-0.5377777777777778,0.019785089767710987,-0.17607416303025375,-0.07989064953721714
1592167824.1095052,-0.039526199746681055,8.605592250316649,4.523223249050054,-0.45444444444444443,-0.48333333333333334,-0.5377777777777778,0.024582455298750878,-0.19437461364479913,-0.037868975846731004
1592167824.1195052,-0.02,8.610168926845292,4.484704378020741,-0.45444444444444443,-0.48333333333333334,-0.5377777777777778,0.02455751290138278,-0.20235371691816342,-0.0332012373900793
1592167824.1295052,0.013870273254209222,8.612580182169474,4.486129726745791,-0.45444444444444443,-0.48333333333333334,-0.5377777777777778,0.020854849950355695,-0.20221421405825832,-0.05089351355238677
1592167824.1395051,0.08094084468757433,8.660940844687575,4.424529577656212,-0.46173834090282734,-0.481205946866305,-0.5399051642448062,0.010292526416911956,-0.20020923825570405,-0.07370144383531514
1592167824.1495051,0.14980640789855773,8.660145194076081,4.439854805923918,-0.4811111111111111,-0.47555555555555556,-0.5455555555555556,-0.029352122421241147,-0.1903631700596004,-0.09163506513528984
1592167824.1595051,0.18018739431562855,8.595655880104701,4.450374788631257,-0.4811111111111111,-0.47555555555555556,-0.5455555555555556,-0.06141730294869966,-0.18280614303773499,-0.08946856571350463
1592167824.1695051,0.13224865785303785,8.588313506610222,4.4771891776837025,-0.4811111111111111,-0.47555555555555556,-0.5455555555555556,-0.07154140019872023,-0.16648082787094523,-0.09453434229638226
1592167824.179505,0.05985108467997617,8.623768614415003,4.548843072075015,-0.4811111111111111,-0.47555555555555556,-0.5455555555555556,-0.07639064305776538,-0.14887403559850615,-0.10966910399466065
1592167824.189505,-0.002480566761782937,8.573837449571977,4.592480566761783,-0.4766042397804673,-0.48179583893644706,-0.5348084008440203,-0.09475426512343169,-0.1420785895827183,-0.12496565172294388
1592167824.199505,-0.15319338017479867,8.506463632580116,4.584068597449017,-0.4666666666666667,-0.4955555555555556,-0.5111111111111111,-0.08774769183810818,-0.15123972092302468,-0.1382368374679393
1592167824.209505,-0.2912506922873173,8.62906474993378,4.4596845577789015,-0.4666666666666667,-0.4955555555555556,-0.5111111111111111,-0.052700346836786205,-0.16519295093321765,-0.14320549651015754
1592167824.219505,-0.3049133312322723,8.68978805546801,4.380635833595965,-0.4666666666666667,-0.4955555555555556,-0.5111111111111111,-0.0427925043289805,-0.17311420917936762,-0.13842412293723622
1592167824.229505,-0.03220366574219221,8.645639696129265,4.434052212709514,-0.4666666666666667,-0.4955555555555556,-0.5111111111111111,-0.1253344575566308,-0.2113471816294734,-0.07428244572336094
1592167824.239505,0.05570186419460703,8.548596271610785,4.536526711100586,-0.4712027607673309,-0.4955555555555556,-0.5090175292184969,-0.16916874812653948,-0.21467739496394686,-0.05918427761679666
1592167824.249505,0.07993777282437076,8.500124454351258,4.690186681526888,-0.4811111111111111,-0.4955555555555556,-0.5044444444444445,-0.18218910447251338,-0.19791451373848834,-0.07205592303158186
1592167824.259505,0.0654138947180426,8.515413894718042,4.669552841898469,-0.4811111111111111,-0.4955555555555556,-0.5044444444444445,-0.19044389783772622,-0.17802753362423512,-0.08631470701923005
1592167824.269505,0.05580798028622879,8.493231921144915,4.6770723154203395,-0.4811111111111111,-0.4955555555555556,-0.5044444444444445,-0.19314859194813255,-0.16250059953091786,-0.08477060951278188
1592167824.279505,0.05,8.476819906882117,4.7972796275284635,-0.4811111111111111,-0.4955555555555556,-0.5044444444444445,-0.18276223388326973,-0.1526661618062653,-0.06857189606756117
1592167824.289505,0.03434406644669473,8.480606439868017,4.865655933553305,-0.48354647855273636,-0.4934680977484482,-0.4999216191957118,-0.16579548109237094,-0.14766986744957142,-0.0505089776327199
1592167824.299505,0.0,8.46,4.9,-0.4888888888888889,-0.4888888888888889,-0.49,-0.1538071403320003,-0.1461713248545251,-0.039269908169872414
1592167824.309505,0.05,8.393155737704918,4.98951844262295,-0.4888888888888889,-0.4888888888888889,-0.49,-0.12121074712348683,-0.15138630070609116,-0.016735758337194602
1592167824.319505,0.020610052985822712,8.349389947014178,5.000406701990548,-0.4888888888888889,-0.4888888888888889,-0.49,-0.076289655662891,-0.1500446879745868,-0.02713767664723354
1592167824.329505,-0.01,8.38,4.98,-0.4888888888888889,-0.4888888888888889,-0.49,-0.05235987755982988,-0.14726215563702155,-0.03381575425739013
1592167824.339505,0.014002908385845853,8.436336726450154,4.932333818064308,-0.4938158381357606,-0.4855178183515556,-0.4866289294626667,0.008473652479846357,-0.14340799262409434,-0.05101605299720814
1592167824.349505,0.06,8.477572188622618,4.9027165658678555,-0.51,-0.47444444444444445,-0.47555555555555556,0.03317681144854393,-0.14146539028282662,-0.08475697143891078
1592167824.359505,0.06382086944201752,8.471462608326053,4.781224350043685,-0.51,-0.47444444444444445,-0.47555555555555556,0.03756688406031763,-0.13135234140815366,-0.10442665342956019
1592167824.369505,0.0662546594173651,8.49,4.714944086991619,-0.51,-0.47444444444444445,-0.47555555555555556,0.04812731737817675,-0.11795268578408673,-0.11290301904273933
1592167824.379505,0.11080815435020022,8.45712413542046,4.7959774299235525,-0.51,-0.47444444444444445,-0.47555555555555556,0.05693644281948465,-0.1071269688813975,-0.09745919813852938
1592167824.389505,0.23,8.400167148422772,4.799916425788614,-0.5075724728750367,-0.47444444444444445,-0.47704941840168685,0.06439548229625207,-0.10125482168747399,-0.06579826299021901
1592167824.399505,0.1475578322748134,8.5,4.757168884150016,-0.4955555555555556,-0.47444444444444445,-0.48444444444444446,0.0920406614474615,-0.08473622671810643,-0.05555019476376741
1592167824.409505,0.03741505519921791,8.493197262691051,4.749591788073154,-0.4955555555555556,-0.47444444444444445,-0.48444444444444446,0.09437539476664467,-0.06468551891682423,-0.047885231895947566
1592167824.419505,0.06899221650101785,8.466330738833673,4.774928990540055,-0.4955555555555556,-0.47444444444444445,-0.48444444444444446,0.07481210362619149,-0.057731582377603535,-0.032987762619970835
1592167824.4295049,-0.0015338968162564165,8.428711862421675,4.897177965605419,-0.4955555555555556,-0.47444444444444445,-0.48444444444444446,0.0740960686872134,-0.04695933999571135,-0.0207794012157964
1592167824.4395049,0.02870275000841496,8.401740550001684,4.881297249991585,-0.49671592222334426,-0.47560481111223313,-0.480769949996447,0.09680448516422907,-0.03295958298988694,-0.010766799802623137
1592167824.4495049,0.08617828178374737,8.503025120256547,4.718662886621895,-0.5022222222222222,-0.4811111111111111,-0.4633333333333333,0.14021339079723918,-0.014132181358036427,-0.011300883204987395
1592167824.4595048,0.07845209320313257,8.624226046601567,4.496621628154307,-0.5022222222222222,-0.4811111111111111,-0.4633333333333333,0.16035212502697901,-0.002903969147089268,-0.0020128111267470614
1592167824.4695048,0.025951861529978665,8.57166303070985,4.434048138470021,-0.5022222222222222,-0.4811111111111111,-0.4633333333333333,0.14401353902382172,0.0017138226970413954,-0.0029096753293809644
1592167824.4795048,0.030332005312084995,8.53688800354139,4.415891987605136,-0.5022222222222222,-0.4811111111111111,-0.4633333333333333,0.11247773978171735,-0.007441213970017879,-0.00824231546101461
1592167824.4895048,0.056157539878309494,8.565393849695774,4.416181549087321,-0.5001697089294525,-0.4835057099526759,-0.45683370790622885,0.08977872787004419,-0.017117450817757823,-0.0007549890803109823
1592167824.4995048,0.07,8.6,4.52,-0.4955555555555556,-0.4888888888888889,-0.44222222222222224,0.07090400086226964,-0.016362461737446838,0.0
1592167824.5095048,0.0727667445482866,8.524466510903427,4.531383372274143,-0.4955555555555556,-0.4888888888888889,-0.44222222222222224,-0.017091089337369327,0.004337438199764492,-0.023511056456540627
1592167824.5195048,-0.024144276006272863,8.449355985363304,4.6518306325143755,-0.4955555555555556,-0.4888888888888889,-0.44222222222222224,-0.048014117204596224,0.031100708942294147,-0.036712927827545906
1592167824.5295048,-0.34881034233191,8.524126438445393,4.8076954114496635,-0.4955555555555556,-0.4888888888888889,-0.44222222222222224,-0.03876712494353322,0.05396164299649305,-0.04362507987203072
1592167824.5395048,-0.36169684631593985,8.51415157684203,4.731037894210508,-0.4971700576607895,-0.48738970836260026,-0.44383672432745613,-0.020231581914614077,0.0541910972201635,-0.048798032013240504
1592167824.5495048,-0.29,8.55,4.74,-0.5111111111111111,-0.47444444444444445,-0.4577777777777778,-0.006544984694978735,0.022907446432425576,0.019634954084936207
1592167824.5595047,-0.044762022806147744,8.482571393158157,4.57799975210709,-0.5111111111111111,-0.47444444444444445,-0.4577777777777778,-0.01062781234388286,-0.01798313234027635,0.0668419406412524
1592167824.5695047,-0.11443975441289332,8.487801227935535,4.433900613967767,-0.5111111111111111,-0.47444444444444445,-0.4577777777777778,-0.016729141616751098,-0.02351397513689118,0.056297709711148156
1592167824.5795047,-0.11863007710733832,8.57863007710734,4.486560068539856,-0.5111111111111111,-0.47444444444444445,-0.4577777777777778,-0.030018588191164295,-0.024411699277786247,0.05190827174674172
1592167824.5895047,-0.18463238508209046,8.64463238508209,4.545228786739636,-0.5111111111111111,-0.47444444444444445,-0.4577777777777778,-0.04361808749482437,-0.022011787635963884,0.05030833065219348
1592167824.5995047,-0.29862949341558903,8.418176533396606,4.78,-0.4711111111111111,-0.48,-0.43666666666666665,-0.11696974986530932,-0.022163755819696408,-0.0030254409815164483
1592167824.6095047,-0.2246303105479998,8.35,4.768295751561601,-0.4711111111111111,-0.48,-0.43666666666666665,-0.1501102131835245,-0.02418418188068484,-0.026309786930916932
1592167824.6195047,-0.3237478765571914,8.37361032465081,4.761249292185731,-0.4711111111111111,-0.48,-0.43666666666666665,-0.125142977541853,-0.029331159075518615,-0.06670696354027054
1592167824.6295047,-0.47912604148200677,8.465262187555398,4.797779826271937,-0.4711111111111111,-0.48,-0.43666666666666665,-0.08107237695418254,-0.04117693795374469,-0.09698860555677938
1592167824.6395047,-0.2560645275660344,8.53218064173019,4.656507534125155,-0.4711111111111111,-0.48,-0.43666666666666665,-0.07782807874391848,-0.06388702542559309,-0.07265636897979896
1592167824.6495047,-0.07240089753178758,8.50607329842932,4.620762902019447,-0.4922222222222222,-0.47444444444444445,-0.41555555555555557,-0.11920569419462204,-0.10514809181435733,-0.038179077387375956
1592167824.6595047,0.0,8.46,4.68,-0.4922222222222222,-0.47444444444444445,-0.41555555555555557,-0.14289883250703572,-0.11017390903214205,-0.038179077387375956
1592167824.6695046,0.014951895574392846,8.457475947787197,4.770057725310729,-0.4922222222222222,-0.47444444444444445,-0.41555555555555557,-0.16198732172495917,-0.07879415820948964,-0.033819952160448266
1592167824.6795046,-0.06,8.42,4.86,-0.4922222222222222,-0.47444444444444445,-0.41555555555555557,-0.16035212502697901,-0.05017821599483697,-0.04036073895236887
1592167824.6895046,-0.15298472456098147,8.42,4.925089307192687,-0.4922222222222222,-0.47444444444444445,-0.41555555555555557,-0.13296586306664934,-0.008591670055077105,-0.028189066970000128
1592167824.6995046,-0.1882220788497431,8.47738887992811,4.896055439065416,-0.49777777777777776,-0.4622222222222222,-0.41555555555555557,-0.07824890467181207,0.014180800172453926,0.002714999622869644
1592167824.7095046,-0.05176303580084482,8.467720379475105,4.7703649331763724,-0.49777777777777776,-0.4622222222222222,-0.41555555555555557,-0.05766152213432585,0.013186128076067711,0.04563911811027257
1592167824.7195046,0.021977443609022557,8.46,4.693954887218045,-0.49777777777777776,-0.4622222222222222,-0.41555555555555557,-0.05105539157519784,0.011995037739857646,0.07460585404783186
1592167824.7295046,0.06713026533845678,8.452825663346143,4.79860920398463,-0.49777777777777776,-0.4622222222222222,-0.41555555555555557,-0.04270372769742869,0.02291706130191854,0.08819596620214604
1592167824.7395046,0.05185354482708383,8.41463386206771,4.844439365518748,-0.49777777777777776,-0.4622222222222222,-0.41555555555555557,-0.04936945449318893,0.034582083194498965,0.08153023940638579
1592167824.7495046,0.1478411606197671,8.387046963718603,4.947270715041863,-0.5111111111111111,-0.4722222222222222,-0.4088888888888889,-0.054219412837065085,0.061668550435705294,0.08555578672480829
1592167824.7595046,0.15065099539884289,8.337869800920231,4.999349004601157,-0.5111111111111111,-0.4722222222222222,-0.4088888888888889,-0.04699606715618905,0.08869302536556431,0.085175144543565
1592167824.7695045,0.10776612865054196,8.335248970511667,4.977496568372225,-0.5111111111111111,-0.4722222222222222,-0.4088888888888889,-0.03411674342038361,0.12866221806488526,0.07344096852986819
1592167824.7795045,-0.25559006567987286,8.373561074622293,5.042370602991019,-0.5111111111111111,-0.4722222222222222,-0.4088888888888889,-0.0010897028338482592,0.1601488645029863,0.05779596340600308
1592167824.7895045,-0.11102272944871036,8.453876261417385,4.937960860157402,-0.5111111111111111,-0.4722222222222222,-0.4088888888888889,0.050600361220393776,0.16540548118646853,0.0770702245787713
1592167824.7995045,0.04029401551105452,8.484470424817687,4.832529227919898,-0.5044444444444445,-0.4388888888888889,-0.41555555555555557,0.09757158734238151,0.15186930261710582,0.13524369799845487
1592167824.8095045,-0.003315746658919233,8.42,4.7367897733875655,-0.5044444444444445,-0.4388888888888889,-0.41555555555555557,0.08764542012919875,0.14744875678889077,0.10256686968338584
1592167824.8195045,-0.0171500565184627,8.42997480218538,4.632824745666918,-0.5044444444444445,-0.4388888888888889,-0.41555555555555557,0.07137581908434275,0.14196619068362493,0.07480100308055007
1592167824.8295045,-0.0021679898069195333,8.483496030579241,4.720839949034597,-0.5044444444444445,-0.4388888888888889,-0.41555555555555557,0.057420913292635656,0.13528963830417012,0.07010290363074498
1592167824.8395045,-0.018611388807213566,8.434165833578358,4.803056944036068,-0.5044444444444445,-0.4388888888888889,-0.41555555555555557,0.02961861630512777,0.12721800369489367,0.05575333099203125
1592167824.8495045,0.15,8.449858540394066,4.81,-0.5111111111111111,-0.4533333333333333,-0.4088888888888889,0.0025478436340356067,0.11564349379388758,0.06253582124670906
1592167824.8595045,0.12989145756977727,8.360724555962785,4.799275444037214,-0.5111111111111111,-0.4533333333333333,-0.4088888888888889,0.0058256576015873595,0.12946103971279196,0.05554149297012509
1592167824.8695045,-0.03751606454376696,8.434840782521777,4.73,-0.5111111111111111,-0.4533333333333333,-0.4088888888888889,0.01672376146613462,0.14795695082555865,0.030647469505715435
1592167824.8795044,-0.2783892974742197,8.478890510085376,4.730987834453931,-0.5111111111111111,-0.4533333333333333,-0.4088888888888889,0.026947501493303966,0.14163230133488267,0.010437472076406287
1592167824.8895044,-0.013749038783839762,8.553320582842046,4.739257842538005,-0.5111111111111111,-0.4533333333333333,-0.4088888888888889,0.024241147676423103,0.1127645272881535,0.033892538489373736
1592167824.8995044,-0.0011774400292986632,8.39293535982421,4.85,-0.5111111111111111,-0.4388888888888889,-0.3655555555555556,-0.026375293569382355,0.07269854833525044,0.060507650425244724
1592167824.9095044,-0.008318866384746644,8.359333036575414,4.83234809703984,-0.5111111111111111,-0.4388888888888889,-0.3655555555555556,-0.049700820729168406,0.05290055865322396,0.047079638281340104
1592167824.9195044,0.011148066660425055,8.568851933339575,4.64688839996255,-0.5111111111111111,-0.4388888888888889,-0.3655555555555556,-0.019097734477818245,0.04678048900199265,0.03696301195952454
1592167824.9295044,0.008679659621191327,8.552722638327909,4.708085957413435,-0.5111111111111111,-0.4388888888888889,-0.3655555555555556,-0.008661883395585952,0.04616770931495236,0.035027170584604736
1592167824.9395044,-0.10645347241284654,8.478708482020313,4.790323908866319,-0.5111111111111111,-0.4388888888888889,-0.3655555555555556,-0.030191728739807206,0.049756016872322555,0.025159324801836663
1592167824.9495044,-0.11,8.38,4.84,-0.48444444444444446,-0.44555555555555554,-0.3511111111111111,-0.04581489286485115,0.05235987755982988,-0.001090830782496456
1592167824.9595044,-0.15865836483581647,8.525975094507448,4.645366540656734,-0.48444444444444446,-0.44555555555555554,-0.3511111111111111,-0.01715275008287122,0.04705207334094472,-0.015952682595374936
1592167824.9695044,-0.05618512110726644,8.536930026912724,4.562302479815455,-0.48444444444444446,-0.44555555555555554,-0.3511111111111111,0.009482594927964674,0.03138539501687996,-0.021149315331282573
1592167824.9795043,0.11282363319232543,8.503529541490407,4.588588183403838,-0.48444444444444446,-0.44555555555555554,-0.3511111111111111,0.004145108860498672,0.015194628304833702,0.000770026501166828
1592167824.9895043,0.14645943182501653,8.545574289781271,4.571770284087492,-0.48444444444444446,-0.44555555555555554,-0.3511111111111111,-0.011448551070017784,0.014277354191273909,0.009942767636764745
1592167824.9995043,0.1470702527243218,8.494140505448643,4.694882912126131,-0.4922222222222222,-0.43333333333333335,-0.36777777777777776,-0.04821396183550925,0.018331066068223423,0.014023182332516112
1592167825.0095043,0.11652122912737475,8.432346704080224,4.73860849165095,-0.4922222222222222,-0.43333333333333335,-0.36777777777777776,-0.09281580515907284,0.016590146758633538,0.033180293517267076
1592167825.0195043,0.05593233674272227,8.330781536847626,4.730159979019144,-0.4922222222222222,-0.43333333333333335,-0.36777777777777776,-0.1238180193152796,0.020316973645773225,0.03824687882861689
1592167825.0295043,-0.298380049382716,8.354190024691357,4.985237530864198,-0.4922222222222222,-0.43333333333333335,-0.36777777777777776,-0.13687335260545927,0.03754530739615485,0.009547748257573473
1592167825.0395043,-0.36466034567901234,8.387330172839507,5.026662716049383,-0.4922222222222222,-0.43333333333333335,-0.36777777777777776,-0.13235456588839764,0.04116033676980415,-0.018468729388208545
1592167825.0495043,-0.42,8.42,5.03,-0.4777777777777778,-0.46,-0.36777777777777776,-0.10690141668465267,0.028361600344907853,-0.0272707695624114
1592167825.0595043,-0.27540600406525256,8.409729764945014,4.996216709230208,-0.4777777777777778,-0.46,-0.36777777777777776,-0.08308000789962311,0.0060143794053013795,-0.004333845058337082
1592167825.0695043,-0.101932743672826,8.392941150713723,4.870084070408968,-0.4777777777777778,-0.46,-0.36777777777777776,-0.09010812502960719,-0.013969970543154542,-0.0029424919150404663
1592167825.0795043,-0.03,8.33,4.960859302714727,-0.4777777777777778,-0.46,-0.36777777777777776,-0.09591812055147154,-0.021760374418766684,-0.0002999532328663208
1592167825.0895042,-0.03,8.33,5.00214422111542,-0.4777777777777778,-0.46,-0.36777777777777776,-0.09231533176392513,-0.01905828282810687,-0.014711108383051995
1592167825.0995042,-0.27,8.34,5.11,-0.48444444444444446,-0.43333333333333335,-0.3388888888888889,-0.0839939702522271,-0.006544984694978735,-0.0370882466048795
1592167825.1095042,-0.2862438053897631,8.299390486525592,5.053146681135829,-0.48444444444444446,-0.43333333333333335,-0.3388888888888889,-0.07513434878020941,-0.009202871136584044,-0.04771979237130074
1592167825.1195042,-0.22002102705481053,8.35004906312789,4.859971963926919,-0.48444444444444446,-0.43333333333333335,-0.3388888888888889,-0.06544373042748,-0.020740311607912617,-0.04472788490879679
1592167825.1295042,-0.24941895238540254,8.418644222232606,4.820774730152797,-0.48444444444444446,-0.43333333333333335,-0.3388888888888889,-0.05689222058957545,-0.041050147472935936,-0.05007257855748713
1592167825.1395042,-0.2986383532473678,8.371361646752632,4.82,-0.48444444444444446,-0.43333333333333335,-0.3388888888888889,-0.07087152413839311,-0.05206281232129838,-0.06432653944341438
1592167825.1495042,-0.23015801006079684,8.429861741196802,4.800039502515199,-0.48444444444444446,-0.4455314151296005,-0.32447297403875497,-0.0850632557549409,-0.06542830167000468,-0.07198621353285302
1592167825.1595042,-0.1120282166248034,8.538140801427263,4.750845090260334,-0.48444444444444446,-0.44555555555555554,-0.3244444444444444,-0.0925915574464042,-0.07939096600005141,-0.0505469561828214
1592167825.1695042,-0.2139433810888252,8.360461432664756,4.882291575931232,-0.48444444444444446,-0.44555555555555554,-0.3244444444444444,-0.15456678363680815,-0.08581526383470221,-0.051208985446913796
1592167825.1795042,-0.4707944748525923,8.257113157462003,5.085062369329794,-0.48444444444444446,-0.44555555555555554,-0.3244444444444444,-0.21693828319700825,-0.07300353429040471,-0.09787800725683374
1592167825.1895041,-0.5071677511856182,8.258583875592809,5.117167751185618,-0.48444444444444446,-0.44555555555555554,-0.3244444444444444,-0.2167568709819025,-0.06356763148798554,-0.12579250766953642
1592167825.1995041,-0.38,8.28,5.1,-0.4777777777777778,-0.4266666666666667,-0.3022222222222222,-0.17016960206944715,-0.0818123086872342,-0.09708393964218458
1592167825.2095041,-0.10944075829383887,8.24618009478673,5.116909952606635,-0.4777777777777778,-0.4266666666666667,-0.3022222222222222,-0.12405485998476282,-0.1011805003628016,-0.06019214597443713
1592167825.219504,-0.0178958066155298,8.301315120865295,5.070526048346117,-0.4777777777777778,-0.4266666666666667,-0.3022222222222222,-0.07104801259187257,-0.0908551155955167,-0.05623544542014329
1592167825.229504,0.05657901609047628,8.348973704827143,5.092052590345714,-0.4777777777777778,-0.4266666666666667,-0.3022222222222222,-0.035474975784692345,-0.06113247452691659,-0.038440297406221305
1592167825.239504,-0.027676020971856743,8.323697193708442,5.1426056125831145,-0.4777777777777778,-0.4266666666666667,-0.3022222222222222,-0.022607857463576183,-0.03539823788468427,-0.04487385656677939
1592167825.249504,-0.24,8.24,5.17,-0.4922222222222222,-0.40444444444444444,-0.3022222222222222,-0.009817477042468103,-0.0032724923474893677,-0.04145156973486533
1592167825.259504,-0.2738098197638285,8.32452454940957,5.077022995649472,-0.4922222222222222,-0.40444444444444444,-0.3022222222222222,0.019687156676764805,0.003181646278592833,-0.016557035034262556
1592167825.269504,-0.2240943567588797,8.414540857654828,4.827059819828665,-0.4922222222222222,-0.40444444444444444,-0.3022222222222222,0.04338418696622218,0.007412502958119772,-0.006917172227237769
1592167825.279504,-0.2941109402720284,8.318097457125962,4.948958013010053,-0.4922222222222222,-0.40444444444444444,-0.3022222222222222,0.020471313591809242,0.016730596161429738,-0.027766139624206005
1592167825.289504,-0.15896446659537117,8.302164692588633,4.983505922234105,-0.4922222222222222,-0.40444444444444444,-0.3022222222222222,-0.003678062435632387,0.020872090325800546,-0.03116183003033294
1592167825.299504,-0.10198268398268398,8.381077922077923,4.9719826839826835,-0.4922222222222222,-0.4004405964405965,-0.2781991341991342,0.001974828715324752,0.020833923503446383,-0.025737939813500792
1592167825.309504,-0.07408148613479315,8.415918513865208,4.995918513865207,-0.4922222222222222,-0.4,-0.27555555555555555,0.04096944269512782,0.029207598695651316,-0.00718305658229022
1592167825.319504,0.026806151732934352,8.261589933527926,5.0,-0.4922222222222222,-0.4,-0.27555555555555555,0.05266567620618255,0.04974310377268393,0.0157965108259365
1592167825.329504,0.05768259800997399,8.160428308955117,5.035365196019948,-0.4922222222222222,-0.4,-0.27555555555555555,0.0688816861213585,0.07068416367243058,0.054228259416451624
1592167825.339504,-0.028017720467535548,8.267356960623381,5.025330379922077,-0.4922222222222222,-0.4,-0.27555555555555555,0.12771136053953702,0.09948908312233049,0.07570703906076096
1592167825.349504,-0.15964899439918534,8.50929798879837,4.91129200610998,-0.4922222222222222,-0.41711144348268836,-0.2765621110545372,0.18195122713047474,0.13082311635673524,0.08872959353949
1592167825.359504,-0.17,8.411103995120463,4.890854153470805,-0.4922222222222222,-0.41888888888888887,-0.27666666666666667,0.1854412330243975,0.13308135546456762,0.08944812416470939
1592167825.369504,-0.26605188765274485,8.37380403064016,4.820144081707094,-0.4922222222222222,-0.41888888888888887,-0.27666666666666667,0.12067039491295783,0.1197461829122124,0.07516043928718594
1592167825.379504,-0.2715450045318274,8.319270027190964,4.784635013595482,-0.4922222222222222,-0.41888888888888887,-0.27666666666666667,0.10665325515336313,0.09475230120324041,0.06109580230794659
1592167825.389504,-0.3540090447476992,8.457015828308473,4.716993216439226,-0.4922222222222222,-0.41888888888888887,-0.27666666666666667,0.11802920617134455,0.08213865351213887,0.03981326808420187
1592167825.399504,-0.3809993288590604,8.583004697986578,4.6179946308724835,-0.46121991051454136,-0.40488784489187174,-0.2896676360924683,0.056500056245181535,0.06872160719608042,0.016906778976900606
1592167825.409504,-0.2468166799589837,8.59,4.636636664008203,-0.4577777777777778,-0.4033333333333333,-0.2911111111111111,-0.05454601330827612,0.06666297208000815,0.018177240259266737
1592167825.419504,-0.3223664693474859,8.413664013063892,4.698778662312036,-0.4577777777777778,-0.4033333333333333,-0.2911111111111111,-0.0951104688878947,0.0720364698069067,0.03777939556361986
1592167825.429504,-0.34,8.363373459512287,4.917831756096398,-0.4577777777777778,-0.4033333333333333,-0.2911111111111111,-0.07587183005960732,0.07489933664430452,0.0895139364864776
1592167825.439504,-0.23079961634075208,8.44872531172314,4.912224832149079,-0.4577777777777778,-0.4033333333333333,-0.2911111111111111,-0.06420354923974854,0.08420125948895026,0.08735368721158443
1592167825.449504,-0.4277061265150257,8.447292047152581,4.855833637722065,-0.47486095891674507,-0.39858800523917576,-0.2711807331156493,-0.10394670147330282,0.11071912520143101,0.019385528191917085
1592167825.459504,-0.53820633911543,8.30358732176914,4.943783716283717,-0.4777777777777778,-0.3977777777777778,-0.2677777777777778,-0.12428501531162657,0.12755750765911594,-0.004293629237016407
1592167825.4695039,-0.648487144516846,8.19941960903167,4.96,-0.4777777777777778,-0.3977777777777778,-0.2677777777777778,-0.09039988049678299,0.1229722298222231,0.016894900887381843
1592167825.4795039,-0.597855414895366,8.287655776592997,4.9333666063837285,-0.4777777777777778,-0.3977777777777778,-0.2677777777777778,-0.055186271178314664,0.10958361988004778,0.051592732243807345
1592167825.4895039,-0.5294756127351193,8.360524387264881,4.884606709551339,-0.4777777777777778,-0.3977777777777778,-0.2677777777777778,-0.06694923964839716,0.10634170084914243,0.05233127667130583
1592167825.4995039,-0.6976549659863945,8.371841088435374,4.935271292517007,-0.46145995464852607,-0.3977777777777778,-0.2505534089191232,-0.11827478945383912,0.1138205785998804,0.022789072740980784
1592167825.5095038,-0.8952611446226277,8.300995046834387,5.027630572311314,-0.4577777777777778,-0.3977777777777778,-0.24666666666666667,-0.16070894133413666,0.10527806297418012,0.006953370855224822
1592167825.5195038,-0.8928685913389747,8.29904380288701,4.967649576903932,-0.4577777777777778,-0.3977777777777778,-0.24666666666666667,-0.17961764095143212,0.07304662273922796,0.023211619356444745
1592167825.5295038,-0.7504454541766401,8.281797233153474,5.075284190027993,-0.4577777777777778,-0.3977777777777778,-0.24666666666666667,-0.18968223653562313,0.05459013063762985,0.03898840487937544
1592167825.5395038,-0.5891463609491092,8.250676280258848,5.201529919309739,-0.4577777777777778,-0.3977777777777778,-0.24666666666666667,-0.19244818895673454,0.04121091069469085,0.05010444526244237
1592167825.5495038,-0.46393987547022963,8.232176352315475,5.253470943053574,-0.46386283708796355,-0.3812611882215592,-0.2240650178002623,-0.16785284247752616,0.04951103904069626,0.02993335746311709
1592167825.5595038,-0.6230060915143788,8.205044623884403,5.251681541294801,-0.46555555555555556,-0.37666666666666665,-0.21777777777777776,-0.12696163869895993,0.06324871454209795,-0.011390442977449178
1592167825.5695038,-0.8006814355935628,8.293787623729042,5.007715305366642,-0.46555555555555556,-0.37666666666666665,-0.21777777777777776,-0.10464542202748507,0.047546222228141435,-0.019396676860613367
1592167825.5795038,-0.68664714703992,8.312332357351996,4.97833821324002,-0.46555555555555556,-0.37666666666666665,-0.21777777777777776,-0.12293950368966253,0.007413177872935099,0.014657858496527926
1592167825.5895038,-0.5593396772699197,8.322409280420013,5.021023201050031,-0.46555555555555556,-0.37666666666666665,-0.21777777777777776,-0.1541744282444823,-0.010717526136418382,0.01764407420848947
1592167825.5995038,-0.45681308188111724,8.223626163762233,5.275542065955052,-0.4478265828492613,-0.37244548268897754,-0.21271235700455085,-0.1856553220041495,-0.02273107877768985,0.005630521567218005
1592167825.6095037,-0.41535094811112744,8.185070189622225,5.364789431133324,-0.44222222222222224,-0.3711111111111111,-0.2111111111111111,-0.18229124467776472,-0.025089107997418484,4.593900032121663e-05
1592167825.6195037,-0.2857426842820101,8.162623780713668,5.336559451784171,-0.44222222222222224,-0.3711111111111111,-0.2111111111111111,-0.11183992105388424,-0.008977770348620202,-0.0032724923474893677
1592167825.6295037,-0.24251204014731476,8.181990367882149,5.324502408029463,-0.44222222222222224,-0.3711111111111111,-0.2111111111111111,-0.06955490952379746,0.005448900407155594,-0.00627096362302295
1592167825.6395037,-0.2938396863428447,8.267126987584405,5.299861903724679,-0.44222222222222224,-0.3711111111111111,-0.2111111111111111,-0.027897563638696665,0.02845198414574899,-0.007262162572105136
1592167825.6495037,-0.36675198467013415,8.3,5.223846427593759,-0.4577397268607233,-0.37519466496334825,-0.22254506189737505,-0.023131196639193875,0.04051921250732942,-0.01456302393418277
1592167825.6595037,-0.4098512710198228,8.2328346402054,5.222388453264868,-0.4633333333333333,-0.37666666666666665,-0.22666666666666666,-0.01992794154928864,0.03684393058547504,-0.007684486922423163
1592167825.6695037,-0.3981970482648584,8.166394096529718,5.23,-0.4633333333333333,-0.37666666666666665,-0.22666666666666666,0.01078865147666519,0.0230149195888981,0.009113897714467797
1592167825.6795037,-0.36068975524813773,8.303878784947276,5.156724388120344,-0.4633333333333333,-0.37666666666666665,-0.22666666666666666,0.052190507006873825,0.013748245719764272,0.01737805189423758
1592167825.6895037,-0.27147639065402285,8.390201388209992,5.123959722358002,-0.4633333333333333,-0.37666666666666665,-0.22666666666666666,0.048772559654017514,0.005410217820744227,0.015249662909081356
1592167825.6995037,-0.17478215551386284,8.293725542749934,5.19105661276393,-0.44969620563116497,-0.36877148747067445,-0.2359973329892029,0.025177046260267826,0.00038618768701622654,0.01661318486735862
1592167825.7095037,-0.11467359364348009,8.23,5.173477749829568,-0.44222222222222224,-0.36444444444444446,-0.2411111111111111,0.048281397710879595,0.0,0.023168339081080194
1592167825.7195036,-0.1072139778626702,8.287711822901363,5.049004309922617,-0.44222222222222224,-0.36444444444444446,-0.2411111111111111,0.09098959446382636,0.0031476916467394547,0.02981064546752767
1592167825.7295036,-0.12418375870069606,8.302908120649652,5.052551276102088,-0.44222222222222224,-0.36444444444444446,-0.2411111111111111,0.09325484519333414,0.004363323129985824,0.03550211284295252
1592167825.7395036,-0.11860005814516911,8.265800174435508,5.041500145362923,-0.44222222222222224,-0.36444444444444446,-0.2411111111111111,0.08136510929366186,0.009959256502249502,0.021543987237480397
1592167825.7495036,-0.10293888491779843,8.317672265904218,5.132977841315225,-0.438299380509888,-0.3691518544992455,-0.2214969025494401,0.07218633131608927,0.013410552003412379,0.0028852435210941826
1592167825.7595036,-0.05505570823739137,8.356914506425015,5.186914506425016,-0.43666666666666665,-0.3711111111111111,-0.21333333333333335,0.06147580529454745,0.009695818985577483,0.0
1592167825.7695036,0.06274729416832696,8.219362446825697,5.1803516234990035,-0.43666666666666665,-0.3711111111111111,-0.21333333333333335,0.04006105564763046,0.006130232869271586,0.02000418365247553
1592167825.7795036,0.07322942817294283,8.187394002789402,5.109064853556485,-0.43666666666666665,-0.3711111111111111,-0.21333333333333335,0.058120057430330524,0.013544254008720988,0.023157713745843522
1592167825.7895036,-0.059670572628786195,8.260740658854743,5.051810745080699,-0.43666666666666665,-0.3711111111111111,-0.21333333333333335,0.08116137959549023,0.03296730351831816,0.0005701357439358012
1592167825.7995036,-0.24801366671843453,8.344006833359217,4.985993166640783,-0.44015927248882675,-0.365522941795655,-0.20844368518230919,0.06488469529729346,0.04375757821620432,-0.038182804406666986
1592167825.8095036,-0.2766254416961131,8.323250883392227,5.006749116607773,-0.44222222222222224,-0.3622222222222222,-0.20555555555555555,0.0031915473070921047,0.027243787882278978,-0.03706126492474708
1592167825.8195035,-0.28631984270031136,8.256960511223989,5.028159921350156,-0.44222222222222224,-0.3622222222222222,-0.20555555555555555,-0.02316911712971786,0.010445915684325804,-0.0260491034312688
1592167825.8295035,-0.25347195805274253,8.187066005243407,5.082396031460443,-0.44222222222222224,-0.3622222222222222,-0.20555555555555555,-0.020960515636750002,-0.02073910272641806,-0.004800737694261956
1592167825.8395035,-0.12904947366487243,8.223650175445043,5.088783274851652,-0.44222222222222224,-0.3622222222222222,-0.20555555555555555,0.011860182080247188,-0.02801527114050788,0.01040021671002665
1592167825.8495035,-0.03888053261003575,8.227761065220072,5.113358402169893,-0.4459287113522103,-0.35419149577391473,-0.20555555555555555,0.04024682776105158,-0.021568283873344272,0.03249299921346905
1592167825.8595035,-0.10656610593632698,8.178097455859865,5.127238982343945,-0.4488888888888889,-0.3477777777777778,-0.20555555555555555,0.06330867639256957,-0.006223558886067121,0.04641725347489924
1592167825.8695035,-0.11188531711555169,8.267991601505937,5.024713292788879,-0.4488888888888889,-0.3477777777777778,-0.20555555555555555,0.08862549938694489,0.008610392067107848,0.03483060913395251
1592167825.8795035,-0.18404664532261455,8.430316421677455,4.926111565516114,-0.4488888888888889,-0.3477777777777778,-0.20555555555555555,0.07081771023576522,0.0182843592007913,-8.629062650441707e-05
1592167825.8895035,-0.33543712783234086,8.474930979815946,4.995437127832341,-0.4488888888888889,-0.3477777777777778,-0.20555555555555555,-0.029838916413152318,0.014150684435902134,-0.02896473756454702
1592167825.8995035,-0.3783015388979505,8.184274874122403,5.233606836394582,-0.4571861727694647,-0.3445865147467871,-0.2106615764051407,-0.20179742873153572,-0.0048962451398161955,-0.0276663030558448
1592167825.9095035,-0.2949754931745453,7.912463239761818,5.368140316765909,-0.4633333333333333,-0.3422222222222222,-0.21444444444444444,-0.2411616665177951,-0.018171322260923058,-0.01254188071875052
1592167825.9195035,-0.21879722148009617,7.8628578680203045,5.336540742719744,-0.4633333333333333,-0.3422222222222222,-0.21444444444444444,-0.03346224698002753,-0.022718773216131638,-0.00705353391097027
1592167825.9295034,-0.4218663678659294,8.293732735731858,5.196061676369571,-0.4633333333333333,-0.3422222222222222,-0.21444444444444444,0.08331031777365425,-0.013530786935121435,-0.01777549586850618
1592167825.9395034,-0.5298706099815157,8.403836330028566,5.198017139976475,-0.4633333333333333,-0.3422222222222222,-0.21444444444444444,0.07428940730184735,-0.013278037342039703,-0.023687946763776595
1592167825.9495034,-0.7062362698236839,8.113190465638947,5.383404767180526,-0.45905616578561403,-0.3457865285119883,-0.20517724809105267,-0.022230973200812517,-0.02943285273312507,-0.04003229153370196
1592167825.9595034,-0.8393055611403756,8.071721018135028,5.433448067875668,-0.45666666666666667,-0.3477777777777778,-0.2,-0.01527294684716458,-0.04393360562928587,-0.04510018794024633
1592167825.9695034,-0.9380763196518043,8.22841414039172,5.3101907991295105,-0.45666666666666667,-0.3477777777777778,-0.2,0.05874790937689793,-0.08869849889115668,-0.05077088839047899
1592167825.9795034,-0.7895624195624196,8.26,5.153017303017303,-0.45666666666666667,-0.3477777777777778,-0.2,0.07635815477475191,-0.1372030516987881,-0.05782994234601653
1592167825.9895034,-0.592547324958886,8.279636096434444,5.075636831239722,-0.45666666666666667,-0.3477777777777778,-0.2,0.07475168039184482,-0.16880090123913324,-0.05731823573245991
1592167825.9995034,-0.29715778513257224,8.28567104235618,5.059105276858428,-0.4529517517219722,-0.34194005429325797,-0.2068991277544325,0.06735449079830753,-0.1833083710366365,-0.059751695151145534
1592167826.0095034,-0.12520678891923528,8.265891533359344,5.079315255559891,-0.4488888888888889,-0.33555555555555555,-0.21444444444444444,0.06123591188248443,-0.18074955408142065,-0.06582331710649458
1592167826.0195034,-0.06542990232907589,8.21,5.0102710743801655,-0.4488888888888889,-0.33555555555555555,-0.21444444444444444,0.0887375351927667,-0.14308133152930944,-0.07268093224422119
1592167826.0295033,-0.10094107621134649,8.246401266130997,4.954539810080351,-0.4488888888888889,-0.33555555555555555,-0.21444444444444444,0.11791689524756156,-0.12147252020136727,-0.07397795510167132
1592167826.0395033,-0.3038162005936572,8.40574558662709,4.93,-0.4488888888888889,-0.33555555555555555,-0.21444444444444444,0.1452909574396873,-0.08313750363683396,-0.06844481735862722
1592167826.0495033,-0.40737640079103493,8.382623599208966,4.934344100197759,-0.4459928220903831,-0.3408650113528162,-0.20816963304768182,0.11299122940512894,-0.06777460365368389,-0.05601707291894457
1592167826.0595033,-0.4181167883211679,8.36,4.969708029197081,-0.44222222222222224,-0.3477777777777778,-0.2,0.05936508137326333,-0.06589254907757423,-0.03892275326391004
1592167826.0695033,-0.3493013485125703,8.34896388154774,4.95137358541709,-0.44222222222222224,-0.3477777777777778,-0.2,0.026892301472258805,-0.06785755449518781,-0.028511435270442875
1592167826.0795033,-0.18976533738688453,8.319002921407026,4.956744887537705,-0.44222222222222224,-0.3477777777777778,-0.2,0.005591702795561244,-0.07840226745666586,-0.01707261711231865
1592167826.0895033,-0.03828285209192693,8.3,5.007239049302691,-0.44222222222222224,-0.3477777777777778,-0.2,0.0025195598450944456,-0.08570550967621128,-0.0069967441964156885
1592167826.0995033,0.025287494097562747,8.295287494097563,5.091262576731684,-0.44222222222222224,-0.3477777777777778,-0.19005137642818803,0.01643746601158384,-0.07840209058332634,-0.005842765598026766
1592167826.1095033,0.00805289753789915,8.282035265025266,5.15402644876895,-0.44222222222222224,-0.3477777777777778,-0.17888888888888888,0.028998788135608126,-0.06677711627195834,-0.011115895233309763
1592167826.1195033,-0.0773562091503268,8.255336601307189,5.097980392156863,-0.44222222222222224,-0.3477777777777778,-0.17888888888888888,0.05520245424598241,-0.04261048832110584,-0.023054316459349935
1592167826.1295033,-0.13753750221906622,8.276522501331439,5.092030001775253,-0.44222222222222224,-0.3477777777777778,-0.17888888888888888,0.07637451820473966,-0.031791990109275976,-0.027492208404908236
1592167826.1395032,-0.17498946495803255,8.29,5.158715761113606,-0.44222222222222224,-0.3477777777777778,-0.17888888888888888,0.08944582577509479,-0.029179148834376546,-0.029043656882669962
1592167826.1495032,-0.20430129286115797,8.279246767847104,5.242150646430579,-0.4395936543626257,-0.34658297420523393,-0.18199537817750294,0.09537147634293999,-0.03124705930852327,-0.02695400554766285
1592167826.1595032,-0.19500178584184585,8.23000071433674,5.25499964283163,-0.43,-0.3422222222222222,-0.19333333333333333,0.10580996252575363,-0.03708801283872853,-0.02181661564992912
1592167826.1695032,-0.13075701503724177,8.234716119361035,5.181514030074483,-0.43,-0.3422222222222222,-0.19333333333333333,0.13273040095975733,-0.04303620495202026,-0.020211336050138286
1592167826.1795032,-0.07087335417258692,8.307379937482239,5.023493416690347,-0.43,-0.3422222222222222,-0.19333333333333333,0.16257904413509341,-0.04685808956657363,-0.01645772989899479
1592167826.1895032,-0.046187494015129754,8.37762501196974,4.94,-0.43,-0.3422222222222222,-0.19333333333333333,0.17744408442015686,-0.047164794652494374,-0.014596680061128771
1592167826.1995032,-0.019662269129287598,8.39,4.923051890941073,-0.4322597478745236,-0.34410534545099186,-0.19333333333333333,0.18216874067690814,-0.043596390576860995,-0.015271630954950384
1592167826.2095032,0.02,8.39,4.89,-0.43666666666666665,-0.3477777777777778,-0.19333333333333333,0.18216874067690814,-0.039269908169872414,-0.015271630954950384
1592167826.2195032,-0.03356203227315248,8.413562032273152,4.85150374181478,-0.43666666666666665,-0.3477777777777778,-0.19333333333333333,0.18505267557921745,-0.02486458333828736,-0.015660188400130438
1592167826.2295032,-0.05380967786661737,8.406190322133384,4.827619355733235,-0.43666666666666665,-0.3477777777777778,-0.19333333333333333,0.1838482681847922,-0.01452705084556876,-0.01535819362322909
1592167826.2395031,-0.09340889056793855,8.39,4.876720636119956,-0.43666666666666665,-0.3477777777777778,-0.19333333333333333,0.18143563300114757,-0.005804812434302654,-0.0119920740225455
1592167826.2495031,-0.14588526996469237,8.391961756654897,4.911961756654898,-0.43666666666666665,-0.3477777777777778,-0.18919184706188316,0.1778054175469223,0.004535600566615268,-0.005923859839931661
1592167826.2595031,-0.15465966981132076,8.410226886792453,4.863752122641509,-0.43666666666666665,-0.3477777777777778,-0.17222222222222222,0.18282552886196363,0.019200911487495222,0.009457682974231949
1592167826.269503,-0.088409166243122,8.448140454776478,4.744338938854883,-0.43666666666666665,-0.3477777777777778,-0.17222222222222222,0.19222736573493532,0.02757953255034584,0.023080979475609276
1592167826.279503,-0.025728558143971007,8.492814325568087,4.657185674431913,-0.43666666666666665,-0.3477777777777778,-0.17222222222222222,0.19371283542209833,0.036759454980817466,0.03224808328472444
1592167826.289503,-0.01359316337111596,8.506796581685558,4.64,-0.43666666666666665,-0.3477777777777778,-0.17222222222222222,0.18312270568131686,0.04503098622250074,0.037045732014364924
1592167826.299503,0.0,8.506317567567567,4.628944256756757,-0.43666666666666665,-0.34812875375375374,-0.17327515015015016,0.1695375835586426,0.04816883935917416,0.03875305338188212
1592167826.309503,-0.021464261993562564,8.550732130996781,4.543169672508046,-0.43666666666666665,-0.35,-0.17888888888888888,0.15391330865778866,0.04674599744172584,0.03131464028115369
1592167826.319503,-0.03912884390813546,8.561161541455819,4.516805760996497,-0.43666666666666665,-0.35,-0.17888888888888888,0.1480203870610402,0.04459735756483934,0.027096550850827787
1592167826.329503,0.024405405405405405,8.653216216216217,4.3352432432432435,-0.43666666666666665,-0.35,-0.17888888888888888,0.10526222231960396,0.0307113088142313,0.012388299859594887
1592167826.339503,0.03,8.648166285225109,4.43822323939971,-0.43666666666666665,-0.35,-0.17888888888888888,0.061371032856505345,0.022013536533863776,0.004360216761643489
1592167826.349503,0.017676275932289674,8.578310423825886,4.5752106401934585,-0.4345149053215109,-0.3511736880064486,-0.18104065023404464,0.021770661088518106,0.017967990549523284,-0.0040406693513779885
1592167826.359503,-0.05206707271223401,8.442067072712234,4.735977642429256,-0.42444444444444446,-0.3566666666666667,-0.19111111111111112,-0.015058342463729116,0.018343028974413547,-0.008074586623112787
1592167826.369503,-0.09582704888783157,8.46,4.699868442964196,-0.42444444444444446,-0.3566666666666667,-0.19111111111111112,-0.012136520745263708,0.026663838425477246,-0.009196195259103106
1592167826.379503,-0.15462878511492156,8.468209595038308,4.6846287851149215,-0.42444444444444446,-0.3566666666666667,-0.19111111111111112,-0.006544984694978735,0.03432067638628192,-0.006235365450621843
1592167826.389503,-0.17857416777629828,8.462861251664448,4.748564580559254,-0.42444444444444446,-0.3566666666666667,-0.19111111111111112,-0.007791349645504113,0.04036021605079537,0.0017134903561856448
1592167826.399503,-0.14409069928456034,8.423282944841912,4.8193434110316185,-0.42561171372156836,-0.35717734697540837,-0.19067338513218968,-0.010335325858437458,0.04595813835648293,0.00994423293884174
1592167826.409503,-0.06819460563576435,8.478194605635764,4.793610788728471,-0.44222222222222224,-0.36444444444444446,-0.18444444444444444,0.0036286416856490433,0.04933739364153067,0.02905855517799354
1592167826.419503,-0.0640884563499711,8.493977885912507,4.69839805357487,-0.44222222222222224,-0.36444444444444446,-0.18444444444444444,0.013734818768509769,0.0486655265357603,0.031200172652135035
1592167826.429503,-0.043892309105945056,8.519461545529726,4.58221538178811,-0.44222222222222224,-0.36444444444444446,-0.18444444444444444,0.012965781267241941,0.04302572184725224,0.02926950673357393
1592167826.439503,-0.04169356438321583,8.544462376255478,4.583844059361307,-0.44222222222222224,-0.36444444444444446,-0.18444444444444444,0.0018972355571868866,0.034924189554201006,0.025760616951809215
1592167826.449503,-0.018661188277216204,8.53,4.6226776234455675,-0.44103216735752554,-0.3631056327216607,-0.18399817387018316,-0.014331323873260197,0.019849534643924856,0.02152453224209318
1592167826.459503,0.0038722412480974126,8.510638793759513,4.667744482496195,-0.42444444444444446,-0.34444444444444444,-0.17777777777777778,-0.03670284463320981,0.007213419482407476,0.014918916549537004
1592167826.469503,0.006200887719875062,8.472401775439751,4.698995561400625,-0.42444444444444446,-0.34444444444444444,-0.17777777777777778,-0.04721057525514705,0.00322963379792227,0.009665051238568385
1592167826.479503,-0.011143328393173016,8.448856671606828,4.767144427977244,-0.42444444444444446,-0.34444444444444444,-0.17777777777777778,-0.05126904677733343,0.0022753498329450505,0.006420266914401202
1592167826.489503,-0.03,8.427288652469981,4.840845390120077,-0.42444444444444446,-0.34444444444444444,-0.17777777777777778,-0.049494473968659004,0.013662384794596031,0.005546371669102109
1592167826.499503,-0.03,8.420021139084781,4.869915443660874,-0.42444444444444446,-0.34444444444444444,-0.17777777777777778,-0.04473789758099083,0.023968300301210395,0.008717422594214222
1592167826.509503,-0.12334319876879365,8.433372795075174,4.863284006156031,-0.4177777777777778,-0.3566666666666667,-0.17,-0.02071287104261324,0.03818230584358081,0.008371645215685775
1592167826.5195029,-0.1266932108950905,8.46661357820982,4.773784585216539,-0.4177777777777778,-0.3566666666666667,-0.17,-0.010556279668717347,0.03783573580956745,0.014180800172453926
1592167826.5295029,-0.12,8.49983276086699,4.6566945398555015,-0.4177777777777778,-0.3566666666666667,-0.17,-0.005832966639508172,0.030200935101739847,0.014901939707640734
1592167826.5395029,-0.11014265129682997,8.537535662824206,4.664786023054755,-0.4177777777777778,-0.3566666666666667,-0.17,-0.004063383959856305,0.022669750632594122,0.017168914192388293
1592167826.5495028,-0.07967304432065876,8.529782029547105,4.710326955679341,-0.41780199671698826,-0.3566222652781142,-0.1700766933074998,-0.009896733335698652,0.015228039993673581,0.019634954084936207
1592167826.5595028,0.006906258090329262,8.463812516180658,4.80309374190967,-0.42444444444444446,-0.34444444444444444,-0.19111111111111112,-0.03332146714648133,0.0022600676750389043,0.019634954084936207
1592167826.5695028,0.015169648662316085,8.456067859464927,4.767524983745514,-0.42444444444444446,-0.34444444444444444,-0.19111111111111112,-0.0370882466048795,0.0009928511832306341,0.018311152507295363
1592167826.5795028,0.0346416180878431,8.473071676382432,4.682286705529726,-0.42444444444444446,-0.34444444444444444,-0.19111111111111112,-0.0357479749441501,0.008633578990406976,0.01225601971830923
1592167826.5895028,-0.0043085506948723215,8.48,4.718617101389745,-0.42444444444444446,-0.34444444444444444,-0.19111111111111112,-0.033664903420076324,0.02213575478520663,0.004514173967299635
1592167826.5995028,-0.0186657082220853,8.48,4.747331416444171,-0.42444444444444446,-0.34444444444444444,-0.19111111111111112,-0.03679714929604325,0.026834123599157017,0.0013819280913327115
1592167826.6095028,-0.06925897309826508,8.476172648732177,4.77,-0.42444444444444446,-0.3566666666666667,-0.17777777777777778,-0.03465075277306383,0.029950763880748202,-0.001090830782496456
1592167826.6195028,-0.1048610146766586,8.481083391194005,4.755138985323341,-0.42444444444444446,-0.3566666666666667,-0.17777777777777778,-0.03422782905534616,0.024234636507703244,-0.0017392648732336888
1592167826.6295028,-0.13115145835773692,8.448201944476983,4.743596111046035,-0.42444444444444446,-0.3566666666666667,-0.17777777777777778,-0.04486512770070729,0.017061017657314256,-0.002950750294036624
1592167826.6395028,-0.08901634698829322,8.41790163469883,4.816786922409365,-0.42444444444444446,-0.3566666666666667,-0.17777777777777778,-0.05563236990731925,0.009763827093244849,-0.0010371808332732008
1592167826.6495028,-0.014732302569824482,8.410473230256983,4.8762141579441405,-0.42444444444444446,-0.3566666666666667,-0.17777777777777778,-0.05563236990731925,0.005712260978244861,0.003014385281726786
1592167826.6595027,-0.03,8.44,4.87,-0.43666666666666665,-0.35,-0.17777777777777778,-0.03599741582238304,0.008726646259971648,0.004363323129985824
1592167826.6695027,-0.05382802177474764,8.46,4.840859891126262,-0.43666666666666665,-0.35,-0.17777777777777778,-0.022907446432425576,0.019634954084936207,0.004363323129985824
1592167826.6795027,-0.07262028503453215,8.452139144896405,4.767860855103597,-0.43666666666666665,-0.35,-0.17777777777777778,-0.022907446432425576,0.019634954084936207,0.005220809402360559
1592167826.6895027,-0.07633872474493067,8.437322550510139,4.7863387247449305,-0.43666666666666665,-0.35,-0.17777777777777778,-0.021908988494570028,0.019634954084936207,0.007236432302332973
1592167826.6995027,-0.060973018518857725,8.468053962962285,4.770973018518857,-0.43666666666666665,-0.35,-0.17777777777777778,-0.017718642158020576,0.019634954084936207,0.005560293767713192
1592167826.7095027,-0.03,8.48,4.76,-0.43666666666666665,-0.35,-0.18444444444444444,-0.02399827721492203,0.015271630954950384,0.006544984694978735
1592167826.7195027,-0.06811292831935643,8.456854880532262,4.717548286722574,-0.43666666666666665,-0.35,-0.18444444444444444,-0.02762087189453127,0.004562147698672171,0.0005419038816902352
1592167826.7295027,-0.052197093310059575,8.4303284888501,4.781211626759761,-0.43666666666666665,-0.35,-0.18444444444444444,-0.039773909824624316,-0.002961161496147331,-0.004087824853583305
1592167826.7395027,-0.03825006249776794,8.403000249991072,4.8527491875290165,-0.43666666666666665,-0.35,-0.18444444444444444,-0.04966005092080442,-0.010444643385363373,-0.00801759261645113
1592167826.7495027,-0.030760508553265953,8.373042034213062,4.950113388807543,-0.43666666666666665,-0.35,-0.18444444444444444,-0.052111001717753576,-0.017797495776210835,-0.009651559814417234
1592167826.7595026,-0.07,8.41,4.97,-0.43666666666666665,-0.34444444444444444,-0.18444444444444444,-0.03599741582238304,-0.014180800172453926,-0.01308996938995747
1592167826.7695026,-0.08,8.41,4.89485042222755,-0.43666666666666665,-0.34444444444444444,-0.18444444444444444,-0.011437406812356218,-0.01685236067354284,-0.014030567210853813
1592167826.7795026,-0.08,8.414502233717377,4.8045022337173755,-0.43666666666666665,-0.34444444444444444,-0.18444444444444444,0.0003825217561756911,-0.011125499338394608,-0.013335528146402828
