time,acc_x,acc_y,acc_z,mag_x,mag_y,mag_z,gyr_x,gyr_y,gyr_z
1592167827.8395016,-0.08274263111492364,8.430970524459696,4.810801582195535,-0.43,-0.35,-0.19111111111111112,0.013987493323514852,-0.001090830782496456,0.010609133180445433
1592167827.8495016,-0.0744986351886332,8.42,4.835501364811367,-0.43,-0.35,-0.19111111111111112,0.01308996938995747,0.00010938083389988693,0.012108519441360903
1592167827.8595016,-0.05802345176239293,8.425988274118803,4.84,-0.43,-0.35,-0.18711892836524208,0.015049627512802793,0.004356927653905326,0.013743188764239245
1592167827.8695016,-0.11435410174098462,8.43,4.8543009114979965,-0.43,-0.35,-0.18444444444444444,0.018702442909412663,0.008104972142955953,0.014180800172453926
1592167827.8795016,-0.15412205415145336,8.415877945848546,4.8246948646213665,-0.43,-0.35,-0.18444444444444444,0.018864715515911845,0.0064159305528985675,0.014951038741478288
1592167827.8895016,-0.18824896027534777,8.402937759931163,4.852373440413022,-0.43,-0.35,-0.18444444444444444,0.023166348618720085,-0.0007088131758915019,0.021434598043324163
1592167827.8995016,-0.18459769716907629,8.39486589905636,4.905938706605489,-0.43,-0.35,-0.18444444444444444,0.030689543347186453,-0.008312884162280541,0.029038669029713204
1592167827.9095016,-0.11128808330119552,8.39,4.956012340917856,-0.43,-0.3535582979817457,-0.1957123880533059,0.04531301815466284,-0.01832999570186486,0.039055780569297524
1592167827.9195015,-0.053133768802612814,8.403732462394775,4.963133768802613,-0.43,-0.3566666666666667,-0.20555555555555555,0.06318757359712801,-0.02590340497236455,0.045131210569827725
1592167827.9295015,-0.05,8.41,4.8790297369424325,-0.43,-0.3566666666666667,-0.20555555555555555,0.07867211544103407,-0.028742850485911905,0.045078852403100896
1592167827.9395015,-0.11554160489251297,8.41,4.879324962935508,-0.43,-0.3566666666666667,-0.20555555555555555,0.09400324227336339,-0.030167379128914047,0.044724062082354694
1592167827.9495015,-0.1744247532078468,8.41,4.90488495064157,-0.43,-0.3566666666666667,-0.20555555555555555,0.1056599866441371,-0.034806185534540506,0.04845412025391446
1592167827.9595015,-0.29637415849769694,8.41,4.877875280500768,-0.4365439243424362,-0.3530972533889742,-0.19425241350952938,0.11819600941527275,-0.039269908169872414,0.054696053087085
1592167827.9695015,-0.43492510825583874,8.449668133740328,4.782869312131752,-0.44222222222222224,-0.35,-0.18444444444444444,0.12492815616702782,-0.04259846365972903,0.049733234161116815
1592167827.9795015,-0.5471721487769207,8.572069628057697,4.533791115826905,-0.44222222222222224,-0.35,-0.18444444444444444,0.1280183815852108,-0.059973326486030806,0.024020643766196295
1592167827.9895015,-0.5333674129152186,8.587789137638406,4.482210862361594,-0.44222222222222224,-0.35,-0.18444444444444444,0.12183917742435098,-0.07244370943746638,0.020473464678351205
1592167827.9995015,-0.4919866497139224,8.552979974570883,4.5080133502860775,-0.44222222222222224,-0.35,-0.18444444444444444,0.0803240320101298,-0.11034736360904729,0.022358390315425213
1592167828.0095015,-0.5059647281125341,8.525994121352088,4.583947092168802,-0.438892154804395,-0.35,-0.18444444444444444,0.038848966121115644,-0.13503651447993026,0.006554603610129869
1592167828.0195014,-0.5575335756043609,8.533441696950545,4.640650181703271,-0.43666666666666665,-0.35,-0.18444444444444444,0.02235470598062179,-0.14559777261302523,-0.004129739875446667
1592167828.0295014,-0.727170160295931,8.487924373201809,4.64745273325113,-0.43666666666666665,-0.35,-0.18444444444444444,-0.011813970866741312,-0.16483896804211806,-0.021940135535082332
1592167828.0395014,-0.8274667465548233,8.441266626722589,4.6591408028759735,-0.43666666666666665,-0.35,-0.18444444444444444,-0.02785821036966593,-0.17425659011564656,-0.030222483151333204
1592167828.0495014,-0.8995797516714422,8.39640759312321,4.7523949379178605,-0.43666666666666665,-0.35,-0.18444444444444444,-0.042542400517361786,-0.19652600643081894,-0.051053641558344756
1592167828.0595014,-0.8513631937682571,8.414488802336903,4.776533592989289,-0.4429860434923726,-0.34712755598831546,-0.18444444444444444,-0.049874440333888596,-0.2141002361142898,-0.08582830789718462
1592167828.0695014,-0.8792496203962005,8.42418835410855,4.817312405099051,-0.4488888888888889,-0.34444444444444444,-0.18444444444444444,-0.06375930768702369,-0.22487484862834634,-0.11247166805744231
1592167828.0795014,-0.7293495714038685,8.453280304340307,4.794262987574418,-0.4488888888888889,-0.34444444444444444,-0.18444444444444444,-0.09263077609746485,-0.2392671207591474,-0.12762720155208535
1592167828.0895014,-0.5983492714568478,8.42,4.866602914172609,-0.4488888888888889,-0.34444444444444444,-0.18444444444444444,-0.1215219517567637,-0.2453468927862818,-0.13057936169687848
1592167828.0995014,-0.5450795847750864,8.42,4.983650519031142,-0.4488888888888889,-0.34444444444444444,-0.18444444444444444,-0.13758320278042757,-0.23482302931298274,-0.1178444499186102
1592167828.1095014,-0.4394800942379108,8.354436768757736,5.110606556722438,-0.44552667190210615,-0.34724629193343004,-0.18444444444444444,-0.12920200872815757,-0.20987622586545496,-0.0778195361089673
1592167828.1195014,-0.40025488001989307,8.253172945418376,5.174475941812756,-0.44222222222222224,-0.35,-0.18444444444444444,-0.12237390806343464,-0.1906111172215854,-0.059019194015301535
1592167828.1295013,-0.525079857097825,8.212779499842387,5.073993642954712,-0.44222222222222224,-0.35,-0.18444444444444444,-0.08627323005314476,-0.1259125558558832,-0.09816081553892197
1592167828.1395013,-0.5904532715974169,8.333711059664514,5.018314447016774,-0.44222222222222224,-0.35,-0.18444444444444444,-0.04565419901618072,-0.09703449538105523,-0.1240117007192344
1592167828.1495013,-0.7387388839152492,8.512815279021188,5.044174077389834,-0.44222222222222224,-0.35,-0.18444444444444444,0.03394266519772714,-0.08225697441355177,-0.11677217114820959
1592167828.1595013,-0.9420236821456595,8.44088879377987,5.10407019045581,-0.4489967583676122,-0.35312670899018,-0.18757115343462444,0.020746171319035066,-0.10595476947016864,-0.0703451630935351
1592167828.1695013,-1.164415148239654,8.298014978381717,5.163599830142063,-0.45666666666666667,-0.3566666666666667,-0.19111111111111112,-0.006226629201013588,-0.12798594103000718,-0.03197350344389975
1592167828.1795013,-0.7581300506410947,8.085447150091586,5.362764249542075,-0.45666666666666667,-0.3566666666666667,-0.19111111111111112,0.0022792145818523084,-0.15044596876617305,0.018748103134680092
1592167828.1895013,-0.8616717305151915,8.282962351387054,5.191143328929987,-0.45666666666666667,-0.3566666666666667,-0.19111111111111112,0.045971744820828345,-0.15301063212192773,-0.020812244374631847
1592167828.1995013,-0.8098651281566254,8.468553485292727,4.955786058829093,-0.45666666666666667,-0.3566666666666667,-0.19111111111111112,0.12699705152339605,-0.15768238039513335,-0.0377194077128905
1592167828.2095013,-0.6272606837606838,8.555478632478632,4.710412393162393,-0.4465603038936372,-0.36677302943969614,-0.19111111111111112,0.18838010518812337,-0.15298031546110805,-0.020461778955828465
1592167828.2195013,-0.59,8.63,4.58,-0.43,-0.38333333333333336,-0.19111111111111112,0.17889624832941878,-0.15162547876700738,-0.02181661564992912
1592167828.2295012,-0.6077950244524771,8.927108836305095,4.028087846663224,-0.43,-0.38333333333333336,-0.19111111111111112,0.22905849335019166,-0.11033958303695607,-0.031200954574211452
1592167828.2395012,-0.7240750122877991,9.046644107527696,3.9838353056826343,-0.43,-0.38333333333333336,-0.19111111111111112,0.23625838245650752,-0.09910871360096869,-0.028798732768200982
1592167828.2495012,-0.9233409133194137,8.819979534037584,4.2033477353068855,-0.43,-0.38333333333333336,-0.19111111111111112,0.14289188698203192,-0.10072186131657851,0.017094064554649256
1592167828.2595012,-0.7949062476277233,8.621594929021484,4.31895695741289,-0.4422700473190111,-0.3808793238695311,-0.19929114265711853,0.06374317250757587,-0.12394654819898411,0.0668753879746622
1592167828.2695012,-0.46,8.59,4.3,-0.4633333333333333,-0.37666666666666665,-0.21333333333333335,0.032724923474893676,-0.13635384781205698,0.08617563181722002
1592167828.2795012,-0.6755150397275823,8.62963535754824,4.512789443813848,-0.4633333333333333,-0.37666666666666665,-0.21333333333333335,-0.004105783058749429,-0.1257030800583288,0.02196179148335444
1592167828.2895012,-0.67,8.58,4.59,-0.4633333333333333,-0.37666666666666665,-0.21333333333333335,-0.01854412330243975,-0.1112647398146385,0.008726646259971648
1592167828.2995012,-0.4965430879893615,8.389536579960104,4.586821140013298,-0.4633333333333333,-0.37666666666666665,-0.21333333333333335,-0.06185081528341363,-0.10145231790061783,-0.021735733594770306
1592167828.3095012,-0.5200987738419619,8.666112212038643,4.511845120138717,-0.46091707263369386,-0.38059309030358074,-0.2169577243827925,-0.024168947512914186,-0.09185260622363743,-0.06472923527203897
1592167828.3195012,-0.4017726654526175,8.814782738987114,4.49,-0.45444444444444443,-0.39111111111111113,-0.22666666666666666,0.018525918063129282,-0.06736154794953553,-0.07320243747057445
1592167828.3295012,-0.29932118352181813,8.583356385431074,4.471571339462479,-0.45444444444444443,-0.39111111111111113,-0.22666666666666666,-0.03987394317969024,-0.05756857753576311,-0.04658622231979189
1592167828.3395011,-0.23995964299573147,8.400131160263873,4.450080714008537,-0.45444444444444443,-0.39111111111111113,-0.22666666666666666,-0.08398186402002711,-0.05343419984387179,-0.035980907323928495
1592167828.3495011,-0.2773468088492758,8.585247720606626,4.581564539232851,-0.45444444444444443,-0.39111111111111113,-0.22666666666666666,-0.0679771040247347,-0.030659882412829263,-0.021242045132948764
1592167828.3595011,-0.4191624340849536,8.638769046617709,4.743299472679628,-0.4580076132552597,-0.4023096416593877,-0.22768471489832817,-0.09107051924718787,-0.023133086884797944,-0.017002011615198553
1592167828.369501,-0.4250831719941523,8.575249515982456,4.840653127346004,-0.4622222222222222,-0.41555555555555557,-0.2288888888888889,-0.12841357033894568,-0.02816467411924796,-0.0080115226145024
1592167828.379501,-0.2594799355442354,8.257556398794053,5.0670363343382885,-0.4622222222222222,-0.41555555555555557,-0.2288888888888889,-0.16032751641071935,-0.052594311485925714,0.012233572533556846
1592167828.389501,-0.2,8.29,5.04,-0.4622222222222222,-0.41555555555555557,-0.2288888888888889,-0.1461713248545251,-0.056723200689815706,0.016362461737446838
1592167828.399501,-0.1941429130094725,8.222755062136091,5.221734813591727,-0.4622222222222222,-0.41555555555555557,-0.2288888888888889,-0.06755356155980437,-0.024710630383868722,-0.012039237801081943
1592167828.409501,-0.2692546757234577,8.200970503396297,5.287088489811111,-0.4622222222222222,-0.41555555555555557,-0.2366088727603569,-0.0130238922670948,0.0019131915343142919,-0.043283459002800194
1592167828.419501,-0.32,8.22,5.23,-0.4622222222222222,-0.41555555555555557,-0.25,0.038179077387375956,0.01090830782496456,-0.05781403147231216
1592167828.429501,-0.3632825415269232,8.435228563128845,4.952977790688462,-0.4622222222222222,-0.41555555555555557,-0.25,0.15706491235493647,0.005616567199822577,-0.0925748248046377
1592167828.439501,-0.39206478310502285,8.549466324200914,4.771067351598173,-0.4622222222222222,-0.41555555555555557,-0.25,0.1925025256111486,-0.013598650182936694,-0.11321354138382453
1592167828.449501,-0.3330988984137973,8.511627130378123,4.689533912972654,-0.4622222222222222,-0.41555555555555557,-0.25,0.1856017780121983,-0.03828076180272626,-0.10197973994324791
1592167828.459501,-0.17187122042926523,8.495399028669905,4.548558044806517,-0.4639809215450763,-0.4098397827562797,-0.26187122042926525,0.1728063261767605,-0.06428877780733382,-0.07508661829439994
1592167828.469501,-0.19,8.58,4.47,-0.4666666666666667,-0.4011111111111111,-0.28,0.17016960206944715,-0.074176493209759,-0.06981317007977318
1592167828.479501,-0.3897674418604651,8.620232558139536,4.4476744186046515,-0.4666666666666667,-0.4011111111111111,-0.28,0.1738479849406561,-0.06702267272920086,-0.05575921069598163
1592167828.489501,-0.5081658219374582,8.501834178062541,4.5428994931624755,-0.4666666666666667,-0.4011111111111111,-0.28,0.12251509929263987,-0.05916304396913192,-0.042155127945876836
1592167828.499501,-0.62,8.39,4.61,-0.4666666666666667,-0.4011111111111111,-0.28,0.08835729338221293,-0.056723200689815706,-0.04581489286485115
1592167828.509501,-0.5220485175202156,8.469245283018868,4.712425876010782,-0.4607487271638215,-0.40329140461215934,-0.28373764600179696,0.10625750309606313,-0.06091304938269294,-0.04498868410506273
1592167828.519501,-0.5874351297405189,8.582769461077845,4.757230538922156,-0.44555555555555554,-0.4088888888888889,-0.29333333333333333,0.13120179523903855,-0.06883991387263563,-0.037339725557730484
1592167828.529501,-0.4481875575430751,8.5103958963567,4.669875049322636,-0.44555555555555554,-0.4088888888888889,-0.29333333333333333,0.1207572488546925,-0.08443256945018734,-0.012594554594224172
1592167828.539501,-0.2635781468881329,8.426421853111867,4.570579097458475,-0.44555555555555554,-0.4088888888888889,-0.29333333333333333,0.10260126328804386,-0.09823794015805803,-0.007888494410983226
1592167828.549501,-0.0747589697538675,8.559506510469815,4.576885995346749,-0.44555555555555554,-0.4088888888888889,-0.29333333333333333,0.1204554310729847,-0.09499199700558589,-0.009925139756541183
1592167828.559501,0.05064834208745529,8.588066574291883,4.573224309605903,-0.4513616329570314,-0.4124370473009019,-0.2910754143438705,0.14701620638992563,-0.07797719469489456,0.0023224751542263345
1592167828.569501,-0.07,8.51,4.63,-0.46555555555555556,-0.4211111111111111,-0.28555555555555556,0.13308135546456762,-0.06326818538479445,0.0
1592167828.579501,-0.01811187335092347,8.50747018469657,4.768212664907652,-0.46555555555555556,-0.4211111111111111,-0.28555555555555556,0.10050540666329404,-0.022493506371373755,-0.00815273687203024
1592167828.589501,-0.24,8.39,4.84,-0.46555555555555556,-0.4211111111111111,-0.28555555555555556,0.09053895494720585,-0.0032724923474893677,-0.015271630954950384
1592167828.599501,-0.2281232967964634,8.44343608066372,4.827656391933628,-0.46555555555555556,-0.4211111111111111,-0.28555555555555556,0.1246949125916157,0.0075675766233409434,-0.0016194341811240002
1592167828.609501,-0.2877988275223696,8.52990805307004,4.79275285405739,-0.46734450958209056,-0.42193678220028114,-0.28734450958209057,0.1657661595228388,0.011448708289134973,0.014420910842072246
1592167828.6195009,-0.11179630558940903,8.603237269099338,4.574101847205295,-0.48,-0.42777777777777776,-0.3,0.19034630911523176,0.01950920629668943,0.0424480896761767
1592167828.6295009,-0.175427357945264,8.596285340906235,4.461712698851499,-0.48,-0.42777777777777776,-0.3,0.172569287238099,0.036589805115915905,0.054697524828936916
1592167828.6395009,-0.1275053426414019,8.55499786294344,4.331247328679299,-0.48,-0.42777777777777776,-0.3,0.15803346854322695,0.056041955963348516,0.06913192535330599
1592167828.6495008,-0.22110615592896393,8.610876005415305,4.262672612885243,-0.48,-0.42777777777777776,-0.3,0.1512132790327599,0.06828503403653871,0.07085622217863716
1592167828.6595008,-0.29468855810387784,8.780622883792244,4.229229860090717,-0.4794790490995691,-0.4337687131327328,-0.30703283715581675,0.13507154845644936,0.08411379926458913,0.05801786971666163
1592167828.6695008,-0.31,8.75,4.39,-0.4777777777777778,-0.4533333333333333,-0.33,0.07744898555724837,0.0916297857297023,0.04799655442984406
1592167828.6795008,-0.26579642288603805,8.502791459874521,4.49,-0.4777777777777778,-0.4533333333333333,-0.33,-0.0679395847054357,0.0801124758328917,0.026534594129369732
1592167828.6895008,-0.071453805391291,8.492872283234774,4.498563858382613,-0.4777777777777778,-0.4533333333333333,-0.33,-0.09101663846781062,0.07885120701776797,0.02804442921039195
1592167828.6995008,0.033704059572423735,8.508982104251741,4.486295940427576,-0.4777777777777778,-0.4533333333333333,-0.33,-0.0441010203112567,0.07871151148032393,0.05466285900286648
1592167828.7095008,0.07143582999581563,8.611435829995816,4.414389383704944,-0.4789768930865231,-0.4555317113993663,-0.33,0.01768183946791688,0.08145947914786612,0.0858462112234504
1592167828.7195008,-0.15,8.39,4.48,-0.48444444444444446,-0.46555555555555556,-0.33,0.08835729338221293,0.10471975511965977,0.09926560120717749
1592167828.7295008,0.04858684293664487,8.761149724173126,4.220898199227198,-0.48444444444444446,-0.46555555555555556,-0.33,0.10044004229096909,0.11829961619253868,0.09241231346715675
1592167828.7395008,-0.017145685997171145,8.596030174446016,4.241587930221593,-0.48444444444444446,-0.46555555555555556,-0.33,0.07353624085656248,0.14389428631234502,0.05999569303730508
1592167828.7495008,0.18811980231427267,8.703922950201457,4.213175475854951,-0.48444444444444446,-0.46555555555555556,-0.33,0.02384888689677453,0.15716521817624865,0.05557261378006025
1592167828.7595007,-0.12448356807511737,8.509102112676056,4.362206572769954,-0.48481220657276997,-0.46531038080333853,-0.3307968179447053,-0.024457271153331628,0.1530773591746963,0.03527531657199806
1592167828.7695007,0.006914521014767139,8.812794869367664,4.474410261264673,-0.49777777777777776,-0.45666666666666667,-0.35888888888888887,-0.002181661564992912,0.1664318751431488,-0.0023816489294381984
1592167828.7795007,-0.13169881946443995,8.756927728188886,4.50509645839332,-0.49777777777777776,-0.45666666666666667,-0.35888888888888887,-0.0036076252138653305,0.16656197685558177,-0.0253099125007571
1592167828.7895007,-0.026983825831238442,8.697570080159371,4.360195418109377,-0.49777777777777776,-0.45666666666666667,-0.35888888888888887,-0.022093734165844835,0.1549711829703632,0.007425441338992498
1592167828.7995007,0.19820796110364455,8.614965807573721,4.414897422721164,-0.49777777777777776,-0.45666666666666667,-0.35888888888888887,-0.0837761102424017,0.12201486467155863,0.06157599198438009
1592167828.8095007,0.28939560439560436,8.639835164835166,4.489505494505495,-0.49777777777777776,-0.45666666666666667,-0.35888888888888887,-0.11000009533602997,0.10483363305849182,0.10226838264690674
1592167828.8195007,0.23,8.62,4.57,-0.5044444444444445,-0.4633333333333333,-0.3888888888888889,-0.15707963267948966,0.10362892433716332,0.11780972450961724
1592167828.8295007,0.28542598911259864,8.424361732607506,4.65382960435496,-0.5044444444444445,-0.4633333333333333,-0.3888888888888889,-0.17759067790547445,0.10709871121630311,0.1355183577490223
1592167828.8395007,0.5625588368274517,8.510931394712419,4.548650976846012,-0.5044444444444445,-0.4633333333333333,-0.3888888888888889,-0.12437459299155532,0.1218179948484414,0.15506031211142063
1592167828.8495007,0.67,8.69,4.52,-0.5044444444444445,-0.4633333333333333,-0.3888888888888889,-0.061086523819801536,0.13744467859455345,0.15271630954950383
1592167828.8595006,0.5558281576729814,8.649114259854562,4.615057582472457,-0.5031650420121442,-0.4640222423353412,-0.3901682913211892,-0.05658310616498899,0.17756870376050185,0.13226781992015468
1592167828.8695006,0.41,8.64,4.77,-0.49,-0.4711111111111111,-0.4033333333333333,-0.1112647398146385,0.23125612588924865,0.10144726277217041
1592167828.8795006,0.13969943909408403,8.305564610011642,4.746653084982538,-0.49,-0.4711111111111111,-0.4033333333333333,-0.08498996375164378,0.22684760641559182,0.10250530744584804
1592167828.8895006,0.18022001859312053,8.512004958165479,4.479779981406879,-0.49,-0.4711111111111111,-0.4033333333333333,0.06940516488780751,0.2023851106112072,0.10639200175151908
1592167828.8995006,0.15,8.58,4.51,-0.49,-0.4711111111111111,-0.4033333333333333,0.12544553998709243,0.1974403716318585,0.10144726277217041
1592167828.9095006,-0.01831425148106237,8.645617053850762,4.558651401184849,-0.49,-0.4708488835637208,-0.403558099802525,0.10324866201885578,0.17586870823146358,0.10595769521223662
1592167828.9195006,0.03,8.52,4.52,-0.49,-0.4633333333333333,-0.41,0.061086523819801536,0.15162547876700738,0.11017390903214205
1592167828.9295006,0.27679198591348214,8.606918336268023,4.41276733450721,-0.49,-0.4633333333333333,-0.41,0.027524568243971634,0.14680935158713218,0.06766579651420153
1592167828.9395006,0.10787069372345447,8.656762623879189,4.443525247758377,-0.49,-0.4633333333333333,-0.41,0.004743131979124987,0.14103891197038648,0.06315204974320351
1592167828.9495006,0.3468829104609407,8.701039029846353,4.5351951492317655,-0.49,-0.4633333333333333,-0.41,-0.02049910371936576,0.12103964189926855,0.07975837199575547
1592167828.9595006,0.32219167598751985,8.709269441337494,4.576347206687467,-0.49,-0.4633333333333333,-0.41,-0.01870350647793608,0.11206165569212016,0.1066923306172006
1592167828.9695005,0.3882978723404255,8.532553191489361,4.505957446808511,-0.5044444444444445,-0.4622222222222222,-0.44555555555555554,-0.01951890825701105,0.10351287850923817,0.1436879441369268
1592167828.9795005,0.24621453556160122,8.559321803342403,4.415178779634668,-0.5044444444444445,-0.4622222222222222,-0.44555555555555554,-0.02934347523502126,0.10938302491836548,0.1320255007953848
1592167828.9895005,0.2787781937295274,8.612883247543285,4.47532686008423,-0.5044444444444445,-0.4622222222222222,-0.44555555555555554,-0.056723200689815706,0.10266670132988913,0.11370361693007594
1592167828.9995005,0.13161260045755852,8.414976828767525,4.585852642693729,-0.5044444444444445,-0.4622222222222222,-0.44555555555555554,-0.055185018584480466,0.10362892433716332,0.11128496052956012
1592167829.0095005,0.24643280342582274,8.464185487182496,4.54484542734792,-0.5044444444444445,-0.4622222222222222,-0.44555555555555554,-0.03997616143123297,0.10362892433716332,0.06834230503803777
1592167829.0195005,0.25,8.56,4.51,-0.5133333333333333,-0.4688888888888889,-0.4577777777777778,-0.007635815477475192,0.1112647398146385,0.006544984694978735
1592167829.0295005,0.12078602620087336,8.67927443735304,4.529879072892173,-0.5133333333333333,-0.4688888888888889,-0.4577777777777778,0.009711948233143624,0.11343321027846585,-0.015139719943294785
1592167829.0395005,0.28217628361290925,8.609962413865107,4.278893065126099,-0.5133333333333333,-0.4688888888888889,-0.4577777777777778,-0.00532520602642814,0.10157211064693097,-0.005574901775949266
1592167829.0495005,0.3665218330322783,8.68716249116469,4.282768789758894,-0.5133333333333333,-0.4688888888888889,-0.4577777777777778,-0.022822569294456647,0.09373406624511618,-0.005074744752976965
1592167829.0595005,0.2100549752611325,8.654222100054975,4.4310005497526115,-0.5133333333333333,-0.4688888888888889,-0.4577777777777778,-0.03450059689269027,0.09283575642986742,0.011993141736749105
1592167829.0695004,0.18198654804779738,8.625196412812747,4.4884062775776945,-0.4922222222222222,-0.4488888888888889,-0.46555555555555556,-0.0674576603670797,0.06662637898917181,0.025351103035931598
1592167829.0795004,0.05,8.594586814384307,4.547706592807846,-0.4922222222222222,-0.4488888888888889,-0.46555555555555556,-0.07392632129355896,0.050018187196333254,0.028771801059611617
1592167829.0895004,0.050698683742440416,8.614628957666312,4.52930131625756,-0.4922222222222222,-0.4488888888888889,-0.46555555555555556,-0.0714613296313274,0.0406655972457624,0.04135152840589785
1592167829.0995004,0.07846994323795502,8.417915689959123,4.515250586024526,-0.4922222222222222,-0.4488888888888889,-0.46555555555555556,-0.06545274208175818,0.04593291704045011,0.05097253877235062
1592167829.1095004,0.3628623181386698,8.539798136345144,4.442121118192913,-0.4922222222222222,-0.4488888888888889,-0.46555555555555556,-0.08229347116784526,0.06454635445138844,-0.003981419298038746
1592167829.1195004,0.06103134078704111,8.619595474953782,4.49,-0.4988888888888889,-0.4622222222222222,-0.4866666666666667,-0.07424486820026321,0.09283311833997361,-0.03754819325799745
1592167829.1295004,0.07142403552330023,8.784873472116118,4.4885759644767,-0.4988888888888889,-0.4622222222222222,-0.4866666666666667,-0.09517842326477743,0.0933765003951236,-0.011319114155987324
1592167829.1395004,0.1202974828375286,8.607917620137298,4.442379862700229,-0.4988888888888889,-0.4622222222222222,-0.4866666666666667,-0.14255435962835264,0.07805306118508394,0.049282087274204876
1592167829.1495004,0.13725848971860416,8.54072584897186,4.52072584897186,-0.4988888888888889,-0.4622222222222222,-0.4866666666666667,-0.1664484352941868,0.061992606308509945,0.05565876252071754
1592167829.1595004,0.382975062977211,8.565297506297721,4.545297506297721,-0.4988888888888889,-0.4622222222222222,-0.4866666666666667,-0.1512597738543182,0.05573845159797582,0.05655221319365099
1592167829.1695004,0.08107392051774699,8.659731519870563,4.599194559611689,-0.49333333333333335,-0.47555555555555556,-0.49333333333333335,-0.1322541044327816,0.05752116508263393,0.04032422717271407
1592167829.1795003,0.11844877215076009,8.64146824682918,4.57310245569848,-0.49333333333333335,-0.47555555555555556,-0.49333333333333335,-0.14307709704100177,0.04715954271064011,0.08090879426380815
1592167829.1895003,0.09956246892534981,8.535405923716173,4.613281483059876,-0.49333333333333335,-0.47555555555555556,-0.49333333333333335,-0.1579556908979489,0.05056003388645871,0.10855807864866569
1592167829.1995003,0.07828771112405358,8.330489225393128,4.761100757134537,-0.49333333333333335,-0.47555555555555556,-0.49333333333333335,-0.14805947225439664,0.06795170578582174,0.08453779736336105
1592167829.2095003,-0.03570995923121725,8.363059988351775,4.834384973791496,-0.49333333333333335,-0.47555555555555556,-0.49333333333333335,-0.12851841728981744,0.08926922029263543,0.04812037674755435
1592167829.2195003,-0.07,8.41,4.86,-0.49333333333333335,-0.45666666666666667,-0.5077777777777778,-0.09381144729469522,0.1112647398146385,0.007635815477475192
1592167829.2295003,-0.19441359938715208,8.468059679714004,4.86,-0.49333333333333335,-0.45666666666666667,-0.5077777777777778,-0.08838287993578771,0.11307426226760767,-0.021316543770031518
1592167829.2395003,-0.1501143610137186,8.399961879662094,4.860114361013719,-0.49333333333333335,-0.45666666666666667,-0.5077777777777778,-0.09160275688498459,0.10467817228163251,-0.03930525358219558
1592167829.2495003,-0.20933218815445795,8.380222603948514,4.919332188154458,-0.49333333333333335,-0.45666666666666667,-0.5077777777777778,-0.07760682066282219,0.083145962709075,-0.05760763171886947
1592167829.2595003,-0.2863157894736842,8.447836257309943,4.894561403508772,-0.49333333333333335,-0.45666666666666667,-0.5077777777777778,-0.04692486102949667,0.06995351088219963,-0.05688905800177423
1592167829.2695003,-0.29420100409504196,8.556520602457026,4.85,-0.4888888888888889,-0.4633333333333333,-0.5288888888888889,-0.021231842726688592,0.041614627775392585,-0.009432305735468105
1592167829.2795002,-0.15055492478001703,8.47,4.8494450752199825,-0.4888888888888889,-0.4633333333333333,-0.5288888888888889,-0.033987264149793715,0.018493679216438696,0.027301036014012032
1592167829.2895002,-0.21016945724238678,8.469895718620071,4.790195527587369,-0.4888888888888889,-0.4633333333333333,-0.5288888888888889,-0.05233997072545777,0.013067218722103629,0.03056316874427288
1592167829.2995002,-0.3327133385773683,8.394484099337005,4.931592313743118,-0.4888888888888889,-0.4633333333333333,-0.5288888888888889,-0.037944240482880316,-0.003385044412270605,0.044958898986850335
1592167829.3095002,-0.2467619948002836,8.36669049870007,4.955539667533286,-0.4888888888888889,-0.4633333333333333,-0.5288888888888889,-0.013356639831782612,-0.01707668390128773,0.04751000763435807
1592167829.3195002,-0.3488122697246506,8.410890797706513,4.849208179816434,-0.4688888888888889,-0.4633333333333333,-0.5277777777777778,0.04051189377269518,-0.026244719417197644,0.04141917941622398
1592167829.3295002,-0.23908325884584358,8.493187555865617,4.7760555058972285,-0.4688888888888889,-0.4633333333333333,-0.5277777777777778,0.05447640176596915,-0.0322295085571722,0.03842678484623669
1592167829.3395002,-0.07968386819073127,8.48031613180927,4.433477449901956,-0.4688888888888889,-0.4633333333333333,-0.5277777777777778,0.03520426931196678,-0.035514630989955755,0.016453238224201052
1592167829.3495002,-0.06803002897874244,8.491125697726433,4.543939942042515,-0.4688888888888889,-0.4633333333333333,-0.5277777777777778,0.010294334959074922,-0.02035740114789888,-0.01491756761152149
1592167829.3595002,-0.010928097710873837,8.523755372736643,4.658143804578252,-0.4688888888888889,-0.4633333333333333,-0.5277777777777778,-0.0075023920029216335,-0.009679364970700948,-0.036273639965917356
1592167829.3695002,0.0,8.48,4.84,-0.4633333333333333,-0.4711111111111111,-0.5555555555555556,-0.011999138607461015,-0.002181661564992912,-0.044724062082354694
1592167829.3795002,-0.015855920684416727,8.472072039657792,4.879639801711042,-0.4633333333333333,-0.4711111111111111,-0.5555555555555556,-0.002486269105399794,-0.0013168552466237098,-0.030022354670078258
1592167829.3895001,0.13747801325504624,8.47,4.788102462011441,-0.4633333333333333,-0.4711111111111111,-0.5555555555555556,0.021220112664263394,-0.009174683226025366,0.011207878771406273
1592167829.3995001,0.0589360311792574,8.460893603117926,4.7617872062358515,-0.4633333333333333,-0.4711111111111111,-0.5555555555555556,0.046747937720256816,-0.007830769435148833,0.03504123004930626
1592167829.4095001,0.11842728904847398,8.51322122481548,4.630748454019549,-0.4633333333333333,-0.4711111111111111,-0.5555555555555556,0.06484526601101054,-0.0026596425936846555,0.038746970899476346
1592167829.4195,0.038857994346810865,8.61275255007988,4.534831633280079,-0.48172278890664044,-0.4578298376415004,-0.5627070105007306,0.060786267184051695,0.015959985798310795,0.02522805922097232
1592167829.4295,-0.02,8.63,4.52,-0.48333333333333334,-0.45666666666666667,-0.5633333333333334,0.022907446432425576,0.02945243112740431,0.020725784867432664
1592167829.4395,0.06962419582614153,8.556671112505883,4.471114075003923,-0.48333333333333334,-0.45666666666666667,-0.5633333333333334,-0.02064234221774382,0.03656260070294217,0.01717070007966373
1592167829.4495,0.05083442942073973,8.54,4.626453674961856,-0.48333333333333334,-0.45666666666666667,-0.5633333333333334,-0.04442824016051653,0.038179077387375956,0.036655891488346797
1592167829.4595,0.1556560173128416,8.509812566482045,4.6601874335179545,-0.48333333333333334,-0.45666666666666667,-0.5633333333333334,-0.04307759299605718,0.03570937375792969,0.05931557926989596
1592167829.4695,0.17248390459255628,8.438693666073947,4.687516095407444,-0.45997853945674166,-0.46931718001648715,-0.5711182646255305,-0.05305130335013322,0.040638713857761924,0.056031774899512374
1592167829.4795,0.11587759182993311,8.466081605446712,4.644897993191611,-0.45666666666666667,-0.4711111111111111,-0.5722222222222222,-0.055525512272401906,0.05325924750581466,0.03486207617324058
1592167829.4895,0.11,8.52354660627079,4.595377828107674,-0.45666666666666667,-0.4711111111111111,-0.5722222222222222,-0.05076484603911957,0.0633030820875822,0.011307818454815103
1592167829.4995,0.0838670891975021,8.53,4.616132910802498,-0.45666666666666667,-0.4711111111111111,-0.5722222222222222,-0.053979093800116826,0.06340879671597094,0.008726646259971648
1592167829.5095,0.044921965317919074,8.508953179190751,4.67612485549133,-0.45666666666666667,-0.4711111111111111,-0.5722222222222222,-0.0652555151306166,0.05408477737982832,0.0033696582570747454
1592167829.5195,0.09238520365192199,8.410878280497254,4.753473031701647,-0.4754812518950241,-0.48200376571700226,-0.5771734288612635,-0.06786883577932099,0.041428711642802096,0.00303516508294865
1592167829.5295,0.03775026416134516,8.542285110488354,4.733321541783434,-0.4777777777777778,-0.48333333333333334,-0.5777777777777777,-0.06084111570927252,0.028720065571498435,-0.012248405493671214
1592167829.5395,0.03,8.627902233806617,4.636634428515902,-0.4777777777777778,-0.48333333333333334,-0.5777777777777777,-0.055366327610022005,0.008753307853279116,0.011743646220331267
1592167829.5495,0.10581330472103004,8.513644492131617,4.653694802098236,-0.4777777777777778,-0.48333333333333334,-0.5777777777777777,-0.07935138507856783,-0.009247977023070335,0.046685606792024104
1592167829.5595,0.12684980903821175,8.421501909617882,4.762747135573176,-0.4777777777777778,-0.48333333333333334,-0.5777777777777777,-0.10342112489029702,-0.011251940352150634,0.03143832641113921
1592167829.5695,0.2079945360720429,8.36400182130932,4.879328476508483,-0.46718592720009294,-0.4727414827556485,-0.5777777777777777,-0.10762896832969525,-0.0014551032900851583,-0.004652357047733209
1592167829.5795,0.13007906073947828,8.431936751408417,4.952944657482365,-0.46555555555555556,-0.4711111111111111,-0.5777777777777777,-0.1000352196871067,0.00980885285363712,-0.035210548964791866
1592167829.5895,0.22109541267996063,8.36417844049003,4.95157538227667,-0.46555555555555556,-0.4711111111111111,-0.5777777777777777,-0.08364288622344232,0.007232374887615105,-0.017042462997616595
1592167829.5995,0.28176260800880826,8.316589913592955,4.95,-0.46555555555555556,-0.4711111111111111,-0.5777777777777777,-0.062499102555401316,0.002900509625111451,-0.015823325692357934
1592167829.6095,0.20970839138151492,8.350145804309243,4.95,-0.46555555555555556,-0.4711111111111111,-0.5777777777777777,-0.033359366096458246,0.01312973134714307,-0.03241963075126707
1592167829.6195,0.1105064078206501,8.41249542298525,4.9669981691941,-0.44761304362845,-0.4663893974460833,-0.5834438341758111,-0.0012565523542750826,0.03337782426484552,-0.06910103456703007
1592167829.6295,-0.168781127129751,8.4916749672346,4.97,-0.4444444444444444,-0.46555555555555556,-0.5844444444444444,0.011954819139233767,0.027201574005566276,-0.08004038775430351
1592167829.6395,-0.0341235156491414,8.408767933607027,4.8953555820421135,-0.4444444444444444,-0.46555555555555556,-0.5844444444444444,0.03480315041662246,0.0035620418771389155,-0.020105514205297978
1592167829.6495,0.03188759698953795,8.382028100752617,4.9517470932264604,-0.4444444444444444,-0.46555555555555556,-0.5844444444444444,0.050574699192081934,-0.016743618351709646,0.0036689755447343337
1592167829.6595,0.22281123551365156,8.477934590453742,4.88512335494009,-0.4444444444444444,-0.46555555555555556,-0.5844444444444444,0.07125571933201388,-0.03069659102165768,0.027910997882603778
1592167829.6694999,0.3028430055842228,8.52142150279211,4.771372022336891,-0.45588244072162926,-0.4884315481099252,-0.5968356070780614,0.11160185101708953,-0.04254779799773039,0.10383796104115342
1592167829.6794999,0.4273292480012987,8.4775569173329,4.691029990665963,-0.4577777777777778,-0.4922222222222222,-0.5988888888888889,0.11729762149058721,-0.03553104261132829,0.136528887173852
1592167829.6894999,0.5315160740720052,8.42303214814401,4.61303214814401,-0.4577777777777778,-0.4922222222222222,-0.5988888888888889,0.08079161427491081,0.010507415401533882,0.09120710898625696
1592167829.6994998,0.5646335333032982,8.49792544993242,4.627316766651649,-0.4577777777777778,-0.4922222222222222,-0.5988888888888889,0.07889890873899075,0.05428813364795092,0.05885201879362159
1592167829.7094998,0.4715828425294482,8.57326817265964,4.644059593924365,-0.4577777777777778,-0.4922222222222222,-0.5988888888888889,0.08499847036697523,0.0883684730451845,0.0563992017994241
1592167829.7194998,0.41417365447517096,8.52878144513827,4.65,-0.4366759837446724,-0.4763958766973932,-0.5988888888888889,0.07431856394503508,0.12366264956810046,0.053270427715234
1592167829.7294998,0.3957546236395464,8.49100616485273,4.6262577060659105,-0.4311111111111111,-0.4722222222222222,-0.5988888888888889,0.06883209485663895,0.138096487139601,0.04821606554856851
1592167829.7394998,0.31593509712666934,8.541183225414812,4.528816774585188,-0.4311111111111111,-0.4722222222222222,-0.5988888888888889,0.07741151721946432,0.15502704098500764,0.034315368882274946
1592167829.7494998,0.26794807632155143,8.621454488583048,4.470597435095402,-0.4311111111111111,-0.4722222222222222,-0.5988888888888889,0.08341596983134847,0.15897229403404325,0.03134509248195791
1592167829.7594998,0.24879721849987324,8.65680417225019,4.4319930462496835,-0.4311111111111111,-0.4722222222222222,-0.5988888888888889,0.07238464828780301,0.15192909089853052,0.046298499384301334
1592167829.7694998,0.36373445973364815,8.58533958018224,4.494660419817759,-0.42821673778400826,-0.48018174887175513,-0.5988888888888889,0.03627351387818813,0.14332978048540865,0.07273213941017356
1592167829.7794998,0.45358148649956453,8.532139504500144,4.5478604954998545,-0.4266666666666667,-0.48444444444444446,-0.5988888888888889,0.0038102276904044274,0.15038247218145578,0.07900658381335443
1592167829.7894998,0.46,8.552230182005419,4.446259150641384,-0.4266666666666667,-0.48444444444444446,-0.5988888888888889,-0.00028251855476284454,0.16322436851004077,0.07934812856747844
1592167829.7994998,0.4527662006716045,8.596168996641977,4.438935197313582,-0.4266666666666667,-0.48444444444444446,-0.5988888888888889,0.0007890850981816036,0.176366130900137,0.0819979024167861
1592167829.8094997,0.4775058951569019,8.61,4.565524759658988,-0.4266666666666667,-0.48444444444444446,-0.5988888888888889,-0.010310794529665667,0.18418767791113286,0.08830390935443902
1592167829.8194997,0.4644377593360996,8.474863485477178,4.766686721991701,-0.4211347625633933,-0.48128335638543107,-0.6186456892577225,-0.046789624852447045,0.19615721968775096,0.1020307893467739
1592167829.8294997,0.389386937410044,8.42,4.861287976037655,-0.41888888888888887,-0.48,-0.6266666666666667,-0.06493449549479768,0.2026736606350595,0.10021593559877474
1592167829.8394997,0.2668512241054614,8.412407317729352,4.790924401398978,-0.41888888888888887,-0.48,-0.6266666666666667,-0.049066900953901385,0.20533878473757636,0.10789141091701038
1592167829.8494997,0.26571115661158995,8.512122517975333,4.7578555783057945,-0.41888888888888887,-0.48,-0.6266666666666667,-0.00031985790955731813,0.19222252716392496,0.11064174927108046
1592167829.8594997,0.2812809973969037,8.528719002603095,4.782561994793808,-0.41888888888888887,-0.48,-0.6266666666666667,0.009677741903184066,0.18686787648921613,0.10648221126680057
1592167829.8694997,0.2956034394861163,8.486379363083303,4.833620636916698,-0.41515326256481133,-0.4868486482608088,-0.6241762491172816,-0.0004419601589960333,0.1793288287450857,0.08529171149922796
1592167829.8794997,0.3555144613765221,8.40448553862348,4.818364153967608,-0.4122222222222222,-0.4922222222222222,-0.6222222222222222,0.016586937859813158,0.16620635373974008,0.05652174106825468
1592167829.8894997,0.2769805852693087,8.428075726874322,4.7519242731256774,-0.4122222222222222,-0.4922222222222222,-0.6222222222222222,0.07147229075039413,0.1587878949658717,0.04418478939307661
1592167829.8994997,0.18278510217534608,8.490469912421132,4.76372492701761,-0.4122222222222222,-0.4922222222222222,-0.6222222222222222,0.13503984819304357,0.15192928628553393,0.03998004219373511
1592167829.9094996,0.19613015144561727,8.499677099586966,4.785161450206517,-0.4122222222222222,-0.4922222222222222,-0.6222222222222222,0.15148458688292027,0.14381354843442332,0.029135424388208323
1592167829.9194996,0.1405278265568013,8.426843171687153,4.768947723895718,-0.4028656550647635,-0.49514614945892804,-0.6222222222222222,0.14094692616257606,0.13049794459139202,0.022505512936956885
1592167829.9294996,0.10487999816265128,8.440525711398452,4.698708573528399,-0.39444444444444443,-0.49777777777777776,-0.6222222222222222,0.15134871875565625,0.10438066335233497,0.03348164802842496
1592167829.9394996,0.06691754554170662,8.571119100884202,4.459725151805689,-0.39444444444444443,-0.49777777777777776,-0.6222222222222222,0.15805838225502777,0.07469692419510154,0.02518120167965226
1592167829.9494996,0.15715043394406944,8.59798457087753,4.400038572806172,-0.39444444444444443,-0.49777777777777776,-0.6222222222222222,0.14167914273625015,0.05572756777213693,0.021928644076482515
1592167829.9594996,0.35967317852316005,8.49967317852316,4.565443543432854,-0.39444444444444443,-0.49777777777777776,-0.6222222222222222,0.0636175219660178,0.02835141443269877,0.03165446451681539
1592167829.9694996,0.4261268665354786,8.43,4.721257089940965,-0.3808317577908966,-0.4924839551902869,-0.6373474296150532,0.01290713306942791,0.02617993877991494,0.030800217650424004
1592167829.9794996,0.45011362686941264,8.469886373130587,4.746373966079037,-0.37444444444444447,-0.49,-0.6444444444444445,0.01109987991158897,0.028948711373468484,0.024801749867481872
1592167829.9894996,0.4426294103841239,8.574794116880069,4.670411766239862,-0.37444444444444447,-0.49,-0.6444444444444445,0.015271630954950384,0.042924832755604214,0.009435044804225676
1592167829.9994996,0.4757843565220842,8.566862573911664,4.651568713044168,-0.37444444444444447,-0.49,-0.6444444444444445,0.009592852218849146,0.049429625307837045,0.006716104742726999
1592167830.0094995,0.40867190584519353,8.50096354509391,4.698072909812179,-0.37444444444444447,-0.49,-0.6444444444444445,-0.003870460971175641,0.05809668070137017,0.00932461488365792
1592167830.0194995,0.3285687833569328,8.485357804160767,4.682862433286134,-0.38682363334906633,-0.49,-0.6346442532282854,0.01343821304789202,0.055009903676026484,0.015816036427709207
1592167830.0294995,0.3819346881240456,8.505547750499236,4.614452249500763,-0.4011111111111111,-0.49,-0.6233333333333333,0.062683316593108,0.03754595217930419,0.03375217264875925
1592167830.0394995,0.4314351983338067,8.545148158667045,4.5559907223326706,-0.4011111111111111,-0.49,-0.6233333333333333,0.09197522064094443,0.024090186653189745,0.03789828889001651
1592167830.0494995,0.5037351616864512,8.613735161686451,4.53,-0.4011111111111111,-0.49,-0.6233333333333333,0.08387890948380117,0.01523875644968583,0.019503456063878
1592167830.0594995,0.7577114789885392,8.555270147353102,4.593547389485174,-0.4011111111111111,-0.49,-0.6233333333333333,0.06249426505520809,0.010201659031719174,0.0103306457533169
1592167830.0694995,0.9197996786288163,8.457028387787895,4.65,-0.38196810093435696,-0.5014858061060525,-0.6182285306195322,0.05017821599483697,0.015153257994835878,0.016708466016715398
1592167830.0794995,0.8548369300665261,8.44676212883336,4.655409703066689,-0.36777777777777776,-0.51,-0.6144444444444445,0.055341652795482414,0.026921909028207194,0.01886608033527458
1592167830.0894995,0.4796194003733084,8.562182687820812,4.605786864209053,-0.36777777777777776,-0.51,-0.6144444444444445,0.09819968061199714,0.07769538325937259,-0.013779342121697897
1592167830.0994995,0.3867363807436698,8.616736380743669,4.56347276148734,-0.36777777777777776,-0.51,-0.6144444444444445,0.10398492997187864,0.0924330525125349,-0.02584674702355011
1592167830.1094995,0.3929896651252289,8.619003444958256,4.569003444958257,-0.36777777777777776,-0.51,-0.6144444444444445,0.10167219308838985,0.09447120677730875,-0.025640160188433504
1592167830.1194994,0.44612621712254047,8.578648539452951,4.549549513150984,-0.36777777777777776,-0.4960660175346451,-0.6080580358144901,0.07373422877994396,0.07559160716859617,-7.858071533235755e-05
1592167830.1294994,0.47852641334569046,8.567052826691382,4.531473586654309,-0.36777777777777776,-0.48333333333333334,-0.6022222222222222,0.06203379763184896,0.06974139159454867,0.01284026113854262
1592167830.1394994,0.5154395884394186,8.624560411560582,4.46192288092407,-0.36777777777777776,-0.48333333333333334,-0.6022222222222222,0.049297138982645594,0.06901004925808513,0.036458985293964276
1592167830.1494994,0.4982271337879144,8.5437949682577,4.495318598636256,-0.36777777777777776,-0.48333333333333334,-0.6022222222222222,0.04462736723048515,0.0725885944619491,0.056999691539458594
1592167830.1594994,0.37057121301934576,8.500264590181603,4.594582098399526,-0.36777777777777776,-0.48333333333333334,-0.6022222222222222,0.05026480292928852,0.07662250062962536,0.053070913241517505
1592167830.1694994,0.21676104840252536,8.550283145207576,4.66,-0.3628947983759539,-0.490469995535999,-0.6052271326233446,0.07880235032183408,0.08291858264514768,0.029006457264348078
1592167830.1794994,0.25997640132347216,8.572014159205917,4.612037757882445,-0.35333333333333333,-0.5044444444444445,-0.6111111111111112,0.13917147348934422,0.0720051285098792,0.021377194277396608
1592167830.1894994,0.24045010088468105,8.58259994235161,4.5122001729451675,-0.35333333333333333,-0.5044444444444445,-0.6111111111111112,0.14811847509455656,0.05525605372486515,0.004276106975096082
1592167830.1994994,0.1730239931853675,8.58943542662439,4.444153139936586,-0.35333333333333333,-0.5044444444444445,-0.6111111111111112,0.1273412140202586,0.04332530429131196,-0.02128005348281596
1592167830.2094994,0.14,8.58,4.4430235356783525,-0.35333333333333333,-0.5044444444444445,-0.6111111111111112,0.10397541896970638,0.029655193218443423,-0.025334221584441995
1592167830.2194993,0.16131672025723473,8.59279003215434,4.442946623794212,-0.3509648088603073,-0.5044444444444445,-0.6011633083244016,0.09116472703693315,0.012033301603671675,-0.010173066832595081
1592167830.2294993,0.21704443447037702,8.647862208258527,4.403773339317773,-0.3477777777777778,-0.5044444444444445,-0.5877777777777777,0.08876890085027611,-0.0002676158463700909,0.012891191428694652
1592167830.2394993,0.21898931618707673,8.664241987140308,4.332220619514461,-0.3477777777777778,-0.5044444444444445,-0.5877777777777777,0.06778522703494527,-0.00957524503020946,0.02004255884937099
1592167830.2494993,0.20530349406667922,8.628786023733284,4.338338434733472,-0.3477777777777778,-0.5044444444444445,-0.5877777777777777,0.022987707456048227,-0.0262635386621203,0.018031813978215395
1592167830.2594993,0.32915031921067905,8.584467788740568,4.394255368543239,-0.3477777777777778,-0.5044444444444445,-0.5877777777777777,-0.008053661279244003,-0.04296024631913059,0.01900831200222292
1592167830.2694993,0.47693718673349683,8.602251253066013,4.426125626533007,-0.3477777777777778,-0.5068634839382413,-0.5785854277013496,-0.014603428756522353,-0.05425978673544384,0.009185453619059418
1592167830.2794993,0.47370851072624315,8.67,4.457258297854751,-0.3477777777777778,-0.51,-0.5666666666666667,-0.01130707223782773,-0.057620420618757835,-0.0037651765106910696
1592167830.2894993,0.7579649485081936,8.62772430042623,4.38772430042623,-0.3477777777777778,-0.51,-0.5666666666666667,-0.02564764870544443,-0.07288157746869683,0.02005146991306599
1592167830.2994993,0.9018257332581903,8.607738599887284,4.39730293303276,-0.3477777777777778,-0.51,-0.5666666666666667,-0.045226484130787364,-0.07595984156701963,0.03728740320874564
1592167830.3094993,0.9404905464232344,8.61523585212137,4.4490565915145215,-0.3477777777777778,-0.51,-0.5666666666666667,-0.05235987755982988,-0.07324105496125147,0.03994601630122352
1592167830.3194993,1.2561746462132748,8.533355495301416,4.67187943394124,-0.34021621331616503,-0.51,-0.5678299842761455,-0.05178883536362199,-0.058648594205211985,0.06814404461397353
1592167830.3294992,1.2850718471542104,8.5,4.706196114634342,-0.3333333333333333,-0.51,-0.5688888888888889,-0.04891772280236325,-0.04930131309237895,0.07743331093975886
1592167830.3394992,1.3253833231113838,8.510766646222768,4.53465027599264,-0.3333333333333333,-0.51,-0.5688888888888889,-0.01393358087642349,0.005112311205463842,0.05571966313092054
1592167830.3494992,1.3206701859077348,8.524664907046132,4.406371738964119,-0.3333333333333333,-0.51,-0.5688888888888889,0.003877869632794952,0.029871621933041194,0.042163184307763134
1592167830.3594992,1.073832356597407,8.640467057361036,4.34,-0.3333333333333333,-0.51,-0.5688888888888889,0.043630616095531524,0.0919890373166566,0.0023932993966173793
1592167830.3694992,0.8865834210922221,8.711138859635925,4.34,-0.34178887718770373,-0.5128185146181234,-0.5726469083797201,0.053663426088718984,0.12439045208776547,-0.025000620565806916
1592167830.3794992,0.8008806470704282,8.739119352929572,4.334275794042218,-0.35333333333333333,-0.5166666666666667,-0.5777777777777777,0.046939853803611944,0.13592156119223475,-0.0323747988579827
1592167830.3894992,0.8341027546308581,8.715299081789714,4.177093572527998,-0.35333333333333333,-0.5166666666666667,-0.5777777777777777,0.012204092748432165,0.12294683636674415,0.01736963186070507
1592167830.3994992,0.7767604627910298,8.689074417940295,4.202776746179117,-0.35333333333333333,-0.5166666666666667,-0.5777777777777777,-0.0170692191191643,0.12289515237628065,0.04274433119785249
1592167830.4094992,0.71,8.67,4.26,-0.35333333333333333,-0.5166666666666667,-0.5777777777777777,-0.031634092692397225,0.1265363707695889,0.04690572364734761
1592167830.4194992,0.33641879690196236,8.60709458646013,4.469054135398692,-0.35946698413972383,-0.5131156056734932,-0.5790690726843862,-0.06239110823249704,0.15169919597226136,0.03705138800225251
1592167830.4294991,0.21741733494452378,8.6,4.54601779633088,-0.37444444444444447,-0.5044444444444445,-0.5822222222222222,-0.07120238256592955,0.16307087365855977,0.030142184174097666
1592167830.4394991,-0.030526458102371364,8.573834464483681,4.645639077413947,-0.37444444444444447,-0.5044444444444445,-0.5822222222222222,-0.08159088623139771,0.16569142359870903,-0.0037236254848303967
1592167830.4494991,-0.152799509202454,8.498600245398773,4.717624539877301,-0.37444444444444447,-0.5044444444444445,-0.5822222222222222,-0.08609928704687204,0.13506407090991604,-0.01700330809163003
1592167830.4594991,-0.23,8.46,4.79,-0.37444444444444447,-0.5044444444444445,-0.5822222222222222,-0.0839939702522271,0.11453723216212788,-0.019634954084936207
1592167830.469499,-0.24770963104935315,8.50819357930043,4.751806420699569,-0.368982058244157,-0.5044444444444445,-0.5749390406218389,-0.041660902618617046,0.06017863063858623,-0.01829428280697578
1592167830.479499,-0.2,8.54,4.72,-0.3477777777777778,-0.5044444444444445,-0.5466666666666666,-0.004363323129985824,0.01854412330243975,-0.01308996938995747
1592167830.489499,-0.01779465930018416,8.546199718910536,4.655395221479112,-0.3477777777777778,-0.5044444444444445,-0.5466666666666666,0.022645708368834415,-0.04105972919207848,-0.0037959684746716833
1592167830.499499,0.12550689986746016,8.55275344993373,4.55850229995582,-0.3477777777777778,-0.5044444444444445,-0.5466666666666666,0.030026748048909434,-0.0697339920768232,-0.0024820163595704724
1592167830.509499,0.1776471635625512,8.577058865425021,4.584117730850041,-0.3477777777777778,-0.5044444444444445,-0.5466666666666666,0.044339099543465765,-0.08367314223924188,-0.007443334208030729
1592167830.519499,0.1769387514259864,8.583387750285198,4.603387750285197,-0.3477777777777778,-0.5056689351323709,-0.5594013698211016,0.05683451082906262,-0.08123795008514478,-0.016455963970838906
1592167830.529499,0.06,8.56,4.58,-0.3477777777777778,-0.51,-0.6044444444444445,0.061086523819801536,-0.06763150851478027,-0.028361600344907853
1592167830.539499,-0.08808372827804108,8.62712559241706,4.44273486045287,-0.3477777777777778,-0.51,-0.6044444444444445,0.07912328730726499,-0.051373563186430445,-0.04986466676754593
1592167830.549499,-0.14568487747779843,8.705684877477799,4.290393903152752,-0.3477777777777778,-0.51,-0.6044444444444445,0.09945798646261612,-0.053364772005457486,-0.05415676861394552
1592167830.559499,-0.105462653487998,8.713865663372,4.2696806019768,-0.3477777777777778,-0.51,-0.6044444444444445,0.09053536752180094,-0.06703562545689828,-0.0445462700591624
1592167830.569499,0.04129329241560719,8.681613327487943,4.299679964927663,-0.3486740708266355,-0.508028155292513,-0.6001422378099274,0.060944012827612165,-0.08339618924472138,-0.031141042917406495
1592167830.579499,0.1,8.69,4.35,-0.35333333333333333,-0.49777777777777776,-0.5777777777777777,0.02617993877991494,-0.0916297857297023,-0.022907446432425576
1592167830.589499,0.1233748960931006,8.626724854530341,4.44330008312552,-0.35333333333333333,-0.49777777777777776,-0.5777777777777777,-0.008710324602378184,-0.06547160915991197,-0.01635974146118126
1592167830.599499,0.061711695210184075,8.558783771407638,4.498288304789816,-0.35333333333333333,-0.49777777777777776,-0.5777777777777777,-0.020659449888077625,-0.03526773104947764,-0.0212441767467599
1592167830.609499,-0.009825401702604515,8.529912700851302,4.559912700851302,-0.35333333333333333,-0.49777777777777776,-0.5777777777777777,-0.008271698037474389,-0.002808021265123587,-0.025639284818600977
1592167830.619499,-0.07058893451480441,8.560471147611844,4.589646639291117,-0.3531893715630478,-0.49777777777777776,-0.5774113296352328,0.022971689222187903,0.02505056232356109,-0.023882640193349843
1592167830.629499,-0.10618779007497323,8.6,4.553093895037486,-0.3411111111111111,-0.49777777777777776,-0.5466666666666666,0.0253482435928034,0.01955659808585078,-0.009660765044297245
1592167830.639499,-0.055928537398761316,8.6,4.488418294425917,-0.3411111111111111,-0.49777777777777776,-0.5466666666666666,0.018884728588217825,0.01377117996151362,0.0011598457076586902
1592167830.649499,0.010422182299546145,8.610211091149774,4.376385211800303,-0.3411111111111111,-0.49777777777777776,-0.5466666666666666,0.02302257879446809,0.00868059331515464,0.006939296919022226
1592167830.659499,0.0574145671578725,8.64977217908766,4.342585432842127,-0.3411111111111111,-0.49777777777777776,-0.5466666666666666,0.03381575425739013,0.004363323129985824,0.008739071963175492
1592167830.669499,0.07956795013996726,8.708847867039914,4.320432049860033,-0.3411111111111111,-0.49777777777777776,-0.5466666666666666,0.03381575425739013,0.004363323129985824,0.00551699301740188
1592167830.679499,0.06642266102491773,8.707154677950165,4.336788669487541,-0.3411111111111111,-0.49,-0.5688888888888889,-0.005134751274335223,0.006194682877402711,-0.0028423398703765787
1592167830.689499,0.07057884615384616,8.670578846153846,4.323719230769231,-0.3411111111111111,-0.49,-0.5688888888888889,-0.027360763101967354,0.005111591091748297,-0.008257798798648651
1592167830.699499,0.03091756612501483,8.64681959435417,4.370427707270786,-0.3411111111111111,-0.49,-0.5688888888888889,-0.040557530984177324,0.006444893757564519,-0.011652210169531232
1592167830.709499,-0.0077601425903921235,8.62880071295196,4.508959429638431,-0.3411111111111111,-0.49,-0.5688888888888889,-0.049462537676325885,0.01041964674280395,-0.01041964674280395
1592167830.7194989,-0.0006402987608215924,8.593201493804107,4.537438804956714,-0.3411111111111111,-0.49,-0.5688888888888889,-0.05412246456584368,0.008866337779631354,-0.008866337779631354
1592167830.7294989,0.0,8.57,4.62,-0.3477777777777778,-0.51,-0.5966666666666667,-0.039269908169872414,0.01090830782496456,-0.007635815477475192
